,timestamp_start,timestamp_end,acc.x,acc.y,acc.z,gyro.x,gyro.y,gyro.z,mag.x,mag.y,mag.z,stabilizer.pitch,stabilizer.roll,stabilizer.yaw
0,19691,19694,-0.13939957320690155,0.03688159957528114,1.1287245750427246,-7.920745849609375,-40.345115661621094,-21.720842361450195,-0.5939702987670898,0.5819708704948425,0.6719663739204407,-4.204452991485596,-5.162315368652344,-0.7065459489822388
1,19711,19704,-0.16741663217544556,0.056611426174640656,1.1293914318084717,20.898359298706055,-28.35470199584961,-6.524996280670166,-0.5999699831008911,0.6029698252677917,0.6959651708602905,-3.1952476501464844,-4.830231189727783,-0.8485479950904846
2,19721,19714,-0.18657998740673065,0.035588137805461884,1.017738938331604,42.96725845336914,-3.898921012878418,-10.017973899841309,-0.6029698252677917,0.6089695692062378,0.66896653175354,-2.9329912662506104,-4.64199161529541,-0.9083811640739441
3,19731,19724,-0.2047477811574936,0.006942687090486288,1.216312289237976,53.55363082885742,24.383623123168945,-8.98869514465332,-0.5879706144332886,0.6089695692062378,0.6659666895866394,-3.049626350402832,-4.010969638824463,-0.8759596943855286
4,19741,19734,-0.11548636853694916,0.043272797018289566,1.096832036972046,38.002967834472656,34.3411750793457,-7.392606258392334,-0.5879706144332886,0.6059696674346924,0.6809659600257874,-3.3365321159362793,-3.596118688583374,-1.0031591653823853
5,19751,19744,-0.19993296265602112,-0.004064215812832117,1.0320632457733154,0.6314635276794434,34.953739166259766,-1.8692917823791504,-0.5999699831008911,0.6059696674346924,0.6749662160873413,-3.7588841915130615,-3.2153656482696533,-1.0378531217575073
6,19761,19764,-0.0743793398141861,0.050251733511686325,1.0636690855026245,-21.15302848815918,19.968358993530273,-1.3379193544387817,-0.5909704566001892,0.5939702987670898,0.6659666895866394,-3.707771062850952,-3.4087331295013428,-1.3181356191635132
7,19771,19774,-0.16406796872615814,-0.0002249637764180079,1.19156014919281,-26.258230209350586,-4.753002643585205,-2.9306983947753906,-0.5894705057144165,0.5924703478813171,0.6614668965339661,-3.9583890438079834,-3.8329696655273438,-1.3809278011322021
8,19781,19784,-0.08777546882629395,-0.13509179651737213,1.1655008792877197,-23.46721649169922,-20.99077033996582,-2.8179757595062256,-0.5924703478813171,0.5714713931083679,0.6674666404724121,-3.850264549255371,-3.9655001163482666,-1.368137240409851
9,19791,19794,-0.09129595011472702,0.010439246892929077,1.1694555282592773,-19.32229232788086,-36.77280807495117,-6.544164657592773,-0.5894705057144165,0.5924703478813171,0.6614668965339661,-3.3598506450653076,-4.265846252441406,-1.5249314308166504
10,19801,19804,-0.13789384067058563,0.11115618795156479,1.0311418771743774,-15.827330589294434,-42.008460998535156,-4.3453474044799805,-0.5954701900482178,0.5984700918197632,0.6734663248062134,-2.872457265853882,-4.505543231964111,-1.6238648891448975
11,19811,19814,-0.18647313117980957,0.11459512263536453,1.1591418981552124,-22.17934226989746,-25.64215087890625,-4.0867156982421875,-0.6089695692062378,0.5939702987670898,0.6809659600257874,-2.455045223236084,-4.635023593902588,-1.626477599143982
12,19821,19824,-0.14851561188697815,0.014383574947714806,1.090530514717102,4.688014984130859,7.128740310668945,-11.316165924072266,-0.5894705057144165,0.5954701900482178,0.6794660091400146,-2.330251932144165,-4.92929220199585,-1.6338845491409302
13,19831,19834,-0.14414405822753906,0.0512753427028656,1.0572949647903442,38.660621643066406,29.27012825012207,-15.87781047821045,-0.5759711861610413,0.5879706144332886,0.6539672613143921,-2.589811325073242,-4.720950126647949,-1.651648759841919
14,19841,19844,-0.1871572583913803,-0.013295895420014858,1.08407723903656,67.22282409667969,43.804725646972656,-17.87214469909668,-0.5894705057144165,0.5804709792137146,0.6674666404724121,-2.897096872329712,-3.9822630882263184,-1.79168701171875
15,19851,19854,-0.06335096061229706,0.0005630602827295661,1.062525987625122,86.65717315673828,54.89362716674805,-18.68003273010254,-0.5789710283279419,0.5909704566001892,0.6779661178588867,-3.4547998905181885,-3.2708842754364014,-1.9468451738357544
16,19861,19864,-0.09221845865249634,0.03722168877720833,0.9576330780982971,85.18838500976562,57.559669494628906,-18.7251033782959,-0.577471137046814,0.5684715509414673,0.6674666404724121,-3.849571704864502,-2.200050115585327,-2.204519510269165
17,19871,19874,-0.1330927014350891,-0.014785527251660824,1.1366708278656006,52.590293884277344,44.602294921875,-20.30523681640625,-0.5954701900482178,0.5714713931083679,0.6464676856994629,-4.302236080169678,-1.6419981718063354,-2.509493589401245
18,19891,19884,-0.06300100684165955,0.05474907159805298,0.9968809485435486,-7.55492639541626,5.486588001251221,-20.81785011291504,-0.5789710283279419,0.5639718174934387,0.6539672613143921,-4.721506118774414,-1.0988388061523438,-3.016326665878296
19,19901,19894,-0.13446061313152313,0.06395427882671356,1.0133782625198364,-24.621105194091797,-30.463796615600586,-20.868925094604492,-0.577471137046814,0.5564721822738647,0.6494675278663635,-4.722385406494141,-1.2928917407989502,-3.2320761680603027
20,19911,19904,-0.11637254804372787,0.0026773361023515463,1.049986720085144,-32.17367935180664,-73.17224884033203,-17.955923080444336,-0.5879706144332886,0.554972231388092,0.6539672613143921,-4.260550498962402,-1.5548875331878662,-3.4562461376190186
21,19921,19914,-0.10009880363941193,-0.04096032306551933,1.0494539737701416,-28.677223205566406,-97.47393798828125,-16.869054794311523,-0.5879706144332886,0.5519723892211914,0.6659666895866394,-3.0751953125,-1.8989019393920898,-3.739177942276001
22,19931,19924,-0.11896144598722458,-0.024636894464492798,1.1706503629684448,-20.54713249206543,-93.94044494628906,-16.84062957763672,-0.6089695692062378,0.5639718174934387,0.6509674191474915,-2.0327701568603516,-2.2256920337677,-3.9060800075531006
23,19941,19934,-0.09419809281826019,-0.03620760142803192,1.0265541076660156,-11.220394134521484,-75.04156494140625,-14.528280258178711,-0.5954701900482178,0.562471866607666,0.6674666404724121,-1.3923333883285522,-2.204338550567627,-3.916438341140747
24,19951,19944,-0.2214624136686325,0.07366736978292465,1.1809923648834229,6.33565616607666,-33.48988342285156,-20.497419357299805,-0.5804709792137146,0.5594720244407654,0.6584670543670654,-0.7670377492904663,-2.316197156906128,-4.03638219833374
25,19961,19954,-0.11423128843307495,0.1286662518978119,1.1967958211898804,38.069705963134766,11.365426063537598,-28.516040802001953,-0.5819708704948425,0.554972231388092,0.6509674191474915,-0.5746736526489258,-2.0259480476379395,-4.216921806335449
26,19971,19964,-0.18476617336273193,0.07598555833101273,1.1868059635162354,56.201969146728516,45.069374084472656,-28.658897399902344,-0.5579720735549927,0.5609719157218933,0.6419678926467896,-0.9615532159805298,-1.4883016347885132,-4.44781494140625
27,19981,19974,-0.15204939246177673,-0.03428496792912483,1.097409725189209,57.49042510986328,74.82243347167969,-22.980186462402344,-0.5684715509414673,0.5564721822738647,0.6524673700332642,-1.6460161209106445,-1.030285358428955,-4.707625865936279
28,19991,19984,-0.16269320249557495,-0.003117890330031514,1.1273576021194458,51.35457229614258,93.38245391845703,-16.219192504882812,-0.5579720735549927,0.5639718174934387,0.6599670052528381,-2.473365545272827,-0.3002602756023407,-4.914796829223633
29,20001,19994,-0.04148726165294647,0.028152553364634514,1.0559313297271729,37.47874069213867,87.0875015258789,-9.881446838378906,-0.5804709792137146,0.5474725961685181,0.6524673700332642,-3.242783784866333,0.17426665127277374,-5.09586238861084
30,20011,20004,-0.09708916395902634,0.08045116066932678,1.0494757890701294,12.26773452758789,60.545433044433594,0.016317090019583702,-0.5714713931083679,0.5714713931083679,0.6644667387008667,-4.214191436767578,0.6029843091964722,-5.153260231018066
31,20021,20014,-0.1360042691230774,-0.017992256209254265,1.0482885837554932,-6.630090236663818,25.923744201660156,8.827188491821289,-0.5879706144332886,0.5369731187820435,0.6449677348136902,-4.6639204025268555,0.6504745483398438,-5.147042274475098
32,20031,20024,-0.08031011372804642,-0.040082577615976334,0.9507793188095093,-41.76066207885742,-12.006415367126465,10.692327499389648,-0.5579720735549927,0.509974479675293,0.6359682083129883,-4.852691650390625,0.3982912600040436,-5.067018032073975
33,20041,20034,-0.10846246778964996,-0.014225400052964687,0.8813101053237915,-57.71907043457031,-36.66582107543945,6.804616451263428,-0.554972231388092,0.49797508120536804,0.623968780040741,-4.614301681518555,0.0669911652803421,-4.958070755004883
34,20051,20044,-0.09570474922657013,0.10220149159431458,0.8819367289543152,-62.304481506347656,-63.756343841552734,-2.0890614986419678,-0.5744712948799133,0.4844757616519928,0.6254687309265137,-4.047613143920898,-0.5773152112960815,-4.901828765869141
35,20061,20054,-0.15316236019134521,0.08868775516748428,0.8418328762054443,-61.843868255615234,-77.83805084228516,-12.355842590332031,-0.5714713931083679,0.4844757616519928,0.6194689869880676,-3.0831313133239746,-1.3541011810302734,-4.92338228225708
36,20071,20064,-0.155698761343956,0.06563138961791992,0.8728270530700684,-41.888912200927734,-76.12382507324219,-20.496078491210938,-0.5609719157218933,0.5039747953414917,0.6449677348136902,-2.416147470474243,-1.7938076257705688,-5.016493320465088
37,20081,20074,-0.14685525000095367,0.042911138385534286,0.9043972492218018,-2.2422118186950684,-68.62451171875,-19.970775604248047,-0.5639718174934387,0.5129743218421936,0.6329683661460876,-1.499253511428833,-2.091679096221924,-5.172459602355957
38,20091,20084,-0.1130610853433609,-0.009969447739422321,1.0127407312393188,26.693456649780273,-43.438262939453125,-10.850800514221191,-0.5564721822738647,0.5054747462272644,0.6464676856994629,-1.1547892093658447,-1.9965866804122925,-5.352374076843262
39,20101,20094,-0.11747916042804718,-0.032687075436115265,0.94290691614151,39.76995849609375,-11.225574493408203,-4.852603912353516,-0.5489725470542908,0.5159741640090942,0.6359682083129883,-0.5466482043266296,-1.5839279890060425,-5.423038005828857
40,20111,20104,-0.08496996015310287,0.062114592641592026,0.8991438746452332,40.06261444091797,32.621665954589844,-4.844544410705566,-0.5324733853340149,0.4964751601219177,0.6284685730934143,-0.5498552322387695,-1.0734325647354126,-5.470526218414307
41,20121,20114,-0.11508394777774811,-0.024664366617798805,0.8339962363243103,26.04498863220215,66.48387145996094,-10.514261245727539,-0.5369731187820435,0.4949752390384674,0.6449677348136902,-0.9871747493743896,-0.6354316473007202,-5.531831741333008
42,20141,20124,-0.08483950048685074,-0.058714572340250015,0.8526046276092529,-4.081002712249756,88.45574188232422,-24.54009437561035,-0.5534723401069641,0.5264736413955688,0.6374680995941162,-2.8313217163085938,-0.3055320978164673,-5.8442487716674805
43,20151,20134,0.016953900456428528,-0.08367034792900085,0.8369165062904358,-30.600313186645508,73.2325668334961,-30.167715072631836,-0.562471866607666,0.5324733853340149,0.6344682574272156,-3.467620849609375,-0.35921207070350647,-6.08354377746582
44,20161,20144,-0.027598591521382332,-0.025611622259020805,0.8504871129989624,-56.460819244384766,51.78304672241211,-34.268672943115234,-0.5504724383354187,0.5384730696678162,0.6374680995941162,-4.338384628295898,-0.7934149503707886,-6.405496597290039
45,20171,20154,-0.07352185994386673,-0.0028252217452973127,0.8365722894668579,-77.3443603515625,22.07221221923828,-34.33995819091797,-0.5744712948799133,0.5594720244407654,0.6494675278663635,-4.948663711547852,-1.5754295587539673,-6.769307613372803
46,20181,20164,-0.10724849998950958,-0.09492865949869156,0.8313452005386353,-85.5237045288086,-1.9605350494384766,-34.36833953857422,-0.5744712948799133,0.5414729118347168,0.6404679417610168,-4.926585674285889,-2.2377517223358154,-7.091355800628662
47,20191,20174,-0.04125205799937248,-0.025254616513848305,0.8260645866394043,-71.15071868896484,-26.061847686767578,-37.362060546875,-0.5789710283279419,0.5639718174934387,0.6269686222076416,-4.788536071777344,-3.240135669708252,-7.44154691696167
48,20201,20184,-0.029477672651410103,0.020637694746255875,0.8322994112968445,-42.00849533081055,-54.02930450439453,-41.28449249267578,-0.5909704566001892,0.5609719157218933,0.6359682083129883,-4.425952434539795,-3.647336959838867,-7.7802653312683105
49,20211,20194,-0.10430937260389328,0.04646400734782219,0.9040186405181885,-8.780909538269043,-64.74774932861328,-43.24713134765625,-0.5969701409339905,0.5789710283279419,0.6509674191474915,-3.7218689918518066,-3.9844233989715576,-8.147433280944824
50,20221,20204,-0.06945718824863434,0.05855706334114075,0.889214813709259,26.73362159729004,-72.14636993408203,-40.79753494262695,-0.6059696674346924,0.5789710283279419,0.6509674191474915,-3.1989450454711914,-3.902456045150757,-8.523161888122559
51,20231,20214,-0.14709852635860443,-0.040715064853429794,0.8957815170288086,58.05224609375,-73.3053970336914,-30.74097442626953,-0.5939702987670898,0.5789710283279419,0.6569671630859375,-2.373109817504883,-3.3923990726470947,-8.842117309570312
52,20241,20224,-0.08247391879558563,-0.03541138395667076,0.9519157409667969,84.80914306640625,-67.11384582519531,-18.988737106323242,-0.5714713931083679,0.5714713931083679,0.6374680995941162,-1.8583869934082031,-2.7932679653167725,-9.082982063293457
53,20251,20234,0.012291666120290756,0.022394029423594475,1.0155142545700073,84.01506805419922,-48.93794250488281,-6.267372131347656,-0.5444727540016174,0.5324733853340149,0.6284685730934143,-1.0593870878219604,-1.8159162998199463,-9.213943481445312
54,20261,20244,-0.07379694283008575,0.026134725660085678,0.9844329357147217,70.56878662109375,-26.39306640625,5.356457710266113,-0.5444727540016174,0.5474725961685181,0.6434678435325623,-0.7751808166503906,-1.0936872959136963,-9.243940353393555
55,20281,20254,-0.10184308141469955,-0.028723161667585373,0.8954327702522278,-10.356627464294434,36.68016815185547,16.3950138092041,-0.5474725961685181,0.5324733853340149,0.6554672122001648,-0.9219607710838318,-0.27657049894332886,-9.028162956237793
56,20291,20274,-0.09610141068696976,-0.017926329746842384,0.8559221029281616,-48.45332717895508,34.06283950805664,18.79003143310547,-0.5369731187820435,0.5339732766151428,0.6389680504798889,-1.4607430696487427,-0.5456993579864502,-8.855095863342285
57,20301,20284,-0.061436790972948074,-0.0036078544799238443,0.8682078719139099,-56.91218566894531,19.058218002319336,20.025625228881836,-0.5519723892211914,0.5519723892211914,0.6329683661460876,-1.867630124092102,-1.2686718702316284,-8.6660795211792
58,20311,20294,-0.0875377282500267,-0.00862643588334322,0.8901941180229187,-47.16355514526367,12.594310760498047,23.721118927001953,-0.5414729118347168,0.5534723401069641,0.6524673700332642,-2.055260181427002,-1.735404133796692,-8.463955879211426
59,20321,20304,-0.034176651388406754,0.10639555007219315,0.8741584420204163,-39.72966766357422,6.137386322021484,26.04189682006836,-0.56997150182724,0.5579720735549927,0.6539672613143921,-2.207897901535034,-2.2133419513702393,-8.226296424865723
60,20331,20314,-0.06746181845664978,0.06983502954244614,0.9171279668807983,-20.987815856933594,-8.39534854888916,25.63542938232422,-0.5639718174934387,0.5609719157218933,0.6359682083129883,-2.2418053150177,-2.4266040325164795,-7.974037170410156
61,20341,20324,-0.12118028104305267,0.10957131534814835,0.9369926452636719,3.6005067825317383,-22.971391677856445,26.095163345336914,-0.5819708704948425,0.5729713439941406,0.6539672613143921,-1.9534080028533936,-2.5295157432556152,-7.715436935424805
62,20351,20334,-0.12365561723709106,0.10041578114032745,0.992236316204071,23.683937072753906,-48.44419860839844,29.113889694213867,-0.5579720735549927,0.5819708704948425,0.6809659600257874,-2.091944932937622,-2.466728925704956,-7.425868511199951
63,20361,20344,-0.10572055727243423,0.05840408056974411,0.9513141512870789,41.46904373168945,-67.28761291503906,32.97014617919922,-0.5804709792137146,0.5654717087745667,0.6524673700332642,-1.341850757598877,-2.0775532722473145,-7.115676403045654
64,20371,20354,-0.13371509313583374,0.03568621352314949,0.9050477147102356,55.89858627319336,-73.18867492675781,41.198970794677734,-0.5789710283279419,0.5849707126617432,0.6599670052528381,-0.9466954469680786,-1.6069086790084839,-6.737277507781982
65,20381,20364,-0.15649856626987457,0.0891912430524826,0.9751343131065369,51.787254333496094,-69.96592712402344,49.407711029052734,-0.5714713931083679,0.5654717087745667,0.676466166973114,0.0033982121385633945,-0.9829543232917786,-6.3010430335998535
66,20391,20374,-0.09456906467676163,0.08491051942110062,1.1034027338027954,29.419452667236328,-65.4378433227539,47.49107360839844,-0.577471137046814,0.5924703478813171,0.6854656934738159,0.2470933347940445,-0.5983776450157166,-5.771264553070068
67,20401,20384,-0.0426495261490345,0.08678632974624634,0.9992682933807373,-10.521378517150879,-52.26573181152344,36.783878326416016,-0.5834708213806152,0.5984700918197632,0.6854656934738159,0.9865329265594482,-0.5292780995368958,-5.300920486450195
68,20411,20394,-0.06060349568724632,0.18452338874340057,0.9364011883735657,-42.72241973876953,-31.24910545349121,27.861759185791016,-0.5684715509414673,0.5924703478813171,0.6944652795791626,1.5314959287643433,-0.8764021992683411,-4.926421165466309
69,20421,20404,-0.0489458292722702,0.059044644236564636,1.0040287971496582,-45.73994445800781,-5.109075546264648,21.03874969482422,-0.5654717087745667,0.5834708213806152,0.691465437412262,1.5672327280044556,-1.3516793251037598,-4.659363746643066
70,20431,20414,-0.002431301400065422,0.045212581753730774,1.0205705165863037,-25.296724319458008,19.20989418029785,16.605310440063477,-0.5579720735549927,0.5819708704948425,0.6809659600257874,1.4797250032424927,-1.893903136253357,-4.435748100280762
71,20441,20424,0.014921365305781364,0.02699720859527588,0.9535457491874695,7.82500696182251,22.457664489746094,18.38974952697754,-0.5489725470542908,0.5819708704948425,0.6809659600257874,1.254835605621338,-1.9891951084136963,-4.293969631195068
72,20451,20434,-0.12931837141513824,0.02926577441394329,1.0465041399002075,29.125097274780273,2.181035280227661,19.80059051513672,-0.5489725470542908,0.5819708704948425,0.6809659600257874,0.9601030945777893,-1.748439073562622,-4.149129867553711
73,20461,20444,-0.08841244131326675,-0.047080766409635544,1.023439884185791,45.35481262207031,-23.5614070892334,22.591524124145508,-0.554972231388092,0.5879706144332886,0.6809659600257874,0.9102510213851929,-1.3321139812469482,-3.9750020503997803
74,20471,20454,-0.10641930997371674,-0.08067985624074936,1.0478571653366089,53.68605041503906,-39.786529541015625,25.376667022705078,-0.5609719157218933,0.5969701409339905,0.6659666895866394,1.1984374523162842,-0.6972079277038574,-3.7978928089141846
75,20481,20464,-0.08956697583198547,-0.13648082315921783,1.039721965789795,52.69252014160156,-49.64450454711914,26.110092163085938,-0.5459727048873901,0.5969701409339905,0.683965802192688,1.4338022470474243,-0.25456807017326355,-3.502150058746338
76,20491,20474,-0.004058193415403366,-0.1110747829079628,0.9913509488105774,28.25288963317871,-51.44475555419922,22.42061424255371,-0.5564721822738647,0.5804709792137146,0.6824658513069153,2.027472496032715,0.23175065219402313,-3.2524774074554443
77,20501,20484,-0.03498546779155731,-0.008111615665256977,0.9528127312660217,2.2280001640319824,-35.894107818603516,18.01529884338379,-0.5534723401069641,0.5804709792137146,0.6944652795791626,2.2965457439422607,0.1363143026828766,-2.905243158340454
78,20511,20494,-0.05999940633773804,0.019334780052304268,0.9962673187255859,-12.840677261352539,-14.857497215270996,15.11076831817627,-0.5474725961685181,0.562471866607666,0.6794660091400146,2.615837812423706,0.12157601118087769,-2.7332067489624023
79,20521,20504,-0.06255659461021423,-0.017456302419304848,1.0464786291122437,-19.748640060424805,5.099810600280762,15.198090553283691,-0.5504724383354187,0.562471866607666,0.6734663248062134,2.6505937576293945,-0.06301174312829971,-2.578052520751953
80,20531,20514,-0.050731878727674484,0.020702267065644264,0.975936770439148,-9.385965347290039,15.38199234008789,21.172801971435547,-0.5564721822738647,0.5834708213806152,0.676466166973114,2.6165366172790527,-0.13068708777427673,-2.4729933738708496
81,20541,20524,-0.1481928676366806,0.022215204313397408,1.122610092163086,12.175976753234863,23.232810974121094,25.885040283203125,-0.5399730205535889,0.5579720735549927,0.6809659600257874,2.4851090908050537,-0.12647485733032227,-2.27726674079895
82,20551,20534,-0.09483920782804489,-0.05128186568617821,1.1439900398254395,27.326923370361328,4.251751899719238,29.86779022216797,-0.5414729118347168,0.5714713931083679,0.6794660091400146,1.9530361890792847,0.08296532183885574,-2.0665297508239746
83,20561,20544,-0.015261492691934109,-0.05334005132317543,1.0943220853805542,23.981515884399414,-22.897254943847656,32.336769104003906,-0.5324733853340149,0.5654717087745667,0.6884655356407166,2.0391592979431152,0.30879682302474976,-1.7332944869995117
84,20571,20564,-0.12884458899497986,-0.04291640222072601,0.9745001196861267,0.8987124562263489,-50.99534225463867,28.600738525390625,-0.5444727540016174,0.577471137046814,0.6884655356407166,2.318610906600952,0.4472872316837311,-1.3962997198104858
85,20581,20574,-0.19956186413764954,-0.12118732184171677,1.0390433073043823,-19.42501449584961,-74.79733276367188,17.897701263427734,-0.5429728627204895,0.5579720735549927,0.6749662160873413,3.0435190200805664,0.33550509810447693,-1.0905216932296753
86,20591,20584,-0.11670153588056564,-0.06312467902898788,1.0645776987075806,-24.959888458251953,-79.9420166015625,13.307745933532715,-0.5444727540016174,0.5714713931083679,0.6794660091400146,3.696291923522949,0.13539424538612366,-0.9447562098503113
87,20601,20594,-0.11017673462629318,0.06986603140830994,1.0930367708206177,-22.61639404296875,-55.005615234375,12.650156021118164,-0.5384730696678162,0.5684715509414673,0.6884655356407166,4.400839805603027,-0.12651559710502625,-0.8166353702545166
88,20611,20604,-0.11158519238233566,0.04941746965050697,1.1183820962905884,-17.5804500579834,-17.114282608032227,15.390975952148438,-0.5354732275009155,0.5684715509414673,0.6854656934738159,4.845852375030518,-0.21471774578094482,-0.7871978878974915
89,20621,20614,-0.14916644990444183,-0.1020292416214943,1.2119231224060059,2.349592685699463,21.159221649169922,20.1679744720459,-0.5279735922813416,0.554972231388092,0.6869656443595886,4.819246292114258,-0.4544719159603119,-0.5730533599853516
90,20631,20624,-0.05640202388167381,-0.1334778219461441,1.1701236963272095,19.60874366760254,36.01819610595703,24.763277053833008,-0.5189740657806396,0.5759711861610413,0.683965802192688,4.537199020385742,-0.26832470297813416,-0.46417316794395447
91,20641,20634,0.0047244718298316,-0.048979535698890686,1.097190022468567,22.414894104003906,35.94136428833008,32.731422424316406,-0.5294735431671143,0.577471137046814,0.6854656934738159,3.8336875438690186,0.05102366954088211,-0.3499920666217804
92,20651,20644,-0.09803789854049683,0.05447376146912575,1.0598243474960327,0.20738022029399872,30.302980422973633,36.697566986083984,-0.5189740657806396,0.5759711861610413,0.6899654865264893,3.5255911350250244,0.15660300850868225,0.044139958918094635
93,20661,20654,-0.18923835456371307,0.094272181391716,1.0610789060592651,-25.110836029052734,6.159553527832031,28.835527420043945,-0.5309734344482422,0.5669716596603394,0.6809659600257874,3.3118066787719727,-0.016982726752758026,0.4729084372520447
94,20671,20664,-0.1543821394443512,0.07667865604162216,1.0773180723190308,-38.955875396728516,-31.00851821899414,19.464488983154297,-0.5159741640090942,0.5609719157218933,0.6749662160873413,3.5590357780456543,-0.46763136982917786,0.8914853930473328
95,20681,20674,-0.12968042492866516,0.051938917487859726,1.101169466972351,-33.28836441040039,-49.325016021728516,11.07625961303711,-0.5279735922813416,0.5519723892211914,0.6929653286933899,4.13037633895874,-0.8265734910964966,1.0718069076538086
96,20691,20684,-0.14476782083511353,0.05713886022567749,1.0755367279052734,-25.1485595703125,-40.081275939941406,6.337568759918213,-0.5309734344482422,0.5429728627204895,0.66896653175354,4.629612922668457,-1.1373298168182373,1.173129916191101
97,20701,20694,-0.2119196653366089,0.11245890706777573,1.0992978811264038,-10.19774341583252,-20.736387252807617,2.108106851577759,-0.5189740657806396,0.5399730205535889,0.6599670052528381,4.89627742767334,-1.1361231803894043,1.034340500831604
98,20711,20704,-0.17185385525226593,0.13334591686725616,1.0913337469100952,-4.158541679382324,-9.841448783874512,-0.5617547035217285,-0.5114744305610657,0.5354732275009155,0.6824658513069153,5.012454986572266,-1.2946298122406006,1.107344388961792
99,20721,20714,-0.13234756886959076,0.0728272944688797,1.1140280961990356,6.602421760559082,-3.788968801498413,-5.150544166564941,-0.508474588394165,0.5264736413955688,0.6614668965339661,5.180273532867432,-1.2712467908859253,1.0647112131118774
100,20731,20724,-0.08548358827829361,-0.03716978430747986,1.1016628742218018,26.220497131347656,10.169309616088867,-5.605587005615234,-0.47847607731819153,0.5204739570617676,0.6674666404724121,5.285329818725586,-1.0948686599731445,0.965171217918396
101,20741,20734,-0.0868874043226242,-0.0913567766547203,1.0142238140106201,37.054420471191406,33.95270538330078,-6.653290271759033,-0.4949752390384674,0.5159741640090942,0.66896653175354,5.065517902374268,-0.6795716881752014,0.7962107062339783
102,20751,20744,-0.13062018156051636,-0.01504290010780096,1.018198013305664,25.138185501098633,56.737754821777344,-7.446567535400391,-0.49947500228881836,0.5264736413955688,0.6584670543670654,4.503993988037109,-0.33183109760284424,0.721098005771637
103,20761,20754,-0.040569156408309937,0.011526570655405521,0.9636669754981995,-2.1475307941436768,57.8088493347168,-6.429715633392334,-0.5009749531745911,0.5279735922813416,0.6539672613143921,3.7195184230804443,-0.22332657873630524,0.6996449828147888
104,20771,20764,0.07611816376447678,-0.006905639544129372,0.9160801768302917,-17.626558303833008,49.2618293762207,-4.525522232055664,-0.5054747462272644,0.5294735431671143,0.6644667387008667,2.972064971923828,-0.3615177273750305,0.693526029586792
105,20781,20774,0.07591766119003296,0.008504287339746952,0.9176597595214844,-27.02789306640625,36.80804443359375,0.14191317558288574,-0.509974479675293,0.5249737501144409,0.6599670052528381,2.8815720081329346,-0.6360636353492737,0.7580970525741577
106,20791,20784,0.008441616781055927,0.012569795362651348,0.895007312297821,-28.905275344848633,26.459909439086914,7.572253227233887,-0.5054747462272644,0.5294735431671143,0.6524673700332642,2.4778101444244385,-0.8080679774284363,0.6730517148971558
107,20801,20794,0.017674952745437622,-0.03431039676070213,0.9218685030937195,-28.731101989746094,11.8397216796875,12.45260238647461,-0.5234737992286682,0.5114744305610657,0.6554672122001648,2.18607759475708,-1.0879799127578735,0.7425898909568787
108,20811,20804,0.020632827654480934,-0.028152700513601303,0.9207255244255066,-28.899423599243164,-8.176194190979004,10.893803596496582,-0.5174741148948669,0.5174741148948669,0.6554672122001648,2.1373162269592285,-1.364281177520752,0.8559492230415344
109,20821,20814,0.0056312959641218185,-0.0013885187217965722,0.9225096106529236,-29.399423599243164,-31.69178009033203,4.011958599090576,-0.509974479675293,0.509974479675293,0.6509674191474915,2.424269437789917,-1.787771463394165,1.0769251585006714
110,20831,20824,-0.03155205771327019,0.01297909114509821,0.906268835067749,-25.391077041625977,-53.16341781616211,-1.5184096097946167,-0.5234737992286682,0.5294735431671143,0.6524673700332642,2.607250213623047,-1.9809197187423706,1.028076171875
111,20841,20834,-0.14633814990520477,0.1542641818523407,0.9304064512252808,-8.646750450134277,-62.317726135253906,-0.17019398510456085,-0.509974479675293,0.5249737501144409,0.6629668474197388,3.2764594554901123,-2.197256326675415,1.0385819673538208
112,20851,20844,-0.2565498650074005,0.2065175324678421,0.9205647110939026,3.969822883605957,-51.31373596191406,2.761746883392334,-0.5279735922813416,0.5339732766151428,0.6719663739204407,3.91345477104187,-2.1357975006103516,0.975634753704071
113,20861,20854,-0.19722746312618256,0.17932240664958954,0.9702353477478027,14.08448314666748,-34.04316329956055,6.972474575042725,-0.509974479675293,0.5339732766151428,0.66896653175354,4.356259822845459,-2.0350914001464844,1.000405192375183
114,20871,20864,-0.10425740480422974,0.0769321471452713,0.9814762473106384,24.52055549621582,-2.2394535541534424,9.12138843536377,-0.5159741640090942,0.5249737501144409,0.66896653175354,4.544375419616699,-1.8383674621582031,1.0634409189224243
115,20881,20874,-0.05524783208966255,0.006349741481244564,0.9470701813697815,18.329566955566406,30.249174118041992,6.605459690093994,-0.5174741148948669,0.5384730696678162,0.6704664826393127,4.4996209144592285,-1.6094809770584106,1.1528422832489014
116,20891,20884,-0.04573029279708862,0.0220869742333889,0.9393255114555359,5.929754734039307,52.1185188293457,3.6180830001831055,-0.49797508120536804,0.5159741640090942,0.6659666895866394,4.158979415893555,-1.6526985168457031,1.3564921617507935
117,20901,20894,-0.04275348037481308,-0.020053137093782425,0.9539666771888733,-12.228052139282227,67.90055084228516,-1.636128306388855,-0.49797508120536804,0.5249737501144409,0.6599670052528381,3.341520071029663,-1.6420341730117798,1.3706486225128174
118,20911,20904,-0.07371190935373306,-0.09904538094997406,0.9058060646057129,-33.162593841552734,62.333824157714844,-5.048547267913818,-0.5264736413955688,0.5444727540016174,0.6584670543670654,2.510204553604126,-1.9239696264266968,1.41420578956604
119,20921,20914,-0.06841781735420227,-0.06909702718257904,0.8568339943885803,-44.91696548461914,32.42587661743164,-9.414800643920898,-0.5189740657806396,0.5309734344482422,0.6629668474197388,2.1258325576782227,-2.279996633529663,1.3312982320785522
120,20931,20924,-0.019143518060445786,0.0292622409760952,0.9150676131248474,-41.050716400146484,-1.0740463733673096,-14.916911125183105,-0.5129743218421936,0.5309734344482422,0.6599670052528381,1.9023202657699585,-2.8504929542541504,1.3040350675582886
121,20941,20934,-0.030048025771975517,0.01706182025372982,0.9383337497711182,-20.880678176879883,-30.834579467773438,-21.58636474609375,-0.5279735922813416,0.5459727048873901,0.6509674191474915,2.1311185359954834,-3.078579902648926,1.034274935722351
122,20951,20944,-0.01739944890141487,0.03144614025950432,0.9770283699035645,10.823576927185059,-53.21897888183594,-23.58108901977539,-0.5279735922813416,0.5249737501144409,0.6599670052528381,2.812288761138916,-3.218034505844116,0.8010491132736206
123,20961,20954,-0.05289900302886963,0.04094992205500603,1.013991117477417,44.52626419067383,-46.308780670166016,-20.644935607910156,-0.5174741148948669,0.5474725961685181,0.6644667387008667,3.2678463459014893,-2.9544522762298584,0.5497407913208008
124,20971,20964,-0.09202317893505096,0.03857414424419403,1.0353726148605347,77.8945541381836,-11.38408374786377,-15.14376449584961,-0.5159741640090942,0.5369731187820435,0.6779661178588867,3.329224109649658,-2.245283365249634,0.3052660822868347
125,20981,20974,-0.07088033109903336,0.0039261323399841785,1.0875532627105713,86.18006896972656,24.711238861083984,-12.513483047485352,-0.5009749531745911,0.5309734344482422,0.6809659600257874,3.2850122451782227,-1.6157561540603638,0.27711427211761475
126,20991,20984,0.04813380911946297,-0.039986591786146164,0.9922770261764526,82.4227294921875,54.92241668701172,-13.43013858795166,-0.5039747953414917,0.5339732766151428,0.6779661178588867,2.7357981204986572,-0.5411232709884644,0.04671445116400719
127,21001,20994,0.06173921003937721,-0.017457816749811172,0.8456550240516663,65.84762573242188,77.40095520019531,-14.861857414245605,-0.508474588394165,0.5324733853340149,0.6674666404724121,2.0653202533721924,-0.06599882245063782,0.10916532576084137
128,21011,21004,-0.07922448217868805,0.04044489562511444,0.8046587705612183,29.649547576904297,83.93390655517578,-17.253835678100586,-0.5204739570617676,0.5234737992286682,0.6734663248062134,1.1005158424377441,0.58022141456604,-0.04875670373439789
129,21021,21014,-0.07251720130443573,0.02712191641330719,0.8245242238044739,-1.8346723318099976,67.8978042602539,-15.470632553100586,-0.5324733853340149,0.5594720244407654,0.6854656934738159,0.3222893476486206,0.8464035391807556,-0.2211100161075592
130,21031,21024,0.025401979684829712,0.014985602349042892,0.9162395000457764,-36.26190185546875,38.287261962890625,-13.894832611083984,-0.5504724383354187,0.5444727540016174,0.6674666404724121,-0.08074075728654861,0.5278761982917786,-0.28255945444107056
131,21041,21034,0.06892465800046921,-0.024027884006500244,0.950751781463623,-56.62668991088867,10.575424194335938,-15.460832595825195,-0.5414729118347168,0.5594720244407654,0.6674666404724121,-0.47388163208961487,-0.1414763480424881,-0.31126195192337036
132,21051,21044,0.06714554876089096,-0.06264660507440567,0.9276494979858398,-58.76036834716797,-11.981121063232422,-18.711021423339844,-0.5714713931083679,0.5804709792137146,0.6644667387008667,-0.49004000425338745,-0.6664692759513855,-0.4986833333969116
133,21061,21054,-0.00550065329298377,-0.051785048097372055,0.9548250436782837,-52.09120178222656,-28.63826560974121,-23.89607810974121,-0.5639718174934387,0.5879706144332886,0.6719663739204407,-0.17066511511802673,-1.3973172903060913,-0.6445573568344116
134,21071,21064,-0.0643693283200264,-0.05501426383852959,0.9579132795333862,-39.49613571166992,-43.569557189941406,-27.868242263793945,-0.5609719157218933,0.5729713439941406,0.6809659600257874,0.3912982940673828,-1.701546311378479,-0.9456802010536194
135,21081,21074,-0.07202823460102081,-0.10328597575426102,0.9392269253730774,-13.363876342773438,-54.96574401855469,-30.35030746459961,-0.5534723401069641,0.5924703478813171,0.6824658513069153,0.8831667900085449,-2.0408806800842285,-1.2152371406555176
136,21091,21084,-0.0661713182926178,-0.07783345878124237,1.049780011177063,18.257925033569336,-48.11201477050781,-30.554502487182617,-0.5534723401069641,0.5714713931083679,0.6794660091400146,1.4441404342651367,-1.9894660711288452,-1.5312678813934326
137,21101,21094,0.0038387661334127188,-0.002523767529055476,1.0152689218521118,47.46735382080078,-20.888153076171875,-28.82794952392578,-0.5579720735549927,0.5759711861610413,0.6809659600257874,1.6373549699783325,-1.5480375289916992,-1.8598496913909912
138,21111,21104,0.037369243800640106,0.1241878941655159,1.0171236991882324,65.32077026367188,22.631807327270508,-26.90058135986328,-0.5339732766151428,0.5789710283279419,0.683965802192688,1.5579146146774292,-1.2579065561294556,-2.0788769721984863
139,21121,21114,0.00014293761341832578,0.06418649107217789,0.9418953061103821,62.82254409790039,57.2777214050293,-27.711275100708008,-0.5354732275009155,0.5654717087745667,0.6824658513069153,1.2302980422973633,-0.46863114833831787,-2.380354881286621
140,21131,21124,-0.0335799865424633,0.0116133326664567,1.1154383420944214,57.688018798828125,83.93439483642578,-29.925199508666992,-0.5384730696678162,0.5654717087745667,0.6644667387008667,0.5350977182388306,0.07769894599914551,-2.651001453399658
141,21141,21134,-0.05301208421587944,0.017051108181476593,0.9745050072669983,49.82367706298828,90.26043701171875,-28.980215072631836,-0.5594720244407654,0.5834708213806152,0.691465437412262,-0.7997453808784485,0.5541404485702515,-2.915247917175293
142,21151,21144,0.0008155626128427684,0.10561802238225937,0.9376195669174194,47.21642303466797,69.69339752197266,-25.161006927490234,-0.5534723401069641,0.5684715509414673,0.6824658513069153,-1.87041437625885,1.146640658378601,-3.196101665496826
143,21161,21154,-0.041903626173734665,0.16070444881916046,0.9980518817901611,43.23173141479492,39.78608322143555,-21.289525985717773,-0.5519723892211914,0.56997150182724,0.6749662160873413,-2.5694549083709717,1.4646542072296143,-3.413083553314209
144,21171,21164,-0.07413557171821594,0.06865688413381577,1.0983123779296875,31.18838882446289,-3.2688939571380615,-16.910737991333008,-0.56997150182724,0.5609719157218933,0.6719663739204407,-2.782594919204712,1.895198106765747,-3.609731674194336
145,21181,21174,-0.04933784157037735,-0.044117774814367294,1.0541062355041504,9.998960494995117,-48.297542572021484,-13.192499160766602,-0.562471866607666,0.5474725961685181,0.6554672122001648,-2.4841177463531494,1.9535119533538818,-3.7677319049835205
146,21191,21184,0.024503516033291817,0.02362178824841976,1.008472204208374,-9.3408784866333,-87.79893493652344,-13.962298393249512,-0.5519723892211914,0.5339732766151428,0.6599670052528381,-1.7071677446365356,2.023662567138672,-3.897899627685547
147,21211,21194,-0.02087402530014515,0.026463240385055542,0.9922822713851929,-44.80467987060547,-118.6174087524414,-15.764284133911133,-0.562471866607666,0.5294735431671143,0.6644667387008667,0.60272216796875,1.3291629552841187,-4.2434282302856445
148,21221,21204,-0.05177659913897514,-0.0040918979793787,1.0273884534835815,-57.4177131652832,-104.38046264648438,-16.596595764160156,-0.5579720735549927,0.5429728627204895,0.683965802192688,1.4510935544967651,1.0550181865692139,-4.457117080688477
149,21231,21214,-0.010401403531432152,0.032770246267318726,1.0886707305908203,-57.89006423950195,-80.87789916992188,-13.531803131103516,-0.5519723892211914,0.554972231388092,0.6749662160873413,2.4601669311523438,0.27281081676483154,-4.656342029571533
150,21241,21224,0.017618553712964058,0.099892258644104,1.0534058809280396,-53.07188415527344,-52.38282012939453,-7.849052906036377,-0.554972231388092,0.5669716596603394,0.6779661178588867,2.9873857498168945,-0.14157603681087494,-4.826676845550537
151,21251,21234,-0.04794037714600563,0.17107483744621277,1.1273579597473145,-35.277610778808594,-27.040067672729492,-4.277953147888184,-0.554972231388092,0.5639718174934387,0.683965802192688,3.4673352241516113,-0.815656304359436,-4.904702186584473
152,21261,21244,-0.09572713822126389,0.0664617121219635,1.1321868896484375,3.6549787521362305,-9.309218406677246,-1.9132286310195923,-0.5369731187820435,0.5729713439941406,0.683965802192688,3.5768277645111084,-0.9564611911773682,-4.968765735626221
153,21271,21254,-0.04237711429595947,0.005202304106205702,1.0705972909927368,54.237457275390625,7.934056758880615,5.423488616943359,-0.5369731187820435,0.5729713439941406,0.683965802192688,3.9170403480529785,-0.6899409890174866,-4.928933143615723
154,21281,21264,-0.05150334909558296,-0.008251452818512917,1.1179802417755127,100.01544952392578,35.093727111816406,15.895538330078125,-0.5264736413955688,0.5564721822738647,0.6824658513069153,3.7679927349090576,0.18047313392162323,-4.881462574005127
155,21291,21274,-0.08721137791872025,0.029844049364328384,1.2221413850784302,102.55728912353516,63.23059844970703,20.16069221496582,-0.5174741148948669,0.5414729118347168,0.6614668965339661,3.166269063949585,0.920691967010498,-4.725457191467285
156,21301,21284,-0.048877812922000885,0.05191890895366669,1.0940141677856445,73.91992950439453,79.6763916015625,19.6656494140625,-0.5114744305610657,0.5684715509414673,0.6824658513069153,2.4131460189819336,2.1489267349243164,-4.5486297607421875
157,21311,21294,-0.026020314544439316,0.12200605124235153,1.0456273555755615,42.18126678466797,75.5237808227539,18.596702575683594,-0.5204739570617676,0.5834708213806152,0.691465437412262,1.3791086673736572,2.378969192504883,-4.310903549194336
158,21321,21304,-0.025568103417754173,0.03953224793076515,0.9958086013793945,14.644963264465332,49.14361572265625,20.03789710998535,-0.5324733853340149,0.5714713931083679,0.6974651217460632,0.5978952646255493,2.859170913696289,-4.114865779876709
159,21331,21314,0.017759177833795547,0.08377453684806824,0.9967668652534485,-7.171009540557861,16.547597885131836,16.09419059753418,-0.5474725961685181,0.5834708213806152,0.691465437412262,0.3634944260120392,2.8930070400238037,-3.845721960067749
160,21341,21324,0.011711958795785904,0.10242778807878494,0.9836039543151855,-41.778194427490234,-12.646097183227539,6.257443904876709,-0.5414729118347168,0.5654717087745667,0.6884655356407166,0.2860558032989502,2.6257236003875732,-3.669877052307129
161,21351,21334,-0.09226144850254059,-0.005136399529874325,0.962825357913971,-70.30440521240234,-37.16842269897461,-4.34104585647583,-0.5429728627204895,0.554972231388092,0.6749662160873413,0.506324052810669,2.085862159729004,-3.605246067047119
162,21361,21344,-0.13581600785255432,-0.037355463951826096,1.01730477809906,-70.76564025878906,-69.29938507080078,-17.211896896362305,-0.5519723892211914,0.554972231388092,0.66896653175354,1.121815800666809,1.372889757156372,-3.615741014480591
163,21371,21354,-0.10577553510665894,-0.10272937268018723,1.0313735008239746,-41.5932502746582,-90.67632293701172,-26.090110778808594,-0.5474725961685181,0.5684715509414673,0.691465437412262,1.5932023525238037,0.8710954189300537,-3.901097297668457
164,21381,21364,-0.052250295877456665,-0.07702768594026566,1.034543752670288,-6.1304731369018555,-88.29242706298828,-30.112886428833008,-0.554972231388092,0.5729713439941406,0.6929653286933899,2.7973148822784424,0.5082343816757202,-4.076922416687012
165,21391,21374,-0.012456216849386692,-0.0023368895053863525,1.1266118288040161,40.300926208496094,-67.97702026367188,-30.69098472595215,-0.5564721822738647,0.5864706635475159,0.6944652795791626,3.206394672393799,0.6994491219520569,-4.538852214813232
166,21401,21384,-0.007010750472545624,-0.006150172092020512,1.1261281967163086,76.62313842773438,-31.93890380859375,-26.465614318847656,-0.5519723892211914,0.5849707126617432,0.7079645991325378,3.6787281036376953,1.4000037908554077,-4.908111572265625
167,21411,21394,-0.04036729410290718,-0.03293297067284584,1.050180435180664,88.26133728027344,10.530545234680176,-25.191787719726562,-0.5339732766151428,0.5759711861610413,0.6869656443595886,4.071185111999512,2.4886584281921387,-5.156925201416016
168,21421,21404,-0.06296514719724655,-0.054583869874477386,1.0724061727523804,89.11255645751953,43.29177474975586,-22.532752990722656,-0.5144742727279663,0.5384730696678162,0.6854656934738159,3.7631561756134033,3.2331180572509766,-5.408473491668701
169,21431,21414,-0.06814397871494293,-0.020062923431396484,1.0277934074401855,82.68439483642578,64.60721588134766,-13.71102523803711,-0.5204739570617676,0.5474725961685181,0.6854656934738159,2.97969388961792,4.348180770874023,-5.7060112953186035
170,21441,21424,-0.025994164869189262,0.034692347049713135,0.9984333515167236,59.016746520996094,81.14411163330078,-4.490732669830322,-0.5249737501144409,0.5609719157218933,0.6959651708602905,2.5400891304016113,5.022201061248779,-5.667893886566162
171,21451,21434,-0.05510355532169342,0.04828425869345665,1.1635611057281494,16.164024353027344,84.81221008300781,5.132554531097412,-0.5489725470542908,0.5819708704948425,0.6899654865264893,1.3374887704849243,5.4208269119262695,-5.720258712768555
172,21461,21444,-0.07025572657585144,-0.022189678624272346,1.0357801914215088,-45.06952667236328,57.64596176147461,8.745627403259277,-0.5339732766151428,0.56997150182724,0.6989650130271912,0.9839110970497131,5.383646488189697,-5.398654460906982
173,21471,21454,-0.0626557394862175,-0.045057401061058044,0.953325092792511,-92.09080505371094,13.493146896362305,9.519447326660156,-0.554972231388092,0.5669716596603394,0.6899654865264893,0.2471800297498703,4.646205902099609,-5.338900566101074
174,21481,21464,-0.03893677890300751,-0.05361614003777504,1.0483871698379517,-98.46634674072266,-31.993614196777344,13.354263305664062,-0.5309734344482422,0.554972231388092,0.6899654865264893,0.36287054419517517,3.812912702560425,-5.174923896789551
175,21491,21474,-0.005403644405305386,0.03814481198787689,1.0045897960662842,-77.61477661132812,-62.36021041870117,16.565570831298828,-0.5489725470542908,0.5519723892211914,0.6809659600257874,0.972292959690094,2.6380252838134766,-4.920939922332764
176,21501,21484,-0.08961710333824158,0.02580362744629383,1.0884076356887817,-48.48290252685547,-63.16093444824219,26.723773956298828,-0.5579720735549927,0.5639718174934387,0.6869656443595886,1.642595887184143,2.2780327796936035,-4.794721603393555
177,21511,21494,-0.055206846445798874,-0.044472940266132355,1.1128575801849365,-23.975996017456055,-48.1736946105957,39.18793869018555,-0.5474725961685181,0.5684715509414673,0.6794660091400146,2.454014301300049,1.9108878374099731,-4.425437927246094
178,21521,21504,-0.03402803838253021,-0.10029072314500809,1.0474492311477661,-12.133283615112305,-22.144187927246094,46.33112335205078,-0.5534723401069641,0.5504724383354187,0.6824658513069153,2.8466367721557617,1.5640881061553955,-4.0452561378479
179,21531,21514,-0.02025962993502617,0.030701378360390663,1.0125576257705688,-4.413223743438721,14.873699188232422,50.0661506652832,-0.5309734344482422,0.5429728627204895,0.683965802192688,2.9512500762939453,1.5202635526657104,-3.620432138442993
180,21541,21524,-0.0815146192908287,0.12541553378105164,1.0204603672027588,-7.782304763793945,47.65693283081055,50.4519157409668,-0.5219739079475403,0.5519723892211914,0.683965802192688,2.5749149322509766,1.5411124229431152,-3.212181329727173
181,21551,21534,-0.11741958558559418,0.08384863287210464,1.0745341777801514,-25.128002166748047,65.593505859375,48.137229919433594,-0.5174741148948669,0.5504724383354187,0.6884655356407166,2.035121440887451,1.4282195568084717,-2.7238411903381348
182,21561,21544,-0.037322815507650375,0.04251106455922127,1.0876253843307495,-33.98080825805664,61.836151123046875,45.315589904785156,-0.5234737992286682,0.5564721822738647,0.6854656934738159,1.015333652496338,0.988700270652771,-2.3942315578460693
183,21571,21554,0.06537739187479019,-0.018025072291493416,0.9481889009475708,-27.612028121948242,39.30490493774414,43.71261215209961,-0.5354732275009155,0.5594720244407654,0.6824658513069153,0.8351829648017883,0.7725459337234497,-1.772789478302002
184,21581,21564,0.0368911474943161,0.015023534186184406,0.9582530856132507,-16.91358757019043,20.991195678710938,37.179447174072266,-0.5354732275009155,0.5594720244407654,0.6794660091400146,0.35644590854644775,0.4470984637737274,-1.3842628002166748
185,21591,21584,-0.009692870080471039,0.0655779242515564,1.0221515893936157,-6.7770891189575195,7.48382568359375,30.1287784576416,-0.5384730696678162,0.5444727540016174,0.6674666404724121,0.1728719174861908,0.37283462285995483,-1.0326762199401855
186,21601,21594,-0.05698634684085846,0.07186617702245712,1.0248117446899414,3.4280219078063965,-1.525905728340149,24.076824188232422,-0.5429728627204895,0.5399730205535889,0.6779661178588867,0.20324213802814484,0.32718750834465027,-0.7107719779014587
187,21611,21604,-0.09829636663198471,0.07510202378034592,0.9704139232635498,10.214624404907227,-7.978450298309326,20.509498596191406,-0.5339732766151428,0.5339732766151428,0.6719663739204407,0.21412436664104462,0.43051016330718994,-0.489414244890213
188,21621,21614,-0.14932991564273834,0.09368167072534561,0.949304461479187,5.831071376800537,-10.144917488098145,18.482559204101562,-0.5309734344482422,0.5339732766151428,0.6599670052528381,0.3908174932003021,0.551516592502594,-0.2605282962322235
189,21631,21624,-0.11598606407642365,0.10624737292528152,0.9512443542480469,-7.1266069412231445,-1.2148158550262451,16.620521545410156,-0.5264736413955688,0.5324733853340149,0.6614668965339661,0.5451946258544922,0.5536443591117859,-0.05669059976935387
190,21641,21634,-0.04750031232833862,0.051549747586250305,1.0096893310546875,-23.02046775817871,10.960604667663574,12.755946159362793,-0.5294735431671143,0.5444727540016174,0.6524673700332642,0.5392678380012512,0.3391917645931244,0.10568021237850189
191,21651,21644,-0.037430938333272934,0.017406009137630463,0.9374375939369202,-33.312808990478516,17.15688133239746,9.350295066833496,-0.5294735431671143,0.5234737992286682,0.6584670543670654,0.34283769130706787,0.028837507590651512,0.21007443964481354
192,21661,21654,-0.0025453229900449514,0.006357858888804913,0.9174143075942993,-33.5443000793457,12.965804100036621,4.2995924949646,-0.5279735922813416,0.5279735922813416,0.6509674191474915,0.1390143781900406,-0.21392516791820526,0.28818196058273315
193,21671,21664,0.04927413538098335,0.06624647974967957,0.9576341509819031,-29.0672550201416,-1.272889256477356,-2.5800328254699707,-0.5219739079475403,0.5339732766151428,0.6569671630859375,-0.09797702729701996,-0.5909188985824585,0.2908492386341095
194,21681,21674,0.06898937374353409,0.032998934388160706,1.03354012966156,-18.380998611450195,-20.17251205444336,-9.571073532104492,-0.5174741148948669,0.5294735431671143,0.6464676856994629,0.06483978778123856,-0.8046774864196777,0.2800444960594177
195,21691,21684,-0.016627438366413116,-0.016825279220938683,1.0540086030960083,1.3701356649398804,-42.364688873291016,-12.640275955200195,-0.5144742727279663,0.5174741148948669,0.6524673700332642,0.26462122797966003,-0.8896708488464355,0.17792311310768127
196,21701,21694,-0.10779187083244324,-0.057823967188596725,1.0294147729873657,14.991394996643066,-52.11843490600586,-14.621159553527832,-0.5174741148948669,0.5174741148948669,0.6584670543670654,0.8587793111801147,-0.8702890872955322,0.07764951139688492
197,21711,21704,-0.11524564772844315,-0.04285098612308502,0.998506486415863,36.11450958251953,-48.191650390625,-15.100577354431152,-0.5189740657806396,0.5189740657806396,0.66896653175354,1.6196048259735107,-0.6247553825378418,-0.03014552593231201
198,21721,21714,-0.0638863742351532,-0.022856002673506737,0.9848484992980957,55.30548095703125,-31.166645050048828,-12.14763069152832,-0.5129743218421936,0.5129743218421936,0.6629668474197388,1.6280958652496338,-0.17260022461414337,-0.21349693834781647
199,21731,21724,-0.03306147828698158,-0.040742576122283936,1.01344633102417,58.68804931640625,-1.115347146987915,-7.860900402069092,-0.5129743218421936,0.5039747953414917,0.6659666895866394,2.0370798110961914,0.4789315164089203,-0.3170911371707916
200,21741,21734,0.014681374654173851,-0.017153318971395493,1.0156537294387817,54.86916732788086,24.83195686340332,-3.358762502670288,-0.508474588394165,0.5114744305610657,0.6584670543670654,1.995377540588379,1.028089165687561,-0.38992995023727417
201,21751,21754,-0.12688644230365753,-0.004796520806849003,0.9555428624153137,40.508079528808594,45.178306579589844,3.0669620037078857,-0.5069746375083923,0.5159741640090942,0.6449677348136902,1.5475174188613892,1.5627164840698242,-0.41599228978157043
202,21761,21764,-0.05725657194852829,-0.10405280441045761,0.9522385597229004,11.733169555664062,56.43395233154297,5.606846332550049,-0.4949752390384674,0.5219739079475403,0.6569671630859375,1.0467280149459839,1.820578694343567,-0.374220609664917
203,21771,21774,-0.08845203369855881,-0.016597788780927658,0.9796764254570007,-12.584891319274902,55.229393005371094,9.011452674865723,-0.5264736413955688,0.5114744305610657,0.6464676856994629,0.22300255298614502,1.9065172672271729,-0.3095077872276306
204,21781,21784,-0.1307409703731537,0.007133491802960634,0.9840738773345947,-27.270015716552734,41.68267822265625,16.48158836364746,-0.5219739079475403,0.5039747953414917,0.6629668474197388,-0.5559577345848083,1.6196438074111938,-0.21127983927726746
205,21791,21794,-0.11493569612503052,0.038267623633146286,0.9898961186408997,-41.201412200927734,23.77686882019043,23.415969848632812,-0.5159741640090942,0.5129743218421936,0.6749662160873413,-0.48474472761154175,1.3949967622756958,0.009229832328855991
206,21801,21804,-0.1284724324941635,-0.029821259900927544,0.9047921299934387,-55.415771484375,-1.2483189105987549,27.946746826171875,-0.5249737501144409,0.509974479675293,0.6599670052528381,-0.7481538653373718,0.8664242029190063,0.23791860044002533
207,21811,21814,-0.13298551738262177,-0.04577036201953888,0.8594679236412048,-60.808876037597656,-24.70296287536621,32.224853515625,-0.5294735431671143,0.5144742727279663,0.6584670543670654,-0.6373026371002197,0.420309841632843,0.5343635082244873
208,21821,21824,-0.04863526299595833,0.04321756958961487,0.9323934316635132,-57.20685958862305,-45.41974639892578,36.67919158935547,-0.5174741148948669,0.5204739570617676,0.6554672122001648,-0.1529279202222824,-0.2607628107070923,0.8736183047294617
209,21841,21834,-0.02356467768549919,0.13693548738956451,0.9827083349227905,-30.005624771118164,-63.323036193847656,42.77360916137695,-0.5249737501144409,0.5159741640090942,0.6479675769805908,1.1073238849639893,-1.1661409139633179,1.6866142749786377
210,21851,21844,0.07836220413446426,0.03440118208527565,0.8929749727249146,-10.598861694335938,-57.41157531738281,45.16242980957031,-0.5054747462272644,0.5174741148948669,0.6644667387008667,1.770405888557434,-1.3987681865692139,2.1374151706695557
211,21861,21854,0.05750015005469322,-0.04156431928277016,0.8564293384552002,9.239919662475586,-40.55698776245117,48.67809295654297,-0.5174741148948669,0.5114744305610657,0.6524673700332642,2.514927387237549,-1.5357309579849243,2.6095492839813232
212,21871,21864,-0.05558931827545166,0.021713310852646828,0.9145471453666687,20.12725067138672,-19.48795509338379,52.13953399658203,-0.5039747953414917,0.5129743218421936,0.6599670052528381,2.3252296447753906,-1.290936827659607,3.112262010574341
213,21881,21874,-0.05881243199110031,-0.02271181344985962,0.8504108190536499,18.696247100830078,-2.0668182373046875,54.36874008178711,-0.5174741148948669,0.5294735431671143,0.6734663248062134,2.5916991233825684,-1.1114920377731323,3.6366162300109863
214,21891,21884,-0.11004806309938431,0.028498061001300812,0.9111589789390564,2.1901957988739014,14.378763198852539,54.927833557128906,-0.5129743218421936,0.5309734344482422,0.6719663739204407,2.5808517932891846,-0.9980551600456238,4.180509090423584
215,21901,21894,-0.035972993820905685,0.025034788995981216,0.869408130645752,-20.781539916992188,31.65662956237793,50.9882926940918,-0.5144742727279663,0.5144742727279663,0.6854656934738159,2.3093833923339844,-1.085854411125183,4.726720333099365
216,21911,21904,-0.05643230676651001,0.09896443039178848,0.8184195160865784,-43.045494079589844,44.030242919921875,47.05278015136719,-0.5144742727279663,0.5354732275009155,0.6884655356407166,1.8787800073623657,-1.5648878812789917,5.227288722991943
217,21921,21914,-0.10476407408714294,0.1213093250989914,0.8601199984550476,-59.8017463684082,45.236568450927734,45.69542694091797,-0.5204739570617676,0.5294735431671143,0.6734663248062134,1.5625391006469727,-1.9358347654342651,5.669689178466797
218,21931,21924,0.0004798000736627728,0.05100784823298454,0.8466282486915588,-71.0790023803711,34.8629264831543,45.443851470947266,-0.5189740657806396,0.5429728627204895,0.6779661178588867,0.8214690089225769,-2.779039144515991,6.141840934753418
219,21941,21934,0.022860117256641388,0.08788555860519409,1.0008280277252197,-73.35553741455078,13.747785568237305,41.81637954711914,-0.5354732275009155,0.5564721822738647,0.6704664826393127,0.728166937828064,-3.3474788665771484,6.541423320770264
220,21951,21944,-0.023352323099970818,0.05633344128727913,0.9387020468711853,-67.6661148071289,-1.7112725973129272,35.45476150512695,-0.5354732275009155,0.5474725961685181,0.6854656934738159,0.5188261866569519,-4.138416290283203,6.951098442077637
221,21971,21954,-0.030832387506961823,0.0608426071703434,0.9560669660568237,-26.308971405029297,-18.357952117919922,22.348739624023438,-0.5174741148948669,0.5474725961685181,0.6614668965339661,0.8773325085639954,-5.372887134552002,7.5489501953125
222,21981,21964,-0.01386748906224966,0.008250460028648376,0.9360292553901672,6.053860664367676,-20.248058319091797,11.69913387298584,-0.5234737992286682,0.5264736413955688,0.6554672122001648,0.990382730960846,-5.512290000915527,7.792139053344727
223,21991,21974,-0.03852056339383125,0.0596700944006443,0.9749728441238403,39.99765396118164,-15.825788497924805,-1.7008005380630493,-0.49947500228881836,0.5414729118347168,0.6734663248062134,1.1869674921035767,-5.315059185028076,7.903254985809326
224,22001,21984,-0.011671998538076878,0.06657741218805313,0.9495234489440918,74.81765747070312,-18.89960479736328,-12.126974105834961,-0.5114744305610657,0.5384730696678162,0.6734663248062134,1.419533133506775,-4.868462562561035,7.864887237548828
225,22011,21994,-0.011785165406763554,0.03387004882097244,0.9581356644630432,100.23110961914062,-16.3710880279541,-17.254133224487305,-0.5204739570617676,0.5444727540016174,0.6644667387008667,1.6316120624542236,-3.940333366394043,7.741936206817627
226,22021,22004,-0.009953140281140804,0.11441802978515625,0.8043968081474304,111.04356384277344,-4.521815776824951,-18.386510848999023,-0.5039747953414917,0.5279735922813416,0.6509674191474915,1.5815705060958862,-3.1065025329589844,7.676990509033203
227,22031,22014,0.00847606174647808,0.06408929824829102,1.1338576078414917,103.99382019042969,23.191219329833984,-19.101131439208984,-0.5039747953414917,0.5279735922813416,0.6509674191474915,1.6154656410217285,-1.861707329750061,7.474912643432617
228,22041,22024,-0.04242191091179848,0.01887236163020134,0.9968103766441345,77.26581573486328,54.96675491333008,-18.228137969970703,-0.5039747953414917,0.5279735922813416,0.6509674191474915,1.1461524963378906,-0.6367392539978027,7.3853583335876465
229,22051,22034,-0.04273468255996704,-0.015396780334413052,0.8917059302330017,29.588247299194336,71.3335189819336,-20.26056671142578,-0.5039747953414917,0.5279735922813416,0.6509674191474915,0.5490036010742188,-0.25439685583114624,7.216937065124512
230,22061,22044,-0.11392540484666824,0.04846383258700371,0.9390580654144287,-7.33266019821167,68.79299926757812,-22.59095001220703,-0.5039747953414917,0.5279735922813416,0.6509674191474915,-0.3400362432003021,-0.18455158174037933,7.094257354736328
231,22071,22054,-0.09530956298112869,-0.007632470224052668,0.9499240517616272,-26.540550231933594,55.017730712890625,-24.34493637084961,-0.5309734344482422,0.554972231388092,0.66896653175354,-0.9938921332359314,-0.2823570966720581,6.858968257904053
232,22091,22064,-0.032531678676605225,-0.02100636251270771,0.938805878162384,-35.022789001464844,-7.639046669006348,-34.65706253051758,-0.5399730205535889,0.5609719157218933,0.6599670052528381,-1.487860083580017,-1.0139907598495483,6.204007148742676
233,22101,22074,-0.06402591615915298,0.03664093464612961,1.0194997787475586,-10.623536109924316,-35.81709671020508,-36.13923645019531,-0.5384730696678162,0.5504724383354187,0.6824658513069153,-1.3114922046661377,-1.3723199367523193,5.8293681144714355
234,22111,22084,-0.11323945969343185,0.009162555448710918,1.0087425708770752,16.953393936157227,-52.66230010986328,-32.99745559692383,-0.5429728627204895,0.5519723892211914,0.683965802192688,-1.24937903881073,-1.3717721700668335,5.608775615692139
235,22121,22094,-0.1890084445476532,0.07549038529396057,0.9926877617835999,28.00474739074707,-45.6616325378418,-32.17167282104492,-0.5444727540016174,0.5474725961685181,0.6704664826393127,-0.45158156752586365,-1.0502711534500122,5.216243267059326
236,22131,22104,-0.14558425545692444,0.14417393505573273,1.0285272598266602,32.085350036621094,-26.398113250732422,-32.051795959472656,-0.5444727540016174,0.5384730696678162,0.6854656934738159,0.23574596643447876,-0.7700905203819275,4.814398765563965
237,22141,22114,-0.059434156864881516,0.10300776362419128,1.0023001432418823,34.99745178222656,-2.3462765216827393,-29.787342071533203,-0.5489725470542908,0.5309734344482422,0.683965802192688,0.5124243497848511,-0.42616304755210876,4.48902702331543
238,22151,22124,-0.05735650286078453,0.12671534717082977,1.0857962369918823,34.97645568847656,24.18686294555664,-25.152538299560547,-0.5354732275009155,0.5414729118347168,0.6734663248062134,-0.16920042037963867,-0.03132965415716171,4.423756122589111
239,22161,22134,-0.04112769663333893,0.08574558794498444,1.0446953773498535,25.84858512878418,39.541439056396484,-22.61241912841797,-0.5234737992286682,0.5354732275009155,0.6704664826393127,-0.5145204067230225,0.2595873773097992,4.190802574157715
240,22171,22144,-0.0498395636677742,0.010933492332696915,0.9972227215766907,12.36658763885498,41.74729919433594,-20.729711532592773,-0.5324733853340149,0.5384730696678162,0.6614668965339661,-1.0037519931793213,0.46417999267578125,3.9889707565307617
241,22181,22154,-0.05635348707437515,-0.07297638803720474,0.927119791507721,-4.539895057678223,31.34551239013672,-22.942337036132812,-0.5399730205535889,0.5519723892211914,0.6719663739204407,-1.5117701292037964,0.5122678875923157,3.797731876373291
242,22191,22164,-0.07198891043663025,0.008675934746861458,0.9913971424102783,-20.528162002563477,7.0095038414001465,-26.927021026611328,-0.5414729118347168,0.5654717087745667,0.6884655356407166,-1.584814429283142,0.43071407079696655,3.5126492977142334
243,22201,22174,-0.06290094554424286,0.04800794646143913,0.9745011329650879,-38.316864013671875,-19.410837173461914,-30.64407730102539,-0.5474725961685181,0.5534723401069641,0.6704664826393127,-1.3307135105133057,0.05951147526502609,3.148481845855713
244,22211,22184,-0.03981301188468933,0.009286245331168175,0.9592767953872681,-44.0757942199707,-36.989986419677734,-34.14619827270508,-0.5519723892211914,0.5669716596603394,0.6719663739204407,-0.9669888019561768,-0.3307690918445587,2.814244508743286
245,22221,22204,-0.042258355766534805,0.02643749676644802,1.0235942602157593,-37.698543548583984,-40.25300979614258,-38.01817321777344,-0.5504724383354187,0.5714713931083679,0.691465437412262,-0.6336730122566223,-0.7200891971588135,2.492737054824829
246,22231,22214,-0.0837588980793953,0.0469471774995327,1.037764072418213,-12.959681510925293,-28.350379943847656,-43.452999114990234,-0.5639718174934387,0.56997150182724,0.6809659600257874,-0.12595024704933167,-1.1098198890686035,2.0870323181152344
247,22241,22224,-0.047916825860738754,0.024511409923434258,1.03961980342865,16.182174682617188,-13.95976734161377,-47.76239013671875,-0.5459727048873901,0.5669716596603394,0.6869656443595886,0.31046774983406067,-1.0011497735977173,1.6877033710479736
248,22251,22234,-0.04540284350514412,0.04349309578537941,1.1143677234649658,36.33042526245117,-4.840167045593262,-49.08816909790039,-0.5429728627204895,0.5789710283279419,0.7049647569656372,0.1447669267654419,-0.7337465882301331,1.2770582437515259
249,22261,22244,0.00754395080730319,-0.048391345888376236,1.0700567960739136,56.55316162109375,1.4803709983825684,-47.74626541137695,-0.5489725470542908,0.5729713439941406,0.6779661178588867,-0.1497955173254013,-0.3972325325012207,0.820650041103363
250,22271,22254,0.03565981984138489,0.009442448616027832,1.0894702672958374,62.570579528808594,0.911487877368927,-43.65413284301758,-0.5459727048873901,0.5609719157218933,0.6779661178588867,-0.14977873861789703,0.3651840090751648,0.392682820558548
251,22281,22264,-0.06098084896802902,0.05974668264389038,1.0707226991653442,55.08198928833008,-6.56550931930542,-37.795555114746094,-0.5429728627204895,0.554972231388092,0.683965802192688,-0.1271086484193802,1.0316948890686035,-0.029556822031736374
252,22291,22274,-0.1004258245229721,-0.019075000658631325,1.0491474866867065,43.4488410949707,-9.972551345825195,-31.43825340270996,-0.5249737501144409,0.554972231388092,0.6779661178588867,-0.00048329777200706303,1.4787168502807617,-0.4306699335575104
253,22301,22284,-0.009820842184126377,0.029918266460299492,1.0274494886398315,31.392797470092773,-11.09274959564209,-24.47692108154297,-0.5354732275009155,0.5324733853340149,0.6824658513069153,0.18516935408115387,1.877159833908081,-0.7512675523757935
254,22311,22294,-0.05632714927196503,0.03277009725570679,1.0682306289672852,17.828777313232422,-6.710227012634277,-15.582098007202148,-0.5294735431671143,0.5294735431671143,0.6644667387008667,0.08049075305461884,2.0870206356048584,-0.9987086057662964
255,22321,22304,-0.05762726813554764,-0.004021850414574146,0.9636794924736023,8.471912384033203,9.856685638427734,-7.317504405975342,-0.5144742727279663,0.5264736413955688,0.6644667387008667,0.07769559323787689,2.216895818710327,-1.148667812347412
256,22331,22314,-0.08669635653495789,0.04420929029583931,1.0503638982772827,3.3391528129577637,8.641366958618164,-4.487084865570068,-0.5414729118347168,0.5234737992286682,0.6734663248062134,-0.07043684273958206,2.286022901535034,-1.213757038116455
257,22341,22324,-0.07792972773313522,0.005070160608738661,0.9448981285095215,-4.016914367675781,2.942824602127075,-3.0228686332702637,-0.5294735431671143,0.5354732275009155,0.6824658513069153,-0.1499769240617752,2.3358447551727295,-1.2479548454284668
258,22351,22334,-0.013088579289615154,0.016096752136945724,0.9842403531074524,-9.561055183410645,10.380209922790527,0.42854043841362,-0.5384730696678162,0.5474725961685181,0.6614668965339661,-0.183530792593956,2.2510173320770264,-1.2787935733795166
259,22361,22344,-0.06833747029304504,-0.016378091648221016,0.9323517680168152,-7.382390975952148,13.31242847442627,3.0486831665039062,-0.5414729118347168,0.5294735431671143,0.6734663248062134,-0.1955006718635559,2.1855781078338623,-1.2512507438659668
260,22371,22354,-0.051722604781389236,0.028796693310141563,1.015350580215454,-22.03265380859375,0.906988263130188,-0.08026570826768875,-0.5504724383354187,0.5474725961685181,0.676466166973114,-0.3289879560470581,2.031813144683838,-1.234893560409546
261,22381,22364,0.006907924544066191,-0.07775560021400452,0.9334107637405396,-34.23090744018555,7.500313758850098,-3.6991522312164307,-0.5354732275009155,0.5414729118347168,0.6734663248062134,-0.18073168396949768,1.7046536207199097,-1.2331616878509521
262,22391,22374,-0.03338801860809326,0.00011304928921163082,0.9791461229324341,-36.355255126953125,22.42104148864746,-6.437706470489502,-0.5339732766151428,0.5369731187820435,0.66896653175354,-0.3383190333843231,1.216333270072937,-1.3103796243667603
263,22401,22384,-0.05508285388350487,-0.014098774641752243,1.0512278079986572,-31.736751556396484,27.459081649780273,-6.888735294342041,-0.5474725961685181,0.562471866607666,0.6794660091400146,-0.6942784786224365,1.001697063446045,-1.3649495840072632
264,22411,22394,-0.024935632944107056,0.007767964620143175,1.0084730386734009,-17.1488094329834,29.012027740478516,-5.725557804107666,-0.5429728627204895,0.5639718174934387,0.683965802192688,-1.1260309219360352,0.677623450756073,-1.4648642539978027
265,22421,22404,-0.02257372997701168,0.04383707046508789,0.9651418924331665,-1.496546983718872,22.518909454345703,-2.789316415786743,-0.5534723401069641,0.5564721822738647,0.6884655356407166,-1.2595679759979248,0.721129834651947,-1.439581036567688
266,22431,22414,-0.012497969903051853,0.04245853051543236,1.0223636627197266,8.675743103027344,7.668112754821777,-2.325766086578369,-0.5534723401069641,0.5564721822738647,0.6884655356407166,-1.421573281288147,0.7188351154327393,-1.4550989866256714
267,22441,22424,-0.06938949227333069,-0.005626941565424204,1.0075379610061646,12.756321907043457,-8.145964622497559,-3.017247438430786,-0.5444727540016174,0.5684715509414673,0.6854656934738159,-1.484086275100708,0.7950433492660522,-1.4811323881149292
268,22451,22434,-0.025122076272964478,0.007329774554818869,1.0379489660263062,16.296552658081055,-19.30270767211914,-5.473636150360107,-0.562471866607666,0.5684715509414673,0.6734663248062134,-1.294820785522461,1.0085831880569458,-1.4760992527008057
269,22461,22444,-0.004753178916871548,-0.029498763382434845,1.0048863887786865,24.146106719970703,-34.383689880371094,-6.16452693939209,-0.554972231388092,0.5639718174934387,0.6749662160873413,-0.9889881014823914,1.204911470413208,-1.5103955268859863
270,22471,22454,-0.007593450602144003,0.00278696371242404,1.0506101846694946,28.707687377929688,-40.41885757446289,-3.9117069244384766,-0.5459727048873901,0.5579720735549927,0.6719663739204407,-0.5260111689567566,1.4522929191589355,-1.556261658668518
271,22481,22464,-0.00516483886167407,-0.03598450869321823,1.009927749633789,21.802949905395508,-32.54658126831055,1.692176342010498,-0.5354732275009155,0.5444727540016174,0.6704664826393127,-0.2870925962924957,1.751426100730896,-1.6268118619918823
272,22491,22474,-0.04681404307484627,0.004606972448527813,1.0627986192703247,4.922521114349365,-22.912078857421875,11.547369003295898,-0.5399730205535889,0.5489725470542908,0.6749662160873413,0.18490590155124664,2.048931360244751,-1.5534783601760864
273,22501,22484,-0.10728605836629868,-0.156520277261734,1.0905098915100098,-30.924848556518555,-18.279098510742188,18.207494735717773,-0.5384730696678162,0.5294735431671143,0.6614668965339661,0.35617077350616455,1.954032063484192,-1.477385401725769
274,22511,22494,-0.03187491372227669,-0.12241707742214203,1.0169121026992798,-70.04618835449219,-13.861302375793457,14.831750869750977,-0.5264736413955688,0.5324733853340149,0.6824658513069153,0.6665224432945251,1.4647939205169678,-1.307909369468689
275,22521,22504,-0.1349080204963684,-0.06000891700387001,1.0600659847259521,-90.51545715332031,-15.0410795211792,12.020008087158203,-0.5219739079475403,0.5369731187820435,0.6869656443595886,0.7628087401390076,0.527317464351654,-1.220215082168579
276,22531,22514,-0.0974515825510025,-0.19803032279014587,1.0452760457992554,-80.72339630126953,-18.325206756591797,13.562945365905762,-0.5459727048873901,0.5459727048873901,0.6599670052528381,0.6806683540344238,-0.163834348320961,-1.1182856559753418
277,22541,22524,-0.023396000266075134,-0.07416986674070358,0.9319294691085815,-49.6054573059082,-25.308116912841797,14.241507530212402,-0.5474725961685181,0.5684715509414673,0.6644667387008667,0.9957413077354431,-1.0254639387130737,-0.9618946313858032
278,22551,22534,-0.04166856408119202,0.04994230717420578,0.9675463438034058,-18.58804702758789,-40.56936264038086,14.316001892089844,-0.5459727048873901,0.5669716596603394,0.6899654865264893,1.0429612398147583,-1.282546043395996,-0.8347187638282776
279,22561,22544,-0.09577537328004837,0.10235856473445892,1.0145132541656494,3.7136290073394775,-49.435550689697266,14.97956657409668,-0.5279735922813416,0.5669716596603394,0.6749662160873413,1.7669544219970703,-1.3571350574493408,-0.6051666140556335
280,22571,22554,-0.1625521332025528,0.026432031765580177,1.083241581916809,28.60150909423828,-42.12840270996094,11.772849082946777,-0.5384730696678162,0.5504724383354187,0.676466166973114,2.065463066101074,-1.273099660873413,-0.47814249992370605
281,22581,22564,-0.08403845876455307,0.030969448387622833,1.009497880935669,50.228145599365234,-14.272269248962402,10.853179931640625,-0.5159741640090942,0.554972231388092,0.6869656443595886,2.645113229751587,-0.8742092847824097,-0.3224509358406067
282,22591,22574,-0.08562389016151428,-0.02564234286546707,0.9938751459121704,64.63591003417969,14.418696403503418,10.929128646850586,-0.5264736413955688,0.5504724383354187,0.676466166973114,2.3919131755828857,-0.3320753872394562,-0.24908936023712158
283,22601,22584,-0.07968275994062424,-0.13470585644245148,0.9711781144142151,60.08877182006836,35.42409133911133,9.612675666809082,-0.5189740657806396,0.5459727048873901,0.6719663739204407,2.1367576122283936,0.3931350111961365,-0.1469811052083969
284,22611,22594,0.013829116709530354,0.05754561722278595,0.9301968812942505,23.46830940246582,47.68482208251953,5.82204532623291,-0.5114744305610657,0.5594720244407654,0.6824658513069153,1.8963297605514526,0.7525996565818787,-0.03853834792971611
285,22621,22604,-0.09078901261091232,0.22980079054832458,0.9926708340644836,-20.342548370361328,39.61473083496094,3.170422315597534,-0.5054747462272644,0.5354732275009155,0.6704664826393127,1.305206537246704,0.8869675993919373,0.016755662858486176
286,22631,22614,-0.11078841239213943,-0.009762808680534363,1.052519679069519,-57.69074249267578,22.757570266723633,-0.22659900784492493,-0.5219739079475403,0.5579720735549927,0.6629668474197388,1.0178592205047607,0.6292626261711121,0.058904800564050674
287,22641,22624,-0.0035648695193231106,-0.1252489686012268,0.8507242202758789,-80.43809509277344,25.649642944335938,-7.1332855224609375,-0.5249737501144409,0.5429728627204895,0.6629668474197388,0.6937431693077087,-0.1621875762939453,0.053490497171878815
288,22651,22634,-0.11543533951044083,-0.0016607308061793447,0.8622715473175049,-74.01457214355469,40.51469421386719,-8.219685554504395,-0.5249737501144409,0.5459727048873901,0.6569671630859375,0.3230862319469452,-1.1261693239212036,-0.019383033737540245
289,22661,22644,-0.1806384027004242,0.05134330317378044,0.9511880278587341,-49.642948150634766,43.82683563232422,-5.139681816101074,-0.5204739570617676,0.5444727540016174,0.6674666404724121,-0.12209884077310562,-1.5723633766174316,-0.12538255751132965
290,22671,22654,-0.08044473826885223,0.047023236751556396,0.983053982257843,-14.874176025390625,26.470407485961914,-2.854024887084961,-0.5354732275009155,0.5654717087745667,0.6734663248062134,-0.6208367943763733,-2.016613721847534,-0.19225989282131195
291,22681,22664,-0.035800278186798096,0.154967799782753,1.0536164045333862,16.353132247924805,0.22743532061576843,-1.4610064029693604,-0.5279735922813416,0.5639718174934387,0.6629668474197388,-0.8069702982902527,-2.048884153366089,-0.23016199469566345
292,22691,22674,-0.02056785114109516,0.03649241849780083,0.9471303820610046,38.25712966918945,-24.619522094726562,-1.8845056295394897,-0.5384730696678162,0.5804709792137146,0.6614668965339661,-0.710966944694519,-1.746008038520813,-0.2475430965423584
293,22701,22684,0.01502422709017992,0.03254666551947594,1.0129989385604858,50.22516632080078,-36.03288269042969,-4.927570343017578,-0.5309734344482422,0.5639718174934387,0.6599670052528381,-0.2510247826576233,-1.32064688205719,-0.2714000940322876
294,22711,22694,-0.052012696862220764,0.030003199353814125,1.0334053039550781,52.602638244628906,-32.83076095581055,-8.064682006835938,-0.5219739079475403,0.554972231388092,0.6599670052528381,0.2955564260482788,-0.8142417669296265,-0.3300168812274933
295,22721,22704,-0.05250771343708038,0.00035058942739851773,0.9857196807861328,51.1184196472168,-8.362174987792969,-8.836577415466309,-0.5189740657806396,0.5519723892211914,0.6659666895866394,0.5461843609809875,-0.4045148193836212,-0.40546080470085144
296,22731,22714,-0.10386448353528976,0.04299679398536682,0.9556625485420227,36.32976531982422,10.157404899597168,-11.459895133972168,-0.5234737992286682,0.5474725961685181,0.676466166973114,0.5510234236717224,0.16040191054344177,-0.4907224774360657
297,22741,22724,-0.05419211462140083,0.014515306800603867,0.955420970916748,9.13664722442627,13.832830429077148,-15.175660133361816,-0.5204739570617676,0.5354732275009155,0.6794660091400146,0.5844082832336426,0.3741762936115265,-0.6238595247268677
298,22751,22734,-0.08387468755245209,-0.00464207399636507,0.9929378628730774,-18.56306266784668,6.076312065124512,-18.609500885009766,-0.5294735431671143,0.5384730696678162,0.6734663248062134,0.2354736626148224,0.42112794518470764,-0.7596885561943054
299,22761,22744,-0.09439043700695038,-0.009997520595788956,1.0240542888641357,-37.80703353881836,0.9016942381858826,-20.65357780456543,-0.5249737501144409,0.5399730205535889,0.6809659600257874,0.30081847310066223,0.10041340440511703,-0.9608098268508911
300,22771,22754,-0.09656363725662231,0.002752110129222274,1.0593949556350708,-34.860504150390625,-11.515276908874512,-21.151832580566406,-0.5174741148948669,0.5234737992286682,0.6614668965339661,0.3085874915122986,-0.3158491253852844,-1.168850064277649
301,22781,22764,-0.04352743551135063,0.028186218813061714,1.0738214254379272,-7.0251898765563965,-28.24082374572754,-19.609100341796875,-0.5369731187820435,0.5489725470542908,0.6809659600257874,0.5491401553153992,-0.6751151084899902,-1.3841943740844727
302,22791,22774,-0.06466065347194672,-0.008353515528142452,1.0653798580169678,22.85596466064453,-29.542499542236328,-17.970571517944336,-0.5429728627204895,0.5609719157218933,0.6749662160873413,1.0213332176208496,-0.4826955795288086,-1.587007761001587
303,22801,22784,-0.07090457528829575,-0.018908610567450523,1.0302810668945312,42.29753494262695,-17.14338493347168,-12.860031127929688,-0.5399730205535889,0.56997150182724,0.6749662160873413,1.2426385879516602,-0.06688027828931808,-1.7582039833068848
304,22811,22794,-0.06601759791374207,-0.035483185201883316,1.0013978481292725,55.42148208618164,-5.418862819671631,-2.537137269973755,-0.5219739079475403,0.5579720735549927,0.6719663739204407,1.1722582578659058,0.37136754393577576,-1.8587652444839478
305,22821,22804,-0.07581064105033875,-0.008685654029250145,1.0419554710388184,42.457096099853516,1.765055775642395,5.1020941734313965,-0.5354732275009155,0.5534723401069641,0.6734663248062134,1.2271826267242432,1.0160926580429077,-1.8790897130966187
306,22831,22814,-0.10281094908714294,-0.010091608390212059,1.0203408002853394,-6.020588397979736,10.763487815856934,9.233241081237793,-0.5174741148948669,0.5534723401069641,0.6674666404724121,1.180978536605835,1.1334789991378784,-1.812024712562561
307,22841,22824,-0.08181996643543243,-0.022480938583612442,1.0123111009597778,-63.98661804199219,21.555437088012695,10.273560523986816,-0.5189740657806396,0.5579720735549927,0.683965802192688,0.894387423992157,0.8284498453140259,-1.7010607719421387
308,22851,22834,-0.06769950687885284,-0.07726127654314041,0.9615998864173889,-96.80668640136719,31.153892517089844,13.99375057220459,-0.5174741148948669,0.5294735431671143,0.6734663248062134,0.862127959728241,0.27778783440589905,-1.606120228767395
309,22861,22844,-0.07691077888011932,0.09780805557966232,1.025006651878357,-100.57785034179688,34.42535400390625,20.140552520751953,-0.5249737501144409,0.5459727048873901,0.6629668474197388,0.40191125869750977,-0.9785317778587341,-1.443917989730835
310,22871,22854,-0.11052541434764862,0.08368384838104248,1.083448886871338,-83.67325592041016,34.79707336425781,22.100086212158203,-0.5459727048873901,0.5639718174934387,0.6599670052528381,0.18095538020133972,-1.7489436864852905,-1.2623052597045898
311,22881,22864,-0.038087375462055206,0.06576475501060486,1.032401442527771,-35.34138488769531,34.77047348022461,24.439498901367188,-0.5399730205535889,0.5789710283279419,0.6749662160873413,-0.32743147015571594,-2.578453779220581,-1.0508134365081787
312,22891,22874,-0.06224033609032631,0.03987925127148628,1.0157727003097534,25.26311492919922,28.358049392700195,24.72401237487793,-0.5474725961685181,0.5834708213806152,0.6854656934738159,-0.8698557019233704,-2.8311691284179688,-0.8189852833747864
313,22901,22884,0.022308887913823128,0.020085610449314117,1.0918256044387817,74.31705474853516,24.955778121948242,24.014055252075195,-0.5384730696678162,0.5684715509414673,0.6734663248062134,-0.9703861474990845,-2.257242202758789,-0.5978286862373352
314,22911,22894,0.019300712272524834,-0.005789111368358135,1.15188729763031,102.54664611816406,22.93140983581543,20.5408992767334,-0.5444727540016174,0.5534723401069641,0.6704664826393127,-1.3086915016174316,-1.051707148551941,-0.35612383484840393
315,22921,22904,-0.05403436720371246,-0.029861314222216606,1.0685343742370605,108.5373306274414,14.316718101501465,18.58163070678711,-0.5384730696678162,0.5414729118347168,0.6614668965339661,-1.035058617591858,-0.30251845717430115,-0.22804006934165955
316,22931,22914,-0.08130600303411484,-0.008654515258967876,1.0204131603240967,89.93055725097656,0.2653540372848511,15.898719787597656,-0.5369731187820435,0.56997150182724,0.6659666895866394,-1.1829252243041992,0.8968936204910278,-0.0364459790289402
317,22941,22924,-0.09383882582187653,0.008499115705490112,1.0397279262542725,63.4343147277832,-11.23854923248291,14.543855667114258,-0.5279735922813416,0.5519723892211914,0.6569671630859375,-1.0246435403823853,1.4914395809173584,0.07906689494848251
318,22951,22934,-0.14058613777160645,-0.019480174407362938,1.0570068359375,26.116437911987305,-20.3760986328125,14.68347454071045,-0.5294735431671143,0.5414729118347168,0.6674666404724121,-0.7532983422279358,2.1259822845458984,0.207814559340477
319,22961,22944,-0.11490876227617264,-0.017102986574172974,1.1208207607269287,-20.33355712890625,-36.71702194213867,14.565673828125,-0.5399730205535889,0.5219739079475403,0.6749662160873413,-0.38767877221107483,2.2012600898742676,0.317710816860199
320,22971,22954,0.04109855741262436,-0.028997274115681648,1.1185410022735596,-70.22595977783203,-41.17742919921875,10.265416145324707,-0.5234737992286682,0.502474844455719,0.6674666404724121,-0.03936982899904251,1.8291467428207397,0.4340616464614868
321,22981,22964,-0.02451746165752411,0.035745732486248016,1.0106909275054932,-100.51432800292969,-35.554534912109375,6.680819988250732,-0.5264736413955688,0.5114744305610657,0.676466166973114,0.4090314507484436,1.1337380409240723,0.5265567302703857
322,22991,22974,-0.16248011589050293,0.11401081085205078,1.0474669933319092,-112.51927947998047,-26.025739669799805,5.359038352966309,-0.5339732766151428,0.509974479675293,0.6659666895866394,0.8433966040611267,-0.21252796053886414,0.5590614676475525
323,23001,22984,-0.1559257209300995,-0.10324499756097794,0.9611430168151855,-103.71896362304688,3.3103995323181152,0.418783962726593,-0.5339732766151428,0.5219739079475403,0.6659666895866394,1.0843093395233154,-0.9058725833892822,0.6442191004753113
324,23011,22994,-0.11756215244531631,-0.17310161888599396,0.9327497482299805,-83.73019409179688,13.815264701843262,-6.615139961242676,-0.5384730696678162,0.5414729118347168,0.6584670543670654,0.9251348972320557,-2.1370322704315186,0.6163858771324158
325,23021,23004,-0.05617241561412811,-0.04629555717110634,0.9546709656715393,-40.50819396972656,35.90262985229492,-12.815608024597168,-0.5279735922813416,0.5519723892211914,0.6719663739204407,0.7367163896560669,-3.0291991233825684,0.526258111000061
326,23031,23014,-0.04992258921265602,0.014938744716346264,1.0218431949615479,20.853530883789062,62.93159484863281,-14.623091697692871,-0.5294735431671143,0.5534723401069641,0.6734663248062134,0.276981920003891,-2.920060873031616,0.3963959813117981
327,23041,23024,-0.041457559913396835,0.012893281877040863,1.001682162284851,70.66928100585938,68.84333038330078,-13.306278228759766,-0.5294735431671143,0.5444727540016174,0.6674666404724121,-0.5669971704483032,-2.430699348449707,0.2373487949371338
328,23051,23034,-0.040795858949422836,0.03216763213276863,0.9804593324661255,102.9677734375,52.26114273071289,-8.067819595336914,-0.5069746375083923,0.5339732766151428,0.6569671630859375,-0.9086211919784546,-1.687347173690796,0.06271973252296448
329,23061,23044,-0.02715413086116314,0.03060356341302395,0.9372840523719788,109.88636016845703,30.3681583404541,-2.2279274463653564,-0.5354732275009155,0.5474725961685181,0.6554672122001648,-1.5307730436325073,-0.36563989520072937,0.011170299723744392
330,23071,23054,0.03497214615345001,-0.03187175840139389,0.9192841053009033,96.4804916381836,8.972899436950684,2.594167709350586,-0.5459727048873901,0.5489725470542908,0.6629668474197388,-1.7217389345169067,0.4403515160083771,-0.041449178010225296
331,23081,23064,0.008032886311411858,-0.09000762552022934,0.8968770503997803,67.11610412597656,-7.578248500823975,9.653929710388184,-0.5144742727279663,0.5384730696678162,0.6494675278663635,-1.826754093170166,1.4895645380020142,0.013966906815767288
332,23091,23074,0.00927596352994442,-0.10758819431066513,0.9764837026596069,21.571958541870117,-6.692615032196045,15.858855247497559,-0.5414729118347168,0.5324733853340149,0.6644667387008667,-1.7088122367858887,1.9103846549987793,0.09373878687620163
333,23101,23084,0.042526666074991226,-0.0631224736571312,0.9336979985237122,-20.37973403930664,3.225170612335205,14.556692123413086,-0.5399730205535889,0.5219739079475403,0.6509674191474915,-1.6782995462417603,2.031629800796509,0.24436384439468384
334,23111,23094,-0.05521882697939873,-0.018513789400458336,0.8644721508026123,-39.210731506347656,20.48967933654785,11.91479778289795,-0.5294735431671143,0.5174741148948669,0.6524673700332642,-1.623862862586975,1.7489638328552246,0.3719325363636017
335,23121,23104,-0.09622965008020401,0.06762981414794922,0.9278143644332886,-43.89656066894531,36.54349899291992,9.279441833496094,-0.5339732766151428,0.5009749531745911,0.6389680504798889,-1.9736874103546143,1.2068712711334229,0.4708787798881531
336,23131,23114,-0.10679744184017181,-0.11084198206663132,0.9494203329086304,-39.63656234741211,52.78789520263672,10.799196243286133,-0.5354732275009155,0.5144742727279663,0.6524673700332642,-2.539811134338379,0.8415202498435974,0.5878496170043945
337,23141,23124,-0.02783922851085663,-0.04780403897166252,1.0575469732284546,-35.83004379272461,49.58829879760742,11.452159881591797,-0.5414729118347168,0.5144742727279663,0.6644667387008667,-3.140578269958496,0.42623573541641235,0.6954614520072937
338,23151,23134,-0.06264317035675049,0.06511183828115463,1.0634516477584839,-29.485078811645508,31.178125381469727,10.510010719299316,-0.5474725961685181,0.5354732275009155,0.6614668965339661,-3.5622618198394775,0.012630661018192768,0.7920037508010864
339,23161,23154,-0.06925637274980545,0.05373139679431915,0.9592545032501221,-24.755455017089844,13.822876930236816,10.687478065490723,-0.5534723401069641,0.5474725961685181,0.6614668965339661,-3.64261531829834,-0.16836296021938324,0.9393749833106995
340,23171,23164,-0.19290250539779663,0.0416693240404129,0.8845646381378174,-13.8508882522583,-5.00743293762207,9.850882530212402,-0.554972231388092,0.5639718174934387,0.6569671630859375,-3.860015392303467,-0.27639782428741455,1.0831183195114136
341,23181,23174,-0.1395418494939804,0.025403838604688644,0.8708246946334839,-4.809277057647705,-29.65742301940918,10.878702163696289,-0.5504724383354187,0.5384730696678162,0.6674666404724121,-3.7040677070617676,-0.34417885541915894,1.2082903385162354
342,23191,23184,0.0664321705698967,0.06603570282459259,0.9685654640197754,-7.203457355499268,-63.119754791259766,11.07300090789795,-0.554972231388092,0.5159741640090942,0.6599670052528381,-3.1166129112243652,-0.43248921632766724,1.314066767692566
343,23201,23194,0.06965908408164978,0.06045001745223999,0.9471222162246704,-14.588347434997559,-90.52368927001953,8.650694847106934,-0.5474725961685181,0.5324733853340149,0.6614668965339661,-2.367600440979004,-0.5915213823318481,1.397693157196045
344,23211,23204,0.0197492316365242,0.03135868161916733,0.9488868713378906,-22.10826301574707,-98.68380737304688,5.346896648406982,-0.5459727048873901,0.5339732766151428,0.66896653175354,-1.1700154542922974,-0.6462507247924805,1.540033221244812
345,23221,23214,-0.06943605840206146,-0.04634542390704155,0.9469615817070007,-33.387569427490234,-85.42259216308594,1.6637330055236816,-0.5399730205535889,0.5399730205535889,0.6509674191474915,-0.42904993891716003,-0.9245834350585938,1.5803364515304565
346,23231,23224,-0.0478169210255146,-0.03965774178504944,1.0563658475875854,-39.4533576965332,-44.929874420166016,-4.987706184387207,-0.5489725470542908,0.5609719157218933,0.6809659600257874,0.4543076455593109,-1.4379273653030396,1.538016438484192
347,23241,23234,-0.09739778190851212,-0.06856995075941086,0.9995675086975098,-35.1770133972168,4.336562633514404,-9.472302436828613,-0.5579720735549927,0.5399730205535889,0.6809659600257874,0.49888554215431213,-1.7231318950653076,1.5344128608703613
348,23251,23244,0.004908943548798561,-0.007606822066009045,0.9776354432106018,-17.600088119506836,32.17987060546875,-10.504897117614746,-0.5429728627204895,0.5609719157218933,0.6719663739204407,0.4047163128852844,-2.0489158630371094,1.4377433061599731
349,23261,23254,0.0628676488995552,0.02935926429927349,1.0632520914077759,4.37595796585083,47.1058235168457,-7.97957181930542,-0.5429728627204895,0.5789710283279419,0.6599670052528381,-0.04258213937282562,-2.1437957286834717,1.3468979597091675
350,23271,23264,-0.04202001541852951,0.012883457355201244,0.9544419646263123,36.29542541503906,55.05545425415039,-6.148750305175781,-0.5324733853340149,0.5744712948799133,0.6734663248062134,-0.6937151551246643,-1.9184411764144897,1.3042923212051392
351,23281,23274,-0.06295190751552582,0.024915050715208054,0.9827619791030884,56.2243766784668,50.995670318603516,-7.10573673248291,-0.5399730205535889,0.5669716596603394,0.6629668474197388,-1.5121033191680908,-1.3220895528793335,1.3058459758758545
352,23291,23284,-0.044466596096754074,0.0073151676915585995,0.9159625768661499,54.00343704223633,41.0882682800293,-12.441971778869629,-0.5474725961685181,0.5834708213806152,0.6794660091400146,-1.4494295120239258,-0.7975320816040039,1.1501517295837402
353,23301,23294,-0.08894246071577072,-0.006849863100796938,0.9061229228973389,40.64678192138672,27.406469345092773,-16.10612678527832,-0.5444727540016174,0.5804709792137146,0.6884655356407166,-1.934598684310913,-0.29515963792800903,1.025024175643921
354,23311,23304,-0.12090761959552765,-0.014292377047240734,0.8570618629455566,12.466999053955078,16.02008056640625,-22.227317810058594,-0.5594720244407654,0.5894705057144165,0.6734663248062134,-2.1338658332824707,-0.14666977524757385,0.790220320224762
355,23321,23314,-0.1478719562292099,-0.004924446810036898,0.8996312618255615,-18.92232322692871,-4.991174697875977,-22.885433197021484,-0.554972231388092,0.5729713439941406,0.66896653175354,-2.449458360671997,-0.10328532755374908,0.5895789265632629
356,23331,23324,-0.0963636115193367,-0.007838373072445393,1.0044759511947632,-34.38605499267578,-19.92622947692871,-23.281890869140625,-0.5504724383354187,0.5564721822738647,0.6614668965339661,-2.281567096710205,-0.3643086552619934,0.3380323648452759
357,23341,23334,-0.01575908251106739,0.013387772254645824,1.1360664367675781,-31.642166137695312,-31.967525482177734,-21.161649703979492,-0.554972231388092,0.5639718174934387,0.66896653175354,-1.4148608446121216,-0.8643900156021118,-0.0007967723067849874
358,23351,23344,-0.04170718416571617,-0.006774123292416334,1.0833122730255127,-23.816680908203125,-37.10641860961914,-19.2242431640625,-0.562471866607666,0.5744712948799133,0.6854656934738159,-1.1120188236236572,-1.0791432857513428,-0.17175261676311493
359,23361,23354,0.03644533455371857,0.077665314078331,1.0333471298217773,-8.270822525024414,-33.9580078125,-19.55727767944336,-0.5444727540016174,0.5564721822738647,0.6704664826393127,-0.8403767347335815,-1.2790131568908691,-0.3488617241382599
360,23371,23364,-0.03818412125110626,0.023563982918858528,1.0267094373703003,8.682943344116211,-29.391494750976562,-17.59222984313965,-0.5519723892211914,0.5459727048873901,0.6749662160873413,-0.6091688871383667,-1.2935487031936646,-0.5117955207824707
361,23381,23374,-0.08330638706684113,-0.01855551265180111,0.9928550720214844,19.936758041381836,-23.23529052734375,-14.670032501220703,-0.5399730205535889,0.5519723892211914,0.6719663739204407,-0.3698616027832031,-1.1149654388427734,-0.6513031721115112
362,23391,23384,-0.08313079923391342,0.017717760056257248,1.107500672340393,27.418838500976562,-14.170479774475098,-10.772262573242188,-0.5309734344482422,0.5489725470542908,0.6659666895866394,-0.022496037185192108,-0.7646920084953308,-0.7677480578422546
363,23411,23394,-0.024098362773656845,0.15199364721775055,1.0496138334274292,22.695072174072266,-4.0715203285217285,-5.435338497161865,-0.5399730205535889,0.5399730205535889,0.6659666895866394,0.08510781824588776,-0.22629648447036743,-0.9148384928703308
364,23421,23404,-0.037794407457113266,0.1981068104505539,1.0281035900115967,19.170185089111328,6.737658500671387,-2.9788105487823486,-0.5294735431671143,0.5384730696678162,0.6794660091400146,0.03473731130361557,-0.10555649548768997,-0.975496768951416
365,23431,23414,-0.03870724141597748,0.039816778153181076,1.0460047721862793,20.252914428710938,33.76136016845703,-1.8386476039886475,-0.5264736413955688,0.5474725961685181,0.6584670543670654,-0.1908082365989685,0.12207772582769394,-0.9869045615196228
366,23441,23424,-0.014583971351385117,0.03645413741469383,0.9910106062889099,20.06739616394043,57.75981521606445,2.0539166927337646,-0.5174741148948669,0.5294735431671143,0.6614668965339661,-0.8207245469093323,0.3078545928001404,-0.9756740927696228
367,23451,23434,-0.06194136664271355,-0.07268138974905014,1.024179458618164,12.4589204788208,72.75151824951172,7.6685028076171875,-0.5159741640090942,0.5279735922813416,0.6539672613143921,-1.4896262884140015,0.4643704891204834,-0.9398638606071472
368,23461,23444,-0.011320814490318298,-0.14825400710105896,1.048142910003662,-4.819339275360107,49.419036865234375,15.836684226989746,-0.5384730696678162,0.5444727540016174,0.6554672122001648,-2.331355333328247,0.5953844785690308,-0.8319486975669861
369,23471,23454,-0.0029759309254586697,-0.11619380116462708,0.9022517800331116,-20.42265510559082,11.962900161743164,28.376235961914062,-0.5219739079475403,0.5309734344482422,0.6719663739204407,-2.570472240447998,0.4673032760620117,-0.6827479600906372
370,23481,23464,-0.07202013581991196,-0.017389077693223953,0.9906142354011536,-36.04951095581055,-20.67746353149414,36.674320220947266,-0.5339732766151428,0.5429728627204895,0.6629668474197388,-2.4395902156829834,0.1543630063533783,-0.42152175307273865
371,23491,23474,-0.08427941054105759,0.08900504559278488,0.9732673168182373,-42.275325775146484,-44.526695251464844,40.78443145751953,-0.5414729118347168,0.5384730696678162,0.6434678435325623,-1.950249195098877,-0.3055992126464844,-0.0789794772863388
372,23501,23484,-0.05040572211146355,0.052618179470300674,0.9752024412155151,-48.00486755371094,-64.68472290039062,47.09618377685547,-0.5219739079475403,0.5159741640090942,0.6629668474197388,-1.5038537979125977,-0.5713473558425903,0.37077394127845764
373,23511,23494,-0.0225945133715868,0.00310673750936985,0.9227232933044434,-58.01997375488281,-69.93187713623047,47.205875396728516,-0.5429728627204895,0.5279735922813416,0.6599670052528381,-0.43869826197624207,-1.0894883871078491,0.8410178422927856
374,23521,23504,-0.027992885559797287,0.040294893085956573,0.9567469954490662,-65.86753845214844,-74.37342834472656,42.54500961303711,-0.5459727048873901,0.5249737501144409,0.6659666895866394,0.18203799426555634,-1.834827184677124,1.2994073629379272
375,23531,23514,-0.007431222591549158,0.09790585190057755,1.0148025751113892,-67.47406005859375,-76.24117279052734,35.85382843017578,-0.5339732766151428,0.5339732766151428,0.6659666895866394,0.6516546010971069,-2.3365509510040283,1.7790769338607788
376,23541,23524,-0.02164425514638424,0.027747463434934616,0.9842985272407532,-57.528873443603516,-62.36836624145508,29.126663208007812,-0.5309734344482422,0.5309734344482422,0.6659666895866394,1.4062187671661377,-3.151154041290283,2.143139123916626
377,23551,23534,-0.08020542562007904,-0.03054378367960453,0.9236323833465576,-27.655420303344727,-28.040626525878906,26.63631820678711,-0.5249737501144409,0.5339732766151428,0.6629668474197388,1.9605977535247803,-3.5228638648986816,2.4873669147491455
378,23561,23544,-0.06694335490465164,0.06193946301937103,0.7620573043823242,0.3842579424381256,5.756856918334961,27.196857452392578,-0.5174741148948669,0.5384730696678162,0.6674666404724121,1.9489288330078125,-3.6845812797546387,2.8012349605560303
379,23571,23554,-0.05285327881574631,0.061442527920007706,0.8500549793243408,27.009889602661133,23.23448371887207,26.901830673217773,-0.5339732766151428,0.5399730205535889,0.66896653175354,1.50071120262146,-3.599606513977051,3.1107659339904785
380,23581,23564,0.08253957331180573,-0.005720936693251133,0.8576568961143494,46.56581115722656,38.006927490234375,27.630298614501953,-0.5264736413955688,0.5684715509414673,0.6704664826393127,1.0622113943099976,-3.19023060798645,3.389862298965454
381,23591,23574,0.01678900606930256,-0.06147783622145653,0.8367513418197632,58.54142761230469,47.46063232421875,28.360380172729492,-0.5279735922813416,0.5729713439941406,0.6719663739204407,0.7337746620178223,-2.8162779808044434,3.634444236755371
382,23601,23584,-0.07431762665510178,0.10073257982730865,0.9961665272712708,61.85615539550781,38.188934326171875,28.512836456298828,-0.5354732275009155,0.5864706635475159,0.6794660091400146,0.10542714595794678,-2.1145193576812744,3.935296058654785
383,23611,23594,-0.09037294238805771,0.010270373895764351,0.9252200126647949,49.93769073486328,16.962541580200195,26.446455001831055,-0.5069746375083923,0.5579720735549927,0.6779661178588867,-0.3570338189601898,-1.7035975456237793,4.237167835235596
384,23621,23604,0.027912667021155357,-0.12801764905452728,0.9246644377708435,30.41956901550293,0.8993310928344727,21.748760223388672,-0.5504724383354187,0.5744712948799133,0.6644667387008667,-0.48161351680755615,-1.211680293083191,4.477374076843262
385,23631,23614,-0.016417084261775017,-0.04466279223561287,0.9106459617614746,15.257671356201172,-8.15679931640625,18.007261276245117,-0.5309734344482422,0.5759711861610413,0.6749662160873413,-0.2682393491268158,-1.019142985343933,4.638869762420654
386,23641,23624,-0.12038955092430115,0.12443055212497711,0.9358148574829102,3.7925047874450684,-6.383274078369141,14.942975044250488,-0.5414729118347168,0.5714713931083679,0.6884655356407166,-0.242708221077919,-0.8557946681976318,4.828853607177734
387,23651,23634,-0.0855146273970604,0.06027687340974808,0.9622219800949097,-10.612371444702148,-4.581949710845947,10.590982437133789,-0.5399730205535889,0.554972231388092,0.6869656443595886,-0.07090207934379578,-0.8956315517425537,4.9492011070251465
388,23661,23644,-0.06251942366361618,0.06525523960590363,1.0209306478500366,-17.05659294128418,-1.8295648097991943,4.3513922691345215,-0.5369731187820435,0.5579720735549927,0.6659666895866394,-0.26291343569755554,-1.1548889875411987,5.103670120239258
389,23671,23654,-0.01402516383677721,0.022001106292009354,1.0905965566635132,-19.66291046142578,-10.230337142944336,-2.011132001876831,-0.5504724383354187,0.5744712948799133,0.6824658513069153,-0.03571867197751999,-1.3910605907440186,5.091740131378174
390,23681,23674,-0.10394246876239777,0.036726463586091995,1.0543365478515625,-26.71902084350586,-21.945817947387695,-11.101527214050293,-0.5429728627204895,0.5759711861610413,0.683965802192688,0.01144119631499052,-1.6296027898788452,5.080108642578125
391,23691,23684,-0.1131240651011467,0.006822471972554922,1.0459293127059937,-23.4963321685791,-29.565555572509766,-22.456396102905273,-0.5444727540016174,0.5804709792137146,0.6794660091400146,0.46745288372039795,-2.0037264823913574,4.9199957847595215
392,23701,23694,-0.04503893479704857,0.09887494146823883,1.160126805305481,-1.996636986732483,-43.232173919677734,-32.80533981323242,-0.5369731187820435,0.56997150182724,0.6989650130271912,0.7059875726699829,-2.1070244312286377,4.701658725738525
393,23711,23704,-0.062474511563777924,0.024166202172636986,1.100642442703247,24.65263557434082,-32.92987823486328,-37.91658401489258,-0.5474725961685181,0.5894705057144165,0.6794660091400146,1.1381181478500366,-1.9802573919296265,4.36781644821167
394,23721,23714,-0.03174135461449623,-0.0060448977164924145,1.1455204486846924,54.143592834472656,-21.11417007446289,-40.701019287109375,-0.5294735431671143,0.577471137046814,0.6884655356407166,1.3101040124893188,-1.590137243270874,4.016067981719971
395,23731,23724,0.016698256134986877,-0.12043645232915878,1.1282259225845337,79.95930480957031,-5.634552478790283,-41.28947067260742,-0.5279735922813416,0.5669716596603394,0.6929653286933899,1.6431299448013306,-0.8716902732849121,3.565185070037842
396,23741,23734,-0.06754671037197113,-0.051426805555820465,1.11311936378479,98.53553771972656,1.3227880001068115,-37.97258377075195,-0.5264736413955688,0.5564721822738647,0.6854656934738159,1.6588027477264404,-0.22146420180797577,3.192869186401367
397,23751,23744,-0.07562210410833359,0.005013242829591036,1.086996078491211,105.1179428100586,4.920922756195068,-33.52448272705078,-0.5264736413955688,0.5534723401069641,0.6704664826393127,1.5220383405685425,1.0707730054855347,2.801504611968994
398,23761,23754,-0.08696803450584412,-0.024138854816555977,1.0270171165466309,84.13782501220703,8.559234619140625,-27.08860969543457,-0.5294735431671143,0.5474725961685181,0.691465437412262,1.5194693803787231,1.8713167905807495,2.5065300464630127
399,23771,23764,-0.042346056550741196,0.10078131407499313,1.071186900138855,26.355966567993164,-0.5963820219039917,-24.403728485107422,-0.5114744305610657,0.5414729118347168,0.6854656934738159,1.4568181037902832,2.666354179382324,2.231870651245117
400,23781,23774,-0.03822790086269379,0.007390871178358793,1.0135982036590576,-29.369842529296875,7.3879265785217285,-23.650632858276367,-0.5219739079475403,0.5339732766151428,0.683965802192688,1.3775240182876587,2.787769079208374,2.005314588546753
401,23791,23784,0.012645690701901913,-0.05203770101070404,1.0251260995864868,-81.45800018310547,24.7481746673584,-32.82583999633789,-0.509974479675293,0.5309734344482422,0.66896653175354,1.181153655052185,2.1168406009674072,1.816735863685608
402,23801,23794,-0.04592839255928993,-0.05072538182139397,1.001513957977295,-95.26394653320312,30.27018165588379,-39.44611358642578,-0.5369731187820435,0.554972231388092,0.6719663739204407,0.851721465587616,1.0044156312942505,1.5502674579620361
403,23811,23804,-0.07133056223392487,-0.07116276770830154,1.1162971258163452,-81.64192199707031,24.654979705810547,-42.17478942871094,-0.5414729118347168,0.5714713931083679,0.6884655356407166,0.6906447410583496,0.35786956548690796,1.087403416633606
404,23821,23814,-0.025988727807998657,-0.0536310188472271,1.1042249202728271,-43.98212432861328,6.328670501708984,-41.400333404541016,-0.5399730205535889,0.5639718174934387,0.6869656443595886,0.5032616257667542,-0.4097345769405365,0.6762145161628723
405,23831,23824,-0.016411740332841873,0.014014543034136295,1.112819790840149,-2.360748767852783,-8.285802841186523,-40.511226654052734,-0.5429728627204895,0.56997150182724,0.6809659600257874,0.632145345211029,-0.4774709641933441,0.2107124924659729
406,23841,23834,-0.06956295669078827,0.011708242818713188,1.1029279232025146,27.2718563079834,-17.20867156982422,-40.13774490356445,-0.5339732766151428,0.56997150182724,0.6809659600257874,0.8286398649215698,-0.2625775635242462,-0.22424016892910004
407,23851,23844,-0.10015513002872467,0.07390884310007095,1.0322463512420654,45.08163833618164,-12.79506778717041,-42.1217155456543,-0.5204739570617676,0.5474725961685181,0.676466166973114,0.966141939163208,0.10456209629774094,-0.6431084871292114
408,23861,23854,-0.15259277820587158,0.05857004225254059,1.092508316040039,46.54615020751953,7.11562442779541,-39.71027755737305,-0.5309734344482422,0.5429728627204895,0.6779661178588867,1.011672019958496,0.5656285285949707,-1.0587973594665527
409,23871,23864,-0.07598671317100525,-0.01826614700257778,1.0677138566970825,28.955495834350586,18.486549377441406,-37.44930648803711,-0.5309734344482422,0.5459727048873901,0.66896653175354,0.9108715057373047,1.1620503664016724,-1.4843944311141968
410,23881,23874,-0.010007966309785843,0.14903524518013,0.9383862018585205,-5.105645656585693,30.7984619140625,-40.92148208618164,-0.5264736413955688,0.5474725961685181,0.6734663248062134,0.5344946384429932,1.4288442134857178,-1.888207197189331
411,23891,23884,-0.0732685998082161,0.0664777085185051,1.0946605205535889,-26.084840774536133,38.19145965576172,-45.916969299316406,-0.5279735922813416,0.5309734344482422,0.6719663739204407,0.1206851676106453,1.1840777397155762,-2.2758829593658447
412,23901,23894,-0.06710372120141983,-0.04088088124990463,1.0379995107650757,-29.425981521606445,34.70343780517578,-54.29573440551758,-0.5174741148948669,0.5414729118347168,0.6644667387008667,-0.3493104577064514,0.8208580613136292,-2.7420473098754883
413,23911,23904,-0.06724638491868973,0.009460600093007088,1.0237011909484863,-25.98878288269043,17.410367965698242,-58.26237869262695,-0.5339732766151428,0.5459727048873901,0.6629668474197388,-0.757646918296814,0.3653154671192169,-3.2738232612609863
414,23921,23914,-0.13887999951839447,-0.01176660880446434,1.0766375064849854,-21.27260398864746,5.5842437744140625,-63.84736251831055,-0.5444727540016174,0.5564721822738647,0.6734663248062134,-0.9495723247528076,0.21167317032814026,-3.890944242477417
415,23931,23924,-0.0919947624206543,-0.04054747894406319,1.1691347360610962,-5.990630626678467,-14.054856300354004,-68.47643280029297,-0.5459727048873901,0.5519723892211914,0.6629668474197388,-0.9361980557441711,0.08951156586408615,-4.542936325073242
416,23941,23934,-0.0004792223044205457,0.03996339812874794,1.1164140701293945,25.586103439331055,-28.050994873046875,-66.81672668457031,-0.5384730696678162,0.5564721822738647,0.676466166973114,-0.6141712069511414,0.25451600551605225,-5.218059539794922
417,23951,23944,-0.02770959958434105,-0.014514599926769733,0.8971738219261169,50.705326080322266,-42.9075927734375,-61.432411193847656,-0.5429728627204895,0.5489725470542908,0.6629668474197388,0.6216086745262146,0.9703881740570068,-5.744002342224121
418,23961,23954,-0.14398077130317688,-0.052797235548496246,1.0160269737243652,66.80631256103516,-53.282447814941406,-50.664947509765625,-0.5279735922813416,0.5399730205535889,0.6509674191474915,1.108478307723999,1.598480463027954,-6.346009731292725
419,23971,23964,0.0022429556120187044,-0.0007651826017536223,0.846921980381012,51.87519454956055,-45.905086517333984,-42.96923065185547,-0.508474588394165,0.5204739570617676,0.6614668965339661,1.7457550764083862,2.3343284130096436,-6.836025714874268
420,23981,23974,-0.12882502377033234,-0.09157001227140427,0.8543437719345093,22.934528350830078,-43.1674919128418,-36.24394226074219,-0.5054747462272644,0.502474844455719,0.6584670543670654,2.0213263034820557,2.5449068546295166,-7.268759250640869
421,23991,23984,-0.08201166242361069,-0.02859283797442913,0.7465001344680786,-11.654099464416504,-34.771419525146484,-30.80373191833496,-0.49947500228881836,0.5114744305610657,0.6554672122001648,2.636125326156616,2.7654662132263184,-7.590785980224609
422,24001,23994,-0.02796165831387043,0.0035164959263056517,0.817176342010498,-34.72446060180664,-18.12021827697754,-29.108264923095703,-0.5129743218421936,0.5069746375083923,0.6539672613143921,2.7805123329162598,2.68809175491333,-7.965753078460693
423,24011,24004,-0.04097864031791687,-0.029659414663910866,0.9695581197738647,-51.33993148803711,13.202030181884766,-23.21855354309082,-0.5069746375083923,0.5279735922813416,0.6569671630859375,2.718134641647339,2.0207571983337402,-8.2384614944458
424,24021,24014,-0.013246078975498676,0.003940327558666468,0.8536071181297302,-76.10736083984375,36.43185043334961,-13.495844841003418,-0.5399730205535889,0.5399730205535889,0.6719663739204407,2.4233317375183105,1.5167614221572876,-8.49157428741455
425,24031,24024,-0.06258712708950043,0.03570345416665077,0.9111694693565369,-88.76419067382812,54.37459182739258,-8.267623901367188,-0.5399730205535889,0.5609719157218933,0.6749662160873413,2.1989471912384033,0.8185691237449646,-8.570049285888672
426,24041,24034,-0.0846540778875351,0.10678084194660187,0.9693136215209961,-85.1394271850586,92.77865600585938,-9.839025497436523,-0.5294735431671143,0.5684715509414673,0.6794660091400146,1.29338538646698,-0.2954367399215698,-8.688164710998535
427,24051,24044,-0.06805797666311264,-0.10483158379793167,0.9678398370742798,-57.17729949951172,101.79618835449219,-12.265135765075684,-0.5444727540016174,0.5834708213806152,0.6674666404724121,0.3009571433067322,-0.6869564056396484,-8.919400215148926
428,24061,24054,-0.0024832163471728563,-0.05945757031440735,0.9890922904014587,3.234422206878662,80.90540313720703,-9.814473152160645,-0.5459727048873901,0.5909704566001892,0.6569671630859375,-0.6911309957504272,-1.3483747243881226,-9.005989074707031
429,24071,24064,-0.004603177774697542,0.07309535145759583,1.0649220943450928,63.61031723022461,61.082820892333984,-5.729665279388428,-0.5459727048873901,0.5969701409339905,0.6749662160873413,-1.4797509908676147,-1.05604088306427,-9.158737182617188
430,24081,24074,-0.03270179033279419,0.011929507367312908,1.0055667161941528,105.3293228149414,43.89047622680664,0.05087660253047943,-0.562471866607666,0.5954701900482178,0.6704664826393127,-2.2160165309906006,0.04246886819601059,-9.330665588378906
431,24091,24084,-0.0549706295132637,-0.0943283960223198,1.0521435737609863,122.46048736572266,28.130895614624023,7.21394157409668,-0.5609719157218933,0.6029698252677917,0.683965802192688,-2.2012271881103516,0.9402140974998474,-9.180139541625977
432,24101,24094,-0.029382670298218727,-0.060566335916519165,0.9541867971420288,120.25846862792969,10.478200912475586,15.81784439086914,-0.5654717087745667,0.6074696183204651,0.6824658513069153,-2.6325178146362305,2.3326241970062256,-9.136639595031738
433,24111,24104,-0.03284550830721855,0.10203888267278671,0.9837617874145508,89.59690856933594,-8.45210075378418,27.148723602294922,-0.5609719157218933,0.5819708704948425,0.6809659600257874,-2.474949836730957,3.223430633544922,-8.894834518432617
434,24121,24114,-0.08537822961807251,0.020396297797560692,0.9812239408493042,37.615753173828125,-21.390583038330078,37.39112091064453,-0.5564721822738647,0.5654717087745667,0.6644667387008667,-2.307121515274048,3.97458553314209,-8.59781551361084
435,24131,24124,-0.09578860551118851,0.022524358704686165,0.9720960855484009,-32.798465728759766,-26.74259376525879,42.9398307800293,-0.5579720735549927,0.5489725470542908,0.6599670052528381,-2.1480653285980225,4.063246250152588,-8.259702682495117
436,24141,24134,-0.09927411377429962,-0.034477461129426956,0.9449061751365662,-110.99195098876953,-46.99687194824219,41.07622528076172,-0.5519723892211914,0.5429728627204895,0.6659666895866394,-1.6579967737197876,3.2661774158477783,-7.8287529945373535
437,24151,24144,-0.14654213190078735,0.05122911185026169,1.0095107555389404,-161.49952697753906,-53.15979766845703,36.04116439819336,-0.5654717087745667,0.5504724383354187,0.6734663248062134,-0.9586549997329712,1.5316742658615112,-7.434895992279053
438,24161,24154,-0.10581031441688538,-0.02899976074695587,1.0119140148162842,-177.77438354492188,-49.89972686767578,33.03925323486328,-0.5654717087745667,0.5714713931083679,0.6794660091400146,-0.36008572578430176,0.3473162353038788,-7.01244592666626
439,24171,24164,0.002595730824396014,0.04146985337138176,1.0193185806274414,-162.9248504638672,-35.731910705566406,32.62055969238281,-0.5609719157218933,0.5759711861610413,0.6809659600257874,0.23210398852825165,-1.8301550149917603,-6.674890995025635
440,24181,24174,-0.053766291588544846,0.14533837139606476,1.0755574703216553,-118.55970764160156,-25.12664222717285,32.53459548950195,-0.5684715509414673,0.577471137046814,0.6674666404724121,0.4726782441139221,-2.697155237197876,-6.290703296661377
441,24191,24184,-0.142579585313797,0.13711972534656525,1.0748274326324463,-52.59846496582031,-2.225909948348999,33.4085693359375,-0.5594720244407654,0.5924703478813171,0.6584670543670654,0.7086693644523621,-3.8944289684295654,-5.9536452293396
442,24201,24194,-0.16644465923309326,0.008760075084865093,0.9792808294296265,15.929789543151855,30.519283294677734,34.93601608276367,-0.5339732766151428,0.5939702987670898,0.6569671630859375,0.28922516107559204,-4.02934455871582,-5.700362682342529
443,24211,24204,-0.17595365643501282,-0.02262524515390396,1.035325050354004,72.00308227539062,59.90829086303711,34.56428146362305,-0.5339732766151428,0.554972231388092,0.6569671630859375,-0.2772451937198639,-3.5373222827911377,-5.396318435668945
444,24221,24214,-0.16489574313163757,-0.04884427785873413,1.0166105031967163,108.39378356933594,81.7258529663086,34.073307037353516,-0.5579720735549927,0.6179690957069397,0.6749662160873413,-1.0647788047790527,-2.7752206325531006,-5.110957622528076
445,24231,24224,-0.11176211386919022,-0.023843105882406235,1.0501065254211426,114.60240173339844,93.63762664794922,35.031105041503906,-0.5444727540016174,0.6104694604873657,0.6734663248062134,-1.9551879167556763,-1.4096910953521729,-4.775264263153076
446,24241,24234,-0.07943619787693024,-0.06757006049156189,1.055402159690857,90.48351287841797,87.54035949707031,31.279417037963867,-0.56997150182724,0.6029698252677917,0.683965802192688,-3.008305311203003,-0.5793014168739319,-4.4828338623046875
447,24251,24244,-0.05924362316727638,-0.19309431314468384,0.9199768304824829,48.564971923828125,66.13414001464844,23.178569793701172,-0.554972231388092,0.5969701409339905,0.6569671630859375,-3.9834797382354736,0.2641232907772064,-4.184307098388672
448,24261,24254,-0.0725383311510086,-0.22506237030029297,0.8492815494537354,-3.261648178100586,30.081871032714844,13.70770263671875,-0.554972231388092,0.5819708704948425,0.6659666895866394,-4.288730144500732,0.5460227727890015,-4.000195026397705
449,24271,24264,0.0021505430340766907,-0.07999292761087418,0.8791627287864685,-45.80687713623047,-11.725648880004883,4.085455894470215,-0.5669716596603394,0.5609719157218933,0.6539672613143921,-4.5569562911987305,0.2739730775356293,-3.9181642532348633
450,24281,24274,0.04194427654147148,-0.03170172870159149,0.9051001667976379,-69.21149444580078,-57.9307861328125,-3.511582136154175,-0.5684715509414673,0.5474725961685181,0.6614668965339661,-4.253001689910889,-0.5453212261199951,-3.9885005950927734
451,24291,24284,0.023376988247036934,-0.15956933796405792,0.9401970505714417,-76.79212188720703,-95.40214538574219,-9.078380584716797,-0.5804709792137146,0.5654717087745667,0.6584670543670654,-3.336578130722046,-1.0868537425994873,-3.9638595581054688
452,24301,24294,-0.010083917528390884,-0.20425917208194733,0.9928255677223206,-61.62770462036133,-99.06391143798828,-14.030622482299805,-0.577471137046814,0.5954701900482178,0.6704664826393127,-2.049008369445801,-2.010317325592041,-4.111926078796387
453,24311,24304,0.04462910816073418,-0.08499594777822495,1.069698691368103,-40.80712127685547,-73.78294372558594,-15.522623062133789,-0.5879706144332886,0.6029698252677917,0.66896653175354,-1.1532483100891113,-2.3436663150787354,-4.123814582824707
454,24321,24314,0.055557504296302795,0.019879890605807304,1.0304001569747925,-21.25076675415039,-40.06790542602539,-12.371663093566895,-0.5789710283279419,0.6089695692062378,0.7019649147987366,-0.5569044351577759,-2.793933629989624,-4.27470588684082
455,24331,24324,-0.03191721439361572,0.07237376272678375,1.0045409202575684,-2.124189615249634,-17.65978240966797,-5.776951313018799,-0.5654717087745667,0.616469144821167,0.6824658513069153,-0.430651992559433,-2.8522789478302,-4.302467346191406
456,24341,24334,-0.09181098639965057,0.04926542565226555,1.0505342483520508,12.134130477905273,0.09202846139669418,-3.7525453567504883,-0.5474725961685181,0.5984700918197632,0.6854656934738159,-0.21682895720005035,-2.8498165607452393,-4.354008197784424
457,24351,24344,-0.07686512917280197,0.021244361996650696,1.102821707725525,29.84767723083496,16.40323829650879,-3.956416368484497,-0.5519723892211914,0.5909704566001892,0.6719663739204407,-0.29753080010414124,-2.5725104808807373,-4.343789100646973
458,24361,24354,-0.05317310243844986,0.048574719578027725,1.0187530517578125,35.252532958984375,36.41346740722656,-5.867148399353027,-0.5534723401069641,0.5804709792137146,0.6644667387008667,-0.6808192133903503,-2.1900203227996826,-4.342811107635498
459,24371,24364,-0.07895809412002563,0.07947120070457458,0.9941574931144714,47.5186882019043,42.52101516723633,-4.822080135345459,-0.5444727540016174,0.5804709792137146,0.676466166973114,-1.2308356761932373,-1.862479329109192,-4.398358345031738
460,24381,24374,-0.12035108357667923,0.06512104719877243,1.1331111192703247,58.716182708740234,40.812103271484375,-2.290687084197998,-0.5399730205535889,0.5909704566001892,0.6749662160873413,-1.901421070098877,-1.3119843006134033,-4.384156227111816
461,24391,24384,-0.04994848370552063,0.03495773673057556,1.1187328100204468,56.663917541503906,23.492612838745117,3.5164644718170166,-0.5459727048873901,0.5729713439941406,0.6599670052528381,-2.048430919647217,-0.9138822555541992,-4.510008811950684
462,24401,24394,-0.007996655069291592,0.05538414791226387,0.9864422678947449,36.276390075683594,-7.056939601898193,9.37282943725586,-0.5609719157218933,0.5729713439941406,0.6659666895866394,-2.22189998626709,-0.18450745940208435,-4.3929219245910645
463,24411,24414,-0.1119874119758606,-0.02542281150817871,1.0470365285873413,8.10614013671875,-35.56502914428711,6.221101760864258,-0.5414729118347168,0.5264736413955688,0.6464676856994629,-1.9151442050933838,0.04935510829091072,-4.378349304199219
464,24421,24424,-0.05225794389843941,0.060030218213796616,1.0639971494674683,-20.112947463989258,-48.613224029541016,-0.580941379070282,-0.5369731187820435,0.5309734344482422,0.6569671630859375,-1.67751944065094,-0.07481580972671509,-4.344814777374268
465,24431,24434,-0.08908484131097794,0.11778229475021362,1.0466442108154297,-39.52505111694336,-48.577735900878906,-9.473864555358887,-0.5384730696678162,0.5324733853340149,0.6554672122001648,-0.9426420331001282,-0.47568491101264954,-4.46858549118042
466,24441,24444,-0.12632007896900177,0.09632155299186707,1.0806599855422974,-50.563899993896484,-51.994625091552734,-14.130478858947754,-0.5594720244407654,0.5564721822738647,0.6584670543670654,-0.20081715285778046,-0.800463855266571,-4.582391262054443
467,24451,24454,-0.06874506920576096,-0.017123913392424583,1.0647623538970947,-45.69290542602539,-55.11501693725586,-17.897523880004883,-0.5339732766151428,0.5609719157218933,0.6749662160873413,0.0389009527862072,-1.4372868537902832,-4.714276313781738
468,24461,24464,0.018193470314145088,-0.05806552618741989,0.9054554104804993,-37.79869842529297,-52.80862045288086,-25.489023208618164,-0.5324733853340149,0.5504724383354187,0.6674666404724121,0.6184285283088684,-1.7013987302780151,-4.847498416900635
469,24471,24474,-0.03721367195248604,0.0021540820598602295,0.8549885153770447,-19.84496307373047,-43.75090026855469,-32.81633758544922,-0.5279735922813416,0.56997150182724,0.6629668474197388,1.4066115617752075,-2.05904483795166,-5.147340774536133
470,24481,24484,-0.11456755548715591,-0.03440290689468384,1.0251469612121582,17.10515785217285,-30.2479305267334,-34.91828536987305,-0.5174741148948669,0.5354732275009155,0.6674666404724121,1.5326533317565918,-2.0657529830932617,-5.395620346069336
471,24491,24494,-0.05833389237523079,-0.09730684012174606,1.0040682554244995,69.04447937011719,-17.48304557800293,-28.06365203857422,-0.5189740657806396,0.5429728627204895,0.6629668474197388,1.8637151718139648,-1.6070971488952637,-5.704379558563232
472,24501,24504,-0.04212212190032005,-0.07239358872175217,1.0114061832427979,105.44270324707031,6.701464653015137,-21.56421661376953,-0.509974479675293,0.5339732766151428,0.6569671630859375,1.9253331422805786,-0.9803759455680847,-5.967144012451172
473,24511,24514,-0.04285532236099243,-0.16854186356067657,0.9305110573768616,116.4250259399414,38.607810974121094,-17.513599395751953,-0.5129743218421936,0.5519723892211914,0.66896653175354,1.8582967519760132,0.49318820238113403,-6.163787364959717
474,24521,24524,-0.0523323118686676,-0.15408112108707428,0.9739127159118652,107.85502624511719,64.38147735595703,-12.804022789001465,-0.5174741148948669,0.5564721822738647,0.6734663248062134,1.382254719734192,1.321502923965454,-6.32137393951416
475,24531,24534,-0.020554490387439728,-0.026553044095635414,0.9614880084991455,86.55751037597656,76.8798599243164,-7.067969799041748,-0.5414729118347168,0.5534723401069641,0.6704664826393127,0.4789515733718872,2.672640800476074,-6.3770270347595215
476,24541,24544,-0.12889911234378815,-0.034281596541404724,0.9333130717277527,57.727012634277344,75.40103149414062,1.9653980731964111,-0.5339732766151428,0.5429728627204895,0.6659666895866394,-0.5417767763137817,3.412195920944214,-6.335361480712891
477,24551,24554,-0.09738576412200928,-0.01810407266020775,0.9048979878425598,7.6392998695373535,69.50914001464844,4.976156711578369,-0.5354732275009155,0.5384730696678162,0.6524673700332642,-1.2610869407653809,3.539093255996704,-6.25804328918457
478,24561,24564,-0.06617824733257294,-0.01272733137011528,0.8247401714324951,-51.73637390136719,52.46120834350586,6.992083549499512,-0.5324733853340149,0.5264736413955688,0.6524673700332642,-2.214017629623413,3.425739288330078,-6.1446146965026855
479,24571,24574,-0.0809929147362709,-0.06416692584753036,0.9228094220161438,-96.3466796875,0.5568837523460388,6.409926414489746,-0.5519723892211914,0.5279735922813416,0.6509674191474915,-2.255125045776367,2.6150083541870117,-6.04652214050293
480,24581,24584,-0.03860180079936981,-0.16987740993499756,0.926615297794342,-106.03250885009766,-58.432472229003906,1.406356930732727,-0.5504724383354187,0.577471137046814,0.6734663248062134,-1.8456205129623413,1.4914919137954712,-5.972488880157471
481,24591,24594,0.0680832788348198,-0.04594723507761955,1.0506724119186401,-87.2368392944336,-107.32586669921875,-4.554163932800293,-0.562471866607666,0.562471866607666,0.6674666404724121,-1.0479217767715454,0.6978124976158142,-5.956690788269043
