,timestamp_start,timestamp_end,acc.x,acc.y,acc.z,gyro.x,gyro.y,gyro.z,mag.x,mag.y,mag.z,stabilizer.pitch,stabilizer.roll,stabilizer.yaw
0,13763,13764,-0.00329221342690289,-0.12459257990121841,0.8544992208480835,-2.018315553665161,8.075447082519531,-0.9596471190452576,-0.14249287545681,1.2014398574829102,0.2954852283000946,-0.5735524296760559,2.2274019718170166,1.489654541015625
1,13773,13774,-0.0073499116115272045,-0.1438843160867691,0.9192598462104797,-3.0876574516296387,7.07227897644043,-0.5704794526100159,-0.13949301838874817,1.2134393453598022,0.28948551416397095,-0.712368369102478,2.2729480266571045,1.4703449010849
2,13783,13784,0.06416476517915726,-0.3879896104335785,0.9490371346473694,-2.3526718616485596,3.157991647720337,-0.08195420354604721,-0.14849257469177246,1.2194390296936035,0.28948551416397095,-0.8394582271575928,2.2915267944335938,1.4522854089736938
3,13793,13794,-0.07048515975475311,-0.26381877064704895,1.1142350435256958,-4.307875633239746,0.7915744185447693,0.134672150015831,-0.15449227392673492,1.2254387140274048,0.29848507046699524,-0.8569594025611877,2.2327773571014404,1.4541734457015991
4,13803,13804,-0.09578147530555725,-0.2949174642562866,0.9626154899597168,-6.680577278137207,-2.2101125717163086,-0.9075960516929626,-0.1514924168586731,1.2284384965896606,0.2864856719970703,-0.9099066257476807,2.2028098106384277,1.449095606803894
5,13813,13814,-0.09753796458244324,-0.048048488795757294,1.0875368118286133,-8.525779724121094,-2.771550178527832,0.5480111241340637,-0.15449227392673492,1.2284384965896606,0.3134843111038208,-0.38052430748939514,2.065488815307617,1.5684382915496826
6,13823,13824,0.021532393991947174,0.08202233165502548,1.0666791200637817,-9.499991416931152,1.9835703372955322,-0.06319845467805862,-0.14099295437335968,1.2359381914138794,0.29998499155044556,-0.40377435088157654,1.975651741027832,1.5590660572052002
7,13833,13834,0.12949302792549133,0.046332985162734985,1.0119150876998901,-10.947976112365723,4.641188621520996,-0.05772383511066437,-0.14849257469177246,1.2404379844665527,0.29848507046699524,-0.4612869918346405,1.8735899925231934,1.5449740886688232
8,13843,13844,0.18080249428749084,-0.06966885924339294,0.9855167865753174,-7.1178975105285645,3.0922043323516846,0.1282946914434433,-0.14399279654026031,1.2269386053085327,0.29098543524742126,-0.546953558921814,1.7590183019638062,1.52724027633667
9,13853,13854,0.08929798752069473,-0.06317748874425888,1.0447765588760376,-3.694953441619873,3.9657580852508545,-1.2104699611663818,-0.1514924168586731,1.2254387140274048,0.28948551416397095,-0.6165911555290222,1.7585055828094482,1.5213382244110107
10,13863,13864,0.01629989966750145,-0.004176339600235224,0.9832452535629272,-1.6130955219268799,1.2609964609146118,-0.08125724643468857,-0.15749211609363556,1.2254387140274048,0.28948551416397095,-0.7003462910652161,1.7322403192520142,1.5024720430374146
11,13873,13874,-0.04484017565846443,-0.016305383294820786,0.889736533164978,-1.9411125183105469,5.933024883270264,-0.6586341857910156,-0.14399279654026031,1.2149392366409302,0.2939853072166443,-0.7564679980278015,1.7327337265014648,1.4932708740234375
12,13883,13884,0.012961827218532562,-0.15447235107421875,0.9384361505508423,-2.3521575927734375,3.0308072566986084,0.2688649594783783,-0.14699265360832214,1.2239388227462769,0.27898603677749634,-0.801321804523468,1.7948942184448242,1.497605562210083
13,13893,13894,-0.09659774601459503,-0.3067864179611206,1.163022756576538,-4.884725093841553,1.5679057836532593,0.3706672489643097,-0.12599369883537292,1.208939552307129,0.29998499155044556,-0.8990578651428223,1.7660466432571411,1.489501714706421
14,13903,13904,-0.14849087595939636,-0.21622368693351746,0.9892525672912598,-7.285652160644531,1.1306692361831665,-0.8514691591262817,-0.13949301838874817,1.2224388122558594,0.2954852283000946,-0.9764127135276794,1.755042314529419,1.489565134048462
15,13913,13914,-0.1423233598470688,-0.022811314091086388,1.0419193506240845,-11.351275444030762,3.5934195518493652,-0.6022194027900696,-0.14849257469177246,1.2224388122558594,0.3014849126338959,-0.8382013440132141,1.6260275840759277,1.5094141960144043
16,13923,13924,0.023882554844021797,0.034895043820142746,1.0086544752120972,-13.900110244750977,4.665576457977295,0.9070024490356445,-0.1604919731616974,1.2194390296936035,0.2864856719970703,-0.920010507106781,1.3821957111358643,1.4852173328399658
17,13933,13934,0.12833693623542786,-0.12138379365205765,0.9640661478042603,-15.031989097595215,2.9763925075531006,1.3413642644882202,-0.14699265360832214,1.2209389209747314,0.28198590874671936,-0.9895622134208679,1.1763192415237427,1.4803426265716553
18,13943,13944,0.1920507401227951,-0.1792154759168625,0.985105574131012,-10.98601245880127,-3.168879985809326,1.434070110321045,-0.1514924168586731,1.2284384965896606,0.2834858298301697,-1.0215890407562256,1.0309765338897705,1.488754153251648
19,13953,13954,0.05056857317686081,-0.15619921684265137,1.1214877367019653,-7.858766078948975,-5.2310075759887695,1.164316177368164,-0.14099295437335968,1.2149392366409302,0.28798559308052063,-0.9661131501197815,1.0074020624160767,1.511320948600769
20,13963,13964,0.06538451462984085,-0.1389397382736206,0.880157470703125,-2.6072707176208496,-6.8392863273620605,1.3073676824569702,-0.13799309730529785,1.2209389209747314,0.28198590874671936,-0.8761060833930969,0.8885287642478943,1.5213009119033813
21,13973,13974,0.03627743944525719,0.060772739350795746,1.003382682800293,1.687427282333374,-5.7928547859191895,2.016818046569824,-0.13649317622184753,1.216439127922058,0.29848507046699524,-0.7686913013458252,0.8588705658912659,1.5334347486495972
22,13983,13984,0.042669326066970825,0.08652637153863907,0.9724400043487549,2.376720905303955,-2.518002986907959,0.4484651982784271,-0.13799309730529785,1.208939552307129,0.28498575091362,-0.6892168521881104,0.8925699591636658,1.5514650344848633
23,13993,13994,-0.08222346007823944,0.15076445043087006,1.0476537942886353,1.9287580251693726,-1.2410062551498413,0.03944716230034828,-0.1619918942451477,1.2119393348693848,0.28198590874671936,-0.6104536056518555,1.0689570903778076,1.5786784887313843
24,14003,14004,-0.23045791685581207,0.06311150640249252,1.1150072813034058,-2.475407600402832,3.7854247093200684,-1.3724260330200195,-0.14849257469177246,1.216439127922058,0.277486115694046,-0.6339718103408813,0.9523256421089172,1.5666416883468628
25,14013,14014,-0.03349418565630913,-0.1686008870601654,0.9619899392127991,-7.32642936706543,9.28691291809082,-0.5513759255409241,-0.14099295437335968,1.2239388227462769,0.2939853072166443,-0.7717289924621582,0.9200479984283447,1.548487663269043
26,14023,14024,-0.0022217831574380398,-0.07304453104734421,0.8647409081459045,-11.139586448669434,6.262563228607178,0.453786164522171,-0.1514924168586731,1.2194390296936035,0.2924853563308716,-0.8372079133987427,0.8112043142318726,1.5403820276260376
27,14033,14034,-0.00975265447050333,0.00039984844624996185,0.9728731513023376,-11.195733070373535,2.1710305213928223,0.8789317607879639,-0.14249287545681,1.2134393453598022,0.277486115694046,-0.9489585757255554,0.6416152715682983,1.5342689752578735
28,14043,14044,-0.1981923133134842,-0.050498537719249725,0.9602373838424683,-8.281752586364746,1.2536687850952148,0.1664792001247406,-0.14999249577522278,1.208939552307129,0.2969851493835449,-1.0148963928222656,0.4674713611602783,1.5375152826309204
29,14053,14054,-0.21834833920001984,-0.04455236718058586,0.9702070951461792,-5.1565046310424805,-3.645702362060547,0.717220664024353,-0.1514924168586731,1.216439127922058,0.277486115694046,-1.2039459943771362,0.33306077122688293,1.5371708869934082
30,14063,14064,-0.23222625255584717,-0.1481127291917801,0.9032791256904602,-0.48701852560043335,-3.3345088958740234,0.7981698513031006,-0.14999249577522278,1.2149392366409302,0.28798559308052063,-1.0300954580307007,0.2568555772304535,1.5427366495132446
31,14073,14074,-0.07997395098209381,-0.1462567299604416,0.8783084154129028,2.5839405059814453,-6.180981636047363,1.1284171342849731,-0.14249287545681,1.216439127922058,0.2744862735271454,-0.8974888324737549,0.18960097432136536,1.5424411296844482
32,14083,14084,0.006504963152110577,0.01659550331532955,0.7874253988265991,6.049033164978027,-9.847672462463379,2.5142617225646973,-0.14399279654026031,1.208939552307129,0.28498575091362,-0.7924239039421082,0.11640684306621552,1.5421042442321777
33,14093,14094,-0.05261428281664848,0.20736514031887054,1.019734501838684,8.483657836914062,-8.3015775680542,1.9337072372436523,-0.14699265360832214,1.2239388227462769,0.27898603677749634,-0.7781583070755005,0.442086786031723,1.5975979566574097
34,14103,14104,-0.06076352670788765,0.18472425639629364,0.9143603444099426,8.645395278930664,-3.4463655948638916,0.6136394143104553,-0.14549271762371063,1.2254387140274048,0.277486115694046,-0.5137726664543152,0.5810537338256836,1.6088383197784424
35,14113,14114,-0.07055287808179855,0.034571919590234756,0.9788462519645691,4.125186443328857,0.945847749710083,1.3526362180709839,-0.13949301838874817,1.207439661026001,0.2924853563308716,-0.47671014070510864,0.7166755795478821,1.6224778890609741
36,14123,14124,0.012484082952141762,-0.11281761527061462,1.0154472589492798,0.17072001099586487,4.214387893676758,0.18066589534282684,-0.1334933191537857,1.2194390296936035,0.29848507046699524,-0.556126058101654,0.7903858423233032,1.6419373750686646
37,14133,14134,-0.043400052934885025,-0.02661917544901371,0.9636823534965515,-5.077264308929443,0.6845746636390686,0.20088525116443634,-0.15749211609363556,1.2284384965896606,0.29848507046699524,-0.6027862429618835,0.7885645627975464,1.6452287435531616
38,14143,14144,-0.16991081833839417,0.12448862940073013,0.9196390509605408,-10.687020301818848,0.6561306715011597,0.30262550711631775,-0.14399279654026031,1.2359381914138794,0.3029848337173462,-0.5794868469238281,0.6258774399757385,1.6363927125930786
39,14153,14154,-0.175747349858284,0.25194334983825684,0.9444983601570129,-16.248722076416016,6.293761253356934,1.4972419738769531,-0.1529923528432846,1.2209389209747314,0.28498575091362,-0.6286531686782837,0.3181173503398895,1.6266034841537476
40,14163,14164,-0.021321505308151245,0.08566620200872421,0.834315299987793,-13.877083778381348,8.146530151367188,2.30269718170166,-0.14549271762371063,1.2284384965896606,0.28948551416397095,-0.7004976272583008,1.4432188272476196,1.746397614479065
41,14173,14174,-0.019917162135243416,-0.15385691821575165,0.9267650842666626,-11.041223526000977,-2.3706860542297363,0.6611919403076172,-0.14849257469177246,1.231438398361206,0.2924853563308716,-0.7789407968521118,1.204346776008606,1.7614225149154663
42,14183,14184,-0.0997973158955574,-0.03451202064752579,1.010560393333435,-13.589710235595703,-8.284662246704102,1.1443132162094116,-0.1619918942451477,1.2269386053085327,0.28498575091362,-0.8148483037948608,1.1474047899246216,1.7765520811080933
43,14193,14194,-0.11355122923851013,0.1268061101436615,0.9836640357971191,-19.24547004699707,-9.84514331817627,1.0254124402999878,-0.14399279654026031,1.2269386053085327,0.28798559308052063,-0.703700065612793,0.8331040143966675,1.766726016998291
44,14203,14204,-0.12477561086416245,-0.03892555832862854,0.8695436716079712,-27.053939819335938,-9.226666450500488,1.2305960655212402,-0.1529923528432846,1.2419378757476807,0.2969851493835449,-0.762064516544342,0.5752047896385193,1.7807576656341553
45,14213,14214,-0.15401233732700348,0.010850194841623306,1.0829497575759888,-27.746152877807617,-8.40209674835205,2.0637593269348145,-0.14399279654026031,1.2419378757476807,0.28498575091362,-0.5925518274307251,0.3498792052268982,1.7905378341674805
46,14223,14224,-0.08742779493331909,-0.12333428114652634,0.9513676166534424,-25.970657348632812,-8.688493728637695,1.5052144527435303,-0.1619918942451477,1.2359381914138794,0.29098543524742126,-0.5018400549888611,0.1704389899969101,1.8156425952911377
47,14233,14234,-0.007775512523949146,-0.1593150794506073,0.8856405019760132,-22.76300048828125,-8.992572784423828,1.7961859703063965,-0.1604919731616974,1.2404379844665527,0.2864856719970703,-0.3488132953643799,-0.19805583357810974,1.822000503540039
48,14243,14244,-0.059765271842479706,-0.05925960838794708,0.9351984262466431,-18.637630462646484,-9.548395156860352,1.7540984153747559,-0.13049347698688507,1.2404379844665527,0.2834858298301697,-0.3478780686855316,-0.44505777955055237,1.8454335927963257
49,14253,14254,0.04094859957695007,-0.16074539721012115,0.9191557168960571,-14.747775077819824,-3.641942262649536,1.6654812097549438,-0.14399279654026031,1.2389379739761353,0.28198590874671936,-0.14104866981506348,-0.7628087401390076,1.848385214805603
50,14263,14264,-0.12120744585990906,-0.11982247233390808,1.1056547164916992,-10.53023624420166,-0.5931997895240784,1.6528165340423584,-0.14999249577522278,1.2359381914138794,0.28498575091362,-0.3500211238861084,-0.7965553402900696,1.897851586341858
51,14273,14274,-0.05552970990538597,-0.2968922257423401,0.9585436582565308,-3.954596519470215,-0.5205264091491699,0.7244547009468079,-0.14999249577522278,1.247937560081482,0.29098543524742126,-0.3099710941314697,-0.9777628779411316,1.9085986614227295
52,14283,14284,-0.050358884036540985,-0.24200339615345,0.9653307199478149,-1.956002950668335,0.3650997579097748,1.233208417892456,-0.14549271762371063,1.2524373531341553,0.28048595786094666,-0.28105828166007996,-0.9839988350868225,1.91867196559906
53,14293,14294,0.06895819306373596,-0.09784134477376938,0.960600733757019,-1.9373537302017212,0.6253321766853333,0.6887400150299072,-0.15449227392673492,1.2374380826950073,0.2834858298301697,-0.2699424922466278,-1.0895133018493652,1.9274433851242065
54,14303,14304,0.09951042383909225,-0.4074913561344147,0.8965543508529663,-2.2466909885406494,-6.22408390045166,1.1793756484985352,-0.14849257469177246,1.2404379844665527,0.2744862735271454,-0.2574581801891327,-1.117180347442627,1.9348028898239136
55,14313,14314,0.01197876874357462,-0.6495552062988281,1.0243898630142212,-3.975647449493408,-11.249218940734863,0.8564965724945068,-0.1529923528432846,1.2419378757476807,0.28198590874671936,-0.23787376284599304,-1.1522454023361206,1.94954252243042
56,14323,14324,-0.15261311829090118,-0.33015555143356323,1.052929401397705,-4.422245025634766,-8.190224647521973,-0.6400989294052124,-0.13499325513839722,1.2389379739761353,0.28798559308052063,-0.35777008533477783,-1.1467658281326294,2.0009982585906982
57,14333,14334,-0.09916438907384872,-0.07110904902219772,1.0638184547424316,-8.251166343688965,-2.408374547958374,0.09926031529903412,-0.1514924168586731,1.2404379844665527,0.2924853563308716,-0.20777812600135803,-1.2946197986602783,1.9850943088531494
58,14343,14344,0.1303281933069229,-0.13219892978668213,0.9544929265975952,-8.576257705688477,0.7952325940132141,1.7663806676864624,-0.14399279654026031,1.2359381914138794,0.28498575091362,-0.11809147149324417,-1.4061607122421265,1.9776523113250732
59,14353,14354,0.21507064998149872,-0.3926911950111389,0.9926024675369263,-7.166645050048828,-5.860254764556885,1.5252541303634644,-0.14249287545681,1.2554372549057007,0.28948551416397095,-0.12752273678779602,-1.5214875936508179,2.0022175312042236
60,14363,14364,0.11872407048940659,-0.6659115552902222,1.0392791032791138,-1.0668162107467651,-13.32945442199707,1.529915452003479,-0.13649317622184753,1.246437668800354,0.28948551416397095,-0.21331091225147247,-1.6124794483184814,2.055722951889038
61,14373,14374,-0.08590274304151535,-0.34802374243736267,1.1427332162857056,3.1321675777435303,-11.160426139831543,0.2268223911523819,-0.13649317622184753,1.2374380826950073,0.2864856719970703,-0.004377652890980244,-1.6894207000732422,2.040637254714966
62,14383,14384,-0.06508740782737732,-0.13964122533798218,1.0464829206466675,4.769134521484375,-5.166940212249756,1.501784324645996,-0.14249287545681,1.2284384965896606,0.2834858298301697,0.11792545020580292,-1.693688154220581,2.044689178466797
63,14393,14394,0.03606747090816498,-0.012859463691711426,1.048521876335144,6.6138916015625,1.4002751111984253,1.592728853225708,-0.14699265360832214,1.2299385070800781,0.29098543524742126,0.2451000213623047,-1.6531530618667603,2.0403316020965576
64,14403,14404,0.1755557656288147,-0.21612229943275452,0.9766818881034851,7.534862518310547,2.297506809234619,1.8065526485443115,-0.13049347698688507,1.231438398361206,0.2834858298301697,0.09083859622478485,-1.5741760730743408,2.111677646636963
65,14413,14414,0.19340753555297852,-0.3127533495426178,1.0365504026412964,10.385332107543945,-4.941843509674072,1.3993725776672363,-0.14249287545681,1.2194390296936035,0.277486115694046,-0.013848512433469296,-1.4752018451690674,2.1634888648986816
66,14423,14424,0.012123585678637028,-0.19862999022006989,1.0585176944732666,8.402856826782227,-4.526739120483398,-1.1958482265472412,-0.12899354100227356,1.208939552307129,0.28498575091362,0.0780370682477951,-1.3534109592437744,2.1510398387908936
67,14433,14434,-0.024440299719572067,-0.0539378821849823,0.9400971531867981,3.730381488800049,-1.4833513498306274,-0.0016913305735215545,-0.13949301838874817,1.2224388122558594,0.28048595786094666,0.10330159217119217,-1.3280044794082642,2.1531004905700684
68,14443,14444,0.10292892158031464,-0.13933371007442474,0.8802960515022278,1.3468348979949951,2.5720019340515137,0.6246442794799805,-0.12749361991882324,1.216439127922058,0.277486115694046,-0.021204408258199692,-1.288506031036377,2.2047441005706787
69,14453,14454,0.16209612786769867,-0.3191879689693451,0.9474225044250488,1.0490000247955322,-5.27032995223999,0.1355644166469574,-0.13049347698688507,1.2194390296936035,0.2864856719970703,0.09667625278234482,-1.2862406969070435,2.1682331562042236
70,14463,14464,0.01632729172706604,-0.5202311277389526,0.9782249331474304,2.0070056915283203,-16.777053833007812,-1.6887125968933105,-0.13499325513839722,1.2029398679733276,0.27298635244369507,0.13602523505687714,-1.299655556678772,2.1694633960723877
71,14473,14474,-0.2559487819671631,-0.1639506220817566,1.136556625366211,0.9072363376617432,-12.935178756713867,-1.7923036813735962,-0.13499325513839722,1.232938289642334,0.28498575091362,0.30738866329193115,-1.3657646179199219,2.1439852714538574
72,14483,14484,-0.06711550801992416,-0.0697353333234787,0.8084093928337097,2.089200496673584,-4.406209468841553,-0.5458512306213379,-0.12899354100227356,1.2179391384124756,0.29098543524742126,0.4528249204158783,-1.3618930578231812,2.119079828262329
73,14493,14494,-0.02111670933663845,-0.09314026683568954,0.795543909072876,4.912820816040039,-5.515089511871338,0.3400627374649048,-0.1229938492178917,1.2179391384124756,0.2759861946105957,0.4292334020137787,-1.3393380641937256,2.1443030834198
74,14503,14504,-0.13622750341892242,-0.05646437779068947,0.775739312171936,5.958343982696533,-4.13504695892334,0.04501879960298538,-0.12599369883537292,1.2119393348693848,0.29098543524742126,0.5298099517822266,-1.3430781364440918,2.1297264099121094
75,14513,14514,-0.2652416229248047,-0.48089900612831116,0.8731510043144226,5.232125759124756,9.708707809448242,0.8627659678459167,-0.12899354100227356,1.2209389209747314,0.28798559308052063,0.6126648187637329,-1.3119150400161743,2.1094188690185547
76,14523,14524,0.028524769470095634,-0.3237411379814148,0.889767587184906,10.678726196289062,10.664509773254395,0.3355542719364166,-0.1319933980703354,1.2179391384124756,0.28198590874671936,0.48498407006263733,-1.2677505016326904,2.1402065753936768
77,14533,14534,0.019966891035437584,-0.22106805443763733,1.063963532447815,12.349653244018555,1.539321780204773,0.030673254281282425,-0.13649317622184753,1.231438398361206,0.2834858298301697,0.32643619179725647,-1.088785171508789,2.161729097366333
78,14543,14544,-0.09278369694948196,-0.37988415360450745,1.164618968963623,10.86485767364502,2.9874579906463623,-0.7795449495315552,-0.12749361991882324,1.231438398361206,0.2924853563308716,0.19018813967704773,-0.8846505880355835,2.187450885772705
79,14553,14554,0.09173095971345901,-0.6172223687171936,1.083638310432434,9.258134841918945,6.15631628036499,-0.21970213949680328,-0.1334933191537857,1.2374380826950073,0.2864856719970703,0.5468426942825317,-0.9073488712310791,2.067305564880371
80,14563,14564,0.11133603751659393,-0.3197331726551056,0.8484100103378296,6.883211612701416,-4.956955432891846,-1.3109325170516968,-0.12899354100227356,1.232938289642334,0.27898603677749634,0.36894091963768005,-0.7450084090232849,2.1107778549194336
81,14573,14574,-0.020958686247467995,-0.0916106328368187,0.9772562980651855,4.898825168609619,-4.853010654449463,-1.0442312955856323,-0.13949301838874817,1.231438398361206,0.2834858298301697,0.2423502504825592,-0.49272432923316956,2.1324353218078613
82,14583,14584,-0.00784241035580635,-0.22699914872646332,0.8458983898162842,2.3047921657562256,-3.289304256439209,-0.9756327271461487,-0.12449377030134201,1.216439127922058,0.2864856719970703,0.15334269404411316,-0.623970091342926,2.185319423675537
83,14593,14594,0.028698615729808807,-0.23026765882968903,0.9143658876419067,1.6058577299118042,-6.513161659240723,-1.1534104347229004,-0.12749361991882324,1.2224388122558594,0.28048595786094666,0.1343887597322464,-0.6479101777076721,2.1990630626678467
84,14603,14604,-0.1311027556657791,-0.08806012570858002,0.9191398024559021,3.9853975772857666,-18.687152862548828,-2.278132677078247,-0.1229938492178917,1.2119393348693848,0.28198590874671936,0.14204801619052887,-0.6196823716163635,2.1985864639282227
85,14613,14614,-0.2973669171333313,0.023991553112864494,0.9872550368309021,3.0549917221069336,-16.228063583374023,-2.225107431411743,-0.1229938492178917,1.2239388227462769,0.2759861946105957,0.4273295998573303,-0.7059710621833801,2.148941993713379
86,14623,14624,-0.2741137444972992,-0.47173556685447693,0.7652340531349182,3.3457117080688477,-6.183920860290527,-1.1730226278305054,-0.1319933980703354,1.2209389209747314,0.28798559308052063,0.6920141577720642,-0.6391164660453796,2.0852272510528564
87,14633,14634,-0.14920473098754883,-0.48781299591064453,0.8191806674003601,7.325166702270508,-4.371737957000732,-0.16667070984840393,-0.1319933980703354,1.2239388227462769,0.2939853072166443,0.7806484699249268,-0.562052845954895,2.0677554607391357
88,14643,14644,-0.06613531708717346,-0.2400345653295517,0.8616150617599487,8.629534721374512,-3.9793379306793213,0.43090927600860596,-0.14099295437335968,1.2209389209747314,0.27898603677749634,0.8911950588226318,-0.5034317374229431,2.049377202987671
89,14653,14654,-0.12481812387704849,0.19583840668201447,1.0911364555358887,8.120387077331543,5.229238033294678,-0.04452601075172424,-0.14699265360832214,1.244937777519226,0.2969851493835449,0.977469265460968,-0.41005757451057434,2.0378172397613525
90,14663,14664,-0.012906856834888458,0.057383500039577484,0.9106956124305725,9.210744857788086,13.364233016967773,0.07807303220033646,-0.13949301838874817,1.2434377670288086,0.2744862735271454,0.9637048244476318,-0.3791230320930481,2.042220115661621
91,14673,14674,0.0009767129085958004,-0.24790333211421967,0.9336602091789246,10.170455932617188,3.9463319778442383,-0.474965900182724,-0.13499325513839722,1.244937777519226,0.28798559308052063,0.8436943292617798,-0.26068904995918274,2.044426202774048
92,14683,14684,-0.10616317391395569,-0.14608560502529144,1.0561403036117554,8.664214134216309,0.342471718788147,-0.3910869061946869,-0.13499325513839722,1.2389379739761353,0.29998499155044556,0.7313771843910217,-0.210282102227211,2.0601086616516113
93,14693,14694,-0.11685334146022797,0.06144368648529053,0.9959579706192017,7.933216571807861,3.894378662109375,-1.14454185962677,-0.13949301838874817,1.2494374513626099,0.2924853563308716,0.7435694336891174,-0.11435851454734802,2.046330213546753
94,14703,14704,-0.037384483963251114,0.15408845245838165,0.9865545034408569,4.80525541305542,5.018101692199707,0.042685605585575104,-0.13499325513839722,1.244937777519226,0.28498575091362,0.723334789276123,0.038060903549194336,2.0245718955993652
95,14713,14714,-0.010629112832248211,0.07322792708873749,1.1076501607894897,6.2924065589904785,0.4578936994075775,-0.02592414803802967,-0.14699265360832214,1.2569371461868286,0.29098543524742126,0.6953245997428894,0.005570124834775925,2.036766290664673
96,14723,14724,-0.0018969750963151455,-0.004623166751116514,1.0166956186294556,6.332416534423828,-4.518426895141602,-1.4146348237991333,-0.12599369883537292,1.247937560081482,0.29998499155044556,0.5852763056755066,-0.006325436756014824,2.064493417739868
97,14733,14734,0.07820058614015579,0.03462795913219452,0.9021457433700562,6.330698013305664,-10.047807693481445,-0.6680416464805603,-0.14249287545681,1.2374380826950073,0.2834858298301697,0.6874878406524658,-0.012710602022707462,2.0515151023864746
98,14743,14744,-0.04726427420973778,-0.12774677574634552,0.9539098143577576,7.338042259216309,-8.572566032409668,-0.18080765008926392,-0.12749361991882324,1.2434377670288086,0.2864856719970703,0.7910718321800232,-0.01095615141093731,2.0498125553131104
99,14753,14754,-0.21936877071857452,-0.03210524469614029,1.1207633018493652,9.755290031433105,-8.96754264831543,-1.103246808052063,-0.1319933980703354,1.2539372444152832,0.27898603677749634,0.7512611746788025,0.1547107845544815,2.0486741065979004
100,14763,14764,-0.28590264916419983,-0.06934133917093277,0.9974834322929382,12.372952461242676,-6.261871337890625,-1.236725926399231,-0.13649317622184753,1.2434377670288086,0.2864856719970703,0.9419703483581543,0.35375672578811646,2.00856614112854
101,14773,14774,-0.1754433512687683,-0.0014512037159875035,1.03801691532135,10.223429679870605,2.445957899093628,-0.8736165761947632,-0.14249287545681,1.2374380826950073,0.2954852283000946,1.0008111000061035,0.512455403804779,1.9893652200698853
102,14783,14784,0.01854037493467331,-0.14477302134037018,0.9389254450798035,8.177971839904785,1.0994446277618408,0.1694372147321701,-0.14249287545681,1.2434377670288086,0.2864856719970703,1.0006145238876343,0.5684717893600464,1.9903593063354492
103,14793,14794,-0.03550807759165764,-0.08635565638542175,1.050851821899414,5.864941596984863,2.8520777225494385,-0.3494563698768616,-0.1319933980703354,1.2509374618530273,0.2939853072166443,0.992232620716095,0.7326627969741821,1.9769501686096191
104,14803,14804,-0.0336589515209198,0.01892264001071453,1.1034072637557983,1.445838451385498,3.724071979522705,-0.4854796528816223,-0.13799309730529785,1.2419378757476807,0.28198590874671936,0.959453821182251,0.779503345489502,1.9795899391174316
105,14813,14814,-0.021249117329716682,-0.033190276473760605,1.1405991315841675,-0.3289852738380432,5.298806190490723,0.7716297507286072,-0.13499325513839722,1.2539372444152832,0.28198590874671936,0.9145915508270264,0.830411434173584,1.9712215662002563
106,14823,14824,0.0008331055287271738,-0.013048720546066761,1.0553780794143677,-2.6749508380889893,2.8748838901519775,-0.2071247696876526,-0.1334933191537857,1.246437668800354,0.28948551416397095,0.8543251752853394,0.7717482447624207,1.9838522672653198
107,14833,14834,0.037583235651254654,0.04225398600101471,1.0967575311660767,-1.6550508737564087,1.1179263591766357,-0.04960034042596817,-0.14249287545681,1.2344383001327515,0.28948551416397095,0.8396555185317993,0.7588124871253967,1.9824445247650146
108,14843,14844,-0.08654727041721344,-0.03532534837722778,1.0260881185531616,-1.7185732126235962,1.940506100654602,-0.295314759016037,-0.13049347698688507,1.2434377670288086,0.2954852283000946,0.8457233905792236,0.7557771801948547,1.9772720336914062
109,14853,14854,-0.0642549991607666,-0.7441432476043701,1.1326123476028442,-1.2291486263275146,-0.5190707445144653,0.4099844992160797,-0.1319933980703354,1.247937560081482,0.28498575091362,0.8454615473747253,0.7513813376426697,1.9753973484039307
110,14863,14864,0.000901483406778425,-0.35372301936149597,1.0408872365951538,1.2894432544708252,-0.9331300258636475,-0.2945023477077484,-0.14549271762371063,1.2434377670288086,0.3044847846031189,0.8719319701194763,0.757746160030365,1.9753614664077759
111,14873,14874,0.03971230611205101,-0.08097117394208908,1.0545574426651,2.890549421310425,1.291571021080017,-0.09022592753171921,-0.14549271762371063,1.246437668800354,0.2834858298301697,0.8924356698989868,0.7271989583969116,1.9796584844589233
112,14883,14884,0.148304283618927,-0.19249854981899261,1.0698983669281006,3.5464894771575928,4.651217460632324,0.28645259141921997,-0.13799309730529785,1.232938289642334,0.29098543524742126,0.8713720440864563,0.7882068157196045,1.9732283353805542
113,14893,14894,0.14658784866333008,-0.25598815083503723,1.0581822395324707,2.380916118621826,-0.17729732394218445,0.07475576549768448,-0.1334933191537857,1.231438398361206,0.2864856719970703,0.8054605722427368,0.8544316291809082,1.9657530784606934
114,14903,14904,-0.04798642918467522,-0.2538111209869385,0.9470868110656738,2.1378278732299805,3.74531888961792,0.1560373455286026,-0.14549271762371063,1.2224388122558594,0.29848507046699524,0.7981883883476257,0.7647484540939331,1.9852361679077148
115,14913,14914,-0.13160322606563568,0.08786080032587051,1.0988470315933228,-2.955214738845825,7.559359073638916,-0.10172639787197113,-0.14099295437335968,1.2239388227462769,0.28798559308052063,0.7410279512405396,0.8112727403640747,1.981270432472229
116,14923,14924,-0.21373936533927917,0.1521202027797699,1.1554538011550903,-2.860835313796997,6.949587345123291,-0.06881813704967499,-0.14399279654026031,1.2269386053085327,0.28798559308052063,0.6468419432640076,0.8574303984642029,1.9658303260803223
117,14933,14934,-0.10472583025693893,0.07585644721984863,0.9495128393173218,-2.897289514541626,8.809699058532715,-0.8490648865699768,-0.13949301838874817,1.231438398361206,0.2864856719970703,0.5568972826004028,0.825470507144928,1.963412880897522
118,14943,14944,-0.09602975100278854,0.07063739746809006,0.9543027281761169,-4.0151896476745605,5.941625118255615,0.058675363659858704,-0.12899354100227356,1.2299385070800781,0.2939853072166443,0.7141202688217163,0.7868466973304749,1.9791624546051025
119,14953,14954,0.1144280955195427,-0.07226194441318512,1.0468873977661133,-3.8023228645324707,3.7112319469451904,-0.17971785366535187,-0.113994300365448,1.2239388227462769,0.2759861946105957,0.6750982999801636,0.7318423986434937,1.9811362028121948
120,14963,14964,0.06557166576385498,-0.22626827657222748,0.9961525797843933,-0.9050711989402771,-2.3332159519195557,-1.5837064981460571,-0.14249287545681,1.2284384965896606,0.2924853563308716,0.5991829037666321,0.6820651888847351,1.975703239440918
121,14973,14974,-0.06185341998934746,-0.1391243189573288,0.9634352922439575,1.37614905834198,-0.8396015167236328,-1.707930088043213,-0.1529923528432846,1.2299385070800781,0.28198590874671936,0.5307462215423584,0.6709814667701721,1.9585866928100586
122,14983,14984,-0.08460673689842224,-0.04797888174653053,0.9955868124961853,-2.1530778408050537,5.913336277008057,-1.4897772073745728,-0.14249287545681,1.2344383001327515,0.28048595786094666,0.517381489276886,0.6909639239311218,1.9414886236190796
123,14993,14994,-0.13764731585979462,-0.09756477177143097,1.1410157680511475,-2.7652740478515625,9.901812553405762,-0.49443867802619934,-0.14099295437335968,1.2299385070800781,0.27898603677749634,0.42701029777526855,0.804726243019104,1.9075504541397095
124,15003,15004,0.0010559794027358294,-0.17252454161643982,1.057894229888916,-1.3758372068405151,12.041289329528809,-1.0620228052139282,-0.13799309730529785,1.2269386053085327,0.27898603677749634,0.4819229543209076,0.7572858333587646,1.9191763401031494
125,15013,15014,0.19963768124580383,-0.3203803300857544,0.9535171985626221,-2.8666248321533203,10.14807415008545,-1.1580982208251953,-0.14399279654026031,1.2299385070800781,0.27898603677749634,0.34132587909698486,0.7262884974479675,1.9112582206726074
126,15023,15024,0.1751379817724228,-0.17566177248954773,1.0696161985397339,-4.8755106925964355,7.899531364440918,-1.5167481899261475,-0.14849257469177246,1.231438398361206,0.2744862735271454,0.21651895344257355,0.6015982031822205,1.9117553234100342
127,15033,15034,0.1118641123175621,-0.15182887017726898,1.0594980716705322,-5.867995738983154,6.548690319061279,-2.050119400024414,-0.1334933191537857,1.2224388122558594,0.2834858298301697,0.06433898210525513,0.5929211378097534,1.8862520456314087
128,15043,15044,-0.04775778576731682,-0.07980291545391083,1.068587303161621,-5.704277515411377,4.087922096252441,-1.7675070762634277,-0.15449227392673492,1.216439127922058,0.27148643136024475,-0.04572305455803871,0.4971647560596466,1.8683547973632812
129,15053,15054,-0.04263430833816528,-0.14852973818778992,1.0337107181549072,-5.158843517303467,2.999805450439453,-1.4835679531097412,-0.13499325513839722,1.2239388227462769,0.27298635244369507,-0.046044882386922836,0.47271689772605896,1.8522617816925049
130,15063,15064,0.08069906383752823,-0.5116242170333862,1.027017593383789,-4.939944267272949,8.106614112854004,-1.5699756145477295,-0.14399279654026031,1.2269386053085327,0.29998499155044556,-0.1164727583527565,0.3810378909111023,1.8370236158370972
131,15073,15074,0.2660464644432068,-0.6694194674491882,0.9649236798286438,-0.9550694227218628,0.7784222960472107,-1.1345926523208618,-0.14849257469177246,1.2254387140274048,0.2834858298301697,-0.23362474143505096,0.37026917934417725,1.810920238494873
132,15083,15084,0.13652430474758148,-0.7359139919281006,0.95896315574646,-0.04233914241194725,-2.090883493423462,-2.165191173553467,-0.13499325513839722,1.2239388227462769,0.27898603677749634,-0.18674276769161224,0.34826892614364624,1.8042123317718506
133,15093,15094,-0.12368717789649963,-0.1472100168466568,1.0401533842086792,0.7317477464675903,-4.245466232299805,-2.38289737701416,-0.13499325513839722,1.2239388227462769,0.27898603677749634,-0.15829353034496307,0.3469502329826355,1.7867296934127808
134,15103,15104,-0.08612030744552612,0.02513609267771244,0.9724430441856384,-0.7787708640098572,2.932844638824463,-1.7454476356506348,-0.1334933191537857,1.216439127922058,0.2864856719970703,-0.09783297777175903,0.35485488176345825,1.7679263353347778
135,15113,15114,0.08749381452798843,0.029479872435331345,0.9558555483818054,-2.2472710609436035,8.450443267822266,-1.0931452512741089,-0.13949301838874817,1.2224388122558594,0.2744862735271454,-0.12993864715099335,0.411548912525177,1.743425726890564
136,15123,15124,0.1477685123682022,-0.08344521373510361,1.0141527652740479,-3.094728946685791,0.6120094060897827,-2.234377384185791,-0.12749361991882324,1.2284384965896606,0.27148643136024475,-0.24537675082683563,0.36951005458831787,1.7227846384048462
137,15133,15134,-0.024814724922180176,-0.10860542207956314,1.0900847911834717,-3.736534357070923,-3.077627658843994,-2.6422343254089355,-0.13649317622184753,1.2224388122558594,0.2864856719970703,-0.26310238242149353,0.3844638168811798,1.699483036994934
138,15143,15144,-0.03997727110981941,-0.10035787522792816,0.9564587473869324,-5.263358116149902,0.0007996856584213674,-2.619227409362793,-0.11849407106637955,1.2344383001327515,0.28948551416397095,-0.2924429774284363,0.3101426661014557,1.6688553094863892
139,15153,15154,-0.018589401617646217,-0.11489703506231308,0.9926839470863342,-7.134509563446045,4.161484241485596,-2.7794408798217773,-0.13499325513839722,1.2269386053085327,0.28198590874671936,-0.2804792821407318,0.28683748841285706,1.6414767503738403
140,15163,15164,0.12974658608436584,-0.06796158105134964,0.918647050857544,-6.195460319519043,5.613986968994141,-2.745713233947754,-0.14249287545681,1.231438398361206,0.2594870328903198,-0.3077271580696106,0.23967553675174713,1.611415982246399
141,15173,15174,0.18451540172100067,-0.20941199362277985,0.9268951416015625,-3.5107128620147705,-0.4060298502445221,-3.1605224609375,-0.14549271762371063,1.2404379844665527,0.28048595786094666,-0.3693780303001404,0.26760393381118774,1.5787357091903687
142,15183,15184,-0.04098137095570564,-0.06350623071193695,1.019823670387268,-3.031862497329712,-7.656578063964844,-2.659205675125122,-0.13949301838874817,1.2344383001327515,0.28948551416397095,-0.3541882634162903,0.18893294036388397,1.5454092025756836
143,15193,15194,-0.17054611444473267,-0.11252578347921371,1.0306737422943115,-3.5277304649353027,-5.808929443359375,-3.3173773288726807,-0.14249287545681,1.2194390296936035,0.28948551416397095,-0.23303833603858948,0.12123986333608627,1.5192832946777344
144,15203,15204,-0.15229348838329315,0.029515447095036507,1.0349394083023071,-5.586506366729736,0.9823662638664246,-3.685317039489746,-0.12749361991882324,1.246437668800354,0.2864856719970703,-0.1301516443490982,0.04732735455036163,1.4896557331085205
145,15213,15214,0.11898284405469894,-0.17190997302532196,0.8681032061576843,-5.13987398147583,1.1644569635391235,-2.327410936355591,-0.14099295437335968,1.2359381914138794,0.29098543524742126,-0.11272452771663666,0.02480166032910347,1.457287311553955
146,15223,15224,0.06021423265337944,0.0009553820127621293,1.000447154045105,-1.9755163192749023,-2.11383056640625,-2.9051573276519775,-0.14849257469177246,1.231438398361206,0.28048595786094666,-0.10613345354795456,0.0073371343314647675,1.4291833639144897
147,15233,15234,-0.09585338830947876,-0.003991401754319668,1.1101515293121338,-1.3189316987991333,-2.2942662239074707,-3.9855241775512695,-0.12899354100227356,1.2269386053085327,0.28798559308052063,-0.07000969350337982,-0.0468849316239357,1.3978265523910522
148,15243,15244,-0.19624583423137665,-0.14737163484096527,0.9694480299949646,-0.45515939593315125,-2.886744260787964,-3.816547393798828,-0.13949301838874817,1.2404379844665527,0.2834858298301697,-0.019730987027287483,-0.15187698602676392,1.3556182384490967
149,15253,15254,-0.17148083448410034,-0.09944196045398712,0.9281307458877563,-0.1071871668100357,1.0533303022384644,-3.1265292167663574,-0.14249287545681,1.2284384965896606,0.2834858298301697,0.05092993378639221,-0.1587696671485901,1.3171168565750122
150,15263,15264,0.07613149285316467,-0.14435800909996033,0.902641773223877,-1.636936068534851,5.893704414367676,-3.2285561561584473,-0.14549271762371063,1.2374380826950073,0.2834858298301697,0.033079806715250015,-0.09530967473983765,1.2857335805892944
151,15273,15274,0.008270805701613426,0.03245535492897034,1.085719347000122,-0.003036041744053364,4.906777381896973,-2.8927457332611084,-0.14849257469177246,1.246437668800354,0.2864856719970703,-0.06813133507966995,-0.13359372317790985,1.251015067100525
152,15283,15284,0.008497316390275955,-0.1263883113861084,1.059033751487732,1.783748984336853,3.276158094406128,-3.3200221061706543,-0.14099295437335968,1.2299385070800781,0.2669866383075714,-0.14597412943840027,-0.14549733698368073,1.2208030223846436
153,15293,15294,0.02907877042889595,-0.253715842962265,0.8420034646987915,3.049492835998535,0.5335726141929626,-3.163036584854126,-0.12449377030134201,1.2284384965896606,0.28948551416397095,-0.1901201605796814,-0.1233435794711113,1.1894299983978271
154,15303,15304,0.018156623467803,-0.25574854016304016,0.8649155497550964,2.935412645339966,-1.7032095193862915,-3.4010798931121826,-0.14249287545681,1.2284384965896606,0.277486115694046,-0.18259575963020325,-0.0040399800054728985,1.1614900827407837
155,15313,15314,-0.07583999633789062,-0.10513802617788315,1.1057835817337036,1.016396164894104,-1.493850827217102,-2.449822425842285,-0.14099295437335968,1.232938289642334,0.2669866383075714,-0.14189909398555756,0.034255500882864,1.129037857055664
156,15323,15324,-0.025328848510980606,-0.013118834234774113,0.9944008588790894,-2.438924551010132,-2.4629673957824707,-2.249114990234375,-0.14399279654026031,1.2389379739761353,0.2939853072166443,0.15644997358322144,0.03607286885380745,1.0997283458709717
157,15333,15334,-0.025969108566641808,0.02922026813030243,1.0293971300125122,-4.982001781463623,-1.5778675079345703,-1.937523365020752,-0.14549271762371063,1.2404379844665527,0.28048595786094666,-0.04307444393634796,-0.016576945781707764,1.0759464502334595
158,15343,15344,0.05053164064884186,-0.1467391848564148,0.9078022837638855,-6.070703983306885,0.5178050994873047,-2.832087993621826,-0.14549271762371063,1.231438398361206,0.2924853563308716,0.04877122491598129,0.033106569200754166,1.0598007440567017
159,15353,15354,-0.10746356099843979,-0.023049769923090935,1.0622074604034424,-5.714098930358887,2.0501203536987305,-2.2858452796936035,-0.1334933191537857,1.2284384965896606,0.28948551416397095,0.10956500470638275,-0.08161120116710663,1.0283539295196533
160,15363,15364,-0.04840169474482536,-0.02313581295311451,1.0357561111450195,-5.2246551513671875,3.4967758655548096,-2.7627012729644775,-0.14249287545681,1.2344383001327515,0.26848655939102173,0.06995967030525208,-0.11908849328756332,1.006140112876892
161,15373,15374,-0.0586908720433712,-0.007405770011246204,1.0451807975769043,-3.72865891456604,4.807504177093506,-2.7713801860809326,-0.14249287545681,1.2524373531341553,0.28948551416397095,0.14050930738449097,-0.21873703598976135,0.9727985858917236
162,15383,15384,-0.016576305031776428,0.01833445578813553,1.0438363552093506,-1.1255362033843994,6.144371032714844,-2.198989152908325,-0.13649317622184753,1.2344383001327515,0.28048595786094666,0.1927904337644577,-0.2883130609989166,0.9414846301078796
163,15393,15394,-0.027288084849715233,0.05826196447014809,0.9688441753387451,-0.5820772647857666,8.301555633544922,-1.8756784200668335,-0.13949301838874817,1.2344383001327515,0.28048595786094666,0.05960121378302574,-0.32179251313209534,0.9208136200904846
164,15403,15404,-0.14509348571300507,-0.017049310728907585,0.9902557134628296,0.4356354773044586,9.912903785705566,-1.9819401502609253,-0.12749361991882324,1.2344383001327515,0.2864856719970703,-0.1013270691037178,-0.34072983264923096,0.9018065929412842
165,15413,15414,-0.030437171459197998,-0.09305433183908463,0.9134794473648071,3.3613691329956055,8.982206344604492,-1.3627861738204956,-0.14099295437335968,1.232938289642334,0.28798559308052063,-0.2882889211177826,-0.3433111011981964,0.8837064504623413
166,15423,15424,-0.007255609147250652,-0.00715836463496089,1.014784574508667,3.9410078525543213,6.292561054229736,-0.8987237811088562,-0.13799309730529785,1.2389379739761353,0.27298635244369507,-0.3047376871109009,-0.23056788742542267,0.8694056868553162
167,15433,15434,-0.024538766592741013,-0.16671955585479736,0.9225889444351196,5.935159206390381,1.0554089546203613,-1.431458592414856,-0.14999249577522278,1.2269386053085327,0.29098543524742126,-0.4146467447280884,-0.17494453489780426,0.8603940606117249
168,15443,15444,-0.06384707242250443,-0.13552197813987732,1.006803274154663,4.643625259399414,-0.037914179265499115,-1.5430797338485718,-0.14399279654026031,1.2359381914138794,0.28498575091362,-0.2803018093109131,-0.08559400588274002,0.841349720954895
169,15453,15454,0.09584877640008926,-0.20750018954277039,1.0088766813278198,-0.3673384189605713,0.3601985573768616,-2.1524972915649414,-0.13649317622184753,1.2404379844665527,0.29848507046699524,-0.3227461874485016,-0.02913711592555046,0.8298848271369934
170,15463,15464,-0.049628157168626785,-0.2334282100200653,1.0811376571655273,-3.2973482608795166,0.4400237202644348,-1.5251601934432983,-0.14999249577522278,1.2419378757476807,0.29098543524742126,-0.21829812228679657,0.018495725467801094,0.8095666766166687
171,15473,15474,0.07850130647420883,-0.2604171335697174,0.9917485117912292,-6.660138130187988,0.8432663679122925,-0.8601208925247192,-0.14549271762371063,1.231438398361206,0.2864856719970703,-0.19035682082176208,-0.06014145910739899,0.7915034890174866
172,15483,15484,0.09185140579938889,-0.25908732414245605,1.0541785955429077,-8.54028034210205,2.482959032058716,-0.6581742167472839,-0.13949301838874817,1.2374380826950073,0.2834858298301697,-0.2428845316171646,-0.2510133385658264,0.7764642834663391
173,15493,15494,0.13775292038917542,-0.3059585690498352,0.9333239793777466,-7.488205909729004,3.8225982189178467,-0.9183342456817627,-0.14249287545681,1.2344383001327515,0.28948551416397095,-0.4574313461780548,-0.25527864694595337,0.783185601234436
174,15503,15504,0.03985478729009628,-0.03591671213507652,1.0502203702926636,-3.641587495803833,7.615887641906738,-0.7539661526679993,-0.13499325513839722,1.244937777519226,0.2969851493835449,-0.3923000991344452,-0.385847806930542,0.7675604224205017
175,15513,15514,0.011926916427910328,0.07752235233783722,1.0683268308639526,-0.021644968539476395,7.642077922821045,-0.5616699457168579,-0.15599219501018524,1.247937560081482,0.28798559308052063,-0.5374941229820251,-0.45587795972824097,0.7624720931053162
176,15523,15524,-0.020172061398625374,0.025615332648158073,1.0361384153366089,4.45353889465332,6.041087627410889,-0.16525878012180328,-0.15899205207824707,1.2509374618530273,0.2759861946105957,-0.6078242063522339,-0.39569801092147827,0.7624077200889587
177,15533,15534,-0.05632421001791954,0.05112935230135918,1.0264447927474976,6.706891059875488,4.142885208129883,-0.13735119998455048,-0.14549271762371063,1.246437668800354,0.2924853563308716,-0.718267023563385,-0.4069075286388397,0.7598108053207397
178,15543,15544,-0.0017679412849247456,-0.01305819395929575,1.0168887376785278,8.067005157470703,-1.6149308681488037,-0.302314817905426,-0.14699265360832214,1.2359381914138794,0.27298635244369507,-0.8000418543815613,-0.30437275767326355,0.7641077637672424
179,15553,15554,-0.0026273452676832676,-0.04337000101804733,1.015405535697937,6.55271053314209,-1.7640478610992432,0.08291363716125488,-0.13799309730529785,1.2269386053085327,0.2759861946105957,-0.7908405065536499,-0.18158671259880066,0.7648005485534668
180,15563,15564,0.05068068206310272,-0.1543627828359604,0.9234015941619873,2.7681190967559814,-4.364290237426758,-0.4554804265499115,-0.14849257469177246,1.231438398361206,0.2924853563308716,-0.778167188167572,-0.1623631715774536,0.7604156732559204
181,15573,15574,0.02340787835419178,-0.1399734765291214,0.9077036380767822,-0.2405853569507599,-5.870729923248291,-0.4586387574672699,-0.14849257469177246,1.246437668800354,0.2924853563308716,-0.7162150740623474,-0.12278816103935242,0.7584130764007568
182,15583,15584,-0.20869246125221252,-0.07953037321567535,1.0642181634902954,-1.410876989364624,-8.21329402923584,-0.39948052167892456,-0.14699265360832214,1.2389379739761353,0.2759861946105957,-0.6276412010192871,-0.13094624876976013,0.7516587972640991
183,15593,15594,-0.3004104197025299,-0.1372220665216446,1.0375572443008423,-3.7176806926727295,-3.0884928703308105,0.3250178098678589,-0.15449227392673492,1.2434377670288086,0.2864856719970703,-0.48752084374427795,-0.1527065634727478,0.742473840713501
184,15603,15604,0.01068066619336605,-0.2703728675842285,0.8865271806716919,-5.05337381362915,-0.8494516015052795,0.008747223764657974,-0.14099295437335968,1.2359381914138794,0.28498575091362,-0.43742987513542175,-0.2136286199092865,0.7386155724525452
185,15613,15614,0.08386055380105972,-0.21342216432094574,0.9680399894714355,-2.6052112579345703,-0.2157110571861267,1.0599913597106934,-0.13949301838874817,1.2494374513626099,0.2924853563308716,-0.43658825755119324,-0.2955029010772705,0.7345096468925476
186,15623,15624,0.22953708469867706,-0.510395884513855,0.9488962888717651,-0.14343418180942535,2.3850274085998535,0.5762085318565369,-0.13799309730529785,1.2509374618530273,0.27898603677749634,-0.44404327869415283,-0.2696419656276703,0.7510876059532166
187,15633,15634,-0.09415862709283829,-0.2316950112581253,1.2117037773132324,2.370368480682373,-0.39743614196777344,0.32626450061798096,-0.1529923528432846,1.2389379739761353,0.27298635244369507,-0.476719468832016,-0.2763949930667877,0.7578532695770264
188,15643,15644,-0.1472395658493042,-0.2473423182964325,1.0542751550674438,6.172760486602783,3.402714490890503,0.03912621736526489,-0.14249287545681,1.2344383001327515,0.277486115694046,-0.4586598873138428,-0.2346763163805008,0.7644588351249695
189,15653,15654,0.008148930966854095,-0.1218533143401146,1.0390653610229492,4.93234920501709,4.427548885345459,0.3856331408023834,-0.15749211609363556,1.2434377670288086,0.28948551416397095,-0.5111367106437683,-0.13957850635051727,0.7701431512832642
190,15663,15664,0.14460979402065277,-0.08781734108924866,1.0245556831359863,3.5747110843658447,3.1905908584594727,0.9241283535957336,-0.14849257469177246,1.2404379844665527,0.277486115694046,-0.5926835536956787,-0.06572174280881882,0.7781944870948792
191,15673,15674,0.09703267365694046,-0.15565092861652374,1.0685087442398071,1.4039220809936523,-1.261923909187317,0.0051262266933918,-0.14999249577522278,1.2359381914138794,0.28198590874671936,-0.6563178300857544,-0.014818373136222363,0.78916335105896
192,15683,15684,-0.0507577583193779,-0.11120712757110596,1.0235201120376587,-1.2492543458938599,-5.42082405090332,-0.02082706242799759,-0.14249287545681,1.2284384965896606,0.277486115694046,-0.6371501088142395,0.004708954598754644,0.7923699617385864
193,15693,15694,-0.02160458266735077,-0.12805713713169098,0.9298411011695862,-2.2355258464813232,-3.9719972610473633,0.015136328525841236,-0.14249287545681,1.2254387140274048,0.2924853563308716,-0.5459345579147339,-0.08703230321407318,0.7808632254600525
194,15703,15704,0.01508693490177393,0.05200246348977089,0.9216959476470947,-4.360392093658447,-0.3226057291030884,-0.05365070700645447,-0.13799309730529785,1.2389379739761353,0.27898603677749634,-0.5499006509780884,-0.12645524740219116,0.7822712063789368
195,15713,15714,-0.005715714301913977,0.05544586479663849,1.1020112037658691,-5.214051246643066,-1.039476752281189,0.24479924142360687,-0.13649317622184753,1.2284384965896606,0.2834858298301697,-0.5484831929206848,-0.2043832689523697,0.7786638736724854
196,15723,15724,0.026756200939416885,-0.351901113986969,1.084708571434021,-1.8247116804122925,-3.640565872192383,0.34279781579971313,-0.1514924168586731,1.2374380826950073,0.2744862735271454,-0.5418834090232849,-0.2933637201786041,0.7757057547569275
197,15733,15734,-0.025360966101288795,-0.13205745816230774,1.0312341451644897,2.076815605163574,-4.384459495544434,0.5298938751220703,-0.13949301838874817,1.2134393453598022,0.2744862735271454,-0.48639482259750366,-0.25351426005363464,0.7851234674453735
198,15743,15744,-0.005389680620282888,-0.04868704080581665,0.9264490604400635,4.289648056030273,-3.91947865486145,0.27019187808036804,-0.13649317622184753,1.2284384965896606,0.27148643136024475,-0.47870391607284546,-0.22686944901943207,0.7942604422569275
199,15753,15754,-0.048746850341558456,0.1780334711074829,1.0389479398727417,5.243270397186279,-0.9901002645492554,0.048211246728897095,-0.14549271762371063,1.2434377670288086,0.2834858298301697,-0.45467451214790344,-0.15721657872200012,0.80320805311203
200,15763,15764,0.01866818033158779,0.057263992726802826,0.9759373664855957,5.481321811676025,0.6106505393981934,-0.4478289484977722,-0.1319933980703354,1.2209389209747314,0.27298635244369507,-0.5040808916091919,-0.08096309006214142,0.8127194046974182
201,15773,15774,0.07135653495788574,-0.03584269434213638,0.9997870326042175,4.894775867462158,-1.1470136642456055,-1.4429503679275513,-0.14849257469177246,1.2254387140274048,0.26848655939102173,-0.6097792983055115,-0.014534381218254566,0.8163347840309143
202,15783,15784,0.06058473140001297,-0.009716305881738663,1.087362289428711,1.6690348386764526,-3.5298500061035156,-1.084138035774231,-0.13799309730529785,1.2209389209747314,0.27298635244369507,-0.5982472896575928,0.043970610946416855,0.8079251050949097
203,15793,15794,-0.03977416455745697,0.029564889147877693,1.0103483200073242,-1.2311896085739136,-4.954440116882324,-0.5885140299797058,-0.14699265360832214,1.2149392366409302,0.28198590874671936,-0.5159064531326294,0.06614934653043747,0.7993110418319702
204,15803,15804,-0.13155607879161835,0.19582338631153107,0.9772597551345825,-3.8960630893707275,-4.9761857986450195,-1.010201096534729,-0.14099295437335968,1.2149392366409302,0.27898603677749634,-0.4698236584663391,-0.09505108743906021,0.7766026258468628
205,15813,15814,-0.03288194164633751,-0.05860041454434395,0.9711294770240784,-5.126468181610107,-5.015289306640625,-1.654342532157898,-0.1334933191537857,1.2194390296936035,0.2924853563308716,-0.4391758441925049,-0.1599326729774475,0.7630444765090942
206,15823,15824,0.04482538253068924,-0.48099207878112793,0.9048388004302979,-3.0999057292938232,-6.911479949951172,-1.8476512432098389,-0.13949301838874817,1.2344383001327515,0.2864856719970703,-0.4557535648345947,-0.1644420325756073,0.7531157732009888
207,15833,15834,0.07037489116191864,-0.12070968747138977,0.9167220592498779,-0.6954246163368225,-7.787997245788574,-0.8517205715179443,-0.14249287545681,1.2374380826950073,0.277486115694046,-0.34037235379219055,-0.1489059329032898,0.7408448457717896
208,15843,15844,-0.05685381591320038,0.06707723438739777,1.098231315612793,1.6690833568572998,-7.276339530944824,-1.3045237064361572,-0.12749361991882324,1.2254387140274048,0.2864856719970703,-0.06966352462768555,-0.16663597524166107,0.7247346043586731
209,15853,15854,0.04780912026762962,-0.04930475726723671,0.896766185760498,2.4606213569641113,-4.582195281982422,-1.6021586656570435,-0.12899354100227356,1.2359381914138794,0.28798559308052063,-0.0878625139594078,-0.07474622875452042,0.7216171026229858
210,15863,15864,-0.03892502188682556,-0.03185643255710602,0.9657456874847412,3.2604801654815674,-1.6649411916732788,-2.3951737880706787,-0.1319933980703354,1.232938289642334,0.2759861946105957,-0.012027276679873466,-0.11600926518440247,0.6969929337501526
211,15873,15874,-0.05516930669546127,-0.6507339477539062,1.0650792121887207,2.0318233966827393,0.03212956711649895,-1.5350688695907593,-0.14549271762371063,1.231438398361206,0.28048595786094666,-0.03487992659211159,-0.06688529998064041,0.673240602016449
212,15883,15884,0.016340700909495354,-0.2982567846775055,0.9202293753623962,1.4298374652862549,2.089531898498535,-2.1177878379821777,-0.1604919731616974,1.2404379844665527,0.2864856719970703,-0.01591700315475464,-0.03668753802776337,0.6541378498077393
213,15893,15894,-0.10080567002296448,0.26307106018066406,1.186021089553833,0.8907738327980042,3.824514150619507,-1.5024681091308594,-0.1529923528432846,1.2419378757476807,0.28498575091362,-0.03774549812078476,-0.0221200380474329,0.6351866722106934
214,15903,15904,-0.050343338400125504,0.11557240784168243,1.0156551599502563,-0.09531811624765396,0.7418992519378662,-2.146200180053711,-0.15449227392673492,1.231438398361206,0.28048595786094666,-0.09051134437322617,-0.016579801216721535,0.621079683303833
215,15913,15914,-0.0014164821477606893,-0.12310445308685303,0.8405815362930298,-1.2418428659439087,-2.914440393447876,-1.7793059349060059,-0.15899205207824707,1.2419378757476807,0.28798559308052063,-0.09492523223161697,-0.02671765349805355,0.6018922328948975
216,15923,15924,0.045906782150268555,-0.3109060525894165,0.9683495759963989,-1.9448000192642212,-4.850124359130859,-1.4442083835601807,-0.13799309730529785,1.2389379739761353,0.2639867961406708,-0.04926205798983574,-0.05162625387310982,0.584022045135498
217,15933,15934,-0.02578376978635788,-0.24850882589817047,0.9468430876731873,-0.8414989709854126,-6.05386209487915,-1.0183639526367188,-0.14249287545681,1.2344383001327515,0.277486115694046,0.037119463086128235,-0.08963669836521149,0.5673675537109375
218,15943,15944,-0.04457111284136772,-0.2238612174987793,0.975908637046814,0.18291638791561127,-5.843699932098389,-1.3386366367340088,-0.15599219501018524,1.2389379739761353,0.2759861946105957,0.08428240567445755,-0.10955332964658737,0.5589430332183838
219,15953,15954,-0.11610525846481323,-0.045714158564805984,1.154805064201355,1.3684276342391968,-2.6278679370880127,-0.662627100944519,-0.14699265360832214,1.244937777519226,0.29098543524742126,0.19106663763523102,-0.1088164746761322,0.549223005771637
220,15963,15964,-0.1388825625181198,-0.19152367115020752,0.9729569554328918,2.2481179237365723,-2.645169734954834,-1.4964431524276733,-0.14399279654026031,1.2419378757476807,0.29998499155044556,0.24442081153392792,-0.09177940338850021,0.5392971634864807
221,15973,15974,-0.10541662573814392,-0.19761577248573303,0.857388436794281,1.5586143732070923,-1.9956177473068237,-1.0144354104995728,-0.15449227392673492,1.2434377670288086,0.2834858298301697,0.3024493157863617,-0.05441806837916374,0.5226839184761047
222,15983,15984,-0.037241384387016296,0.0016552607994526625,0.9430429935455322,1.2436249256134033,-0.15569312870502472,-1.6955645084381104,-0.13949301838874817,1.231438398361206,0.2924853563308716,0.33594053983688354,-0.029814554378390312,0.5075687170028687
223,15993,15994,0.014198720455169678,-0.09353388100862503,0.9934976696968079,0.26731181144714355,2.8452930450439453,-2.030505657196045,-0.13499325513839722,1.2509374618530273,0.29098543524742126,0.33507826924324036,-0.021680960431694984,0.488859087228775
224,16003,16004,-0.06443411856889725,-0.15393012762069702,1.0386418104171753,-1.1388100385665894,5.366857051849365,-0.45370280742645264,-0.15449227392673492,1.246437668800354,0.2744862735271454,0.307026743888855,-0.015633579343557358,0.4709007441997528
225,16013,16014,-0.008944256231188774,-0.17535725235939026,1.0231817960739136,-1.3334119319915771,5.654905796051025,-0.11444582790136337,-0.14549271762371063,1.2644367218017578,0.2834858298301697,0.23930580914020538,-0.10028546303510666,0.46587255597114563
226,16023,16024,-0.0619182214140892,-0.0966004729270935,1.0588901042938232,-1.404685378074646,4.092962741851807,0.44690564274787903,-0.14549271762371063,1.2644367218017578,0.2834858298301697,0.17361493408679962,-0.0431491956114769,0.460569828748703
227,16033,16034,-0.0238545760512352,0.03401467949151993,1.0300183296203613,0.552632212638855,2.1203370094299316,0.03853250667452812,-0.15899205207824707,1.2509374618530273,0.27898603677749634,0.11368810385465622,-0.05650797858834267,0.4614124894142151
228,16043,16044,0.09302768856287003,-0.07368984818458557,0.9681701064109802,2.048870325088501,-1.257219672203064,-0.22897304594516754,-0.14849257469177246,1.2584370374679565,0.277486115694046,0.048104554414749146,-0.05532461777329445,0.4609169363975525
229,16053,16054,0.05294701084494591,-0.07087734341621399,1.1015124320983887,3.9192211627960205,-5.880659103393555,0.14096146821975708,-0.14549271762371063,1.2584370374679565,0.2954852283000946,0.0344984196126461,-0.03900967165827751,0.46131232380867004
230,16063,16064,0.1446133255958557,-0.03917825222015381,1.0082402229309082,3.2639424800872803,-8.634267807006836,-0.5227798819541931,-0.13799309730529785,1.2359381914138794,0.2759861946105957,0.10682836174964905,0.01632516272366047,0.46301013231277466
231,16073,16074,-0.04225862771272659,0.026653142645955086,1.0405447483062744,1.5300589799880981,-8.049596786499023,0.08388332277536392,-0.14849257469177246,1.2584370374679565,0.2924853563308716,0.24274156987667084,0.06396222114562988,0.4571496546268463
232,16083,16084,0.026774663478136063,0.05803950875997543,1.0436896085739136,0.16623778641223907,-3.820586681365967,0.6680740118026733,-0.1529923528432846,1.2419378757476807,0.29098543524742126,0.2304176688194275,0.08303171396255493,0.4589897394180298
233,16093,16094,0.009671094827353954,-0.6052488088607788,0.9914190769195557,-2.23842191696167,-0.07521923631429672,0.3653940260410309,-0.14849257469177246,1.246437668800354,0.277486115694046,0.29316189885139465,0.08244647830724716,0.46536412835121155
234,16103,16104,-0.1858310103416443,-0.41408661007881165,1.1058005094528198,-2.584256172180176,2.9154281616210938,0.10359182208776474,-0.14849257469177246,1.2524373531341553,0.28048595786094666,0.40587565302848816,0.05288374423980713,0.4703548550605774
235,16113,16114,-0.11606494337320328,-0.10797861963510513,0.9576755166053772,-4.539138317108154,6.029956340789795,-0.06480416655540466,-0.14849257469177246,1.2494374513626099,0.2834858298301697,0.3106776475906372,0.01852768287062645,0.472255676984787
236,16123,16124,-0.030332639813423157,0.055683184415102005,1.0682852268218994,-4.581042289733887,7.679766654968262,0.7834785580635071,-0.13949301838874817,1.2644367218017578,0.2834858298301697,0.2804796099662781,-0.05500742048025131,0.4741714894771576
237,16133,16134,-0.028147561475634575,0.0015303543768823147,1.084223985671997,-2.9325144290924072,6.289067268371582,0.9911398887634277,-0.15449227392673492,1.2554372549057007,0.28048595786094666,0.13635477423667908,-0.20264573395252228,0.4877723157405853
238,16143,16144,0.10614484548568726,-0.14323055744171143,0.9622636437416077,0.06073569133877754,3.101205825805664,1.596439003944397,-0.14549271762371063,1.2494374513626099,0.27148643136024475,0.024313127622008324,-0.24870248138904572,0.4992228150367737
239,16153,16154,-0.08781501650810242,0.00990652572363615,1.0286496877670288,3.8717076778411865,-0.8398984670639038,0.8426523208618164,-0.14249287545681,1.2434377670288086,0.2924853563308716,0.031291816383600235,-0.10810776054859161,0.5049682259559631
240,16163,16164,0.02797999046742916,0.005577240139245987,1.0139656066894531,7.030514240264893,-3.1523334980010986,1.0680248737335205,-0.1529923528432846,1.2359381914138794,0.28498575091362,0.018380194902420044,-0.1959010809659958,0.5202498435974121
241,16173,16174,0.06479612737894058,0.018049098551273346,1.1213421821594238,8.096580505371094,-4.415722846984863,1.2117431163787842,-0.14999249577522278,1.2569371461868286,0.2939853072166443,0.061337910592556,-0.15800733864307404,0.5306495428085327
242,16183,16184,-0.004713905975222588,-0.05966558679938316,0.9986777901649475,7.997398853302002,-3.653712034225464,0.16930074989795685,-0.1514924168586731,1.2434377670288086,0.28048595786094666,0.1237003356218338,-0.02128559723496437,0.5402901768684387
243,16193,16194,-0.026905015110969543,-0.4249584376811981,0.9430034756660461,5.736874580383301,-1.1863503456115723,0.10475345700979233,-0.13499325513839722,1.2389379739761353,0.28498575091362,0.2014484852552414,0.11976762861013412,0.5395016074180603
244,16203,16204,-0.06692642718553543,-0.1524583101272583,1.1041191816329956,0.790965735912323,2.3023266792297363,-0.0073613994754850864,-0.14849257469177246,1.231438398361206,0.27148643136024475,0.23822090029716492,0.28929200768470764,0.5338721871376038
245,16213,16214,0.01661601848900318,-0.12110030651092529,0.9683848023414612,-3.475499391555786,5.740893363952637,0.16810807585716248,-0.1334933191537857,1.2344383001327515,0.28048595786094666,0.21419352293014526,0.2273857146501541,0.5418304204940796
246,16223,16224,-0.05735111981630325,-0.09893143177032471,0.9713215231895447,-6.937005996704102,6.834497928619385,0.10878957808017731,-0.13499325513839722,1.2359381914138794,0.26998651027679443,0.12856456637382507,0.17290258407592773,0.5460290312767029
247,16233,16234,-0.09567511826753616,0.14274197816848755,1.0873883962631226,-7.814652919769287,7.038146018981934,0.19411715865135193,-0.14849257469177246,1.2344383001327515,0.28048595786094666,0.0010812226682901382,0.13349145650863647,0.5469900369644165
248,16243,16244,0.14336544275283813,0.03652772679924965,0.9913596510887146,-6.998526573181152,5.44716739654541,0.27010390162467957,-0.14099295437335968,1.247937560081482,0.28198590874671936,-0.14269819855690002,-0.0066435146145522594,0.5525139570236206
249,16253,16254,0.08096962422132492,0.04407845064997673,1.142570972442627,-4.033268928527832,2.0872695446014404,0.045120976865291595,-0.14399279654026031,1.2299385070800781,0.28198590874671936,-0.2511984705924988,-0.1342063844203949,0.560405433177948
250,16263,16264,-0.04136532545089722,-0.03235346078872681,0.9915865063667297,0.7281575798988342,-2.241057872772217,0.20710648596286774,-0.14099295437335968,1.2389379739761353,0.28198590874671936,-0.2818971276283264,-0.20111563801765442,0.5637971758842468
251,16273,16274,-0.12195839732885361,-0.044270168989896774,0.9729171395301819,5.242451190948486,-5.128350734710693,0.51090407371521,-0.13799309730529785,1.2269386053085327,0.26998651027679443,-0.1412142813205719,-0.11414112895727158,0.5638979077339172
252,16283,16284,-0.11152619868516922,-0.004304848611354828,0.9331297874450684,8.123379707336426,-3.6086153984069824,-0.00904239434748888,-0.13649317622184753,1.2254387140274048,0.277486115694046,-0.0423930324614048,-0.036348361521959305,0.5670006275177002
253,16293,16294,-0.22018377482891083,0.17837031185626984,1.1069575548171997,7.760552883148193,-2.470128059387207,-0.8759990930557251,-0.13799309730529785,1.2239388227462769,0.28498575091362,0.0327509380877018,0.08799334615468979,0.5667189955711365
254,16303,16304,-0.12506641447544098,0.018562551587820053,1.078649878501892,4.882979869842529,0.7548204064369202,-1.506941318511963,-0.13499325513839722,1.2389379739761353,0.28498575091362,0.022701935842633247,0.1411062777042389,0.5622320771217346
255,16313,16314,-0.10756748169660568,-0.09053560346364975,0.9444354176521301,1.8703268766403198,2.956690788269043,-1.9459565877914429,-0.13799309730529785,1.2239388227462769,0.2759861946105957,0.029606474563479424,0.15599671006202698,0.5463799238204956
256,16323,16324,-0.012341253459453583,-0.1928534209728241,0.8356049656867981,-1.6987048387527466,4.085039138793945,-1.3393055200576782,-0.14249287545681,1.2374380826950073,0.2744862735271454,-0.012012260966002941,0.26175472140312195,0.5203297138214111
257,16333,16334,0.0011022750986739993,-0.14004333317279816,0.9594351649284363,-5.938220977783203,4.825573921203613,-1.7763152122497559,-0.13799309730529785,1.232938289642334,0.29098543524742126,-0.008703748695552349,0.23320148885250092,0.5063204765319824
258,16343,16344,0.09881246089935303,-0.16027364134788513,1.0457502603530884,-9.413732528686523,5.508365154266357,-1.8263720273971558,-0.13649317622184753,1.2344383001327515,0.26848655939102173,-0.08486656844615936,0.141906276345253,0.49102845788002014
259,16353,16354,-0.08933744579553604,-0.1428961157798767,1.1765320301055908,-8.030115127563477,3.9690470695495605,-0.24916812777519226,-0.13949301838874817,1.2434377670288086,0.2864856719970703,-0.15817201137542725,-0.004647972993552685,0.47456109523773193
260,16363,16364,0.008950939401984215,-0.07851316034793854,1.0231776237487793,-6.0437331199646,1.79855215549469,-0.9264973402023315,-0.13499325513839722,1.2389379739761353,0.28798559308052063,-0.208100363612175,-0.13268812000751495,0.4693075120449066
261,16373,16374,0.0633063092827797,0.03325159475207329,1.0853521823883057,-0.09039019048213959,-1.0132218599319458,0.04471230134367943,-0.14549271762371063,1.2344383001327515,0.277486115694046,-0.24543191492557526,-0.1579202115535736,0.45779281854629517
262,16383,16384,-0.03040303662419319,-0.45801520347595215,1.0675166845321655,6.210799694061279,-4.5449748039245605,-0.8752710819244385,-0.1334933191537857,1.2254387140274048,0.277486115694046,-0.2663438320159912,-0.1721571832895279,0.45572182536125183
263,16393,16394,0.06890629231929779,-0.44241008162498474,0.9373195171356201,7.505227565765381,-4.5460734367370605,-1.8297518491744995,-0.14099295437335968,1.2299385070800781,0.28498575091362,-0.2112952023744583,-0.08307619392871857,0.45109885931015015
264,16403,16404,-0.033267244696617126,-0.08503878861665726,1.000589370727539,5.588538646697998,-2.69065523147583,-1.8882999420166016,-0.14399279654026031,1.2209389209747314,0.27898603677749634,-0.13713029026985168,0.03947170823812485,0.43595272302627563
265,16413,16414,-0.04440206289291382,-0.03556623309850693,0.9885910153388977,5.390299320220947,-0.08981689810752869,-1.828113079071045,-0.14849257469177246,1.2254387140274048,0.277486115694046,-0.0804971307516098,0.06311025470495224,0.41932931542396545
266,16423,16424,-0.08227626979351044,-0.010090171359479427,1.0109654664993286,3.256195545196533,2.0294370651245117,-2.186077833175659,-0.13049347698688507,1.216439127922058,0.2924853563308716,-0.06850479543209076,0.14967097342014313,0.40145543217658997
267,16433,16434,0.05505600571632385,-0.06406305730342865,0.8916119933128357,0.18656347692012787,4.274539470672607,-2.47284197807312,-0.13049347698688507,1.2344383001327515,0.277486115694046,-0.10305236279964447,0.20408640801906586,0.3831011950969696
268,16443,16444,0.1252593845129013,-0.0761067271232605,0.9707828164100647,-1.511319637298584,3.603733539581299,-3.1520438194274902,-0.13649317622184753,1.231438398361206,0.28948551416397095,-0.2033739537000656,0.197749063372612,0.36178627610206604
269,16453,16454,0.08431876450777054,-0.11462811380624771,1.0126250982284546,-3.486097574234009,3.187701463699341,-3.2411932945251465,-0.14249287545681,1.2344383001327515,0.2744862735271454,-0.28374433517456055,0.1667175143957138,0.33870598673820496
270,16463,16464,-0.0379585362970829,0.01039354968816042,1.0586981773376465,-5.422824382781982,3.084606647491455,-2.2326102256774902,-0.14399279654026031,1.2239388227462769,0.28498575091362,-0.3265405297279358,0.10740819573402405,0.3097939193248749
271,16473,16474,-0.11324232816696167,0.11500851064920425,1.1262434720993042,-4.2831292152404785,-0.11453979462385178,-1.3992069959640503,-0.14099295437335968,1.232938289642334,0.28198590874671936,-0.3555188477039337,0.09234802424907684,0.28570055961608887
272,16483,16484,-0.13913558423519135,0.23208574950695038,1.0565401315689087,-3.683488368988037,-2.890777826309204,-2.179788827896118,-0.14099295437335968,1.232938289642334,0.28798559308052063,-0.3477420210838318,0.012946481816470623,0.2691787779331207
273,16493,16494,0.09076499938964844,0.11185891926288605,0.9011099338531494,-1.6660040616989136,-3.7106192111968994,-1.6969932317733765,-0.1514924168586731,1.2254387140274048,0.2744862735271454,-0.3206356167793274,-0.054606225341558456,0.251436322927475
274,16503,16504,0.1320938616991043,-0.047648802399635315,0.8843762278556824,1.6211268901824951,-4.411795139312744,-1.5027357339859009,-0.1529923528432846,1.2239388227462769,0.27898603677749634,-0.14871811866760254,-0.10026337206363678,0.23746588826179504
275,16513,16514,0.05871555954217911,-0.0013683316064998507,1.0027896165847778,4.668771266937256,-2.979372501373291,-1.8208611011505127,-0.1334933191537857,1.216439127922058,0.26848655939102173,-0.16802407801151276,-0.022369489073753357,0.2254101037979126
276,16523,16524,-0.07613848894834518,0.13373444974422455,1.1528534889221191,6.151353359222412,0.8349522948265076,-1.8161230087280273,-0.14549271762371063,1.216439127922058,0.2834858298301697,-0.1067405492067337,-0.027702635154128075,0.21230164170265198
277,16533,16534,0.007415566593408585,0.07373986393213272,0.970251739025116,5.585290431976318,2.576857805252075,-2.337806224822998,-0.14549271762371063,1.2224388122558594,0.28048595786094666,-0.10561340302228928,0.06697022169828415,0.19453121721744537
278,16543,16544,-0.0032664453610777855,-0.034767430275678635,0.9259020090103149,1.5398156642913818,7.019602298736572,-2.0707571506500244,-0.1334933191537857,1.2194390296936035,0.277486115694046,-0.162502720952034,0.15057319402694702,0.1722678542137146
279,16553,16554,-0.05268595367670059,-0.05686824023723602,0.9490664005279541,-2.361368179321289,9.274822235107422,-1.612964391708374,-0.14849257469177246,1.2224388122558594,0.27148643136024475,-0.2636459767818451,0.17013467848300934,0.15411944687366486
280,16563,16564,-0.04563587158918381,0.0585615448653698,0.9853427410125732,-3.9669902324676514,8.916330337524414,-1.7361153364181519,-0.14999249577522278,1.2209389209747314,0.28198590874671936,0.08508840203285217,-0.012652344070374966,0.14179548621177673
281,16573,16574,-0.11882645636796951,-0.07288014888763428,0.9980893731117249,-4.390211582183838,6.935431480407715,-1.7529035806655884,-0.14849257469177246,1.2434377670288086,0.2744862735271454,-0.3828325867652893,-0.07797884941101074,0.1194450855255127
282,16583,16584,-0.10957890003919601,-0.07912714034318924,1.0429482460021973,-2.6583919525146484,5.6936936378479,-2.1785712242126465,-0.16499175131320953,1.232938289642334,0.28498575091362,-0.5380345582962036,-0.018201887607574463,0.10484544932842255
283,16593,16594,0.03269278630614281,-0.053895287215709686,1.0121291875839233,0.37787771224975586,2.739309787750244,-2.526719093322754,-0.1529923528432846,1.2239388227462769,0.2939853072166443,-0.5161215662956238,-0.07087596505880356,0.0904807299375534
284,16603,16604,0.04507419094443321,-0.0747762992978096,0.9508696794509888,1.252864956855774,-0.5337222218513489,-2.8235833644866943,-0.14699265360832214,1.2299385070800781,0.27898603677749634,-0.360508531332016,-0.07107201218605042,0.0706193819642067
285,16613,16614,-0.014678210951387882,0.04113394767045975,1.0112742185592651,3.6412646770477295,-2.513336181640625,-1.9484655857086182,-0.14099295437335968,1.2269386053085327,0.2669866383075714,-0.3607049882411957,-0.04760153591632843,0.046241357922554016
286,16623,16624,-0.12026525288820267,0.03576283901929855,1.0489152669906616,4.317075729370117,-2.304579257965088,-2.3435769081115723,-0.15449227392673492,1.231438398361206,0.27148643136024475,-0.4708099365234375,0.0066386740654706955,0.026036294177174568
287,16633,16634,0.05416209250688553,-0.01392996683716774,0.7888081669807434,3.4938113689422607,-0.7262622714042664,-2.0287556648254395,-0.14699265360832214,1.2269386053085327,0.28798559308052063,-0.3939021825790405,-0.007072640582919121,0.0042957887053489685
288,16643,16644,0.10832545161247253,0.06525010615587234,0.946739673614502,3.616508960723877,0.49484747648239136,-2.096021890640259,-0.13049347698688507,1.2254387140274048,0.28048595786094666,-0.43410634994506836,0.04163733124732971,-0.010735723190009594
289,16653,16654,0.13056106865406036,-0.10015343874692917,0.8717175126075745,1.6492019891738892,1.256358027458191,-2.0767884254455566,-0.13649317622184753,1.2194390296936035,0.2744862735271454,-0.4861891567707062,0.015200905501842499,-0.029363028705120087
290,16663,16664,-0.035795122385025024,0.06034672260284424,1.097927212715149,-0.1165592148900032,0.762538731098175,-2.276733636856079,-0.1529923528432846,1.2389379739761353,0.27298635244369507,-0.5889014005661011,0.03852543607354164,-0.04754418879747391
291,16673,16674,-0.048915378749370575,0.1502935290336609,1.090653419494629,0.5186235904693604,-0.2989470660686493,-2.4785068035125732,-0.14999249577522278,1.2359381914138794,0.27898603677749634,-0.6707831621170044,0.10792789608240128,-0.06462956219911575
292,16683,16684,0.005904634948819876,-0.03455297648906708,1.042311191558838,-0.5355031490325928,-1.5163984298706055,-2.0708556175231934,-0.14849257469177246,1.2404379844665527,0.2954852283000946,-0.5346166491508484,0.03392192721366882,-0.09220612794160843
293,16693,16694,0.022845648229122162,-0.323716402053833,0.9796500205993652,-1.4203414916992188,-2.68400239944458,-1.977108120918274,-0.14849257469177246,1.2434377670288086,0.2924853563308716,-0.6029114127159119,0.09150374680757523,-0.10920746624469757
294,16703,16704,0.01615634746849537,-0.12430161237716675,0.8760275840759277,-0.6875626444816589,-3.6690664291381836,-1.9659315347671509,-0.14699265360832214,1.244937777519226,0.2939853072166443,-0.49939703941345215,-0.012419993989169598,-0.13478121161460876
295,16713,16714,-0.06416076421737671,-0.01058991439640522,1.034463882446289,2.131105422973633,-4.465493679046631,-2.3826076984405518,-0.13949301838874817,1.2404379844665527,0.277486115694046,-0.5172890424728394,0.04414164647459984,-0.14465263485908508
296,16723,16724,-0.057036686688661575,-0.06369946897029877,0.8314939737319946,2.9784271717071533,-4.922235012054443,-2.2562577724456787,-0.14399279654026031,1.2539372444152832,0.28198590874671936,-0.515389621257782,0.0686851218342781,-0.16468770802021027
297,16733,16734,-0.20567947626113892,0.03723971173167229,1.045700192451477,2.5748229026794434,-5.846981048583984,-2.692356586456299,-0.14999249577522278,1.2389379739761353,0.27298635244369507,-0.7786657214164734,0.1817282736301422,-0.1843591332435608
298,16743,16744,-0.14004677534103394,0.0516190268099308,1.072625756263733,1.3706092834472656,-5.278620719909668,-2.0835201740264893,-0.14399279654026031,1.2359381914138794,0.2759861946105957,-0.43506452441215515,0.21520668268203735,-0.2086789757013321
299,16753,16754,0.038572151213884354,-0.05765457823872566,0.8675759434700012,-1.7306897640228271,-5.444087028503418,-2.34511661529541,-0.14549271762371063,1.2434377670288086,0.28948551416397095,-0.34804949164390564,0.226605623960495,-0.23108620941638947
300,16763,16764,0.07220017910003662,-0.08228839933872223,0.9381837844848633,-3.7510931491851807,-5.799530982971191,-2.3036158084869385,-0.14249287545681,1.2494374513626099,0.2864856719970703,-0.47751152515411377,0.18741944432258606,-0.261258989572525
301,16773,16774,0.047790560871362686,-0.1938442587852478,1.079904317855835,-5.444711208343506,-5.987423419952393,-1.9421546459197998,-0.1514924168586731,1.2434377670288086,0.28048595786094666,-0.36324697732925415,0.18714866042137146,-0.27983036637306213
302,16783,16784,-0.00526172760874033,-0.052187204360961914,0.9941800236701965,-4.900448799133301,-5.542366027832031,-1.154023289680481,-0.15449227392673492,1.2434377670288086,0.27148643136024475,-0.2375510036945343,0.09133908152580261,-0.2984078824520111
303,16793,16794,-0.01838787831366062,-0.10797575116157532,1.0026700496673584,-4.261399269104004,-5.3118577003479,-1.551160454750061,-0.13949301838874817,1.261436939239502,0.28948551416397095,-0.11511145532131195,-0.05965075269341469,-0.3180623948574066
304,16803,16804,-0.032453350722789764,0.04530846327543259,1.0150035619735718,-1.8485678434371948,-4.434933662414551,-1.4887561798095703,-0.14249287545681,1.2524373531341553,0.2864856719970703,0.0010858387686312199,-0.11927465349435806,-0.3336869180202484
305,16813,16814,-0.09169185906648636,0.18434257805347443,1.17376708984375,0.14492322504520416,-3.2055869102478027,-1.252428650856018,-0.14849257469177246,1.2584370374679565,0.2834858298301697,0.07465028762817383,-0.15236662328243256,-0.3464817702770233
306,16823,16824,-0.0536893866956234,0.06518372893333435,1.124366283416748,3.4387459754943848,-2.119611978530884,-1.1915005445480347,-0.14999249577522278,1.2509374618530273,0.28198590874671936,0.10150356590747833,-0.08895660191774368,-0.35313379764556885
307,16833,16834,-0.08632460236549377,0.06744085252285004,1.0469880104064941,5.632064342498779,-0.9196705222129822,-1.2511061429977417,-0.14999249577522278,1.2629368305206299,0.28798559308052063,0.12338750809431076,-0.12407004833221436,-0.36639973521232605
308,16843,16844,-0.09289456158876419,0.07040739059448242,1.0141934156417847,5.04224157333374,1.257286787033081,-0.3568612337112427,-0.14249287545681,1.2494374513626099,0.2924853563308716,0.13443641364574432,-0.03790781646966934,-0.3790518343448639
309,16853,16854,0.026927361264824867,-0.015325292013585567,0.9928385019302368,4.62624979019165,3.0414047241210938,-0.4262213110923767,-0.14249287545681,1.2584370374679565,0.28948551416397095,0.10621877014636993,0.03933893144130707,-0.3894158899784088
310,16863,16864,0.21544678509235382,-0.059434860944747925,1.0823482275009155,1.3822180032730103,4.371415138244629,-0.594472348690033,-0.14549271762371063,1.246437668800354,0.2954852283000946,0.04759779945015907,0.10295738279819489,-0.39408817887306213
311,16873,16874,0.09837290644645691,-0.3567199110984802,1.0798776149749756,-2.018446683883667,3.285163640975952,0.08393646031618118,-0.15449227392673492,1.2434377670288086,0.2834858298301697,-0.10816073417663574,0.19162528216838837,-0.3953757584095001
312,16883,16884,0.05818938463926315,-0.2504480183124542,1.0097333192825317,-4.277471542358398,0.5393331050872803,-0.0105123994871974,-0.14399279654026031,1.247937560081482,0.28798559308052063,-0.15613137185573578,0.15392589569091797,-0.394343763589859
313,16893,16894,-0.04514572024345398,-0.03832056745886803,0.9540442824363708,-5.872488498687744,-1.6622663736343384,0.04025899991393089,-0.13499325513839722,1.244937777519226,0.29098543524742126,-0.13888797163963318,0.08182375133037567,-0.3928525149822235
314,16903,16904,-0.024454312399029732,0.02727808803319931,1.0406906604766846,-5.643545627593994,-2.7042653560638428,0.9735723733901978,-0.13799309730529785,1.2359381914138794,0.2759861946105957,-0.10011302679777145,0.050124213099479675,-0.39032286405563354
315,16913,16914,-0.025340218096971512,-0.16390562057495117,1.0473300218582153,-4.357975006103516,-4.756889820098877,1.1305781602859497,-0.12599369883537292,1.247937560081482,0.29098543524742126,-0.04019175097346306,0.017025258392095566,-0.38238802552223206
316,16923,16924,0.03436818718910217,-0.20789587497711182,0.953003466129303,-2.4795079231262207,-3.6969053745269775,0.6851246356964111,-0.13649317622184753,1.2434377670288086,0.2834858298301697,0.05112486705183983,-0.06714429706335068,-0.3729945421218872
317,16933,16934,0.0246342271566391,-0.12263774126768112,0.9854505658149719,-1.5925559997558594,-3.858828067779541,-0.004117537289857864,-0.13949301838874817,1.2404379844665527,0.2864856719970703,0.12168789654970169,-0.11362184584140778,-0.3659111559391022
318,16943,16944,-0.05414775386452675,0.04846377298235893,1.1070817708969116,-0.9816194772720337,-1.4843519926071167,0.609975278377533,-0.15599219501018524,1.2509374618530273,0.28498575091362,0.1785580962896347,-0.14845967292785645,-0.36617299914360046
319,16953,16954,-0.09814475476741791,-0.03592722490429878,1.0223875045776367,0.8563936352729797,1.531990647315979,1.3142927885055542,-0.1514924168586731,1.2374380826950073,0.2864856719970703,0.18884779512882233,-0.1735554188489914,-0.3609175980091095
320,16963,16964,0.01855158805847168,-0.16447509825229645,0.9590653777122498,-0.34649279713630676,5.129786014556885,0.5625033378601074,-0.14399279654026031,1.2389379739761353,0.28198590874671936,0.2149696797132492,-0.17572788894176483,-0.34924325346946716
321,16973,16974,0.10125520080327988,-0.1689552366733551,0.958637535572052,0.7246507406234741,6.520637512207031,1.56114661693573,-0.12599369883537292,1.2389379739761353,0.29098543524742126,0.11300376802682877,-0.189006045460701,-0.33872464299201965
322,16983,16984,-0.05133221670985222,-0.06268016248941422,0.9769810438156128,0.9981560111045837,7.1507463455200195,1.4371085166931152,-0.13799309730529785,1.2419378757476807,0.28498575091362,0.010049642063677311,-0.17899823188781738,-0.3252659738063812
323,16993,16994,-0.06203530356287956,0.05693931505084038,1.0492029190063477,2.1044349670410156,6.807168006896973,1.3036792278289795,-0.13799309730529785,1.2359381914138794,0.28798559308052063,-0.09781955927610397,-0.16500815749168396,-0.3136780560016632
324,17003,17004,0.018381251022219658,-0.009814108721911907,1.0241940021514893,2.1041910648345947,4.161562442779541,1.3671040534973145,-0.13949301838874817,1.2404379844665527,0.2744862735271454,-0.2578977644443512,-0.13609038293361664,-0.2977529764175415
325,17013,17014,-0.1705673336982727,-0.2503455877304077,0.9960752725601196,1.3316422700881958,1.5864213705062866,0.8930976390838623,-0.14549271762371063,1.2344383001327515,0.2954852283000946,-0.2171066701412201,-0.09973934292793274,-0.2827140688896179
326,17023,17024,-0.029061950743198395,-0.17911691963672638,0.9710692167282104,1.1066267490386963,-0.9572030901908875,0.7250294089317322,-0.14099295437335968,1.244937777519226,0.28198590874671936,-0.14328277111053467,-0.07405924052000046,-0.27870485186576843
327,17033,17034,-0.044391173869371414,-0.01591471955180168,1.0773192644119263,-1.3411535024642944,-2.506290912628174,0.7042282819747925,-0.13649317622184753,1.2254387140274048,0.2564871609210968,-0.1343957632780075,-0.06224670633673668,-0.2739405035972595
328,17043,17044,0.05989609286189079,0.06588338315486908,1.0783158540725708,-2.563372850418091,-2.327714443206787,0.987766683101654,-0.13799309730529785,1.244937777519226,0.29098543524742126,-0.10748022794723511,-0.019318746402859688,-0.26813212037086487
329,17053,17054,-0.002176382578909397,-0.058741115033626556,0.9924710988998413,-4.475436210632324,-2.817415237426758,1.4374134540557861,-0.13649317622184753,1.2224388122558594,0.2924853563308716,-0.2400619238615036,-0.006957531441003084,-0.2576708495616913
330,17063,17064,0.05400019884109497,-0.160286545753479,0.9114507436752319,-4.138452529907227,-2.556774139404297,1.7605419158935547,-0.13649317622184753,1.2224388122558594,0.2924853563308716,-0.1800830066204071,-0.0862715020775795,-0.24240577220916748
331,17073,17074,-0.09299605339765549,0.023965779691934586,1.1053494215011597,-3.7821338176727295,-1.6061742305755615,0.8286913633346558,-0.13499325513839722,1.2299385070800781,0.27898603677749634,-0.12711359560489655,-0.023264626041054726,-0.22743898630142212
332,17083,17084,0.07919982075691223,-0.012418779544532299,1.0427545309066772,-2.8326008319854736,-1.560327410697937,0.43794381618499756,-0.13949301838874817,1.2434377670288086,0.2864856719970703,-0.08591531962156296,-0.10159230977296829,-0.21804997324943542
333,17093,17094,0.022949742153286934,0.03431142121553421,0.9546476006507874,-2.0264992713928223,-1.3558322191238403,0.6821627616882324,-0.12899354100227356,1.247937560081482,0.2939853072166443,-0.05305936932563782,-0.028354082256555557,-0.20864273607730865
334,17103,17104,-0.08896429091691971,0.1572735756635666,1.1300668716430664,-0.8431772589683533,-0.34959572553634644,-0.10691569745540619,-0.1334933191537857,1.231438398361206,0.2864856719970703,-0.027662718668580055,-0.01812480390071869,-0.1997727006673813
335,17113,17114,-0.1632901430130005,0.08077648282051086,1.0117847919464111,-3.4524025917053223,1.6059985160827637,-0.15028728544712067,-0.13649317622184753,1.2344383001327515,0.2864856719970703,-0.02562858723104,-0.06300445646047592,-0.1958208978176117
336,17123,17124,-0.033943720161914825,-0.021557703614234924,0.9575360417366028,-5.5283660888671875,2.164846897125244,0.681952714920044,-0.1334933191537857,1.2434377670288086,0.27148643136024475,-0.05511249974370003,-0.13817349076271057,-0.19865304231643677
337,17133,17134,0.08109404146671295,-0.06674053519964218,0.8643434643745422,-6.046825885772705,3.084279775619507,-0.17637427151203156,-0.1514924168586731,1.2344383001327515,0.28948551416397095,-0.08423057943582535,-0.2412087619304657,-0.19503936171531677
338,17143,17144,0.030068151652812958,-0.0176449753344059,0.9534084796905518,-6.1189141273498535,3.595238208770752,0.012294682674109936,-0.13799309730529785,1.2239388227462769,0.28198590874671936,-0.13091982901096344,-0.35878363251686096,-0.1955311894416809
339,17153,17154,0.030132396146655083,-0.1734807789325714,0.9595527052879333,-3.4915192127227783,1.7515673637390137,0.05058235675096512,-0.13049347698688507,1.2254387140274048,0.277486115694046,-0.1724928319454193,-0.3998970687389374,-0.19593024253845215
340,17163,17164,-0.2429511845111847,-0.2795514464378357,1.062580943107605,-0.5029615759849548,0.9249223470687866,-0.12398535013198853,-0.14099295437335968,1.2359381914138794,0.2759861946105957,-0.16641011834144592,-0.4650301933288574,-0.1948082596063614
341,17173,17174,-0.06834089010953903,-0.44283849000930786,0.9980782866477966,2.1320462226867676,0.8022692799568176,-0.45945557951927185,-0.13499325513839722,1.2239388227462769,0.2759861946105957,-0.1496591866016388,-0.48121753334999084,-0.19897502660751343
342,17183,17184,0.038524650037288666,-0.2251003235578537,0.8408887982368469,4.267688751220703,-0.18546688556671143,-0.27354195713996887,-0.1334933191537857,1.2284384965896606,0.2864856719970703,-0.15792137384414673,-0.388987272977829,-0.20618471503257751
343,17193,17194,-0.08314551413059235,0.019480664283037186,1.0503480434417725,4.806947231292725,-0.9849757552146912,-0.2636362612247467,-0.14549271762371063,1.2434377670288086,0.28948551416397095,-0.1517179012298584,-0.33894819021224976,-0.21358942985534668
344,17203,17204,0.07091066986322403,-0.20950260758399963,0.8793408274650574,3.033292055130005,-1.0072394609451294,-1.0498849153518677,-0.13499325513839722,1.2299385070800781,0.2759861946105957,-0.12940172851085663,-0.34579432010650635,-0.21583408117294312
345,17213,17214,0.014005032368004322,-0.018578724935650826,1.0597981214523315,0.7087303996086121,-2.027620553970337,-0.8706523180007935,-0.14699265360832214,1.2389379739761353,0.28798559308052063,-0.1125582829117775,-0.30141013860702515,-0.22498804330825806
346,17223,17224,-0.10814341902732849,-0.2596605122089386,1.0411988496780396,-0.6757445335388184,-2.2974390983581543,-0.6498767733573914,-0.14549271762371063,1.2344383001327515,0.28048595786094666,-0.063771091401577,-0.29027238488197327,-0.23504363000392914
347,17233,17234,-0.10677345842123032,-0.2203454077243805,1.0356028079986572,-0.6341696977615356,-1.15316903591156,-0.4576073884963989,-0.13799309730529785,1.232938289642334,0.2639867961406708,0.009439481422305107,-0.29593053460121155,-0.24192437529563904
348,17243,17244,-0.016985934227705002,-0.007691526785492897,0.9956601858139038,-2.524435520172119,0.5772683024406433,-0.6270794868469238,-0.1334933191537857,1.2404379844665527,0.2924853563308716,0.03822220116853714,-0.3074832856655121,-0.2500094771385193
349,17253,17254,-0.03692492097616196,0.16503497958183289,1.0349962711334229,-0.6633071899414062,0.6015968918800354,-0.9656132459640503,-0.13949301838874817,1.2374380826950073,0.28048595786094666,0.006832735612988472,-0.35456395149230957,-0.2578720152378082
350,17263,17264,0.19642671942710876,-0.11845488101243973,0.9230706691741943,0.07503799349069595,2.165750741958618,-0.9281610250473022,-0.1229938492178917,1.2209389209747314,0.27898603677749634,-0.008982098661363125,-0.37559157609939575,-0.2639908492565155
351,17273,17274,-0.05343233421444893,0.002039654180407524,1.0871920585632324,1.2489467859268188,0.839497447013855,0.055549539625644684,-0.12749361991882324,1.2374380826950073,0.2744862735271454,-0.05363970622420311,-0.381797194480896,-0.26828157901763916
352,17283,17284,-0.09674684703350067,-0.07140596956014633,1.0351060628890991,1.9133917093276978,0.4918058216571808,-0.18124979734420776,-0.1334933191537857,1.2374380826950073,0.27148643136024475,-0.05973466858267784,-0.36911845207214355,-0.27034202218055725
353,17293,17294,-0.14092575013637543,-0.011626855470240116,1.056416392326355,2.276045083999634,0.6433166265487671,-0.34823837876319885,-0.14099295437335968,1.247937560081482,0.2759861946105957,-0.050880253314971924,-0.33914101123809814,-0.27098068594932556
354,17303,17304,-0.06795962899923325,0.08511867374181747,1.008105993270874,2.896970510482788,0.9936110377311707,0.7056800127029419,-0.14249287545681,1.2284384965896606,0.277486115694046,-0.049139123409986496,-0.30192282795906067,-0.2729911506175995
355,17313,17314,0.11329199373722076,0.09810562431812286,0.8688836693763733,2.250056743621826,1.6218785047531128,-0.1618920862674713,-0.13649317622184753,1.2284384965896606,0.277486115694046,-0.08706333488225937,-0.26515039801597595,-0.2698274254798889
356,17323,17324,0.1661592274904251,0.04604857787489891,0.987125813961029,3.4235901832580566,0.6291629076004028,-0.055382173508405685,-0.13949301838874817,1.2134393453598022,0.28948551416397095,-0.1494482457637787,-0.2451220601797104,-0.2669719159603119
357,17333,17334,0.05600874125957489,-0.07782880961894989,0.9287850260734558,2.194795846939087,-1.4039103984832764,-0.3984076678752899,-0.13649317622184753,1.2224388122558594,0.2864856719970703,-0.17615129053592682,-0.20644009113311768,-0.2611054480075836
358,17343,17344,-0.07462593913078308,0.003732301527634263,1.0069116353988647,2.125985622406006,-3.3254268169403076,-0.39223361015319824,-0.12599369883537292,1.2209389209747314,0.28198590874671936,-0.14530013501644135,-0.1736021786928177,-0.2596430778503418
359,17353,17354,-0.15336674451828003,0.14251473546028137,1.0283082723617554,0.1809409260749817,-3.794487476348877,-1.2180821895599365,-0.13649317622184753,1.2194390296936035,0.277486115694046,-0.10623441636562347,-0.1471043974161148,-0.2657444179058075
360,17363,17364,-0.19168534874916077,0.012478846125304699,0.9636642932891846,-3.105026960372925,-1.411298394203186,-1.0002378225326538,-0.13949301838874817,1.2254387140274048,0.26848655939102173,-0.04670453444123268,-0.0766599103808403,-0.2794639468193054
361,17373,17374,-0.03704928979277611,-0.3836480975151062,0.8868557214736938,-4.392829895019531,0.782756507396698,-0.45390862226486206,-0.14849257469177246,1.2284384965896606,0.277486115694046,-0.01915305107831955,-0.13361084461212158,-0.28994259238243103
362,17383,17384,-0.01939385011792183,-0.19770990312099457,0.9684959650039673,-4.6255879402160645,1.1772491931915283,-0.06597509980201721,-0.13049347698688507,1.2254387140274048,0.2744862735271454,-0.015336781740188599,-0.20538219809532166,-0.2933914065361023
363,17393,17394,-0.05206425487995148,0.0157026220113039,0.9372618794441223,-3.151589870452881,0.34923720359802246,0.5906223654747009,-0.1334933191537857,1.231438398361206,0.2864856719970703,-0.029460132122039795,-0.2142409384250641,-0.2938217222690582
364,17403,17404,0.023752383887767792,-0.06331591308116913,0.8664150834083557,-0.3662993013858795,-0.6113882064819336,0.08487024158239365,-0.14249287545681,1.2374380826950073,0.2654867172241211,0.015490594319999218,-0.2118622213602066,-0.2915639877319336
365,17413,17414,-0.16284331679344177,0.08633919805288315,1.0395302772521973,1.1409193277359009,-0.8673191666603088,-1.4235862493515015,-0.14699265360832214,1.2269386053085327,0.27298635244369507,0.06830823421478271,-0.23735831677913666,-0.29202333092689514
366,17423,17424,-0.16394685208797455,-0.024572385475039482,0.8221333026885986,0.828971266746521,1.0751209259033203,-1.221056580543518,-0.14399279654026031,1.2419378757476807,0.26998651027679443,0.06513269245624542,-0.23325692117214203,-0.3012297749519348
367,17433,17434,-0.07237149029970169,-0.06874075531959534,0.9938948154449463,0.5974144339561462,1.9329382181167603,-0.30520573258399963,-0.14699265360832214,1.2389379739761353,0.28198590874671936,0.041804276406764984,-0.22774527966976166,-0.31207898259162903
368,17443,17444,0.014968378469347954,-0.08757141977548599,1.0400896072387695,-0.6567833423614502,2.567509889602661,-0.33042100071907043,-0.13799309730529785,1.232938289642334,0.2759861946105957,0.006726257037371397,-0.22684268653392792,-0.3162534534931183
369,17453,17454,0.16030076146125793,-0.3635973036289215,1.0676112174987793,-0.7835597395896912,4.017461776733398,0.21247391402721405,-0.13649317622184753,1.2374380826950073,0.2744862735271454,-0.11557657271623611,-0.2458660900592804,-0.31592199206352234
370,17463,17464,0.043494462966918945,-0.45828261971473694,0.9791472554206848,-1.6747071743011475,-0.6307253837585449,0.319060742855072,-0.15449227392673492,1.2374380826950073,0.2834858298301697,-0.18729494512081146,-0.26979973912239075,-0.31381088495254517
371,17473,17474,0.031163597479462624,-0.13149051368236542,0.9451260566711426,-1.5232576131820679,0.6815466284751892,-0.32031556963920593,-0.1514924168586731,1.2434377670288086,0.27148643136024475,-0.11781913042068481,-0.3047107756137848,-0.31314870715141296
372,17483,17484,-0.028674382716417313,0.005071438383311033,0.9927046298980713,0.5463052988052368,-0.6162712574005127,-0.6674319505691528,-0.15449227392673492,1.2524373531341553,0.2744862735271454,-0.1357743740081787,-0.2741411030292511,-0.31636348366737366
373,17493,17494,-0.089785635471344,0.0574931837618351,1.0974926948547363,2.018282175064087,-1.6982903480529785,-0.5532634854316711,-0.15749211609363556,1.2434377670288086,0.28048595786094666,-0.13158905506134033,-0.27428945899009705,-0.3207899332046509
374,17503,17504,0.017364447936415672,-0.01941775344312191,0.9807292819023132,1.3411462306976318,-0.10235805064439774,0.004561599809676409,-0.13949301838874817,1.2434377670288086,0.2834858298301697,-0.09908518195152283,-0.25108805298805237,-0.32573267817497253
375,17513,17514,-0.19676263630390167,0.046911247074604034,0.9233242869377136,2.378178834915161,-6.5439133644104,-0.8208505511283875,-0.13799309730529785,1.2419378757476807,0.2639867961406708,-0.44383537769317627,-0.3062020242214203,-0.3149452805519104
376,17523,17524,0.03408469632267952,-0.18253956735134125,0.9952279329299927,1.2597275972366333,-4.409612655639648,-0.30374330282211304,-0.14849257469177246,1.2344383001327515,0.28048595786094666,-0.18847137689590454,-0.27483323216438293,-0.331703245639801
377,17533,17534,-0.09451442211866379,-0.14364959299564362,1.1135494709014893,0.6107769012451172,-6.1741943359375,0.8213587403297424,-0.14549271762371063,1.246437668800354,0.277486115694046,0.02247646450996399,-0.25607654452323914,-0.34279748797416687
378,17543,17544,0.044257551431655884,-0.0942494347691536,0.951848566532135,-0.21643158793449402,-2.9075417518615723,0.057680148631334305,-0.14399279654026031,1.2419378757476807,0.28498575091362,0.11109845340251923,-0.17612572014331818,-0.337276816368103
379,17553,17554,-0.1317453384399414,0.15239426493644714,1.0635018348693848,-1.3286948204040527,-0.5202017426490784,0.5319494009017944,-0.14699265360832214,1.2389379739761353,0.28198590874671936,0.15218104422092438,-0.1866871863603592,-0.33578988909721375
380,17563,17564,-0.02964232675731182,-0.03826286271214485,0.96366286277771,-1.5533422231674194,3.575890064239502,-0.23217308521270752,-0.14399279654026031,1.232938289642334,0.27898603677749634,0.23976369202136993,-0.20995497703552246,-0.3323836922645569
381,17573,17574,-0.015260779298841953,-0.024807127192616463,1.0351545810699463,-1.2724171876907349,6.3464179039001465,-0.2632546126842499,-0.14249287545681,1.2344383001327515,0.26848655939102173,0.1881742924451828,-0.3041725754737854,-0.329691082239151
382,17583,17584,-0.04788849875330925,-0.15586815774440765,0.9217628836631775,0.6573909521102905,6.298709869384766,-0.5811207890510559,-0.14399279654026031,1.247937560081482,0.28198590874671936,0.08750912547111511,-0.32002004981040955,-0.3321327567100525
383,17593,17594,0.04935856908559799,-0.06337030977010727,1.018955945968628,1.3669006824493408,6.618518829345703,0.5527967214584351,-0.14849257469177246,1.2494374513626099,0.277486115694046,-0.09758777171373367,-0.3089992105960846,-0.3353411853313446
384,17603,17604,0.01562819443643093,-0.04041076824069023,1.1370965242385864,1.4646114110946655,3.350076198577881,0.7156931757926941,-0.14249287545681,1.2374380826950073,0.2864856719970703,-0.07318118214607239,-0.14551253616809845,-0.33512625098228455
385,17613,17614,-0.043149013072252274,-0.11782190203666687,1.0357743501663208,2.716353416442871,-0.42806732654571533,0.4600801467895508,-0.1334933191537857,1.2494374513626099,0.277486115694046,-0.14580625295639038,-0.1311841905117035,-0.324504017829895
386,17623,17624,-0.08420301973819733,-0.16261345148086548,0.9652009010314941,1.5489729642868042,-2.0792810916900635,0.7561267614364624,-0.14249287545681,1.246437668800354,0.2744862735271454,-0.016362955793738365,-0.09807043522596359,-0.3229968249797821
387,17633,17634,-0.050130609422922134,-0.040229253470897675,1.1277285814285278,0.07048173993825912,-2.1515920162200928,0.8339377045631409,-0.14699265360832214,1.244937777519226,0.28498575091362,-0.07233705371618271,-0.08374327421188354,-0.3145804703235626
388,17643,17644,-0.05475857853889465,-0.06083732843399048,1.006376028060913,-2.4501137733459473,-0.29178160429000854,1.0618213415145874,-0.14699265360832214,1.2509374618530273,0.27298635244369507,-0.11765947192907333,-0.09380601346492767,-0.3060871660709381
389,17653,17654,-0.05986199900507927,0.011544865556061268,1.077032208442688,-3.4876348972320557,-0.29072698950767517,0.6487678289413452,-0.14699265360832214,1.2599369287490845,0.28198590874671936,-0.10301666706800461,-0.20695272088050842,-0.2931911051273346
390,17663,17664,0.06476947665214539,-0.2964327037334442,0.9164218902587891,-3.226775646209717,0.006041029002517462,0.6543606519699097,-0.14999249577522278,1.2509374618530273,0.2759861946105957,-0.08538467437028885,-0.2572365701198578,-0.28599637746810913
391,17673,17674,-0.007952057756483555,-0.03837651386857033,1.0409423112869263,-2.6228654384613037,-1.4463436603546143,0.5902618765830994,-0.15449227392673492,1.2674366235733032,0.277486115694046,-0.07166261225938797,-0.30581438541412354,-0.2835685610771179
392,17683,17684,-0.025612173601984978,-0.008358458057045937,1.0115551948547363,-0.6515407562255859,-1.003890037536621,0.33605045080184937,-0.1514924168586731,1.2584370374679565,0.28948551416397095,-0.05482620373368263,-0.27155381441116333,-0.2818926274776459
393,17693,17694,-0.061665963381528854,0.038466017693281174,1.0689305067062378,2.4901645183563232,-2.0441904067993164,0.49798449873924255,-0.14849257469177246,1.2494374513626099,0.28948551416397095,-0.044777873903512955,-0.281181663274765,-0.2794056534767151
394,17703,17704,0.0016466660890728235,0.0008638603612780571,1.0757311582565308,2.4728596210479736,0.379315584897995,-0.1776839643716812,-0.14549271762371063,1.2524373531341553,0.2954852283000946,-0.014736696146428585,-0.3170851767063141,-0.2728444039821625
395,17713,17714,-0.1425471156835556,-0.01394566334784031,1.0620514154434204,2.5435822010040283,0.3486767113208771,0.9918919205665588,-0.1514924168586731,1.2524373531341553,0.28048595786094666,0.10701070725917816,-0.27504223585128784,-0.27539268136024475
396,17723,17724,-0.035938601940870285,-0.045726578682661057,1.0529769659042358,2.3522398471832275,3.312072992324829,1.0214629173278809,-0.14849257469177246,1.246437668800354,0.28948551416397095,0.01811305433511734,-0.23124279081821442,-0.2653534710407257
397,17733,17734,-0.06420280039310455,-0.07187024503946304,1.1012884378433228,2.735196590423584,4.722818851470947,1.1397905349731445,-0.14999249577522278,1.2509374618530273,0.28798559308052063,-0.11862331628799438,-0.19260051846504211,-0.2532818615436554
398,17743,17744,-0.052999097853899,0.05938873812556267,1.0734585523605347,2.1901755332946777,4.938780784606934,0.8668301701545715,-0.14699265360832214,1.2509374618530273,0.28498575091362,-0.055361442267894745,-0.22109252214431763,-0.24440355598926544
399,17753,17754,0.06137872114777565,-0.07131379097700119,0.9188187122344971,1.4348424673080444,3.4299020767211914,1.838180661201477,-0.14849257469177246,1.2404379844665527,0.27148643136024475,-0.1366722583770752,-0.17583127319812775,-0.23503661155700684
400,17763,17764,0.009013209491968155,0.033112749457359314,1.001062273979187,1.16806960105896,0.060794319957494736,1.3628867864608765,-0.1514924168586731,1.2524373531341553,0.2834858298301697,-0.1379348486661911,-0.1506786197423935,-0.22186443209648132
401,17773,17774,0.022239644080400467,-0.018762512132525444,1.0047968626022339,1.176743507385254,-2.6002261638641357,0.1325722634792328,-0.14099295437335968,1.2419378757476807,0.28798559308052063,-0.1577954888343811,-0.19801582396030426,-0.2015831172466278
402,17783,17784,-0.06266285479068756,0.04744669795036316,1.1021645069122314,0.6372658014297485,-2.8821051120758057,1.2865387201309204,-0.14999249577522278,1.244937777519226,0.28198590874671936,-0.12372613698244095,-0.16896945238113403,-0.1979217827320099
403,17793,17794,-0.09328670054674149,-0.17911238968372345,1.009495735168457,1.128374695777893,-2.0145018100738525,0.77557373046875,-0.14099295437335968,1.2509374618530273,0.29098543524742126,-0.08186980336904526,-0.07764952629804611,-0.18838715553283691
404,17803,17804,0.05290127918124199,-0.16957220435142517,0.9687681794166565,1.6316553354263306,-0.19463016092777252,0.3642132580280304,-0.13949301838874817,1.261436939239502,0.2954852283000946,-0.05368446186184883,-0.12732510268688202,-0.1793496310710907
405,17813,17814,-0.02500743605196476,-0.21887721121311188,1.1104332208633423,1.084396243095398,0.937088131904602,0.6886672377586365,-0.1529923528432846,1.2539372444152832,0.28498575091362,-0.062095966190099716,-0.02535819821059704,-0.1751372069120407
406,17823,17824,-0.0973149985074997,-0.17715218663215637,1.0045877695083618,0.8876634240150452,3.417771816253662,0.7691985368728638,-0.14999249577522278,1.247937560081482,0.28198590874671936,-0.0905587449669838,-0.008563217706978321,-0.16692416369915009
407,17833,17834,-0.09506765007972717,0.11462296545505524,0.9892957210540771,-1.281205415725708,6.6292724609375,1.0091098546981812,-0.15899205207824707,1.2299385070800781,0.28498575091362,-0.14757490158081055,-0.0654243528842926,-0.1560492366552353
408,17843,17844,-0.06306763738393784,0.24163112044334412,1.0804282426834106,-1.2918951511383057,6.507363319396973,1.4699255228042603,-0.15599219501018524,1.244937777519226,0.27898603677749634,-0.258755624294281,-0.14662520587444305,-0.14675180613994598
409,17853,17854,-0.06012614443898201,0.09417002648115158,1.079958438873291,0.6324571967124939,4.147758960723877,1.0125658512115479,-0.15899205207824707,1.2569371461868286,0.28198590874671936,-0.37036630511283875,-0.08875659108161926,-0.1325194239616394
410,17863,17864,-0.03381123021245003,-0.06562802195549011,0.9548667669296265,3.080463171005249,-0.7798441052436829,1.1063311100006104,-0.14399279654026031,1.247937560081482,0.27898603677749634,-0.4479326903820038,-0.15234576165676117,-0.11873359978199005
411,17873,17874,-0.01844102330505848,0.01994965970516205,1.0177167654037476,4.457414627075195,-5.206231117248535,1.4510555267333984,-0.14549271762371063,1.2374380826950073,0.28048595786094666,-0.4445125460624695,-0.02869340591132641,-0.10830739885568619
412,17883,17884,0.0587889738380909,-0.0455770380795002,0.9053440690040588,4.305875301361084,-6.500527381896973,1.2523038387298584,-0.13649317622184753,1.2434377670288086,0.28948551416397095,-0.3491961359977722,-0.0964195653796196,-0.09597987681627274
413,17893,17894,0.070929154753685,-0.2313077747821808,0.9089707732200623,3.184765577316284,-7.895230293273926,0.9501742720603943,-0.15449227392673492,1.2494374513626099,0.2834858298301697,-0.38857999444007874,0.1219734475016594,-0.08097923547029495
414,17903,17904,-0.04677310958504677,-0.27635952830314636,1.149980902671814,3.671166181564331,-8.804407119750977,0.901123583316803,-0.13949301838874817,1.2524373531341553,0.28948551416397095,-0.18834742903709412,0.10127923637628555,-0.0718415156006813
415,17913,17914,-0.05882636085152626,-0.21715417504310608,1.0790488719940186,0.6594582200050354,-4.656153678894043,1.0126707553863525,-0.14099295437335968,1.244937777519226,0.28498575091362,-0.053837891668081284,0.15751492977142334,-0.06214935705065727
416,17923,17924,-0.017747869715094566,0.020919043570756912,1.0702239274978638,-2.288583993911743,0.7711677551269531,1.3032116889953613,-0.15899205207824707,1.2539372444152832,0.28798559308052063,-0.12094331532716751,0.02689138799905777,-0.056308310478925705
417,17933,17934,-0.036661092191934586,0.04156943038105965,1.0782792568206787,-3.4670913219451904,3.581684112548828,1.5419280529022217,-0.14549271762371063,1.246437668800354,0.277486115694046,-0.2555021643638611,0.0010783167090266943,-0.04378113895654678
418,17943,17944,0.00574962142854929,0.03243574500083923,0.9757074117660522,-2.043757200241089,3.6516194343566895,1.8148589134216309,-0.13799309730529785,1.2509374618530273,0.28498575091362,-0.2753691077232361,-0.03790232911705971,-0.030021118000149727
419,17953,17954,-0.10860608518123627,0.022665074095129967,0.971268892288208,0.7643427848815918,-2.5907928943634033,1.6628845930099487,-0.14849257469177246,1.2494374513626099,0.2834858298301697,-0.3811686038970947,0.01116269826889038,-0.012497915886342525
420,17963,17964,0.03443702310323715,-0.06156975403428078,0.9298440217971802,3.3699638843536377,-6.48319673538208,1.998355746269226,-0.13649317622184753,1.2434377670288086,0.277486115694046,-0.32282528281211853,-0.041442833840847015,0.002690796507522464
421,17973,17974,-0.04522236809134483,0.011025744490325451,1.082301378250122,3.9221529960632324,-9.500295639038086,1.7519142627716064,-0.14999249577522278,1.2569371461868286,0.28498575091362,-0.20644722878932953,0.018480928614735603,0.02410520613193512
422,17983,17984,-0.10384994000196457,-0.0063497223891317844,1.0974607467651367,5.370628356933594,-10.590679168701172,1.57505464553833,-0.1529923528432846,1.2419378757476807,0.29098543524742126,-0.04781394451856613,0.09051114320755005,0.0431460440158844
423,17993,17994,0.033168744295835495,-0.08949950337409973,0.9867734909057617,4.954638481140137,-9.817766189575195,1.3855754137039185,-0.15599219501018524,1.232938289642334,0.27298635244369507,0.11806060373783112,0.1768033802509308,0.06335295736789703
424,18003,18004,-0.025468969717621803,-0.23665466904640198,1.0648921728134155,3.746671199798584,-5.7658257484436035,0.8245792984962463,-0.1529923528432846,1.244937777519226,0.28498575091362,0.2687464654445648,0.256584107875824,0.08089876174926758
425,18013,18014,-0.03924886882305145,-0.15354657173156738,0.987881600856781,-0.5098990797996521,-1.3395055532455444,0.8595457673072815,-0.13499325513839722,1.2299385070800781,0.27898603677749634,0.29648706316947937,0.31351909041404724,0.08838778734207153
426,18023,18024,0.03207990527153015,-0.009344694204628468,1.017068862915039,-3.856985569000244,3.0649681091308594,1.4589684009552002,-0.14699265360832214,1.2389379739761353,0.2759861946105957,0.19784875214099884,0.30727478861808777,0.09252579510211945
427,18033,18034,-0.02835756726562977,-0.10113438963890076,0.8962472677230835,-6.1777825355529785,5.183371543884277,1.9251285791397095,-0.13799309730529785,1.2419378757476807,0.27298635244369507,0.17934384942054749,0.25149086117744446,0.10397680103778839
428,18043,18044,-0.01681993342936039,-0.17681676149368286,0.9699596166610718,-8.541919708251953,5.536922454833984,1.2833901643753052,-0.15449227392673492,1.2434377670288086,0.28948551416397095,0.10619683563709259,0.21601107716560364,0.12156149744987488
429,18053,18054,0.0019062991486862302,-0.2292107343673706,0.9900704622268677,-7.719881057739258,2.5930399894714355,1.6083579063415527,-0.14249287545681,1.2434377670288086,0.2834858298301697,0.026861488819122314,0.07479212433099747,0.13346192240715027
430,18063,18064,-0.0004040190833620727,-0.0849234089255333,1.022915005683899,-4.021117210388184,-1.625057339668274,2.413484573364258,-0.14999249577522278,1.247937560081482,0.29098543524742126,-0.003867585211992264,-0.049154628068208694,0.14958259463310242
431,18073,18074,-0.054898038506507874,0.03622649237513542,1.1182078123092651,-0.37552782893180847,-3.892120361328125,1.5699671506881714,-0.14399279654026031,1.2269386053085327,0.2939853072166443,0.033177606761455536,-0.0429677814245224,0.17451848089694977
432,18083,18084,-0.1498740315437317,-0.12661132216453552,0.939240574836731,5.007514476776123,-11.66093635559082,1.1406688690185547,-0.14399279654026031,1.2299385070800781,0.28798559308052063,0.10728361457586288,-0.048897989094257355,0.1939973384141922
433,18093,18094,-0.09242281317710876,-0.19962535798549652,0.994849443435669,3.513766050338745,-7.21522331237793,1.6739952564239502,-0.14999249577522278,1.232938289642334,0.27898603677749634,0.2967468500137329,0.02818116545677185,0.20844274759292603
434,18103,18104,-0.028663383796811104,-0.12394289672374725,0.978399932384491,2.844478130340576,-3.915006399154663,1.8249562978744507,-0.14099295437335968,1.2209389209747314,0.28498575091362,0.4277704358100891,0.08750740438699722,0.22693756222724915
435,18113,18114,0.03638257086277008,-0.17091576755046844,1.0498201847076416,1.535273551940918,-0.25371265411376953,1.6743972301483154,-0.13499325513839722,1.2359381914138794,0.28498575091362,0.49596840143203735,0.13007274270057678,0.24381335079669952
436,18123,18124,0.16356247663497925,-0.30654922127723694,0.9588684439659119,-0.040406376123428345,3.126311779022217,0.6759989261627197,-0.14399279654026031,1.2269386053085327,0.29098543524742126,0.49241381883621216,0.14961035549640656,0.2618163824081421
437,18133,18134,0.08006911724805832,-0.3041539490222931,1.0169306993484497,-2.1961405277252197,4.940544605255127,0.3108536899089813,-0.14699265360832214,1.2209389209747314,0.2759861946105957,0.42791450023651123,0.06938748061656952,0.27119180560112
438,18143,18144,0.00523723941296339,-0.23071229457855225,0.9549760818481445,-4.964513301849365,9.727089881896973,0.8164510726928711,-0.13949301838874817,1.2374380826950073,0.2864856719970703,0.34412407875061035,0.03581133484840393,0.2767605781555176
439,18153,18154,-0.005795675329864025,0.004767108708620071,1.027502179145813,-6.233281135559082,11.859380722045898,1.0792722702026367,-0.13649317622184753,1.2284384965896606,0.277486115694046,0.19461357593536377,0.09472347795963287,0.27690595388412476
440,18163,18164,-0.06917615234851837,0.03356700390577316,1.045083999633789,-4.503067493438721,6.188979625701904,1.2425620555877686,-0.12599369883537292,1.232938289642334,0.29098543524742126,0.022960728034377098,-0.010092499665915966,0.2856767773628235
441,18173,18174,0.10213468968868256,-0.14857541024684906,1.0141901969909668,-2.819213390350342,2.2999541759490967,1.1067718267440796,-0.13949301838874817,1.2344383001327515,0.277486115694046,-0.06776507943868637,-0.08610770851373672,0.29529646039009094
442,18183,18184,0.07131752371788025,-0.4027150571346283,0.9830418825149536,-1.1779026985168457,-2.790390729904175,2.392727851867676,-0.13649317622184753,1.2224388122558594,0.2834858298301697,-0.10811416804790497,-0.13906535506248474,0.3081502616405487
443,18193,18194,0.0702812448143959,-0.25600528717041016,0.9397220611572266,1.3150386810302734,-5.587865829467773,1.0065736770629883,-0.14699265360832214,1.2269386053085327,0.28498575091362,-0.06880099326372147,-0.163537859916687,0.3289649784564972
444,18203,18204,0.0034300945699214935,0.07609041780233383,1.1587824821472168,3.863614797592163,-7.4676666259765625,-0.016805263236165047,-0.1334933191537857,1.2284384965896606,0.277486115694046,0.027757395058870316,-0.14432162046432495,0.3446461260318756
445,18213,18214,-0.015555168502032757,0.10037525743246078,1.1247663497924805,5.407148361206055,-7.395758152008057,0.8810359835624695,-0.1334933191537857,1.2224388122558594,0.28948551416397095,0.16450084745883942,-0.08347025513648987,0.3478751480579376
446,18223,18224,0.02014045976102352,-0.036851830780506134,0.9169448018074036,4.146700859069824,-5.70204496383667,0.15087005496025085,-0.12899354100227356,1.2179391384124756,0.27898603677749634,0.2323039025068283,-0.06549255549907684,0.35495638847351074
447,18233,18234,0.054527997970581055,-0.11487690359354019,0.9914228320121765,1.7908207178115845,-0.43083974719047546,0.21451109647750854,-0.14249287545681,1.2194390296936035,0.2744862735271454,0.3298461139202118,-0.003095650812610984,0.35618677735328674
448,18243,18244,-0.01622079871594906,-0.5522416830062866,0.958945631980896,-1.6071687936782837,3.65537166595459,-0.49040699005126953,-0.12599369883537292,1.2119393348693848,0.29098543524742126,0.33556875586509705,0.02861904166638851,0.3580189645290375
449,18253,18254,-0.11164373904466629,-0.20676857233047485,0.9593067765235901,-3.5922842025756836,8.973605155944824,-0.04235897213220596,-0.13499325513839722,1.2059396505355835,0.28798559308052063,0.2834131121635437,0.011581684462726116,0.3554731607437134
450,18263,18264,-0.14530478417873383,-0.11189620941877365,1.1348621845245361,-2.9585866928100586,11.03034782409668,-0.18645615875720978,-0.1319933980703354,1.2239388227462769,0.27898603677749634,0.16532160341739655,-0.03784242644906044,0.3538624048233032
451,18273,18274,0.0310042891651392,-0.08309229463338852,0.9646696448326111,-2.5585386753082275,9.516242027282715,-0.6345102190971375,-0.12899354100227356,1.2209389209747314,0.26998651027679443,0.006500272545963526,-0.08246921002864838,0.346924364566803
452,18283,18284,-0.005663034040480852,-0.03738952428102493,0.9150862097740173,-2.066236734390259,6.96676778793335,-0.7736674547195435,-0.14999249577522278,1.2179391384124756,0.2759861946105957,-0.13945645093917847,-0.11826270818710327,0.3393286168575287
453,18293,18294,-0.14833875000476837,0.08495640754699707,1.0849779844284058,0.09757350385189056,2.6189656257629395,-0.46245720982551575,-0.14999249577522278,1.2269386053085327,0.27898603677749634,-0.24368558824062347,-0.07709933817386627,0.3261794149875641
454,18303,18304,-0.204206645488739,-0.2925336956977844,1.1071902513504028,2.053516149520874,0.7784799337387085,-1.15534508228302,-0.14099295437335968,1.2209389209747314,0.27298635244369507,-0.2743031978607178,-0.08084788173437119,0.32261425256729126
455,18313,18314,-0.02984943613409996,-0.46967801451683044,0.9351511597633362,3.0180275440216064,-3.717939853668213,-0.8694528937339783,-0.13499325513839722,1.2239388227462769,0.28198590874671936,-0.20190097391605377,-0.05316082015633583,0.3123312294483185
456,18323,18324,0.21994851529598236,-0.1945117861032486,0.8650146126747131,4.504482746124268,-8.659211158752441,-0.40511950850486755,-0.12749361991882324,1.2224388122558594,0.2744862735271454,-0.158773735165596,-0.015976732596755028,0.30432936549186707
457,18333,18334,0.03244016319513321,0.02273530699312687,0.9917511940002441,4.3603057861328125,-10.531071662902832,-0.9522938132286072,-0.11999399960041046,1.2149392366409302,0.27898603677749634,-0.03198523074388504,0.05480211228132248,0.3018857538700104
458,18343,18344,0.07086849212646484,-0.07499932497739792,0.9289642572402954,1.3648537397384644,-6.418509483337402,-1.1555522680282593,-0.12449377030134201,1.2134393453598022,0.2744862735271454,0.1466008424758911,0.1251785010099411,0.2941543757915497
459,18353,18354,-0.018741225823760033,-0.31944209337234497,1.050204873085022,-0.38743147253990173,-4.044119834899902,-1.3967658281326294,-0.13499325513839722,1.2149392366409302,0.27298635244369507,0.1916809231042862,0.07675464451313019,0.2843759059906006
460,18363,18364,-0.04852408170700073,-0.30624330043792725,1.0052878856658936,-2.9590487480163574,0.6854159832000732,-1.2337170839309692,-0.13649317622184753,1.216439127922058,0.26248687505722046,0.24737156927585602,0.06735710799694061,0.2701588571071625
461,18373,18374,-0.1223900318145752,-0.2202286422252655,1.1091805696487427,-3.836660861968994,5.988576889038086,-2.0499746799468994,-0.14849257469177246,1.231438398361206,0.2744862735271454,0.22667190432548523,0.023171233013272285,0.25693273544311523
462,18383,18384,-0.02815578691661358,-0.15218479931354523,0.9848726391792297,-3.0612716674804688,10.603635787963867,-1.8718786239624023,-0.13499325513839722,1.2239388227462769,0.2759861946105957,0.13825073838233948,-0.034743890166282654,0.23836107552051544
463,18393,18394,0.061588793992996216,-0.27862533926963806,0.9078442454338074,-0.9396842122077942,9.0003080368042,-0.9200314879417419,-0.14249287545681,1.2254387140274048,0.28948551416397095,-0.0385429672896862,0.04777500033378601,0.2128170281648636
464,18403,18404,0.09905600547790527,-0.10541868954896927,0.9366160035133362,1.692278504371643,4.990664005279541,-1.7864229679107666,-0.14249287545681,1.2284384965896606,0.277486115694046,0.07152990251779556,0.0177612341940403,0.20735277235507965
465,18413,18414,-0.09302448481321335,-0.12552092969417572,1.0263493061065674,1.1720757484436035,5.7807297706604,-1.798620343208313,-0.1334933191537857,1.2344383001327515,0.28048595786094666,-0.02940465323626995,0.032635148614645004,0.19286087155342102
466,18423,18424,-0.047249700874090195,-0.3340487480163574,0.8389564156532288,-0.4592345654964447,4.222212791442871,-2.28155779838562,-0.13949301838874817,1.231438398361206,0.28048595786094666,-0.12952277064323425,-0.09256594628095627,0.1750260889530182
467,18433,18434,0.03133755922317505,-0.3617056906223297,0.8634556531906128,1.2786974906921387,1.2744778394699097,-1.9195398092269897,-0.14549271762371063,1.2434377670288086,0.2744862735271454,-0.20848451554775238,-0.09150243550539017,0.15373562276363373
468,18443,18444,-0.0939750149846077,-0.21201571822166443,1.076856017112732,2.4183456897735596,0.6174222826957703,-2.203493356704712,-0.13649317622184753,1.2494374513626099,0.2834858298301697,-0.15150302648544312,-0.0641208365559578,0.13749288022518158
469,18453,18454,-0.21457235515117645,-0.1434059888124466,0.9358776807785034,6.124811172485352,-6.878338813781738,-2.4221136569976807,-0.13649317622184753,1.2374380826950073,0.2864856719970703,-0.14254838228225708,-0.015371821820735931,0.11654365807771683
470,18463,18464,-0.09764299541711807,-0.005740813910961151,1.04612398147583,4.737806797027588,-2.455028772354126,-3.019916296005249,-0.1334933191537857,1.2404379844665527,0.28048595786094666,-0.048094842582941055,-0.05973488464951515,0.09355705976486206
471,18473,18474,-0.07886014878749847,-0.30801069736480713,0.9215481877326965,3.617689609527588,-1.8504199981689453,-2.174520254135132,-0.1529923528432846,1.2389379739761353,0.28798559308052063,-0.015961676836013794,0.02844345010817051,0.06376321613788605
472,18483,18484,0.0008331396384164691,-0.3100301921367645,0.8497260212898254,2.9601197242736816,0.38583025336265564,-1.755260944366455,-0.14999249577522278,1.232938289642334,0.27898603677749634,0.006346848327666521,0.2342580258846283,0.04162559285759926
473,18493,18494,-0.0393361821770668,-0.33114999532699585,1.0732015371322632,0.8813374042510986,2.480825662612915,-2.0308468341827393,-0.14249287545681,1.2524373531341553,0.2864856719970703,-0.0016615251079201698,0.27429768443107605,0.024389974772930145
474,18503,18504,0.05129173770546913,-0.24879710376262665,0.9476215839385986,-3.2015066146850586,4.895272254943848,-1.5269616842269897,-0.14999249577522278,1.2299385070800781,0.29098543524742126,-0.041674721986055374,0.14197923243045807,0.004402173217386007
