,timestamp_start,timestamp_end,acc.x,acc.y,acc.z,gyro.x,gyro.y,gyro.z,mag.x,mag.y,mag.z,stabilizer.pitch,stabilizer.roll,stabilizer.yaw
0,79110,79112,-0.029291467741131783,0.04530762881040573,1.1217375993728638,88.15597534179688,18.462215423583984,-13.84415340423584,1.0514473915100098,1.0244487524032593,0.12749361991882324,-1.9605070352554321,1.4644527435302734,2.9797980785369873
1,79120,79122,0.056763529777526855,-0.02731633372604847,0.917539656162262,78.36768341064453,5.085405349731445,-21.364795684814453,1.0499475002288818,1.0109494924545288,0.11999399960041046,-2.271745443344116,2.5900719165802,2.839416742324829
2,79130,79132,-0.04289700463414192,0.21663790941238403,1.0266693830490112,64.98542022705078,-7.631569862365723,-28.922666549682617,1.033448338508606,1.0154491662979126,0.12749361991882324,-2.2203598022460938,3.3928098678588867,2.6438310146331787
3,79140,79142,-0.1501278281211853,0.13374289870262146,1.0635533332824707,52.774757385253906,-15.154899597167969,-38.836002349853516,1.0544472932815552,1.0064496994018555,0.11249437183141708,-2.124638319015503,3.8290610313415527,2.347090244293213
4,79150,79152,-0.06555143743753433,-0.05132739618420601,0.9311638474464417,43.47540283203125,-11.92392635345459,-43.70512008666992,1.0514473915100098,1.00344979763031,0.10649467259645462,-1.8091884851455688,4.509884357452393,2.000093460083008
5,79160,79162,-0.1407063603401184,-0.0684918537735939,1.0319522619247437,22.04706573486328,-6.376628398895264,-46.100887298583984,1.042447805404663,1.0094494819641113,0.11549422144889832,-1.7154953479766846,4.779712677001953,1.5607352256774902
6,79170,79172,-0.1435844898223877,-0.16127176582813263,0.9112608432769775,-6.823502063751221,11.023933410644531,-42.93498229980469,1.042447805404663,1.0064496994018555,0.11549422144889832,-1.7549529075622559,5.0129194259643555,1.085558295249939
7,79180,79182,-0.13331176340579987,-0.3036286234855652,0.7829486727714539,-25.543649673461914,15.707901000976562,-39.464393615722656,1.033448338508606,1.0304484367370605,0.11549422144889832,-1.8857775926589966,4.8736677169799805,0.6711578369140625
8,79190,79192,-0.16603362560272217,-0.22038067877292633,0.9212354421615601,-34.612030029296875,15.746217727661133,-32.75188446044922,1.019948959350586,1.0289485454559326,0.11999399960041046,-2.206083297729492,4.46321439743042,0.24402442574501038
9,79200,79202,-0.08742190152406693,-0.08725832402706146,0.9881625771522522,-26.167449951171875,11.72561264038086,-28.10253143310547,1.0349482297897339,1.0349482297897339,0.11999399960041046,-2.274153709411621,4.319235801696777,-0.02468840405344963
10,79210,79212,-0.11668842285871506,-0.026701223105192184,0.9676485657691956,-17.25027847290039,14.838947296142578,-24.09214210510254,1.033448338508606,1.0364481210708618,0.12749361991882324,-2.5228118896484375,3.933948040008545,-0.34235361218452454
11,79220,79222,-0.13385920226573944,-0.040550220757722855,0.8582586646080017,-11.563985824584961,20.285123825073242,-22.436687469482422,1.0379481315612793,1.0289485454559326,0.11699414998292923,-2.3837523460388184,4.02937126159668,-0.4198412001132965
12,79230,79232,0.02136530913412571,-0.05154918134212494,0.8547331690788269,-9.350262641906738,30.837589263916016,-19.533830642700195,1.0349482297897339,1.0439478158950806,0.11699414998292923,-2.7955212593078613,3.966473340988159,-0.7250964641571045
13,79240,79242,0.05386212468147278,0.08020433038473129,0.9584034085273743,-9.207472801208496,30.820199966430664,-14.53496265411377,1.019948959350586,1.0499475002288818,0.11699414998292923,-3.006632089614868,3.930727005004883,-0.8317879438400269
14,79250,79252,0.002455748151987791,-0.016664760187268257,0.9081491231918335,-20.165328979492188,8.308167457580566,-7.390777111053467,1.0274486541748047,1.048447608947754,0.10949452221393585,-3.3324544429779053,3.923884630203247,-0.9602723717689514
15,79260,79262,-0.015389537438750267,0.21089541912078857,1.1627469062805176,-39.38032913208008,-14.415846824645996,-5.907752513885498,1.0019499063491821,1.0499475002288818,0.11699414998292923,-2.924372673034668,3.6946473121643066,-0.7642155885696411
16,79270,79272,0.014580958522856236,0.12175396084785461,1.0806787014007568,-50.6585807800293,-32.98881912231445,-10.46873950958252,1.018449068069458,1.0514473915100098,0.11549422144889832,-2.818197250366211,3.2964866161346436,-0.8617745041847229
17,79280,79282,0.0735049620270729,-0.01683187112212181,1.0531103610992432,-57.52109146118164,-38.056365966796875,-10.754630088806152,1.018449068069458,1.0604469776153564,0.11249437183141708,-2.8080310821533203,2.8117544651031494,-1.1556766033172607
18,79290,79292,-0.028336966410279274,-0.08199888467788696,1.1107432842254639,-66.66899871826172,-40.662315368652344,-6.810572147369385,1.0094494819641113,1.057447075843811,0.12149392068386078,-2.2175142765045166,2.1824522018432617,-1.1585540771484375
19,79300,79302,-0.03473924100399017,-0.06788408011198044,1.2062896490097046,-68.2799072265625,-35.2939567565918,-3.986642599105835,1.0139492750167847,1.0589470863342285,0.12599369883537292,-2.012204885482788,1.776881456375122,-1.3341050148010254
20,79310,79312,0.01514720544219017,-0.06283968687057495,1.0845497846603394,-61.58442306518555,-33.51274490356445,-2.3294436931610107,1.0259486436843872,1.0649467706680298,0.11699414998292923,-1.5580416917800903,1.009116530418396,-1.323365569114685
21,79320,79322,-0.032001059502363205,-0.04300804063677788,1.108824372291565,-39.39385223388672,-35.65134811401367,0.562275230884552,1.018449068069458,1.0694465637207031,0.1334933191537857,-1.3524653911590576,0.6898645162582397,-1.408154010772705
22,79330,79332,-0.04988102242350578,0.014543548226356506,1.142524003982544,-16.08475112915039,-23.482091903686523,2.0289804935455322,1.057447075843811,1.0664466619491577,0.11849407106637955,-1.1042637825012207,0.163153275847435,-1.4415185451507568
23,79340,79342,-0.06461735814809799,-0.10735718160867691,1.0519932508468628,-2.1780574321746826,-7.5290069580078125,2.874213695526123,1.0439478158950806,1.0529472827911377,0.12599369883537292,-0.955955982208252,0.25226467847824097,-1.4614073038101196
24,79350,79352,-0.09302622079849243,-0.07710253447294235,1.068221926689148,6.613738059997559,8.186124801635742,4.787362575531006,1.0454477071762085,1.0514473915100098,0.12149392068386078,-0.9013108611106873,0.1287280023097992,-1.4257322549819946
25,79360,79362,-0.12692998349666595,-0.017833920195698738,1.11165189743042,5.594738960266113,10.982041358947754,3.468189239501953,1.048447608947754,1.042447805404663,0.13649317622184753,-1.024486780166626,0.3105287551879883,-1.4053208827972412
26,79370,79372,-0.16142356395721436,0.004714438691735268,1.1448554992675781,2.2863152027130127,11.670905113220215,0.6035831570625305,1.0544472932815552,1.048447608947754,0.13049347698688507,-1.1676450967788696,0.403491735458374,-1.3868014812469482
27,79380,79382,-0.18230785429477692,0.029634321108460426,1.0865886211395264,-5.874568939208984,14.484260559082031,2.960191249847412,1.0514473915100098,1.0514473915100098,0.12749361991882324,-1.1820780038833618,0.48880380392074585,-1.3644239902496338
28,79390,79392,-0.1391475796699524,-0.008173874579370022,1.0559583902359009,-16.043529510498047,11.946056365966797,8.981371879577637,1.033448338508606,1.0454477071762085,0.1334933191537857,-1.3417526483535767,0.2452770471572876,-1.3237109184265137
29,79400,79402,-0.0268707275390625,-0.055810876190662384,0.9859782457351685,-37.22822570800781,3.5055906772613525,12.772299766540527,1.0469475984573364,1.0379481315612793,0.1319933980703354,-1.386991024017334,0.21109701693058014,-1.231951117515564
30,79410,79412,-0.006019799038767815,-0.1264202892780304,0.967484176158905,-60.49190902709961,-5.3050103187561035,12.63449478149414,1.0499475002288818,1.0349482297897339,0.11999399960041046,-1.3670153617858887,-0.3022388219833374,-1.0725451707839966
31,79420,79422,-0.10541987419128418,-0.12179732322692871,1.0269781351089478,-74.81845092773438,-11.163439750671387,4.606472015380859,1.0349482297897339,1.0379481315612793,0.11999399960041046,-1.4247440099716187,-0.7300623655319214,-0.9819428324699402
32,79430,79432,-0.13686352968215942,-0.03411052003502846,0.9939097762107849,-69.39110565185547,-3.223104238510132,-2.1656651496887207,1.0529472827911377,1.0499475002288818,0.11699414998292923,-1.1642227172851562,-1.7084386348724365,-0.8830724358558655
33,79440,79442,-0.07465654611587524,0.09199853986501694,0.9890922904014587,-45.70828628540039,5.423116683959961,-5.286863327026367,1.0499475002288818,1.0439478158950806,0.11099445074796677,-1.1073743104934692,-2.1386542320251465,-0.9331430792808533
34,79450,79452,-0.11759620904922485,0.1269354224205017,0.9679500460624695,-3.709601879119873,2.419137954711914,-4.699050426483154,1.0604469776153564,1.042447805404663,0.12149392068386078,-1.1841918230056763,-2.6161201000213623,-0.9815383553504944
35,79460,79462,-0.09132695198059082,-0.02163582481443882,0.9427722692489624,31.890716552734375,-10.673300743103027,2.941847801208496,1.0454477071762085,1.0454477071762085,0.13049347698688507,-1.1714985370635986,-2.5082736015319824,-1.045515775680542
36,79470,79472,-0.050375986844301224,-0.1286514401435852,0.8290459513664246,62.25504684448242,-29.30719757080078,13.70788860321045,1.0634467601776123,1.0304484367370605,0.10949452221393585,-1.0506606101989746,-2.0244038105010986,-1.0318379402160645
37,79480,79482,-0.06605592370033264,0.03314309939742088,0.9535292387008667,61.28767013549805,-35.39846420288086,15.942584991455078,1.0529472827911377,1.055947184562683,0.13499325513839722,-0.8190976977348328,-1.4306381940841675,-0.8865697979927063
38,79490,79492,-0.10148376226425171,0.0793747529387474,1.0030677318572998,36.722618103027344,-29.58332061767578,20.0344181060791,1.0694465637207031,1.018449068069458,0.12749361991882324,-0.25187617540359497,-0.7698930501937866,-0.7666952013969421
39,79500,79502,-0.14586839079856873,-0.0051500555127859116,1.00005042552948,-1.2618662118911743,-15.318918228149414,21.061887741088867,1.0469475984573364,1.0109494924545288,0.11999399960041046,-0.21142525970935822,-0.6627253890037537,-0.4715396463871002
40,79510,79512,-0.14188815653324127,0.007284879218786955,0.9459942579269409,-33.7886848449707,-3.8410637378692627,19.145112991333008,1.0499475002288818,1.0289485454559326,0.12599369883537292,0.02669048123061657,-0.8684818148612976,-0.23652583360671997
41,79520,79522,-0.1554509699344635,-0.004250193480402231,0.9684709310531616,-57.126556396484375,1.9968796968460083,16.665746688842773,1.070946455001831,1.0229488611221313,0.13499325513839722,-0.1129259541630745,-1.2447477579116821,-0.0044438522309064865
42,79530,79532,-0.046789590269327164,-0.06932538747787476,1.0782040357589722,-65.27915954589844,-0.17524662613868713,12.299263954162598,1.057447075843811,1.033448338508606,0.1334933191537857,-0.0520407110452652,-2.01438307762146,0.1844184696674347
43,79540,79542,-0.03932112827897072,-0.0736183375120163,0.9529494643211365,-58.548431396484375,-5.161418437957764,10.00146198272705,1.0499475002288818,1.0349482297897339,0.1229938492178917,-0.025050101801753044,-2.512915849685669,0.26644954085350037
44,79550,79552,-0.10732124745845795,0.03089163452386856,1.0399792194366455,-31.847978591918945,-7.7952351570129395,7.7093825340271,1.0604469776153564,1.018449068069458,0.12749361991882324,0.07305974513292313,-3.1241705417633057,0.3629511594772339
45,79560,79562,-0.07928831875324249,0.0724048912525177,1.0467296838760376,-3.25347900390625,-7.809762954711914,7.748772144317627,1.0604469776153564,1.0364481210708618,0.12749361991882324,0.14464403688907623,-3.246574878692627,0.3867588937282562
46,79570,79572,-0.20067010819911957,0.06641492992639542,0.9994099140167236,34.30443572998047,-2.349255084991455,7.988940238952637,1.048447608947754,1.0454477071762085,0.13649317622184753,0.20623630285263062,-3.140491247177124,0.4356841444969177
47,79580,79582,-0.24429801106452942,0.018144158646464348,0.9494217038154602,59.27498245239258,0.20235922932624817,5.562930107116699,1.0649467706680298,1.0469475984573364,0.1319933980703354,0.2660104036331177,-2.6645591259002686,0.4604068100452423
48,79590,79592,-0.1795760542154312,-0.06517689675092697,0.8575312495231628,64.99493408203125,5.205331325531006,5.645925045013428,1.0679465532302856,1.0469475984573364,0.11999399960041046,0.22707395255565643,-2.0462698936462402,0.5256520509719849
49,79600,79602,-0.0695805773139,-0.021919742226600647,0.9844070672988892,56.95048904418945,18.913833618164062,9.282760620117188,1.0754462480545044,1.033448338508606,0.1334933191537857,0.17992398142814636,-1.5775212049484253,0.6309446692466736
50,79610,79612,-0.05545206367969513,-0.059728071093559265,0.8211182355880737,34.453453063964844,26.707786560058594,9.702366828918457,1.0619468688964844,1.0229488611221313,0.12899354100227356,0.013124141842126846,-1.0706357955932617,0.724381685256958
51,79620,79622,-0.23445142805576324,-0.034538041800260544,0.9542630314826965,3.743936061859131,28.268829345703125,12.982398986816406,1.055947184562683,1.019948959350586,0.1319933980703354,-0.3227882981300354,-0.8188323378562927,0.8718264102935791
52,79630,79632,-0.10472751408815384,-0.13824677467346191,0.8819354176521301,-32.34800338745117,19.69630241394043,15.041816711425781,1.055947184562683,1.0319483280181885,0.11699414998292923,-0.6923350095748901,-0.9892197847366333,1.0961073637008667
53,79640,79642,-0.08915644884109497,0.05288296937942505,1.0383336544036865,-64.5314712524414,6.509221076965332,20.42781639099121,1.048447608947754,1.0364481210708618,0.12449377030134201,-0.7242913842201233,-1.392531156539917,1.2143250703811646
54,79650,79652,-0.041892893612384796,0.04947754740715027,0.9333239197731018,-72.05511474609375,-0.9775992631912231,26.19542121887207,1.0394480228424072,1.033448338508606,0.11549422144889832,-0.8280903697013855,-2.3113934993743896,1.5070066452026367
55,79660,79662,-0.06524792313575745,-0.036753203719854355,0.8703884482383728,-63.58805847167969,-7.810178756713867,27.00667953491211,1.0379481315612793,1.0379481315612793,0.113994300365448,-0.7580074071884155,-2.8763234615325928,1.6926747560501099
56,79670,79672,-0.046326734125614166,0.004900344647467136,0.9625092148780823,-35.29195022583008,-24.746604919433594,27.444171905517578,1.0514473915100098,1.018449068069458,0.11849407106637955,-0.5231590867042542,-3.5162055492401123,1.9099624156951904
57,79680,79682,0.07038117200136185,-0.026885464787483215,0.9492289423942566,2.503662109375,-36.25804138183594,28.571598052978516,1.0469475984573364,1.0379481315612793,0.1319933980703354,-0.3907126784324646,-3.80991268157959,2.2074708938598633
58,79690,79692,0.11144110560417175,-0.04813588783144951,1.0177949666976929,41.48590850830078,-37.10028076171875,32.11689376831055,1.048447608947754,1.042447805404663,0.12449377030134201,0.013390150852501392,-3.516781806945801,2.414987802505493
59,79700,79702,0.09094062447547913,-0.004975188989192247,1.075242042541504,56.82249450683594,-41.94845962524414,32.274654388427734,1.0514473915100098,1.0514473915100098,0.1334933191537857,0.24728521704673767,-3.2137937545776367,2.814560890197754
60,79710,79712,-0.017286095768213272,0.038671690970659256,1.0811659097671509,59.47688293457031,-43.56626510620117,31.45159339904785,1.048447608947754,1.0274486541748047,0.12149392068386078,0.7052764296531677,-2.58262300491333,3.108290195465088
61,79720,79722,-0.026256460696458817,0.0996648296713829,1.0603126287460327,48.55188751220703,-33.90559387207031,27.529876708984375,1.0619468688964844,1.0259486436843872,0.14699265360832214,1.065084457397461,-2.1101248264312744,3.4917171001434326
62,79730,79732,-0.17273560166358948,0.029364438727498055,0.9592872858047485,28.317533493041992,-16.58753204345703,22.498865127563477,1.0769461393356323,1.0139492750167847,0.1229938492178917,1.4066884517669678,-1.7090929746627808,3.7862963676452637
63,79740,79742,-0.16169549524784088,-0.11571911722421646,0.9725739359855652,7.330245018005371,0.0668351873755455,17.243120193481445,1.0799460411071777,1.004949688911438,0.11999399960041046,1.497791051864624,-1.538360595703125,4.081258773803711
64,79750,79752,-0.0537724532186985,-0.09569046646356583,1.1127492189407349,-9.108424186706543,11.493071556091309,11.864444732666016,1.0844457149505615,1.00344979763031,0.12749361991882324,1.381922721862793,-1.6037935018539429,4.345269203186035
65,79760,79762,0.04059959575533867,-0.03832500800490379,0.9471679925918579,-30.665624618530273,20.5946102142334,8.10231876373291,1.0604469776153564,1.0154491662979126,0.12749361991882324,1.1998776197433472,-1.8495261669158936,4.543855667114258
66,79770,79772,-0.10294441133737564,0.012838645838201046,0.965088427066803,-48.8124885559082,21.158283233642578,3.2649357318878174,1.070946455001831,1.019948959350586,0.12899354100227356,1.1708528995513916,-2.153752088546753,4.551079273223877
67,79780,79782,0.020456161350011826,-0.04865137115120888,0.8872548341751099,-46.11992645263672,25.908918380737305,-2.67551326751709,1.070946455001831,1.0259486436843872,0.13499325513839722,0.8287622928619385,-2.714365243911743,4.644004821777344
68,79790,79792,0.013645490631461143,-0.025781676173210144,1.0586014986038208,-32.842647552490234,24.4849853515625,-8.198319435119629,1.0604469776153564,1.0214488506317139,0.11849407106637955,0.6875060796737671,-3.1050591468811035,4.532318592071533
69,79800,79802,0.030493291094899178,-0.01829325035214424,1.1254258155822754,-3.46441388130188,25.84889793395996,-15.901481628417969,1.072446346282959,1.0304484367370605,0.12749361991882324,0.275634765625,-3.331897258758545,4.451529502868652
70,79810,79812,-0.02319926954805851,-0.01803944632411003,1.0143742561340332,28.431367874145508,26.162925720214844,-17.84450340270996,1.0694465637207031,1.0214488506317139,0.12149392068386078,-0.09842585027217865,-3.232703447341919,4.282334804534912
71,79820,79822,-0.10775460302829742,0.03967371955513954,0.9476932883262634,55.583560943603516,16.759628295898438,-14.949363708496094,1.048447608947754,1.0454477071762085,0.1334933191537857,-0.37109723687171936,-2.9939157962799072,4.124172210693359
72,79830,79832,-0.06773703545331955,-0.03140614554286003,0.9827990531921387,71.41349792480469,20.97266387939453,-15.444631576538086,1.0499475002288818,1.0379481315612793,0.1229938492178917,-0.40282559394836426,-2.202021837234497,3.806692123413086
73,79840,79842,-0.08492374420166016,-0.03491554781794548,0.9421012997627258,75.767822265625,8.934744834899902,-12.08580207824707,1.0589470863342285,1.0439478158950806,0.12899354100227356,-0.40704017877578735,-1.6090091466903687,3.6068332195281982
74,79850,79852,-0.10404607653617859,-0.1497744917869568,0.8286555409431458,61.46278762817383,5.680886745452881,-9.02452278137207,1.048447608947754,1.0364481210708618,0.13649317622184753,-0.5515979528427124,-0.7994837164878845,3.489086627960205
75,79860,79862,-0.12607167661190033,-0.0218050517141819,0.8870481848716736,35.37261962890625,5.84535026550293,-7.750113010406494,1.0514473915100098,1.0244487524032593,0.1334933191537857,-0.6298761963844299,-0.2741495966911316,3.4351367950439453
76,79870,79872,-0.06775738298892975,0.009093327447772026,0.8641430139541626,5.052292823791504,16.024063110351562,-10.512524604797363,1.0409479141235352,1.0229488611221313,0.12599369883537292,-0.7756026983261108,-0.06732703745365143,3.4167020320892334
77,79880,79882,-0.05691053718328476,-0.04659672826528549,0.8277621865272522,-24.95687484741211,21.81159019470215,-14.293000221252441,1.048447608947754,1.0214488506317139,0.12749361991882324,-0.6257639527320862,-0.3493868112564087,3.2772252559661865
78,79890,79892,-0.1286577582359314,-0.0616731159389019,0.8913697004318237,-38.24454116821289,31.35137176513672,-17.719938278198242,1.0364481210708618,1.0364481210708618,0.11549422144889832,-1.021559476852417,-0.6762528419494629,3.2036664485931396
79,79900,79902,-0.19660413265228271,-0.08825384080410004,0.9538424611091614,-38.17068099975586,47.6033935546875,-19.70417594909668,1.0244487524032593,1.0604469776153564,0.13049347698688507,-1.41171395778656,-1.0661261081695557,3.050999164581299
80,79910,79912,-0.1006796732544899,-0.05176869407296181,1.027830958366394,-21.12160301208496,48.60628890991211,-22.013809204101562,1.0439478158950806,1.0679465532302856,0.12599369883537292,-1.7814998626708984,-1.4233952760696411,2.8092434406280518
81,79920,79922,-0.001452557509765029,0.039893608540296555,1.0649456977844238,7.815407752990723,31.557693481445312,-21.662778854370117,1.0289485454559326,1.0679465532302856,0.1319933980703354,-2.1790428161621094,-1.5883800983428955,2.553929328918457
82,79930,79932,0.16061657667160034,0.030501676723361015,1.0449473857879639,39.612037658691406,8.516470909118652,-21.8398494720459,1.0229488611221313,1.070946455001831,0.12599369883537292,-2.6550869941711426,-1.3503553867340088,2.3502864837646484
83,79940,79942,0.1141110435128212,-0.039740413427352905,0.9247996807098389,66.40819549560547,-10.086289405822754,-20.45293617248535,1.0244487524032593,1.057447075843811,0.12449377030134201,-2.4971511363983154,-1.0284628868103027,2.066704511642456
84,79950,79952,-0.05602802708745003,0.14445683360099792,1.0657693147659302,82.14036560058594,-20.45549964904785,-16.994970321655273,1.0154491662979126,1.0754462480545044,0.12149392068386078,-2.257906913757324,-0.20047380030155182,1.8061186075210571
85,79960,79962,-0.019102368503808975,-0.07660803943872452,0.852536678314209,81.4190673828125,-18.860675811767578,-15.166604042053223,1.033448338508606,1.0454477071762085,0.12449377030134201,-2.222384452819824,0.4263828694820404,1.6815307140350342
86,79970,79972,-0.056094519793987274,-0.08858349919319153,0.864730179309845,65.4297103881836,-9.423097610473633,-13.801135063171387,1.0379481315612793,1.0349482297897339,0.12899354100227356,-2.052448034286499,1.2723350524902344,1.5252598524093628
87,79980,79982,-0.054139453917741776,-0.008125793188810349,0.9629348516464233,37.51519775390625,2.469010829925537,-13.281817436218262,1.0319483280181885,1.0439478158950806,0.1319933980703354,-1.945479154586792,1.6260838508605957,1.3797190189361572
88,79990,79992,-0.07031521946191788,-0.02606882154941559,0.9936769604682922,5.0416579246521,11.726054191589355,-9.469757080078125,1.019948959350586,1.0349482297897339,0.12899354100227356,-2.018470048904419,2.0757224559783936,1.2582865953445435
89,80000,80002,-0.10673215240240097,0.16371524333953857,1.0221730470657349,-21.77997589111328,16.075828552246094,-8.360183715820312,1.0304484367370605,1.0454477071762085,0.12149392068386078,-2.098937749862671,1.9943007230758667,1.1591339111328125
90,80010,80012,-0.12192317098379135,0.003679477609694004,0.9804456233978271,-39.83778762817383,10.95847225189209,-8.373536109924316,1.0364481210708618,1.0544472932815552,0.12149392068386078,-2.383579730987549,1.6941242218017578,1.0754234790802002
91,80020,80022,-0.034388866275548935,-0.03142963722348213,0.980370819568634,-44.35639190673828,-14.741888046264648,-6.238351345062256,1.0259486436843872,1.055947184562683,0.11099445074796677,-2.5460727214813232,1.3429985046386719,0.9988911151885986
92,80030,80032,-0.07284462451934814,0.08979117125272751,1.105197787284851,-28.821557998657227,-49.04498291015625,-3.132209539413452,1.0244487524032593,1.042447805404663,0.12149392068386078,-2.386909008026123,0.8625548481941223,0.9281875491142273
93,80040,80042,-0.085757315158844,-0.029409755021333694,1.1132675409317017,-1.272424340248108,-78.039306640625,2.157966375350952,1.018449068069458,1.0634467601776123,0.1334933191537857,-2.0503294467926025,0.5887563228607178,0.883095383644104
94,80050,80052,-0.13429516553878784,-0.017009150236845016,1.1399884223937988,18.858366012573242,-87.39530944824219,7.405996322631836,1.0289485454559326,1.055947184562683,0.12599369883537292,-0.8742393255233765,0.7073504328727722,0.932437539100647
95,80060,80062,-0.14001122117042542,0.009395692497491837,1.187281608581543,26.105342864990234,-77.86353302001953,7.53253698348999,1.0304484367370605,1.033448338508606,0.12449377030134201,-0.4558345675468445,0.8919156789779663,0.9552871584892273
96,80070,80072,-0.1271710842847824,0.002613504882901907,1.1838409900665283,29.444202423095703,-50.905426025390625,8.901790618896484,1.0409479141235352,1.0529472827911377,0.13499325513839722,0.296432763338089,1.3318978548049927,1.0261943340301514
97,80080,80082,-0.14768126606941223,-0.0033895710948854685,1.1925544738769531,30.341049194335938,-22.18606948852539,10.586732864379883,1.0409479141235352,1.0589470863342285,0.13799309730529785,0.751876950263977,1.4537887573242188,1.0889811515808105
98,80090,80092,-0.14710527658462524,-9.014895476866513e-05,1.14735746383667,23.727951049804688,15.323744773864746,11.238554000854492,1.0514473915100098,1.048447608947754,0.12149392068386078,0.9383852481842041,1.792138695716858,1.1762280464172363
99,80100,80102,-0.10131292045116425,-0.0271044559776783,1.1271764039993286,8.114678382873535,45.90304183959961,12.608556747436523,1.0379481315612793,1.0679465532302856,0.11699414998292923,0.7605843544006348,2.022533416748047,1.2808650732040405
100,80110,80112,-0.08206036686897278,-0.028895214200019836,1.057860016822815,-10.751862525939941,54.131187438964844,12.62661361694336,1.019948959350586,1.0649467706680298,0.1229938492178917,0.12900666892528534,2.1199071407318115,1.3922154903411865
101,80120,80122,-0.18597868084907532,0.09143579006195068,1.1530472040176392,-23.746000289916992,36.998504638671875,14.142536163330078,1.0319483280181885,1.055947184562683,0.13799309730529785,-0.352731853723526,1.9279900789260864,1.5523444414138794
102,80130,80132,-0.18383368849754333,0.1725904941558838,1.2128262519836426,-25.589670181274414,3.1726317405700684,13.977967262268066,1.0289485454559326,1.0439478158950806,0.13799309730529785,-0.6315988898277283,1.631048321723938,1.721264362335205
103,80140,80142,-0.19813357293605804,0.008876987732946873,1.1430052518844604,-17.93572425842285,-20.67062759399414,11.996526718139648,1.0364481210708618,1.0394480228424072,0.1334933191537857,-0.45357048511505127,1.3765162229537964,1.910659670829773
104,80150,80152,-0.014586282894015312,0.026831654831767082,1.2027971744537354,-7.216207027435303,-28.507402420043945,10.48311710357666,1.0529472827911377,1.0379481315612793,0.1229938492178917,-0.29378223419189453,1.2486628293991089,2.015331268310547
105,80160,80162,0.019205475226044655,-0.052917156368494034,1.1141952276229858,0.4375728368759155,-22.374311447143555,8.805038452148438,1.0439478158950806,1.0349482297897339,0.11999399960041046,-0.13866113126277924,1.1748825311660767,2.0897490978240967
106,80170,80172,-0.10399648547172546,-0.017621487379074097,0.9563241004943848,8.308627128601074,-21.802305221557617,6.623030662536621,1.0409479141235352,1.0409479141235352,0.1229938492178917,0.1804133653640747,1.2472199201583862,2.190202474594116
107,80180,80182,-0.09609664231538773,0.08172955363988876,0.9563350081443787,21.221920013427734,-23.28264045715332,4.699626445770264,1.055947184562683,1.0409479141235352,0.13799309730529785,0.2761489748954773,1.3204820156097412,2.222179412841797
108,80190,80192,-0.2006596475839615,0.03274720907211304,1.0551623106002808,32.41415023803711,-11.79378604888916,3.8572611808776855,1.0454477071762085,1.0274486541748047,0.12149392068386078,0.7307845950126648,1.717899203300476,2.2879137992858887
109,80200,80202,-0.11908627301454544,-0.00700683519244194,1.0204051733016968,40.9693717956543,2.6645255088806152,0.423465371131897,1.0514473915100098,1.033448338508606,0.13049347698688507,0.7527866959571838,1.9139076471328735,2.3006341457366943
110,80210,80212,-0.03097456879913807,-0.059534333646297455,0.9291399717330933,36.59237289428711,13.468196868896484,0.1916220635175705,1.0514473915100098,1.0274486541748047,0.13049347698688507,0.7504091858863831,2.4831202030181885,2.28783917427063
111,80220,80222,-0.10612387210130692,-0.003942286595702171,1.0855202674865723,29.29932403564453,23.801328659057617,4.284605503082275,1.042447805404663,1.0274486541748047,0.12149392068386078,0.5783881545066833,2.6838343143463135,2.3103065490722656
112,80230,80232,-0.16636031866073608,0.060702063143253326,1.0467561483383179,21.044679641723633,34.94076919555664,10.917669296264648,1.0454477071762085,1.0364481210708618,0.12449377030134201,0.1741856187582016,2.8914687633514404,2.3346378803253174
113,80240,80242,-0.11050000786781311,0.02775639109313488,1.0357855558395386,4.911401748657227,35.65339660644531,19.46990394592285,1.048447608947754,1.0274486541748047,0.12149392068386078,-0.19313213229179382,3.022251844406128,2.47564959526062
114,80250,80252,-0.06124117597937584,0.007047443650662899,1.006706953048706,-29.680362701416016,21.307292938232422,20.25804328918457,1.0469475984573364,1.019948959350586,0.12599369883537292,-0.3985742926597595,3.048067331314087,2.7364609241485596
115,80260,80262,-0.12297163903713226,0.012985601089894772,0.9202839136123657,-68.97723388671875,0.9920656681060791,13.749457359313965,1.0454477071762085,1.0244487524032593,0.11849407106637955,-0.4991534650325775,2.689173936843872,2.9937562942504883
116,80270,80272,-0.12961898744106293,-0.06911998987197876,0.9948412179946899,-93.16216278076172,-27.14580726623535,3.583247423171997,1.0409479141235352,1.0409479141235352,0.13499325513839722,-0.44385743141174316,1.6875829696655273,3.1984357833862305
117,80280,80282,-0.1180170550942421,-0.1639639288187027,0.9987813234329224,-98.47271728515625,-61.234622955322266,-3.5024962425231934,1.0364481210708618,1.0364481210708618,0.12749361991882324,-0.07368216663599014,1.1404151916503906,3.203207015991211
118,80290,80292,-0.09394294768571854,-0.08929231762886047,1.10261869430542,-91.41315460205078,-80.08589172363281,-12.727378845214844,1.042447805404663,1.033448338508606,0.12449377030134201,0.7457828521728516,-0.1256280541419983,3.2775630950927734
119,80300,80302,-0.11827344447374344,0.004455869551748037,1.0761157274246216,-76.81990814208984,-81.44580841064453,-21.038021087646484,1.033448338508606,1.0604469776153564,0.12749361991882324,1.2009027004241943,-0.7392154932022095,2.9893877506256104
120,80310,80312,0.038915906101465225,0.12178866565227509,1.0285160541534424,-50.752017974853516,-72.57801818847656,-30.10112762451172,1.0529472827911377,1.055947184562683,0.1319933980703354,2.2161059379577637,-1.5800048112869263,2.887274980545044
121,80320,80322,-0.03368549421429634,0.1206081286072731,0.9580283761024475,-12.41785717010498,-53.54227828979492,-37.371864318847656,1.0544472932815552,1.0394480228424072,0.12749361991882324,2.649602174758911,-1.8271777629852295,2.4818115234375
122,80330,80332,-0.06154152750968933,-0.008025498129427433,1.0399333238601685,37.670684814453125,-22.961917877197266,-40.36940002441406,1.0679465532302856,1.0439478158950806,0.13799309730529785,3.271869421005249,-1.8458794355392456,2.1276071071624756
123,80340,80342,0.02755507454276085,-0.08359958231449127,1.1798601150512695,83.1968994140625,14.925143241882324,-38.892852783203125,1.0664466619491577,1.0514473915100098,0.12149392068386078,3.4571399688720703,-1.289358377456665,1.6706559658050537
124,80350,80352,-0.09344716370105743,-0.10056201368570328,1.2233518362045288,104.69290924072266,54.306339263916016,-39.237850189208984,1.048447608947754,1.0694465637207031,0.1334933191537857,3.189368963241577,-0.3338850736618042,1.2187696695327759
125,80360,80362,-0.2359931319952011,-0.11804840713739395,1.1647305488586426,111.282958984375,78.23062133789062,-37.2983283996582,1.0544472932815552,1.0814459323883057,0.13649317622184753,2.4652466773986816,0.4861501157283783,0.9031009078025818
126,80370,80372,-0.16627022624015808,-0.02112921141088009,0.9788080453872681,109.582275390625,80.60476684570312,-30.684724807739258,1.0544472932815552,1.0664466619491577,0.13949301838874817,1.8641083240509033,1.9982308149337769,0.4149511456489563
127,80380,80382,-0.058223240077495575,-0.09314607083797455,0.9712764620780945,83.64494323730469,72.07684326171875,-22.999242782592773,1.0439478158950806,1.0529472827911377,0.1319933980703354,1.026505947113037,2.7872047424316406,0.2717759907245636
128,80390,80392,-0.06636880338191986,-0.16038769483566284,1.0155614614486694,32.36113739013672,56.38558578491211,-21.266563415527344,1.048447608947754,1.0364481210708618,0.12449377030134201,0.3836075961589813,3.666045665740967,0.0567500963807106
129,80400,80402,-0.11838532984256744,0.0036138836294412613,1.0030614137649536,-26.953039169311523,28.679588317871094,-18.34334373474121,1.0394480228424072,1.0364481210708618,0.12749361991882324,-0.06130867451429367,3.7664153575897217,-0.034301504492759705
130,80410,80412,-0.17284530401229858,0.03645246848464012,1.156549334526062,-67.29153442382812,3.526815176010132,-14.0791597366333,1.0454477071762085,1.018449068069458,0.13949301838874817,-0.46833255887031555,3.188613176345825,-0.12240936607122421
131,80420,80422,-0.015087959356606007,-0.07175000756978989,0.931453287601471,-82.92752838134766,-24.85722541809082,-10.048659324645996,1.0379481315612793,1.0409479141235352,0.1319933980703354,-0.2864327132701874,2.7358875274658203,-0.28055211901664734
132,80430,80432,-0.2004598081111908,0.09059691429138184,1.1434613466262817,-71.63716888427734,-44.49314880371094,-2.994884967803955,1.042447805404663,1.0364481210708618,0.13049347698688507,0.2876724898815155,1.7796212434768677,-0.25168702006340027
133,80440,80442,-0.10761382430791855,0.05571034550666809,1.1371850967407227,-48.228721618652344,-48.1027717590332,3.3680644035339355,1.0604469776153564,1.018449068069458,0.14249287545681,0.6036810874938965,1.3355034589767456,-0.39779362082481384
134,80450,80452,-0.14947663247585297,-0.053244829177856445,0.9608553051948547,-27.18073081970215,-42.170780181884766,8.342026710510254,1.048447608947754,1.0304484367370605,0.13949301838874817,1.2423591613769531,0.8464900851249695,-0.3196815252304077
135,80460,80462,-0.0907716378569603,-0.02371007204055786,0.9935324788093567,-9.499333381652832,-31.357723236083984,13.672350883483887,1.057447075843811,1.0094494819641113,0.13049347698688507,1.613937497138977,0.7387070655822754,-0.2986181974411011
136,80470,80472,-0.09692700207233429,0.06547165662050247,1.0799616575241089,0.850857138633728,-3.7834458351135254,15.420044898986816,1.073946237564087,1.0139492750167847,0.12899354100227356,1.7766023874282837,0.6543224453926086,-0.20805151760578156
137,80480,80482,-0.08484947681427002,-0.035355500876903534,1.0024847984313965,-0.823635995388031,48.369224548339844,15.309500694274902,1.070946455001831,1.01694917678833,0.10799460113048553,1.5529037714004517,0.6125301718711853,-0.09859583526849747
138,80490,80492,-0.07953515648841858,-0.081194207072258,0.9481967687606812,4.900248050689697,88.14179229736328,16.76677703857422,1.057447075843811,1.018449068069458,0.12149392068386078,0.7422913312911987,0.660792887210846,-0.025077564641833305
139,80500,80502,-0.047776829451322556,-0.09224700182676315,1.028940200805664,9.276349067687988,102.10946655273438,14.587462425231934,1.057447075843811,1.033448338508606,0.12749361991882324,-0.11232443153858185,0.7804096937179565,0.13021618127822876
140,80510,80512,-0.020442120730876923,-0.14410977065563202,0.8315699696540833,15.273386001586914,90.18276977539062,12.341554641723633,1.055947184562683,1.0439478158950806,0.12899354100227356,-1.3419365882873535,0.9092965126037598,0.24431546032428741
141,80520,80522,-0.017065364867448807,-0.030938947573304176,0.9463606476783752,19.225452423095703,59.421268463134766,10.335423469543457,1.033448338508606,1.0394480228424072,0.12449377030134201,-1.9668058156967163,1.1463706493377686,0.41963618993759155
142,80530,80532,-0.062363576143980026,-0.009099449031054974,0.9419935345649719,16.718204498291016,25.205909729003906,6.1731181144714355,1.0409479141235352,1.0259486436843872,0.1229938492178917,-2.4711945056915283,1.4104782342910767,0.5374504327774048
143,80540,80542,-0.23262211680412292,0.059442855417728424,0.8643010258674622,9.740362167358398,-7.466699123382568,2.748049259185791,1.0394480228424072,1.0274486541748047,0.12449377030134201,-2.7305078506469727,1.5508028268814087,0.611613392829895
144,80550,80552,-0.04177083447575569,-0.03754102438688278,0.8465578556060791,-3.084149122238159,-24.276384353637695,1.010453224182129,1.048447608947754,1.00344979763031,0.12149392068386078,-2.4827189445495605,1.6249501705169678,0.6753783226013184
145,80560,80562,-0.04482095316052437,0.012242967262864113,0.9494385719299316,-15.960038185119629,-28.77400779724121,-1.1377240419387817,1.055947184562683,0.9989500045776367,0.12599369883537292,-2.2823307514190674,1.6389853954315186,0.6744351983070374
146,80570,80572,-0.05215369164943695,-0.19574832916259766,0.7696921229362488,-26.717912673950195,-24.664936065673828,-4.280440330505371,1.0499475002288818,1.0079495906829834,0.11699414998292923,-1.9445945024490356,1.4578701257705688,0.6623179316520691
147,80580,80582,-0.04876763001084328,-0.024327384307980537,0.8625895977020264,-34.926361083984375,-14.37189769744873,-6.57413911819458,1.0544472932815552,1.0094494819641113,0.11549422144889832,-1.846152663230896,1.2260936498641968,0.5915929079055786
148,80590,80592,-0.053027860820293427,-0.023503024131059647,0.8697088360786438,-38.60557174682617,-4.7184319496154785,-7.192638874053955,1.0454477071762085,1.0244487524032593,0.11249437183141708,-1.608249545097351,0.8114814162254333,0.5450980067253113
149,80600,80602,-0.20448023080825806,-0.07593052089214325,0.9021857976913452,-39.99079513549805,4.7031660079956055,-9.91496753692627,1.0499475002288818,1.0229488611221313,0.1229938492178917,-1.6493879556655884,0.615383505821228,0.46386581659317017
150,80610,80612,-0.10816209018230438,0.027906203642487526,0.9814722537994385,-35.59049987792969,13.811375617980957,-10.44914436340332,1.042447805404663,1.0364481210708618,0.12749361991882324,-1.7787044048309326,0.04300599545240402,0.33670079708099365
151,80620,80622,0.03827425464987755,-0.11340155452489853,1.0025049448013306,-20.878067016601562,13.068937301635742,-8.832535743713379,1.042447805404663,1.042447805404663,0.11249437183141708,-2.0288989543914795,-0.1416100412607193,0.22997981309890747
152,80630,80632,-0.0048197051510214806,-0.05952170118689537,0.8939797878265381,-2.1977529525756836,5.123330593109131,-9.415935516357422,1.0544472932815552,1.0244487524032593,0.12149392068386078,-2.1846888065338135,-0.5072435736656189,0.1169460266828537
153,80640,80642,-0.11342858523130417,0.1141827180981636,0.9171176552772522,15.277861595153809,-6.148977756500244,-7.633610248565674,1.0529472827911377,1.0259486436843872,0.12599369883537292,-2.1654858589172363,-0.2512793242931366,0.07406196743249893
154,80650,80652,-0.08598287403583527,-0.005601682234555483,0.9135075807571411,25.857393264770508,-14.623188018798828,-7.338136196136475,1.0364481210708618,1.0364481210708618,0.12449377030134201,-2.0849244594573975,0.005268063396215439,0.020543992519378662
155,80660,80662,-0.11447092145681381,-0.07459568977355957,0.8482457399368286,22.258201599121094,-21.732070922851562,-6.177170753479004,1.048447608947754,1.0364481210708618,0.12149392068386078,-2.061713933944702,0.3300595283508301,-0.053129419684410095
156,80670,80672,-0.11065035313367844,-0.02033304050564766,0.9249520301818848,11.848876953125,-33.45830154418945,-2.464484930038452,1.0454477071762085,1.0244487524032593,0.11549422144889832,-1.8282605409622192,0.5768847465515137,-0.1163342297077179
157,80680,80682,-0.08880334347486496,-0.007598751690238714,0.9399640560150146,-3.6838150024414062,-38.57337951660156,4.57097053527832,1.0619468688964844,1.0259486436843872,0.12599369883537292,-1.718841791152954,0.4967012107372284,-0.19647452235221863
158,80690,80692,-0.06136290729045868,-0.033353134989738464,0.8941593766212463,-22.354026794433594,-47.64620590209961,15.054313659667969,1.0454477071762085,1.0304484367370605,0.12749361991882324,-1.138920783996582,0.3836149275302887,-0.15950751304626465
159,80700,80702,-0.10486047714948654,0.04886721819639206,1.0518419742584229,-45.46053695678711,-61.59650421142578,20.12970733642578,1.0469475984573364,1.0379481315612793,0.12899354100227356,-0.8212345838546753,0.18340247869491577,-0.029866712167859077
160,80710,80712,-0.10358701646327972,-0.0059457081370055676,1.0382530689239502,-74.0639877319336,-68.26457214355469,19.963706970214844,1.055947184562683,1.0289485454559326,0.13499325513839722,-0.012216532602906227,-0.4203776717185974,0.14592711627483368
161,80720,80722,-0.1539987325668335,-0.055919162929058075,1.022851586341858,-99.24391174316406,-63.1510124206543,14.999807357788086,1.0499475002288818,1.0439478158950806,0.13499325513839722,0.4714747667312622,-1.0264230966567993,0.3560487926006317
162,80730,80732,-0.1231410801410675,0.022960463538765907,1.1218706369400024,-95.07217407226562,-41.99275588989258,12.528083801269531,1.0439478158950806,1.055947184562683,0.1319933980703354,1.3201266527175903,-2.0700864791870117,0.5163475275039673
163,80740,80742,-0.029398465529084206,-0.06582050770521164,1.1897249221801758,-68.78217315673828,-26.11648941040039,11.289654731750488,1.0514473915100098,1.0604469776153564,0.14549271762371063,1.6134259700775146,-2.810025691986084,0.6775099039077759
164,80750,80752,-0.07189231365919113,0.09837152808904648,1.2029350996017456,-39.154441833496094,-30.682449340820312,8.322540283203125,1.0604469776153564,1.0514473915100098,0.13649317622184753,1.798602819442749,-3.6429076194763184,0.8056089878082275
165,80760,80762,-0.05906263366341591,0.14464104175567627,1.1364550590515137,-9.382177352905273,-42.13495635986328,5.4239115715026855,1.0679465532302856,1.0529472827911377,0.13799309730529785,1.9793120622634888,-3.9886436462402344,0.9208648204803467
166,80770,80772,-0.12533235549926758,-0.02498726174235344,1.0216649770736694,20.41196060180664,-60.52106857299805,5.962952136993408,1.0694465637207031,1.0814459323883057,0.1334933191537857,2.6046464443206787,-4.199554920196533,0.9798214435577393
167,80780,80782,-0.23639656603336334,0.10550624877214432,1.1804620027542114,40.23468780517578,-84.37744140625,8.135427474975586,1.0844457149505615,1.0544472932815552,0.13649317622184753,3.1012351512908936,-3.775285243988037,1.074986457824707
168,80790,80792,-0.16518431901931763,-0.04038594290614128,1.081458568572998,50.8775634765625,-87.53536224365234,11.139612197875977,1.0799460411071777,1.0439478158950806,0.14699265360832214,4.099263668060303,-3.3925793170928955,1.1529195308685303
169,80800,80802,-0.03727665916085243,0.02832910418510437,1.116411805152893,57.398860931396484,-67.20906066894531,15.592550277709961,1.0964452028274536,1.057447075843811,0.13949301838874817,4.809397220611572,-2.982473611831665,1.3730061054229736
170,80810,80812,-0.21086739003658295,-0.09316970407962799,1.1496275663375854,45.264225006103516,-33.381263732910156,14.074721336364746,1.0904453992843628,1.0364481210708618,0.14249287545681,5.415338516235352,-2.2922513484954834,1.547061562538147
171,80820,80822,-0.1627732366323471,-0.06339312344789505,1.0861538648605347,31.698650360107422,16.291841506958008,11.425884246826172,1.0934453010559082,1.033448338508606,0.13949301838874817,5.553064346313477,-1.8785429000854492,1.7880388498306274
172,80830,80832,-0.13627241551876068,-0.02509109117090702,1.1269651651382446,21.002838134765625,59.58637237548828,4.157405376434326,1.0889455080032349,1.055947184562683,0.14999249577522278,5.3196821212768555,-1.7314720153808594,2.011723518371582
173,80840,80842,-0.07858799397945404,-0.01626293547451496,1.0466763973236084,9.553879737854004,92.10203552246094,-0.5958524942398071,1.0754462480545044,1.0514473915100098,0.13049347698688507,4.87247896194458,-1.6648756265640259,2.080744504928589
174,80850,80852,-0.08989695459604263,-0.053421299904584885,0.9221093058586121,-9.313509941101074,121.06179809570312,-4.063460350036621,1.0799460411071777,1.0589470863342285,0.14399279654026031,3.7862699031829834,-1.5919384956359863,2.126339912414551
175,80860,80862,0.005637419410049915,-0.11626996099948883,1.0153709650039673,-24.111248016357422,126.10698699951172,-1.932823896408081,1.0544472932815552,1.0694465637207031,0.1334933191537857,3.1325528621673584,-1.6371262073516846,1.8520084619522095
176,80870,80872,-0.017341485247015953,-0.07895948737859726,1.031836986541748,-29.42384910583496,98.53499603271484,-1.7151166200637817,1.057447075843811,1.048447608947754,0.12449377030134201,1.3919786214828491,-1.9181970357894897,1.9889240264892578
177,80880,80882,-0.03538127616047859,-0.10478300601243973,1.0336345434188843,-17.225828170776367,51.563087463378906,-1.2180685997009277,1.0499475002288818,1.0589470863342285,0.1319933980703354,0.5517261624336243,-2.116533041000366,1.8280823230743408
178,80890,80892,-0.11830408871173859,0.022119099274277687,1.1492692232131958,13.851951599121094,1.9367847442626953,4.812761306762695,1.0634467601776123,1.042447805404663,0.14549271762371063,0.133808434009552,-2.3844969272613525,1.7712714672088623
179,80900,80902,-0.08225809037685394,-0.06190123409032822,0.9361302852630615,44.344322204589844,-33.790283203125,10.893808364868164,1.0634467601776123,1.033448338508606,0.13949301838874817,0.31014391779899597,-2.133898973464966,1.6668822765350342
180,80910,80912,-0.10474806278944016,-0.0017118522664532065,1.078330159187317,74.82585906982422,-41.98273849487305,17.16994857788086,1.0619468688964844,1.0349482297897339,0.13799309730529785,0.7078522443771362,-1.5011401176452637,1.6415754556655884
181,80920,80922,-0.1384352743625641,-0.017398187890648842,0.9908508658409119,91.92030334472656,-26.19420051574707,25.66037940979004,1.0634467601776123,1.0364481210708618,0.13949301838874817,1.0258973836898804,-0.8016080856323242,1.8403292894363403
182,80930,80932,-0.11904972791671753,0.02102183736860752,1.055130958557129,88.02613067626953,1.7819876670837402,31.147127151489258,1.0634467601776123,1.0154491662979126,0.13949301838874817,1.4346758127212524,0.0971299260854721,2.0468995571136475
183,80940,80942,-0.01900799758732319,-0.12220712751150131,0.8238873481750488,53.63971710205078,36.27288818359375,33.87847137451172,1.072446346282959,1.0154491662979126,0.1334933191537857,1.3312727212905884,0.731785237789154,2.4789507389068604
184,80950,80952,-0.07629909366369247,-0.030387038365006447,0.7309316992759705,-3.924630880355835,56.8141975402832,31.47581672668457,1.0694465637207031,1.00344979763031,0.13649317622184753,0.9366384148597717,1.3689923286437988,2.823256015777588
185,80960,80962,-0.1472489833831787,0.016888659447431564,0.95753014087677,-53.62574768066406,66.1513900756836,29.20650291442871,1.0529472827911377,1.0259486436843872,0.11999399960041046,0.4646332561969757,1.2474277019500732,3.1901917457580566
186,80970,80972,-0.09353683143854141,-0.016092849895358086,0.8689448237419128,-91.65873718261719,62.551307678222656,28.129159927368164,1.0469475984573364,1.0439478158950806,0.1319933980703354,-0.4652394950389862,0.34516873955726624,3.678133964538574
187,80980,80982,-0.06548246741294861,-0.027430597692728043,0.8511872291564941,-105.23336029052734,49.6221923828125,27.884973526000977,1.0349482297897339,1.0409479141235352,0.11999399960041046,-0.6277316212654114,-0.11227509379386902,3.7425997257232666
188,80990,80992,0.06440079212188721,-0.07405772060155869,0.8690966963768005,-90.71885681152344,33.75557327270508,27.40909194946289,1.0409479141235352,1.0349482297897339,0.1319933980703354,-1.3801202774047852,-1.59829843044281,4.16525936126709
189,81000,81002,0.06963419914245605,-0.007576433010399342,1.0820672512054443,-56.79568099975586,21.58710289001465,27.69753646850586,1.048447608947754,1.033448338508606,0.10649467259645462,-1.7446928024291992,-2.107836961746216,4.350553512573242
190,81010,81012,-0.011968625709414482,0.01959909312427044,1.1928889751434326,-16.819786071777344,17.952234268188477,26.472064971923828,1.0364481210708618,1.0274486541748047,0.11549422144889832,-1.9586352109909058,-2.680856466293335,4.604076862335205
191,81020,81022,-0.04513552784919739,-0.008790169842541218,1.019492745399475,25.135496139526367,10.054183959960938,26.164997100830078,1.042447805404663,1.0364481210708618,0.13049347698688507,-2.15167498588562,-2.7755255699157715,4.857371807098389
192,81030,81032,-0.04119943454861641,-0.049581363797187805,0.8998784422874451,53.75611877441406,8.414670944213867,23.725799560546875,1.0364481210708618,1.0364481210708618,0.11849407106637955,-2.188816785812378,-2.244568109512329,5.081396102905273
193,81040,81042,-0.11447089165449142,0.0708846002817154,0.9510979056358337,63.61337661743164,8.944201469421387,21.657352447509766,1.048447608947754,1.0274486541748047,0.11849407106637955,-2.3632733821868896,-1.8920848369598389,5.33790922164917
194,81050,81052,-0.08103536069393158,0.011273288168013096,0.922683835029602,59.97491455078125,8.362271308898926,19.949125289916992,1.0394480228424072,1.0274486541748047,0.13049347698688507,-2.5256295204162598,-1.0181130170822144,5.580191612243652
195,81060,81062,-0.04253358021378517,-0.04317304864525795,0.9970568418502808,43.12995910644531,4.9982709884643555,15.329564094543457,1.0379481315612793,1.0349482297897339,0.12899354100227356,-2.4177603721618652,-0.6362535953521729,5.70526123046875
196,81070,81072,-0.01571359671652317,-0.04685835540294647,0.9190571308135986,19.452713012695312,0.3771422505378723,13.902447700500488,1.0304484367370605,1.0304484367370605,0.12449377030134201,-2.423276901245117,-0.06997203081846237,5.86100435256958
197,81080,81082,-0.05179674178361893,-0.018425801768898964,0.8966963887214661,-6.088982582092285,-2.5657191276550293,12.44527816772461,1.048447608947754,1.0214488506317139,0.13049347698688507,-2.312824249267578,-0.08364639431238174,5.941993236541748
198,81090,81092,-0.1363402009010315,0.05470957234501839,1.0547773838043213,-26.11751365661621,-5.980273246765137,10.111584663391113,1.0439478158950806,1.0079495906829834,0.1049947515130043,-2.1553244590759277,-0.18494826555252075,6.030563831329346
199,81100,81102,-0.1462700068950653,-0.05982637405395508,0.7638479471206665,-38.35298538208008,-7.9822163581848145,7.891538619995117,1.048447608947754,1.0094494819641113,0.11849407106637955,-2.22623610496521,-0.33277708292007446,6.182348728179932
200,81110,81112,-0.23368756473064423,0.11196714639663696,0.8993064165115356,-39.13603591918945,-6.768243312835693,6.965803146362305,1.048447608947754,1.0094494819641113,0.11549422144889832,-2.0279650688171387,-0.8351482152938843,6.215634346008301
201,81120,81122,-0.0931042730808258,0.02050398662686348,0.9388341903686523,-34.76115798950195,-5.443003177642822,6.9053544998168945,1.0529472827911377,1.0319483280181885,0.11699414998292923,-2.205148696899414,-1.3317852020263672,6.306953430175781
202,81130,81132,-0.11591808497905731,-0.04154615476727486,0.8907510638237,-25.386816024780273,-2.0608253479003906,7.26137113571167,1.0349482297897339,1.0229488611221313,0.11699414998292923,-2.1632044315338135,-1.6020756959915161,6.398771286010742
203,81140,81142,-0.05223822221159935,-0.017391344532370567,0.9104620218276978,-10.737873077392578,-4.182841777801514,5.465373516082764,1.0379481315612793,1.0379481315612793,0.1319933980703354,-2.3188114166259766,-1.8338602781295776,6.504025459289551
204,81150,81152,0.038616765290498734,-0.04059489816427231,0.914689302444458,2.847332000732422,-4.929528713226318,4.90043830871582,1.0394480228424072,1.0304484367370605,0.1334933191537857,-2.1505799293518066,-2.052661657333374,6.510097026824951
205,81160,81162,-0.08537349849939346,0.010808666236698627,0.9765784740447998,13.863661766052246,-7.287506103515625,4.037874698638916,1.0604469776153564,1.0394480228424072,0.12449377030134201,-2.2549264430999756,-1.9682196378707886,6.608515739440918
206,81170,81172,-0.045558761805295944,0.0484369695186615,1.0191494226455688,18.664175033569336,-7.8737473487854,0.911577582359314,1.0289485454559326,1.0499475002288818,0.11699414998292923,-2.2524538040161133,-1.7233593463897705,6.701749324798584
207,81180,81182,-0.0016159573569893837,0.11625562608242035,0.790759801864624,14.68520736694336,-14.857934951782227,-1.546561360359192,1.0259486436843872,1.0499475002288818,0.12599369883537292,-2.218350887298584,-1.7711793184280396,6.650726795196533
208,81190,81192,-0.07730458676815033,0.07719460874795914,1.0327459573745728,4.6140875816345215,-21.252662658691406,-6.276174068450928,1.0454477071762085,1.0514473915100098,0.12149392068386078,-2.080949306488037,-1.45501708984375,6.696962833404541
209,81200,81202,-0.104391910135746,-0.06715960055589676,0.9758428335189819,-0.8947173357009888,-30.545549392700195,-12.089683532714844,1.0394480228424072,1.0394480228424072,0.12749361991882324,-1.7380218505859375,-1.364165186882019,6.623630046844482
210,81210,81212,0.03630848973989487,-0.005937059409916401,1.0459083318710327,-8.267190933227539,-41.1696891784668,-14.791833877563477,1.0409479141235352,1.0589470863342285,0.1229938492178917,-1.4588165283203125,-1.5221967697143555,6.465292930603027
211,81220,81222,-0.04367101937532425,-0.044669412076473236,1.0448956489562988,-9.111703872680664,-37.313663482666016,-18.192811965942383,1.0544472932815552,1.0454477071762085,0.12749361991882324,-1.4487149715423584,-1.774314045906067,6.353490829467773
212,81230,81232,-0.0032166216988116503,-0.031227434054017067,1.1687321662902832,1.7191118001937866,-19.68985939025879,-22.67874526977539,1.0439478158950806,1.0679465532302856,0.12599369883537292,-0.8437960743904114,-1.789246678352356,6.168532371520996
213,81240,81242,0.017727121710777283,-0.10454210638999939,0.9935168027877808,36.47178268432617,-8.113850593566895,-23.964794158935547,1.0469475984573364,1.0649467706680298,0.12899354100227356,-0.8453770279884338,-1.6452057361602783,6.0373053550720215
214,81250,81252,-0.07955917716026306,0.03394215926527977,1.1700044870376587,79.21652221679688,0.30944713950157166,-24.86141586303711,1.0229488611221313,1.0769461393356323,0.13799309730529785,-0.8499400019645691,-1.2088271379470825,5.849273681640625
215,81260,81262,-0.0955822542309761,-0.20726333558559418,1.0420159101486206,98.9429702758789,4.950462818145752,-25.40170669555664,1.033448338508606,1.057447075843811,0.13949301838874817,-0.8183097839355469,-0.5896355509757996,5.564201354980469
216,81270,81272,-0.09589492529630661,-0.06778492033481598,1.1077457666397095,89.72454071044922,8.89472484588623,-25.001123428344727,1.0349482297897339,1.0679465532302856,0.11999399960041046,-0.8154663443565369,0.6928027868270874,5.393404960632324
217,81280,81282,0.011339636519551277,-0.016178742051124573,0.9871578216552734,52.89865493774414,20.49327850341797,-25.422401428222656,1.0409479141235352,1.0649467706680298,0.12599369883537292,-1.0418150424957275,1.488485336303711,5.141303062438965
218,81290,81292,-0.04428291320800781,-0.07755976915359497,1.013506293296814,6.064028263092041,28.113950729370117,-21.640716552734375,1.0319483280181885,1.0649467706680298,0.13499325513839722,-1.3074142932891846,1.9880356788635254,4.89579439163208
219,81300,81302,-0.08409744501113892,0.045827362686395645,1.130810260772705,-38.31979751586914,15.95414924621582,-19.97076988220215,1.0214488506317139,1.072446346282959,0.13949301838874817,-1.7423944473266602,1.9861623048782349,4.669976234436035
220,81310,81312,-0.1484316885471344,-0.0018500935984775424,1.0745683908462524,-66.59335327148438,-16.088298797607422,-24.323015213012695,1.0274486541748047,1.0754462480545044,0.12749361991882324,-1.862465739250183,1.5011327266693115,4.430230140686035
221,81320,81322,0.02720070816576481,-0.10906475782394409,1.100792407989502,-69.6826400756836,-47.75625228881836,-24.186264038085938,1.019948959350586,1.0919454097747803,0.13799309730529785,-1.7304160594940186,1.0146054029464722,4.234664440155029
222,81330,81332,0.06928682327270508,-0.09654200822114944,1.1058608293533325,-47.44574737548828,-66.96886444091797,-21.924911499023438,1.0289485454559326,1.085945725440979,0.13499325513839722,-1.115199089050293,0.20022545754909515,3.965977191925049
223,81340,81342,0.07005763053894043,0.024149611592292786,1.0543034076690674,-17.7764949798584,-71.27445983886719,-19.914567947387695,1.0289485454559326,1.070946455001831,0.1319933980703354,-0.7876359224319458,-0.1587088257074356,3.768744945526123
224,81350,81352,-0.07350625842809677,0.19292055070400238,1.1866570711135864,10.42427921295166,-60.66060256958008,-18.31262969970703,1.0619468688964844,1.0619468688964844,0.13499325513839722,0.20696799457073212,-0.3381921648979187,3.5910303592681885
225,81360,81362,-0.01081716176122427,0.03852514922618866,1.1090091466903687,27.21355438232422,-37.51100540161133,-15.845227241516113,1.0394480228424072,1.0664466619491577,0.14549271762371063,0.4315478503704071,-0.07178118824958801,3.4337046146392822
226,81370,81372,-0.011086652986705303,-0.016210824251174927,1.0178868770599365,31.60974884033203,-11.249476432800293,-15.129603385925293,1.0454477071762085,1.072446346282959,0.1334933191537857,1.009553074836731,0.36036190390586853,3.3148305416107178
227,81380,81382,-0.0076992143876850605,0.018027905374765396,1.1341639757156372,24.295394897460938,8.412434577941895,-15.765242576599121,1.0439478158950806,1.0679465532302856,0.14399279654026031,0.944581151008606,0.5767907500267029,3.1394400596618652
228,81390,81392,0.0741313174366951,-0.09020210802555084,1.037551760673523,8.9149751663208,16.593379974365234,-16.97880744934082,1.048447608947754,1.072446346282959,0.13649317622184753,0.8028830289840698,0.8138220906257629,2.983396530151367
229,81400,81402,-0.008013785816729069,-0.10376300662755966,1.146365761756897,-6.737276554107666,12.397177696228027,-16.318450927734375,1.0499475002288818,1.0589470863342285,0.1319933980703354,0.6893526911735535,0.9411036372184753,2.8208279609680176
230,81410,81412,0.11150162667036057,-0.06629236042499542,1.0218559503555298,-17.1683406829834,-3.813791275024414,-15.153032302856445,1.0499475002288818,1.0589470863342285,0.1319933980703354,0.505824089050293,0.825924813747406,2.6509287357330322
231,81420,81422,-0.04109591990709305,-0.05914583429694176,1.183876872062683,-18.964750289916992,-22.639524459838867,-13.478475570678711,1.055947184562683,1.0679465532302856,0.13799309730529785,0.6023683547973633,0.7604828476905823,2.5133798122406006
232,81430,81432,0.08774204552173615,-0.1907791942358017,1.0811452865600586,-12.882951736450195,-36.7363395690918,-13.589133262634277,1.0379481315612793,1.0469475984573364,0.1319933980703354,0.7687776684761047,0.4610006511211395,2.3682496547698975
233,81440,81442,-0.021859006956219673,0.0006927301874384284,1.1853960752487183,-3.75752854347229,-41.30010223388672,-12.717437744140625,1.0634467601776123,1.0664466619491577,0.13649317622184753,1.0893681049346924,0.41353482007980347,2.228517770767212
234,81450,81452,-0.06063508987426758,0.03255810588598251,1.1515737771987915,3.3215625286102295,-36.01763916015625,-14.28808879852295,1.0544472932815552,1.0514473915100098,0.14249287545681,1.5402514934539795,0.3643761873245239,2.103541135787964
235,81460,81462,-0.039664220064878464,-0.02979457564651966,1.081453561782837,6.204129219055176,-24.884096145629883,-13.085602760314941,1.0634467601776123,1.048447608947754,0.1334933191537857,1.7573233842849731,0.42789900302886963,1.936585783958435
236,81470,81472,0.00029621110297739506,-0.0494755357503891,1.0550811290740967,3.165879011154175,-9.282549858093262,-11.729717254638672,1.0679465532302856,1.0439478158950806,0.12599369883537292,2.0608322620391846,0.5157956480979919,1.807026982307434
237,81480,81482,-0.017673969268798828,-0.0802067369222641,1.0716747045516968,-3.871272087097168,2.874603271484375,-11.258896827697754,1.072446346282959,1.048447608947754,0.12749361991882324,2.127220392227173,0.4832552373409271,1.6912527084350586
238,81490,81492,-0.2359924465417862,0.07440245151519775,1.0730030536651611,-9.628174781799316,6.68912410736084,-8.871610641479492,1.0769461393356323,1.0409479141235352,0.1319933980703354,2.1567084789276123,0.4872714877128601,1.5810030698776245
239,81500,81502,-0.10516446083784103,-0.018777847290039062,1.0221461057662964,-12.063480377197266,8.74696159362793,-9.333939552307129,1.0784460306167603,1.0544472932815552,0.13049347698688507,2.04384708404541,0.4665232300758362,1.468505620956421
240,81510,81512,-0.03837117552757263,-0.014674101956188679,1.046612024307251,-11.986481666564941,2.8422815799713135,-7.675356864929199,1.057447075843811,1.0454477071762085,0.13049347698688507,1.8268368244171143,0.27007344365119934,1.3779807090759277
241,81520,81522,-0.0279355738312006,0.10849258303642273,1.0517221689224243,-13.733868598937988,-8.557473182678223,-8.698981285095215,1.0634467601776123,1.042447805404663,0.13049347698688507,1.8550304174423218,0.3409167230129242,1.266544222831726
242,81530,81532,-0.11990471929311752,0.023146171122789383,1.0979945659637451,-15.442811012268066,-23.78635597229004,-8.010871887207031,1.0754462480545044,1.0364481210708618,0.14249287545681,1.9953440427780151,0.09219328314065933,1.2243291139602661
243,81540,81542,-0.005055077839642763,-0.10976074635982513,0.9986262917518616,-15.378714561462402,-37.57205581665039,-10.223029136657715,1.073946237564087,1.0259486436843872,0.1319933980703354,2.159954786300659,0.03671884164214134,1.113463044166565
244,81550,81552,0.1781308650970459,-0.09510992467403412,0.9478055238723755,-18.40106964111328,-55.43999099731445,-14.987898826599121,1.070946455001831,1.0439478158950806,0.13499325513839722,2.624195098876953,-0.2322881519794464,1.069844365119934
245,81560,81562,-0.05032356455922127,0.02626435086131096,1.031859278678894,-27.65859603881836,-69.6150894165039,-22.48642349243164,1.0679465532302856,1.0409479141235352,0.14999249577522278,3.1795458793640137,-0.28741776943206787,0.8920562863349915
246,81570,81572,-0.07929420471191406,0.04457877203822136,1.0726450681686401,-31.685951232910156,-62.9553108215332,-27.559940338134766,1.0799460411071777,1.0259486436843872,0.12899354100227356,3.965657949447632,-0.7493337988853455,0.772254228591919
247,81580,81582,-0.05444657430052757,-0.01498156227171421,0.9629589319229126,-27.114765167236328,-48.59053421020508,-28.665573120117188,1.0754462480545044,1.0304484367370605,0.1334933191537857,4.369612216949463,-0.8210299611091614,0.3900534212589264
248,81590,81592,-0.06392167508602142,-0.06537025421857834,0.8658283948898315,-16.490943908691406,-40.443416595458984,-25.944171905517578,1.0829458236694336,1.0409479141235352,0.14099295437335968,4.9806742668151855,-1.1705487966537476,0.17417356371879578
249,81600,81602,-0.020711880177259445,-0.06422769278287888,1.0930148363113403,-2.8721683025360107,-32.80001449584961,-25.06513214111328,1.1024448871612549,1.0394480228424072,0.14249287545681,5.31671667098999,-1.181774377822876,-0.15570306777954102
250,81610,81612,-0.04442764073610306,-0.035805072635412216,1.0906230211257935,7.033002853393555,-10.159127235412598,-23.119874954223633,1.0994449853897095,1.033448338508606,0.14549271762371063,5.553527355194092,-1.1996515989303589,-0.40890005230903625
251,81620,81622,-0.10007714480161667,-0.01818733476102352,1.057743787765503,0.6051198840141296,22.886096954345703,-23.86058807373047,1.1054446697235107,1.0394480228424072,0.13949301838874817,5.474045276641846,-1.0830777883529663,-0.6652555465698242
252,81630,81632,-0.12368577718734741,-0.06798601150512695,0.9795740246772766,3.7716450691223145,43.53273391723633,-26.767099380493164,1.1069446802139282,1.0409479141235352,0.14099295437335968,5.298993110656738,-1.0616838932037354,-0.899364173412323
253,81640,81642,-0.011944704689085484,-0.09622876346111298,1.1366170644760132,23.628366470336914,42.049827575683594,-29.38731575012207,1.1024448871612549,1.048447608947754,0.14549271762371063,5.1177287101745605,-0.9527456164360046,-1.2005735635757446
254,81650,81652,-0.1326385736465454,0.0629255622625351,1.0078638792037964,43.230438232421875,30.303163528442383,-28.650894165039062,1.0994449853897095,1.048447608947754,0.13049347698688507,4.541354656219482,-0.5139428973197937,-1.632534384727478
255,81660,81662,-0.32791274785995483,0.030416207388043404,1.1259970664978027,51.413116455078125,32.54003143310547,-26.68878746032715,1.0784460306167603,1.0394480228424072,0.13949301838874817,4.463141441345215,-0.23445981740951538,-1.8015316724777222
256,81670,81672,-0.1435384750366211,-0.013101099990308285,1.0211052894592285,53.096717834472656,29.261167526245117,-25.543058395385742,1.087445616722107,1.0394480228424072,0.14549271762371063,4.161167144775391,0.33176496624946594,-2.0965235233306885
257,81680,81682,-0.06109851226210594,-0.04608120024204254,0.9064615964889526,51.737892150878906,32.08695983886719,-26.27182960510254,1.0889455080032349,1.0319483280181885,0.14099295437335968,3.7949178218841553,0.7823549509048462,-2.2735989093780518
258,81690,81692,-0.07283823937177658,-0.015595617704093456,0.9218488931655884,40.27997589111328,39.11921310424805,-28.776206970214844,1.0769461393356323,1.0289485454559326,0.13499325513839722,3.567824363708496,1.4708497524261475,-2.643321990966797
259,81700,81702,-0.24846750497817993,-0.00045338593190535903,1.0517323017120361,14.149112701416016,46.96013259887695,-29.578571319580078,1.087445616722107,1.0244487524032593,0.13949301838874817,3.4989309310913086,1.7273149490356445,-2.7752583026885986
260,81710,81712,-0.09261060506105423,-0.08420176059007645,0.8699840903282166,-14.712418556213379,58.0275993347168,-29.31136703491211,1.087445616722107,1.0214488506317139,0.13049347698688507,2.723266363143921,1.9334646463394165,-3.096280336380005
261,81720,81722,0.13268877565860748,-0.13329431414604187,0.93921959400177,-42.774940490722656,66.30828857421875,-25.75598907470703,1.0769461393356323,1.0109494924545288,0.13499325513839722,2.409832239151001,1.670892596244812,-3.2223165035247803
262,81730,81732,-0.06744729727506638,-0.04949738457798958,0.937358021736145,-60.0904655456543,65.37039184570312,-24.21117401123047,1.072446346282959,1.0454477071762085,0.13649317622184753,1.5351945161819458,1.2302857637405396,-3.4672741889953613
263,81740,81742,-0.09077184647321701,0.010933521203696728,0.9397449493408203,-64.27783966064453,51.113948822021484,-20.332427978515625,1.0679465532302856,1.0469475984573364,0.1529923528432846,1.1294571161270142,0.6597459316253662,-3.662736654281616
264,81750,81752,-0.0040199039503932,-0.152767613530159,0.9637920260429382,-54.70832061767578,26.628698348999023,-14.96799087524414,1.0694465637207031,1.0544472932815552,0.13649317622184753,0.3822839856147766,-0.023547280579805374,-3.8787310123443604
265,81760,81762,0.000779123161919415,-0.1454525589942932,0.9543885588645935,-30.9575138092041,-0.6539254188537598,-11.704130172729492,1.0634467601776123,1.0514473915100098,0.13649317622184753,0.3242644965648651,-0.48213204741477966,-4.047922134399414
266,81770,81772,0.08301253616809845,0.02818594127893448,0.9288511872291565,-2.8366453647613525,-30.46723747253418,-4.203466892242432,1.0589470863342285,1.0499475002288818,0.14099295437335968,0.3533303737640381,-0.834546685218811,-4.1514716148376465
267,81780,81782,-0.21031348407268524,0.02414858154952526,0.8488205075263977,21.74725914001465,-45.67926025390625,0.6402836441993713,1.0529472827911377,1.0469475984573364,0.13499325513839722,0.48903077840805054,-0.8756750822067261,-4.229743480682373
268,81790,81792,-0.041282955557107925,-0.025115368887782097,0.8577490448951721,39.09587478637695,-40.965179443359375,5.101088047027588,1.0529472827911377,1.0439478158950806,0.12899354100227356,1.2083384990692139,-0.5882842540740967,-4.220592975616455
269,81800,81802,-0.01494571752846241,0.021438028663396835,0.9540091156959534,46.70431137084961,-23.14912986755371,7.720395565032959,1.0664466619491577,1.048447608947754,0.13949301838874817,1.6747562885284424,-0.03228125348687172,-4.234201431274414
270,81810,81812,-0.06885217875242233,-0.020062601193785667,0.8855703473091125,46.72053146362305,7.400827884674072,8.581794738769531,1.0634467601776123,1.0394480228424072,0.14249287545681,1.6885721683502197,0.2768063545227051,-4.130192756652832
271,81820,81822,-0.02980823628604412,-0.07149208337068558,0.7886154651641846,37.287742614746094,43.02565002441406,7.53159236907959,1.0664466619491577,1.0364481210708618,0.13949301838874817,1.8159098625183105,0.6373775005340576,-3.9867632389068604
272,81830,81832,-0.06050141155719757,-0.010609171353280544,0.8918465971946716,21.903587341308594,71.56873321533203,3.440387725830078,1.0649467706680298,1.0499475002288818,0.1319933980703354,1.1565637588500977,1.1258869171142578,-3.973283529281616
273,81840,81842,0.05002108961343765,-0.15557081997394562,0.7662484645843506,6.501463890075684,86.73687744140625,3.930959463119507,1.0379481315612793,1.0589470863342285,0.1319933980703354,0.6336717009544373,1.220570683479309,-3.851383924484253
274,81850,81852,0.11317437142133713,0.07438881695270538,0.8358087539672852,-12.182053565979004,86.40618133544922,3.4923675060272217,1.055947184562683,1.0679465532302856,0.13799309730529785,-0.5821565389633179,1.2273451089859009,-3.8221590518951416
275,81860,81862,-0.03691267594695091,-0.028111513704061508,0.8672532439231873,-21.410831451416016,67.90518188476562,4.185731410980225,1.0304484367370605,1.072446346282959,0.13949301838874817,-1.1115297079086304,1.0794037580490112,-3.706533908843994
276,81870,81872,0.12805162370204926,-0.03262074664235115,0.9792317152023315,-24.42628288269043,42.955108642578125,5.714279651641846,1.0289485454559326,1.0799460411071777,0.11699414998292923,-1.7933694124221802,0.868740975856781,-3.6510143280029297
277,81880,81882,0.030365506187081337,-0.0971154049038887,0.8435221314430237,-21.243350982666016,10.892570495605469,6.764416694641113,1.0244487524032593,1.072446346282959,0.11849407106637955,-2.1805801391601562,0.6874125003814697,-3.586256742477417
278,81890,81892,0.18213096261024475,0.06499677151441574,0.9612168073654175,-18.51854133605957,-11.104827880859375,9.165366172790527,1.0289485454559326,1.0619468688964844,0.13499325513839722,-2.221048355102539,0.4059899151325226,-3.4960784912109375
279,81900,81902,0.05965983867645264,0.27584633231163025,1.1386545896530151,-13.721534729003906,-29.09090232849121,9.001656532287598,1.019948959350586,1.0679465532302856,0.1319933980703354,-2.1153247356414795,0.17874504625797272,-3.3976781368255615
280,81910,81912,-0.07085194438695908,-0.08216854929924011,0.9120994210243225,-7.342190742492676,-36.37615203857422,9.661417961120605,1.0274486541748047,1.0784460306167603,0.1334933191537857,-1.9366897344589233,-0.02524789236485958,-3.3309545516967773
281,81920,81922,-0.062406040728092194,-0.14660902321338654,0.8834084272384644,-5.028321266174316,-28.14754295349121,9.637447357177734,1.0394480228424072,1.0664466619491577,0.13649317622184753,-1.6547073125839233,0.14228081703186035,-3.2304630279541016
282,81930,81932,0.06917378306388855,-0.04848842695355415,0.8959816098213196,-1.457716464996338,-15.608258247375488,10.278708457946777,1.033448338508606,1.0664466619491577,0.12449377030134201,-1.2135101556777954,0.05507605895400047,-3.117062568664551
283,81940,81942,0.05367378145456314,-0.07163231819868088,0.9129392504692078,-0.19529175758361816,0.9952981472015381,9.740111351013184,1.0499475002288818,1.0619468688964844,0.13499325513839722,-1.1341702938079834,0.017278600484132767,-3.029745101928711
284,81950,81952,0.009797069244086742,-0.19389523565769196,0.9429560303688049,-0.2633998990058899,15.7212553024292,10.682071685791016,1.0364481210708618,1.0814459323883057,0.12749361991882324,-1.1701949834823608,0.1521066427230835,-2.917511224746704
285,81960,81962,0.03517472371459007,-0.00298710516653955,1.0280978679656982,0.15708552300930023,22.6669864654541,11.791699409484863,1.0454477071762085,1.0754462480545044,0.12149392068386078,-1.3710136413574219,0.12948539853096008,-2.8225769996643066
286,81970,81972,-0.05023592710494995,0.0017357777105644345,1.0382782220840454,0.38683247566223145,25.14522933959961,12.88592529296875,1.0364481210708618,1.0664466619491577,0.14549271762371063,-1.7598602771759033,0.04026300832629204,-2.7448740005493164
287,81980,81982,-0.014705567620694637,-0.08499720692634583,0.993580162525177,-1.8316476345062256,17.38005828857422,11.04724407196045,1.0229488611221313,1.0769461393356323,0.13499325513839722,-2.019563674926758,0.02891816571354866,-2.6255319118499756
288,81990,81992,-0.13489198684692383,0.01780998334288597,0.9841415882110596,-2.5011188983917236,-0.385361909866333,12.225027084350586,1.042447805404663,1.0694465637207031,0.13649317622184753,-2.280907392501831,-0.008254346437752247,-2.5309698581695557
289,82000,82002,-0.18838904798030853,0.08014252781867981,1.105350136756897,-3.6941115856170654,-19.344791412353516,13.74855899810791,1.0319483280181885,1.085945725440979,0.12599369883537292,-2.178541898727417,-0.05863741785287857,-2.405020236968994
290,82010,82012,-0.0675116628408432,-0.032914645969867706,1.0996057987213135,-7.172814846038818,-33.94781494140625,13.739460945129395,1.0154491662979126,1.072446346282959,0.1334933191537857,-1.919215202331543,-0.11529229581356049,-2.2672855854034424
291,82020,82022,-0.06599508970975876,-0.051757846027612686,1.0550214052200317,-9.819371223449707,-41.89980697631836,13.18321418762207,1.018449068069458,1.0694465637207031,0.14549271762371063,-1.8415578603744507,-0.16684813797473907,-2.1527905464172363
292,82030,82032,-0.22250419855117798,0.06962744891643524,1.194993495941162,-13.210436820983887,-41.66261291503906,12.779146194458008,1.0229488611221313,1.0799460411071777,0.14999249577522278,-1.2778499126434326,-0.1961890459060669,-1.980517029762268
293,82040,82042,-0.07052797079086304,0.028682613745331764,1.1104320287704468,-14.448315620422363,-33.93203353881836,14.904836654663086,1.0304484367370605,1.0694465637207031,0.12149392068386078,-1.0137425661087036,-0.41854894161224365,-1.8979419469833374
294,82050,82052,-0.13860690593719482,0.04024903103709221,1.1335924863815308,-14.513129234313965,-13.307036399841309,13.173236846923828,1.0454477071762085,1.0784460306167603,0.1334933191537857,-0.7465643286705017,-0.5849501490592957,-1.7651891708374023
295,82060,82062,-0.06053398549556732,-0.08151652663946152,1.003429651260376,-5.718488693237305,11.453986167907715,11.958084106445312,1.0379481315612793,1.0769461393356323,0.13499325513839722,-0.5769068002700806,-0.595305860042572,-1.5849335193634033
296,82070,82072,0.05173063278198242,-0.13508020341396332,0.9723604321479797,9.871161460876465,31.45536231994629,8.250986099243164,1.0469475984573364,1.073946237564087,0.12899354100227356,-0.729036808013916,-0.6754097938537598,-1.473996877670288
297,82080,82082,0.02847076766192913,-0.001626580604352057,1.0391814708709717,25.67633056640625,31.52794075012207,8.707134246826172,1.0289485454559326,1.0769461393356323,0.1319933980703354,-1.0366520881652832,-0.5023725032806396,-1.3592393398284912
298,82090,82092,0.07341118901968002,-0.05943039059638977,1.1358318328857422,33.17805862426758,20.362991333007812,7.91372537612915,1.033448338508606,1.0694465637207031,0.12749361991882324,-1.3445508480072021,-0.10171407461166382,-1.2171190977096558
299,82100,82102,0.12391076982021332,-0.09183984249830246,1.1431858539581299,33.811614990234375,-5.414307594299316,9.710988998413086,1.0244487524032593,1.0844457149505615,0.12449377030134201,-1.4493472576141357,0.2010747790336609,-1.1391440629959106
300,82110,82112,0.08565845340490341,-0.05420145392417908,0.9679060578346252,20.972776412963867,-31.898277282714844,9.095189094543457,1.0364481210708618,1.0694465637207031,0.13049347698688507,-1.5081132650375366,0.49995705485343933,-1.0586165189743042
301,82120,82122,-0.06323055922985077,-0.13415022194385529,1.045097827911377,-2.3054661750793457,-50.97488021850586,12.054603576660156,1.042447805404663,1.0604469776153564,0.14249287545681,-1.2761738300323486,0.7278897762298584,-0.9729007482528687
302,82130,82132,-0.01803038828074932,-0.06979389488697052,1.0046136379241943,-31.430938720703125,-50.79851531982422,13.6953125,1.0499475002288818,1.0769461393356323,0.13499325513839722,-0.6081600189208984,0.5064411163330078,-0.9396165013313293
303,82140,82142,-0.17276406288146973,0.06774445623159409,1.1828012466430664,-63.343406677246094,-37.93878936767578,11.56147289276123,1.0379481315612793,1.0529472827911377,0.12899354100227356,-0.18081392347812653,0.3728322982788086,-0.7604752779006958
304,82150,82152,-0.04328768700361252,-0.048469264060258865,0.9734196662902832,-77.13885498046875,-27.100217819213867,12.06445026397705,1.048447608947754,1.048447608947754,0.14249287545681,0.2668910622596741,-0.624157726764679,-0.7697401642799377
305,82160,82162,-0.04338384419679642,-0.01496969722211361,1.0696380138397217,-69.58910369873047,-23.12720489501953,13.18853759765625,1.0394480228424072,1.0754462480545044,0.13949301838874817,0.4065762460231781,-1.07939612865448,-0.5627709031105042
306,82170,82172,-0.03864029794931412,0.053095150738954544,1.1338075399398804,-48.44865036010742,-22.962013244628906,11.30007266998291,1.0619468688964844,1.070946455001831,0.14699265360832214,0.6326476335525513,-1.8487478494644165,-0.4468892812728882
307,82180,82182,0.0974636971950531,-0.03155517578125,1.0677026510238647,-19.81110191345215,-21.841331481933594,10.83405590057373,1.042447805404663,1.0634467601776123,0.12749361991882324,0.7069191336631775,-2.3958675861358643,-0.33784350752830505
308,82190,82192,0.1464342325925827,-0.11221173405647278,1.211044192314148,10.972698211669922,-10.895216941833496,9.399175643920898,1.0694465637207031,1.0664466619491577,0.13649317622184753,1.103001594543457,-2.535752534866333,-0.20425400137901306
309,82200,82202,0.0038002654910087585,0.01446045283228159,1.1764596700668335,35.8431396484375,-3.4756195545196533,7.996299743652344,1.0619468688964844,1.0619468688964844,0.1319933980703354,1.1795802116394043,-2.4043796062469482,-0.09651981294155121
310,82210,82212,0.052655790001153946,0.08583274483680725,1.0862549543380737,47.03953170776367,-5.081624984741211,5.84526252746582,1.0664466619491577,1.0604469776153564,0.1334933191537857,1.2896738052368164,-1.8799821138381958,0.01042584516108036
311,82220,82222,-0.017869608476758003,-0.0462120920419693,1.0753182172775269,49.97505187988281,-13.691423416137695,1.5898302793502808,1.0679465532302856,1.0589470863342285,0.14099295437335968,1.2156305313110352,-1.4804133176803589,0.07704067975282669
312,82230,82232,-0.10275979340076447,-0.018438264727592468,1.1065943241119385,48.54965591430664,-20.004568099975586,1.458362102508545,1.0514473915100098,1.0604469776153564,0.1334933191537857,1.2865360975265503,-0.9635831713676453,0.10774014890193939
313,82240,82242,-0.09297596663236618,-0.003877134993672371,1.0936405658721924,32.33191680908203,-26.418611526489258,8.51606559753418,1.0604469776153564,1.0394480228424072,0.12449377030134201,1.673278570175171,-0.5460811257362366,0.10442506521940231
314,82250,82252,-0.04329610615968704,-7.199074843811104e-06,1.0257232189178467,12.756393432617188,-41.6666145324707,13.063339233398438,1.0784460306167603,1.0394480228424072,0.1334933191537857,1.882514476776123,-0.25102636218070984,0.18724891543388367
315,82260,82262,0.01564747653901577,-0.033483196049928665,0.8823227882385254,-1.3357592821121216,-51.63518524169922,15.457501411437988,1.0649467706680298,1.0289485454559326,0.1319933980703354,2.3253164291381836,-0.19532521069049835,0.30377480387687683
316,82270,82272,-0.15902438759803772,0.00978570431470871,0.8649280667304993,-17.532365798950195,-52.44199752807617,16.94325828552246,1.0664466619491577,1.048447608947754,0.13949301838874817,2.840877056121826,-0.29677051305770874,0.4591345191001892
317,82280,82282,-0.023146996274590492,-0.1489962637424469,1.0188082456588745,-40.21274185180664,-47.545074462890625,12.595293045043945,1.0844457149505615,1.018449068069458,0.1334933191537857,3.3647735118865967,-0.3941391408443451,0.6244264245033264
318,82290,82292,-0.08520813286304474,-0.009266071021556854,1.070267915725708,-46.96980285644531,-22.426782608032227,10.646567344665527,1.073946237564087,1.0379481315612793,0.14399279654026031,3.9159657955169678,-0.98642897605896,0.7764590978622437
319,82300,82302,-0.11876741051673889,-0.04384969547390938,0.9616841077804565,-41.130088806152344,13.190204620361328,5.3523359298706055,1.0964452028274536,1.0364481210708618,0.14849257469177246,3.917839527130127,-1.2210112810134888,0.8609979748725891
320,82310,82312,-0.03339448571205139,-0.055173564702272415,1.020729899406433,-35.21600341796875,57.83655548095703,2.283935546875,1.0754462480545044,1.048447608947754,0.14249287545681,3.732542037963867,-1.8107643127441406,0.9545797109603882
321,82320,82322,0.02548920176923275,-0.2220163196325302,1.014949083328247,-20.533151626586914,95.38519287109375,2.0921995639801025,1.0664466619491577,1.0604469776153564,0.13649317622184753,3.2778162956237793,-1.9751014709472656,0.8938329219818115
322,82330,82332,-0.015017492696642876,-0.018786286935210228,1.0400792360305786,-7.832819938659668,99.56226348876953,0.7304956316947937,1.0664466619491577,1.0694465637207031,0.14249287545681,2.094921112060547,-2.254413366317749,0.9341448545455933
323,82340,82342,0.03917916491627693,-0.009284425526857376,1.0196956396102905,-4.203380584716797,89.3751449584961,-3.4672768115997314,1.0589470863342285,1.073946237564087,0.14699265360832214,1.3618935346603394,-2.347430467605591,0.8628398776054382
324,82350,82352,0.016919530928134918,0.014120638370513916,0.9786345958709717,2.718266725540161,64.97454071044922,-5.47661018371582,1.0544472932815552,1.072446346282959,0.13649317622184753,0.1955956518650055,-2.367853879928589,0.8339992165565491
325,82360,82362,0.08670632541179657,-0.22147853672504425,0.8483034372329712,13.359862327575684,37.568145751953125,-7.441575527191162,1.0634467601776123,1.0544472932815552,0.13649317622184753,-0.007748170290142298,-2.273437738418579,0.6465457081794739
326,82370,82372,-0.05993514508008957,-0.0039740619249641895,0.9900838732719421,30.13102149963379,9.845063209533691,-7.432628154754639,1.0544472932815552,1.048447608947754,0.13049347698688507,-0.3970203399658203,-2.0625085830688477,0.548311173915863
327,82380,82382,0.039362408220767975,0.005995442625135183,0.9620837569236755,45.47803497314453,-9.186979293823242,-8.20583724975586,1.0664466619491577,1.033448338508606,0.13649317622184753,-0.5139163136482239,-1.8099385499954224,0.4820282459259033
328,82390,82392,0.029519472271203995,-0.08463573455810547,0.7982268929481506,60.26176071166992,-19.654212951660156,-5.799239635467529,1.0499475002288818,1.0439478158950806,0.12599369883537292,-0.33297625184059143,-1.3558306694030762,0.38662251830101013
329,82400,82402,-0.08388953655958176,0.01151544414460659,0.9670169949531555,64.40727233886719,-19.606361389160156,-4.483476161956787,1.057447075843811,1.042447805404663,0.14549271762371063,-0.08829585462808609,-0.826657772064209,0.32730138301849365
330,82410,82412,-0.060813579708337784,-0.029101943597197533,0.9026363492012024,61.48197555541992,-12.348520278930664,-4.194419860839844,1.0679465532302856,1.0469475984573364,0.1319933980703354,0.19967781007289886,-0.16807551681995392,0.262091726064682
331,82420,82422,-0.023554351180791855,-0.003979438450187445,0.9337630271911621,56.29115295410156,-2.6002614498138428,-6.655756950378418,1.0589470863342285,1.0229488611221313,0.12599369883537292,0.21019770205020905,0.36639997363090515,0.24949684739112854
332,82430,82432,0.00970152486115694,-0.08696826547384262,0.8481572866439819,40.75404739379883,9.92149829864502,-12.32971477508545,1.0679465532302856,1.0289485454559326,0.13499325513839722,0.1263105273246765,0.927101731300354,0.20014283061027527
333,82440,82442,-0.05936925485730171,-0.053413793444633484,0.8884551525115967,23.673908233642578,14.454364776611328,-14.740620613098145,1.0694465637207031,1.042447805404663,0.13649317622184753,0.02205081284046173,1.3215194940567017,0.08866190165281296
334,82450,82452,-0.01679563894867897,-0.07920418679714203,0.8832149505615234,4.410365104675293,18.490074157714844,-17.26030158996582,1.055947184562683,1.0349482297897339,0.12899354100227356,-0.2352508306503296,1.6216495037078857,-0.04270385950803757
335,82460,82462,-0.07222295552492142,-0.016577020287513733,0.952625036239624,-6.727687835693359,15.476543426513672,-16.90633773803711,1.048447608947754,1.042447805404663,0.11849407106637955,-0.2456790655851364,1.6282398700714111,-0.2183648645877838
336,82470,82472,-0.12589839100837708,0.07630127668380737,1.0151251554489136,-9.32576847076416,2.3995299339294434,-15.99189281463623,1.0454477071762085,1.0364481210708618,0.13649317622184753,-0.41713255643844604,1.4678080081939697,-0.38357874751091003
337,82480,82482,-0.14394181966781616,0.17537109553813934,1.0867239236831665,-7.721653461456299,-7.582860946655273,-13.88316822052002,1.0439478158950806,1.0379481315612793,0.14099295437335968,-0.45250892639160156,1.4329057931900024,-0.539555013179779
338,82490,82492,0.02329176291823387,-0.014717414043843746,1.0372651815414429,-2.747638702392578,-7.185230731964111,-12.945100784301758,1.0469475984573364,1.0469475984573364,0.1319933980703354,-0.347260445356369,1.2972743511199951,-0.6808326244354248
339,82500,82502,0.18435807526111603,0.01947157084941864,1.036194086074829,2.5992350578308105,-8.173881530761719,-10.44107723236084,1.0469475984573364,1.0439478158950806,0.14399279654026031,-0.23241454362869263,1.2905406951904297,-0.8080456852912903
340,82510,82512,0.06212782487273216,-0.14581066370010376,0.8741039037704468,8.462340354919434,-10.108673095703125,-9.663481712341309,1.048447608947754,1.0454477071762085,0.12449377030134201,-0.08840889483690262,1.3853965997695923,-0.9110193252563477
341,82520,82522,0.031953562051057816,-0.05725357308983803,0.9842186570167542,7.316617965698242,-1.196459174156189,-8.198698043823242,1.0454477071762085,1.0304484367370605,0.13049347698688507,-0.038682665675878525,1.4773865938186646,-1.0148249864578247
342,82530,82532,-0.06881748139858246,0.024658169597387314,1.05182683467865,0.7604411244392395,14.449080467224121,-8.666862487792969,1.048447608947754,1.0304484367370605,0.12749361991882324,-0.20701122283935547,1.3982559442520142,-1.1250579357147217
343,82540,82542,-0.08401459455490112,0.07343418896198273,1.0748599767684937,-4.88740348815918,30.44267463684082,-7.021442413330078,1.0439478158950806,1.0409479141235352,0.12899354100227356,-0.41166481375694275,1.4265397787094116,-1.214111089706421
344,82550,82552,-0.10030694305896759,0.01387284230440855,1.071427345275879,-1.0433984994888306,27.552366256713867,-4.573179244995117,1.0319483280181885,1.0589470863342285,0.12599369883537292,-0.7695220708847046,1.3825466632843018,-1.2875785827636719
345,82560,82562,-0.09214828163385391,-0.019085709005594254,1.0474348068237305,5.791916370391846,11.528786659240723,-4.420255184173584,1.048447608947754,1.048447608947754,0.12449377030134201,-0.9615437388420105,1.3389544486999512,-1.3209410905838013
346,82570,82572,-0.011940179392695427,0.14241446554660797,1.1522451639175415,1.5956846475601196,1.2277098894119263,-1.306412696838379,1.048447608947754,1.0394480228424072,0.1334933191537857,-0.9875515699386597,1.4537389278411865,-1.337957501411438
347,82580,82582,-0.06036281958222389,-0.1104508712887764,0.9510148167610168,-2.926572799682617,-21.905004501342773,2.7955093383789062,1.048447608947754,1.0544472932815552,0.11849407106637955,-0.899426281452179,1.5659230947494507,-1.3202332258224487
348,82590,82592,-0.15538020431995392,-0.11767490208148956,1.0557525157928467,-11.633893013000488,-38.350250244140625,1.6822936534881592,1.0469475984573364,1.0469475984573364,0.1229938492178917,-0.7586580514907837,1.37881338596344,-1.3313417434692383
349,82600,82602,-0.04996926337480545,-0.03923512622714043,1.1122937202453613,-21.769317626953125,-51.33411407470703,4.573250770568848,1.055947184562683,1.0409479141235352,0.13799309730529785,-0.47270017862319946,1.281320571899414,-1.3357185125350952
350,82610,82612,0.04591413959860802,0.02877572923898697,1.0544582605361938,-34.45789337158203,-51.59958267211914,3.8842625617980957,1.0679465532302856,1.0259486436843872,0.12599369883537292,0.22641342878341675,1.005400538444519,-1.2656217813491821
351,82620,82622,-0.06541173160076141,-0.037283871322870255,1.1402497291564941,-46.205345153808594,-38.75481414794922,0.0770031213760376,1.0514473915100098,1.0394480228424072,0.1334933191537857,0.4039137065410614,0.8192918300628662,-1.2980878353118896
352,82630,82632,-0.06582380086183548,-0.013605671003460884,1.1650934219360352,-55.06113052368164,-35.2180290222168,1.8500903844833374,1.057447075843811,1.048447608947754,0.13949301838874817,0.908134937286377,0.29269614815711975,-1.2858117818832397
353,82640,82642,-0.07971353083848953,-0.013983326964080334,1.1841639280319214,-61.18050003051758,-41.38184356689453,2.169064521789551,1.0604469776153564,1.0454477071762085,0.13049347698688507,1.3635530471801758,-0.10823158919811249,-1.2298686504364014
354,82650,82652,-0.19781909883022308,-0.0924462229013443,1.0220280885696411,-46.50192642211914,-30.367698669433594,-3.1606884002685547,1.0589470863342285,1.0319483280181885,0.14099295437335968,1.8064810037612915,-0.7971609234809875,-1.205317497253418
355,82660,82662,0.003301924094557762,-0.0923350527882576,1.0672897100448608,-8.729806900024414,-7.117466926574707,0.9419878721237183,1.0619468688964844,1.0409479141235352,0.13499325513839722,2.1207473278045654,-1.2822757959365845,-1.2226600646972656
356,82670,82672,0.12479901313781738,-0.11211180686950684,1.143320918083191,41.46887969970703,20.76960563659668,5.310415744781494,1.073946237564087,1.0529472827911377,0.14999249577522278,2.196690320968628,-1.2312833070755005,-1.2167160511016846
357,82680,82682,-0.10150523483753204,0.07162431627511978,1.1738206148147583,78.1170425415039,39.01765441894531,7.061172962188721,1.070946455001831,1.0529472827911377,0.14999249577522278,1.98326575756073,-0.9480629563331604,-1.1762341260910034
358,82690,82692,0.0038496998604387045,-0.010733074508607388,1.0043118000030518,86.40514373779297,60.33417510986328,8.23175048828125,1.0664466619491577,1.0604469776153564,0.14249287545681,1.4687771797180176,0.11568059772253036,-1.1392301321029663
359,82700,82702,-0.04496955871582031,0.0233655646443367,0.9636826515197754,66.4146728515625,63.24625778198242,8.995993614196777,1.0619468688964844,1.0619468688964844,0.14999249577522278,1.219406008720398,0.7026001214981079,-1.0138022899627686
360,82710,82712,-0.005149113480001688,0.0609300397336483,0.9762426614761353,48.86419677734375,58.310699462890625,16.844310760498047,1.0589470863342285,1.0379481315612793,0.1319933980703354,0.3837246596813202,1.4975306987762451,-0.9342085719108582
361,82720,82722,-0.039815180003643036,0.03960863873362541,0.9500833749771118,34.233604431152344,40.5882568359375,25.60385513305664,1.057447075843811,1.0394480228424072,0.13949301838874817,0.01601693034172058,1.865471601486206,-0.7343684434890747
362,82730,82732,-0.09101045876741409,-0.2022905796766281,0.7754099369049072,3.2879204750061035,17.12070083618164,35.97879409790039,1.0679465532302856,1.019948959350586,0.1319933980703354,-0.5078081488609314,2.2558579444885254,-0.49370482563972473
363,82740,82742,-0.12404797226190567,-0.05149504542350769,0.8978847861289978,-38.82175827026367,-12.450590133666992,41.88288116455078,1.0604469776153564,1.0094494819641113,0.12149392068386078,-0.7679705619812012,2.2028677463531494,-0.15045733749866486
364,82750,82752,-0.08405685424804688,0.13272808492183685,1.0900437831878662,-73.44468688964844,-30.84611701965332,47.317604064941406,1.0589470863342285,1.01694917678833,0.12899354100227356,-0.4213355779647827,1.7106871604919434,0.30277037620544434
365,82760,82762,-0.012738880701363087,0.011404118500649929,0.9701591730117798,-99.2061538696289,-43.78830337524414,48.22271728515625,1.070946455001831,1.0289485454559326,0.1319933980703354,-0.07346522063016891,1.0779887437820435,0.7693231701850891
366,82770,82772,-0.13675937056541443,0.20929251611232758,1.0933325290679932,-97.81889343261719,-34.066036224365234,48.02793502807617,1.0379481315612793,1.0229488611221313,0.14099295437335968,0.382487416267395,-0.14971917867660522,1.2453397512435913
367,82780,82782,-0.07847250998020172,0.0542481355369091,1.0329722166061401,-78.55012512207031,-7.814187526702881,49.45326614379883,1.0514473915100098,1.0274486541748047,0.13649317622184753,0.6525104641914368,-0.8560858368873596,1.7162485122680664
368,82790,82792,0.02349010854959488,0.0039045873563736677,1.1404545307159424,-41.55812072753906,6.107601642608643,48.1782112121582,1.0694465637207031,1.033448338508606,0.13649317622184753,0.8126638531684875,-1.654685616493225,2.222038984298706
369,82800,82802,0.04859311878681183,0.09345865249633789,1.117293357849121,-6.416976451873779,4.150859832763672,42.158416748046875,1.070946455001831,1.019948959350586,0.1229938492178917,0.6875640749931335,-2.1559245586395264,2.6885268688201904
370,82810,82812,0.19696864485740662,-0.04760536924004555,0.8410173058509827,20.26055145263672,-3.4632129669189453,33.40642547607422,1.0634467601776123,1.0304484367370605,0.13649317622184753,0.5694302916526794,-2.2375142574310303,3.107086181640625
371,82820,82822,-0.1349058896303177,0.07853952795267105,0.9686988592147827,35.74123001098633,3.274871826171875,25.89246940612793,1.0784460306167603,1.0214488506317139,0.13049347698688507,0.5776105523109436,-2.09678053855896,3.4490058422088623
372,82830,82832,-0.13396061956882477,0.19293658435344696,1.0033257007598877,42.3965950012207,17.259523391723633,20.665456771850586,1.0754462480545044,1.0214488506317139,0.12449377030134201,0.7442139983177185,-1.4927926063537598,3.7136266231536865
373,82840,82842,-0.08273955434560776,0.17038936913013458,0.9313830137252808,39.19170379638672,25.256532669067383,15.406017303466797,1.0664466619491577,1.0124493837356567,0.13649317622184753,0.565345048904419,-1.2949917316436768,3.9299378395080566
374,82850,82852,0.1023315042257309,-0.04089907556772232,1.1883068084716797,35.526153564453125,38.33677291870117,8.708121299743652,1.0664466619491577,1.00344979763031,0.13049347698688507,0.2954118847846985,-0.9291126132011414,4.0774054527282715
375,82860,82862,-0.017538899555802345,-0.08440088480710983,0.9373388886451721,30.48279571533203,41.9718132019043,5.758062839508057,1.0664466619491577,1.0244487524032593,0.13949301838874817,-0.08598539233207703,-0.4658793807029724,4.161914825439453
376,82870,82872,0.07328692078590393,-0.08625419437885284,0.8574167490005493,25.213964462280273,40.48438262939453,2.5076982975006104,1.0514473915100098,1.0094494819641113,0.13649317622184753,-0.5466201901435852,-0.2384781539440155,4.2232208251953125
377,82880,82882,-0.04918219894170761,-0.030197210609912872,0.790214478969574,18.36573600769043,37.16193389892578,2.0830612182617188,1.0454477071762085,1.018449068069458,0.13049347698688507,-0.8312793374061584,-0.019469164311885834,4.241129398345947
378,82890,82892,-0.15362133085727692,0.04584595561027527,0.7429758906364441,12.018145561218262,23.534767150878906,1.9070378541946411,1.0439478158950806,1.0139492750167847,0.12899354100227356,-1.194976806640625,0.21454304456710815,4.265407085418701
379,82900,82902,-0.08023061603307724,0.21004335582256317,0.9682641625404358,5.415805816650391,21.90511131286621,2.78334641456604,1.0604469776153564,1.0214488506317139,0.12449377030134201,-1.380872130393982,0.419599324464798,4.290164470672607
380,82910,82912,-0.09883090853691101,0.027345379814505577,0.9845644235610962,4.909918308258057,10.522493362426758,0.7123033404350281,1.0409479141235352,1.019948959350586,0.12599369883537292,-1.5928168296813965,0.4025471806526184,4.306260585784912
381,82920,82922,0.09811270236968994,-0.10204485803842545,0.9235772490501404,2.256333112716675,3.659620761871338,0.12282858043909073,1.0379481315612793,1.0379481315612793,0.12599369883537292,-1.4873734712600708,0.224290668964386,4.281334400177002
382,82930,82932,0.129538431763649,-0.11780509352684021,1.0302000045776367,3.6487081050872803,-1.6058343648910522,-1.7216840982437134,1.0469475984573364,1.0109494924545288,0.11999399960041046,-1.5544847249984741,0.31463783979415894,4.292540550231934
383,82940,82942,0.06968269497156143,-0.11056693643331528,0.9381245374679565,5.726377487182617,1.632864236831665,-0.1596917062997818,1.0499475002288818,1.0259486436843872,0.1319933980703354,-1.569372534751892,0.42071953415870667,4.292298316955566
384,82950,82952,-0.0230234507471323,0.005882204510271549,0.9595664739608765,9.953526496887207,6.486199855804443,1.0711984634399414,1.0499475002288818,1.0319483280181885,0.1229938492178917,-1.5719834566116333,0.5620492100715637,4.304682731628418
385,82960,82962,-0.08883526921272278,-0.025830425322055817,0.8967418074607849,11.144294738769531,16.04857635498047,1.9685178995132446,1.0544472932815552,1.00344979763031,0.12449377030134201,-1.7458738088607788,0.5314738750457764,4.28818416595459
386,82970,82972,-0.06529039889574051,-0.1235867589712143,0.9981324672698975,13.932860374450684,19.283374786376953,1.508567452430725,1.057447075843811,1.0304484367370605,0.12749361991882324,-1.9763586521148682,0.6853007078170776,4.315089702606201
387,82980,82982,-0.13059496879577637,-0.16327404975891113,0.9354218244552612,10.777628898620605,22.49903106689453,2.593534469604492,1.0454477071762085,1.0274486541748047,0.12449377030134201,-2.146681070327759,0.8579484224319458,4.34443473815918
388,82990,82992,-0.009033081121742725,-0.04989355802536011,0.9362069964408875,7.031309604644775,18.95665740966797,0.9643656611442566,1.042447805404663,1.0304484367370605,0.1334933191537857,-2.4715075492858887,0.9790263772010803,4.372720718383789
389,83000,83002,-0.0356435663998127,0.035691894590854645,0.9219504594802856,-2.472696542739868,17.50101661682129,1.0244944095611572,1.0364481210708618,1.0394480228424072,0.11849407106637955,-2.5069596767425537,1.0251384973526,4.386535167694092
390,83010,83012,-0.02679617516696453,-0.011635548435151577,0.9526914954185486,-9.40524673461914,-1.136392593383789,0.6666345596313477,1.0469475984573364,1.0379481315612793,0.12899354100227356,-2.7251760959625244,0.9856685996055603,4.38688850402832
391,83020,83022,-0.12333431094884872,-0.006043033208698034,0.9360177516937256,-14.182184219360352,-10.94231128692627,-1.8540244102478027,1.0349482297897339,1.0409479141235352,0.11999399960041046,-2.704235792160034,0.835671067237854,4.369574069976807
392,83030,83032,0.003023948520421982,-0.07844927906990051,0.8798835277557373,-17.6822566986084,-18.168731689453125,0.6390781402587891,1.042447805404663,1.048447608947754,0.11849407106637955,-2.530334949493408,0.6132903099060059,4.33078670501709
393,83040,83042,-0.09794767200946808,-0.04994990676641464,0.9297033548355103,-16.31768035888672,-21.5150146484375,1.3090481758117676,1.0379481315612793,1.0469475984573364,0.12899354100227356,-2.4615297317504883,0.5770641565322876,4.378251552581787
394,83050,83052,-0.016292376443743706,0.024934476241469383,1.0315388441085815,-11.378449440002441,-23.806602478027344,1.432885766029358,1.0349482297897339,1.0469475984573364,0.12599369883537292,-2.1057703495025635,0.4219639301300049,4.404129981994629
395,83060,83062,-0.007498756051063538,0.04723970964550972,1.091785192489624,-6.773345470428467,-21.923463821411133,0.1970311999320984,1.0319483280181885,1.0439478158950806,0.13499325513839722,-1.9619083404541016,0.18693628907203674,4.356527805328369
396,83070,83072,-0.034736014902591705,-0.051043346524238586,1.0056124925613403,1.1774470806121826,-21.068513870239258,2.0867185592651367,1.0244487524032593,1.0544472932815552,0.12749361991882324,-1.6920018196105957,0.12601931393146515,4.363997459411621
397,83080,83082,-0.028279444202780724,0.029172591865062714,1.150870442390442,11.666692733764648,-23.747529983520508,3.560515880584717,1.0304484367370605,1.0544472932815552,0.12749361991882324,-1.484323263168335,0.2002645581960678,4.405462265014648
398,83090,83092,-0.05018075928092003,-0.018958356231451035,1.058713674545288,12.104362487792969,-19.869691848754883,1.9009569883346558,1.0259486436843872,1.0499475002288818,0.1229938492178917,-1.2536327838897705,0.26891353726387024,4.420091152191162
399,83100,83102,-0.05157283693552017,0.04760942608118057,1.1716521978378296,11.555334091186523,-6.362517356872559,2.3079848289489746,1.0394480228424072,1.0514473915100098,0.13949301838874817,-1.1940419673919678,0.3627581298351288,4.420904636383057
400,83110,83112,-0.09739169478416443,-0.0412951223552227,1.0417571067810059,9.667449951171875,9.963371276855469,-0.437896728515625,1.0214488506317139,1.0664466619491577,0.13049347698688507,-1.202549934387207,0.5045569539070129,4.44458532333374
401,83120,83122,-0.058820366859436035,0.02405800297856331,1.086871862411499,5.7161478996276855,19.75794219970703,-1.3262215852737427,1.0349482297897339,1.0619468688964844,0.1319933980703354,-1.4433684349060059,0.6091722249984741,4.439737319946289
402,83130,83132,-0.04026489704847336,-0.038270097225904465,1.0542936325073242,4.187902927398682,18.486513137817383,-2.5130438804626465,1.0289485454559326,1.0619468688964844,0.13499325513839722,-1.74285089969635,0.7350746393203735,4.44704008102417
403,83140,83142,-0.05088718980550766,0.054898861795663834,1.1706706285476685,2.8255701065063477,4.385071277618408,-2.793311834335327,1.0259486436843872,1.0529472827911377,0.12599369883537292,-1.9623883962631226,0.67258220911026,4.382373809814453
404,83150,83152,-0.036268118768930435,-0.05181903392076492,1.0234882831573486,9.67636775970459,-6.637195110321045,-4.348272323608398,1.0214488506317139,1.042447805404663,0.12449377030134201,-2.0312180519104004,0.6922752261161804,4.3451972007751465
405,83160,83162,0.0069521088153123856,0.011469007469713688,1.0884697437286377,15.486924171447754,-13.014634132385254,-7.550838470458984,1.0289485454559326,1.0499475002288818,0.1319933980703354,-1.8731223344802856,0.883232057094574,4.346462249755859
406,83170,83172,-0.04549695923924446,-0.04803192988038063,1.0502129793167114,14.151664733886719,-17.88654327392578,-10.06718921661377,1.0379481315612793,1.0439478158950806,0.1319933980703354,-1.6143507957458496,1.0786317586898804,4.299993515014648
407,83180,83182,-0.0678611695766449,-0.003066558390855789,1.0762431621551514,12.832266807556152,-20.502641677856445,-12.285416603088379,1.0454477071762085,1.0364481210708618,0.12749361991882324,-1.498356819152832,1.2592411041259766,4.205052375793457
408,83190,83192,-0.05453087389469147,-0.06189977377653122,1.0572158098220825,5.125790119171143,-30.15001106262207,-11.591264724731445,1.0409479141235352,1.0319483280181885,0.13499325513839722,-1.2336595058441162,1.4696587324142456,4.120418548583984
409,83200,83202,-0.08365313708782196,-0.033091768622398376,1.1909819841384888,0.6299865245819092,-44.4991569519043,-13.731473922729492,1.0409479141235352,1.0349482297897339,0.14399279654026031,-0.9521946907043457,1.3264470100402832,3.9183542728424072
410,83210,83212,-0.06040237471461296,-0.060256145894527435,1.0855028629302979,-2.655803918838501,-54.879150390625,-13.624432563781738,1.0469475984573364,1.0529472827911377,0.14099295437335968,-0.4717101752758026,1.2608367204666138,3.7526021003723145
411,83220,83222,-0.038613758981227875,-0.03168262168765068,1.1088441610336304,-9.022154808044434,-60.63027572631836,-11.039175033569336,1.0304484367370605,1.0274486541748047,0.12749361991882324,-0.09242051839828491,1.2961044311523438,3.600023031234741
412,83230,83232,-0.1361876130104065,-0.005562285427004099,1.2445749044418335,-9.526653289794922,-74.94454193115234,-11.165326118469238,1.0454477071762085,1.033448338508606,0.12749361991882324,0.7253647446632385,1.155634880065918,3.486293315887451
413,83240,83242,-0.11030055582523346,-0.06842692196369171,1.2218585014343262,0.2506275475025177,-81.37753295898438,-6.073845386505127,1.0589470863342285,1.055947184562683,0.13799309730529785,1.4336600303649902,1.1900973320007324,3.3865931034088135
414,83250,83252,-0.1461404711008072,-0.07009418308734894,1.2031631469726562,8.289170265197754,-66.62532806396484,-3.63798189163208,1.0844457149505615,1.042447805404663,0.13649317622184753,2.3261542320251465,1.2272645235061646,3.3316738605499268
415,83260,83262,-0.10545530170202255,-0.009059418924152851,1.2147748470306396,6.40126371383667,-46.810768127441406,-3.7901651859283447,1.0634467601776123,1.0274486541748047,0.13649317622184753,2.7624292373657227,1.2878774404525757,3.2360479831695557
416,83270,83272,-0.1255805492401123,-0.023236267268657684,1.1787151098251343,8.663013458251953,-23.25246238708496,-5.337072372436523,1.0754462480545044,1.0274486541748047,0.13649317622184753,3.4809298515319824,1.5131328105926514,3.2362921237945557
417,83280,83282,-0.14210651814937592,0.017442896962165833,1.2516810894012451,20.788684844970703,-6.598479747772217,-8.643799781799316,1.0829458236694336,1.0349482297897339,0.14399279654026031,3.4848852157592773,1.5356253385543823,3.1361000537872314
418,83290,83292,-0.08494256436824799,-0.1109611839056015,1.1564143896102905,23.478424072265625,18.717716217041016,-5.099724292755127,1.0844457149505615,1.0214488506317139,0.13649317622184753,3.5390894412994385,1.745019793510437,3.0559747219085693
419,83300,83302,-0.12180785834789276,-0.06964151561260223,1.09988272190094,12.27944564819336,39.54834747314453,-4.57548189163208,1.0889455080032349,1.019948959350586,0.15599219501018524,3.3296477794647217,1.9559030532836914,3.009864091873169
420,83310,83312,-0.13611139357089996,-0.0040858895517885685,1.138903260231018,-7.008512020111084,44.67271423339844,-5.23072624206543,1.0949451923370361,0.9989500045776367,0.13799309730529785,3.098404884338379,2.097226142883301,3.0103986263275146
421,83320,83322,-0.07467029243707657,-0.019237715750932693,1.087826132774353,-21.843687057495117,39.40604019165039,-5.518815517425537,1.0784460306167603,1.0094494819641113,0.13649317622184753,2.5460126399993896,1.92953622341156,2.976531505584717
422,83330,83332,-0.1099957749247551,0.10216546803712845,1.033431887626648,-35.26609420776367,41.64132308959961,-6.5526442527771,1.072446346282959,1.00344979763031,0.13949301838874817,2.2417330741882324,1.671836256980896,2.9709646701812744
423,83340,83342,-0.11019707471132278,-0.02428276464343071,0.9063107967376709,-48.65473175048828,38.06491470336914,-4.134124755859375,1.0769461393356323,1.019948959350586,0.14099295437335968,1.9107643365859985,1.3252755403518677,2.9378418922424316
424,83350,83352,-0.11804211139678955,-0.006408571265637875,0.9547263979911804,-43.6692008972168,38.90946960449219,1.9875022172927856,1.0919454097747803,1.0019499063491821,0.13499325513839722,1.6054261922836304,0.9525100588798523,2.8909552097320557
425,83360,83362,-0.04067826271057129,-0.1785443276166916,0.9943717122077942,-26.26120376586914,27.99249839782715,6.354861259460449,1.0679465532302856,0.9989500045776367,0.13799309730529785,1.138136863708496,0.5454268455505371,2.885073184967041
426,83370,83372,-0.028853442519903183,-0.021564476191997528,1.0738104581832886,-4.895297050476074,10.993980407714844,10.627391815185547,1.0769461393356323,1.0079495906829834,0.1319933980703354,1.149943470954895,0.42668232321739197,2.9630448818206787
427,83380,83382,0.00658800033852458,-0.03693340718746185,1.0535712242126465,9.512330055236816,8.667880058288574,19.302034378051758,1.073946237564087,1.0079495906829834,0.1319933980703354,0.9527033567428589,0.29824304580688477,3.078106641769409
428,83390,83392,0.10149354487657547,0.06896448880434036,1.0897690057754517,16.381305694580078,2.0787878036499023,26.357288360595703,1.0799460411071777,0.9929503202438354,0.13799309730529785,0.9177960753440857,0.4488615393638611,3.2554640769958496
429,83400,83402,0.05400857329368591,0.036278627812862396,0.9362314343452454,12.918204307556152,23.133087158203125,32.83155822753906,1.073946237564087,0.9929503202438354,0.12899354100227356,0.9030202031135559,0.6059449315071106,3.517338991165161
430,83410,83412,0.027229176834225655,0.1309438943862915,0.981365978717804,7.374460697174072,39.42337417602539,33.138877868652344,1.0754462480545044,0.9824508428573608,0.12449377030134201,0.9171738624572754,0.6541246175765991,3.9050333499908447
431,83420,83422,-0.023863211274147034,0.1059996485710144,0.932798445224762,-15.008121490478516,59.170494079589844,32.79631805419922,1.1009448766708374,0.9779511094093323,0.11099445074796677,0.5359244346618652,0.6889827847480774,4.248988151550293
432,83430,83432,0.11049741506576538,-0.09807106852531433,0.8752968907356262,-46.22981643676758,64.36428833007812,28.48162841796875,1.0784460306167603,0.9884505867958069,0.12449377030134201,-0.01648060791194439,0.4217049777507782,4.6082658767700195
433,83440,83442,-0.01107907947152853,-0.0580182746052742,0.8029310703277588,-66.22602844238281,58.34819793701172,27.305957794189453,1.0784460306167603,0.9914504289627075,0.12449377030134201,-0.5747534036636353,0.09892787784337997,4.868572235107422
434,83450,83452,-0.06033152714371681,0.007009430788457394,0.8392839431762695,-73.05474853515625,48.779666900634766,30.7872314453125,1.0679465532302856,1.01694917678833,0.12899354100227356,-1.0729074478149414,-0.8131399154663086,5.2096381187438965
435,83460,83462,-0.08486136049032211,0.05406671389937401,0.927061915397644,-63.0940055847168,34.09471893310547,31.999675750732422,1.0544472932815552,1.0154491662979126,0.12749361991882324,-1.2780044078826904,-1.4856215715408325,5.5260467529296875
436,83470,83472,-0.03321350738406181,0.027823567390441895,0.9333674311637878,-32.67599868774414,21.96143913269043,33.2352409362793,1.073946237564087,1.004949688911438,0.11999399960041046,-1.8944696187973022,-2.1708455085754395,5.827498435974121
437,83480,83482,-0.009500647895038128,-0.029739396646618843,0.8608903884887695,-1.0253775119781494,19.51633071899414,32.72453308105469,1.0379481315612793,1.0139492750167847,0.1319933980703354,-1.9915944337844849,-2.4470252990722656,6.144190311431885
438,83490,83492,-0.032719552516937256,0.015486080199480057,0.8821479082107544,29.23705291748047,19.43036460876465,31.828086853027344,1.057447075843811,1.0274486541748047,0.10949452221393585,-2.1932661533355713,-2.360290050506592,6.457610607147217
439,83500,83502,-0.04148244112730026,-0.023785386234521866,0.9243033528327942,51.81460189819336,19.701133728027344,31.050634384155273,1.0499475002288818,1.019948959350586,0.12899354100227356,-2.4018993377685547,-1.8910582065582275,6.7628045082092285
440,83510,83512,-0.06765323132276535,-0.04118895158171654,0.9757015705108643,67.45243835449219,22.54574966430664,30.456302642822266,1.0544472932815552,1.0094494819641113,0.13649317622184753,-2.3948488235473633,-1.2852660417556763,7.04459810256958
441,83520,83522,-0.06548609584569931,0.00044679289567284286,0.9220196604728699,77.07423400878906,16.804466247558594,29.804431915283203,1.0499475002288818,1.01694917678833,0.13499325513839722,-2.5433034896850586,-0.7913670539855957,7.325430393218994
442,83530,83532,-0.02012123167514801,-0.030173808336257935,0.8532190918922424,79.57952117919922,12.911887168884277,24.91922950744629,1.057447075843811,1.0214488506317139,0.11849407106637955,-2.6992061138153076,0.05855121463537216,7.625551700592041
443,83540,83542,0.032859474420547485,-0.10303140431642532,0.8499823212623596,69.96275329589844,8.413997650146484,22.268739700317383,1.057447075843811,1.00344979763031,0.11249437183141708,-2.8387646675109863,0.6283023357391357,7.848592758178711
444,83550,83552,0.05643152818083763,-0.11890409886837006,0.7253805994987488,44.789302825927734,2.7675981521606445,20.801895141601562,1.0439478158950806,1.0079495906829834,0.14099295437335968,-3.0558674335479736,1.4945547580718994,8.128785133361816
445,83560,83562,-0.05089525878429413,-0.014537201263010502,0.7826082706451416,10.644428253173828,3.7544522285461426,16.353256225585938,1.0394480228424072,0.9914504289627075,0.12749361991882324,-2.935378313064575,1.8412686586380005,8.292737007141113
446,83570,83572,-0.04433806985616684,-0.05159313231706619,0.8360001444816589,-21.08965492248535,5.207892417907715,13.477783203125,1.0454477071762085,0.9914504289627075,0.12449377030134201,-3.012638568878174,1.8637828826904297,8.439228057861328
447,83580,83582,-0.04571877792477608,-0.042804915457963943,0.8824487924575806,-45.701072692871094,9.331921577453613,12.408809661865234,1.0394480228424072,0.9914504289627075,0.12149392068386078,-3.1073319911956787,1.6171225309371948,8.564766883850098
448,83590,83592,-0.04341564700007439,-0.021322259679436684,0.9348599314689636,-60.04908752441406,11.616608619689941,13.770612716674805,1.0469475984573364,1.0229488611221313,0.11699414998292923,-3.3148627281188965,0.9995095729827881,8.636207580566406
449,83600,83602,-0.03270047903060913,-0.03597356751561165,0.922897219657898,-64.32048797607422,15.483601570129395,13.947738647460938,1.0379481315612793,1.0109494924545288,0.1319933980703354,-3.3649678230285645,0.5266097187995911,8.813549041748047
450,83610,83612,-0.034457121044397354,-0.019210565835237503,0.9475451111793518,-51.1348991394043,13.232853889465332,15.63239860534668,1.019948959350586,1.01694917678833,0.1229938492178917,-3.4524319171905518,-0.11870027333498001,8.94654655456543
451,83620,83622,0.005862729158252478,-0.009226120077073574,0.9682949781417847,-29.46160888671875,8.546247482299805,15.04522705078125,1.0364481210708618,1.0274486541748047,0.11549422144889832,-3.646702766418457,-0.5339556932449341,9.139220237731934
452,83630,83632,-0.0032694132532924414,-0.0061535919085145,1.0088953971862793,-1.5449841022491455,5.123408317565918,13.644192695617676,1.0319483280181885,1.0289485454559326,0.11999399960041046,-3.824993133544922,-0.7807928919792175,9.302434921264648
453,83640,83642,-0.0804707482457161,-0.021636327728629112,1.0543795824050903,21.248537063598633,7.320154666900635,12.806084632873535,1.0259486436843872,1.0349482297897339,0.11999399960041046,-3.803844451904297,-0.7312722206115723,9.4676513671875
454,83650,83652,-0.01239972934126854,0.03973059356212616,1.0611693859100342,38.55133819580078,-6.292298793792725,11.006948471069336,1.042447805404663,1.033448338508606,0.12449377030134201,-3.899526834487915,-0.39362484216690063,9.656733512878418
455,83660,83662,0.012369703501462936,0.010950683616101742,0.9086273312568665,38.211647033691406,-6.740434169769287,8.645306587219238,1.0319483280181885,1.0229488611221313,0.11999399960041046,-3.862628936767578,-0.0561867356300354,9.741912841796875
456,83670,83672,-0.011643130332231522,-0.007311898283660412,0.9472275376319885,32.794254302978516,-8.655223846435547,2.8588767051696777,1.0289485454559326,1.0229488611221313,0.12599369883537292,-3.7755866050720215,0.5017848610877991,9.913517951965332
457,83680,83682,-0.037053078413009644,-0.023823553696274757,0.9425330758094788,23.702699661254883,-15.296353340148926,0.4635809063911438,1.0259486436843872,1.0319483280181885,0.11699414998292923,-3.7117669582366943,0.4984486699104309,9.753990173339844
458,83690,83692,0.040598515421152115,-0.08941171318292618,0.8949322700500488,1.5034955739974976,-19.233491897583008,-1.567154884338379,1.033448338508606,1.0214488506317139,0.12449377030134201,-3.5907130241394043,0.7929638028144836,9.809791564941406
459,83700,83702,-0.16108912229537964,-0.0018526094499975443,0.8823558688163757,-18.401121139526367,-14.366776466369629,-4.006648063659668,1.042447805404663,1.0214488506317139,0.12149392068386078,-3.396688222885132,0.8248494267463684,9.806897163391113
460,83710,83712,-0.13768437504768372,0.21762007474899292,1.090478539466858,-27.990863800048828,-20.26703643798828,-6.273087024688721,1.033448338508606,1.0304484367370605,0.12749361991882324,-3.340275764465332,0.57163405418396,9.71751880645752
461,83720,83722,-0.06798648834228516,-0.052039772272109985,1.0119189023971558,-31.766475677490234,-17.63933753967285,-6.08362340927124,1.0289485454559326,1.0259486436843872,0.1229938492178917,-3.2979910373687744,0.46568548679351807,9.760744094848633
462,83730,83732,0.04244342818856239,-0.11203515529632568,1.2555181980133057,-21.854631423950195,-19.787982940673828,-9.574202537536621,1.0364481210708618,1.0274486541748047,0.11249437183141708,-2.948878288269043,0.11253983527421951,9.66197681427002
463,83740,83742,0.013691588304936886,-0.14010471105575562,1.0669821500778198,-8.586405754089355,-31.75809097290039,-8.332243919372559,1.0379481315612793,1.0409479141235352,0.12899354100227356,-2.8486011028289795,0.057649143040180206,9.673526763916016
464,83750,83752,0.06231365725398064,0.058617305010557175,0.9261811971664429,-3.0209054946899414,-36.575313568115234,-9.899707794189453,1.0379481315612793,1.0289485454559326,0.1319933980703354,-2.477569580078125,-0.12304478138685226,9.545869827270508
465,83760,83762,-0.08462242037057877,0.04246894642710686,1.0267486572265625,2.926468849182129,-30.472423553466797,-8.850597381591797,1.0514473915100098,1.0364481210708618,0.12449377030134201,-2.356332540512085,0.031153392046689987,9.566287994384766
466,83770,83772,-0.07733923941850662,0.028978431597352028,1.110074520111084,3.1542110443115234,-29.508235931396484,-9.298335075378418,1.0454477071762085,1.0274486541748047,0.11549422144889832,-1.8358170986175537,0.0372067354619503,9.463826179504395
467,83780,83782,-0.11971786618232727,0.10024193674325943,1.0241823196411133,2.6258883476257324,-28.310684204101562,-8.160460472106934,1.0364481210708618,1.0394480228424072,0.13649317622184753,-1.751917839050293,0.1270899623632431,9.406706809997559
468,83790,83792,-0.09897758811712265,0.1845388263463974,0.9187032580375671,-7.325693607330322,-24.204830169677734,-6.644239902496338,1.0349482297897339,1.0319483280181885,0.11999399960041046,-1.5375889539718628,0.039282191544771194,9.270002365112305
469,83800,83802,-0.06750643998384476,0.20292305946350098,1.012453556060791,-22.97178840637207,-29.027935028076172,-9.159900665283203,1.048447608947754,1.0364481210708618,0.12449377030134201,-1.3517612218856812,-0.0056276991963386536,9.212995529174805
470,83810,83812,-0.07309528440237045,0.11890969425439835,1.0552421808242798,-36.98219299316406,-32.05110549926758,-6.763822555541992,1.0544472932815552,1.0274486541748047,0.1334933191537857,-1.0100882053375244,-0.27336615324020386,9.100297927856445
471,83820,83822,-0.13609711825847626,0.15040987730026245,1.2186199426651,-45.156593322753906,-36.592376708984375,-5.753514289855957,1.048447608947754,1.0274486541748047,0.12449377030134201,-0.6370657682418823,-0.4061414301395416,9.128917694091797
472,83830,83832,-0.034107621759176254,0.05703460052609444,0.909126877784729,-46.357704162597656,-39.57517623901367,-3.163668394088745,1.055947184562683,1.0319483280181885,0.12899354100227356,-0.19472800195217133,-1.1743232011795044,8.944649696350098
473,83840,83842,-0.06694940477609634,0.20193281769752502,1.0193840265274048,-49.71355056762695,-27.642976760864258,-3.0368812084198,1.0619468688964844,1.0259486436843872,0.1319933980703354,0.18958450853824615,-1.6063003540039062,8.933152198791504
474,83850,83852,0.08339773863554001,0.11464683711528778,0.9492610692977905,-47.54819869995117,-14.316058158874512,-3.9813685417175293,1.0634467601776123,1.033448338508606,0.12149392068386078,0.2771308720111847,-2.1428613662719727,8.909300804138184
475,83860,83862,0.1910034865140915,0.01199634000658989,1.0772000551223755,-37.263423919677734,-5.786823272705078,-7.483211040496826,1.057447075843811,1.0544472932815552,0.1334933191537857,0.5150688886642456,-2.561870813369751,8.878217697143555
476,83870,83872,0.03673161566257477,-0.024197733029723167,1.0090582370758057,-18.34000587463379,-0.6091196537017822,-9.84857177734375,1.0439478158950806,1.0529472827911377,0.1319933980703354,0.6420859098434448,-2.847374200820923,8.817543983459473
477,83880,83882,0.08309902995824814,0.017139123752713203,0.9656164050102234,2.4237892627716064,-15.211883544921875,-13.95596981048584,1.057447075843811,1.057447075843811,0.13949301838874817,0.5753401517868042,-2.95991849899292,8.74271297454834
478,83890,83892,-0.1643841713666916,0.10939442366361618,0.951996386051178,16.021995544433594,-24.993988037109375,-19.876893997192383,1.0604469776153564,1.048447608947754,0.14249287545681,0.8530917763710022,-2.832860231399536,8.581537246704102
479,83900,83902,-0.16089454293251038,0.1382376253604889,1.040113091468811,29.135412216186523,-23.121845245361328,-23.039966583251953,1.0649467706680298,1.0529472827911377,0.14099295437335968,0.9416893124580383,-2.717029571533203,8.425167083740234
480,83910,83912,-0.04760768637061119,-0.039409104734659195,1.1317418813705444,38.00902557373047,-28.778688430786133,-28.2181396484375,1.0544472932815552,1.0514473915100098,0.1334933191537857,1.1811844110488892,-2.3137319087982178,8.216994285583496
481,83920,83922,-0.1281953901052475,0.005067786201834679,1.2432481050491333,45.675907135009766,-26.7759952545166,-31.760950088500977,1.0604469776153564,1.0514473915100098,0.13949301838874817,1.67592453956604,-1.9273029565811157,7.889054298400879
482,83930,83932,-0.08587381988763809,0.12713070213794708,1.1786813735961914,57.05836868286133,-21.454484939575195,-31.434892654418945,1.0619468688964844,1.055947184562683,0.13499325513839722,1.980795979499817,-1.4686275720596313,7.584665775299072
