,timestamp_start,timestamp_end,acc.x,acc.y,acc.z,gyro.x,gyro.y,gyro.z,mag.x,mag.y,mag.z,stabilizer.pitch,stabilizer.roll,stabilizer.yaw
0,26390,26392,-0.06999339163303375,0.012363159097731113,0.9250969290733337,14.658731460571289,-1.2251014709472656,-5.841369152069092,0.9104544520378113,-0.085495725274086,-0.2174891233444214,-0.9024679660797119,-0.7878755331039429,-1.6947970390319824
1,26400,26402,-0.032804619520902634,0.008157569915056229,0.899448037147522,1.3318110704421997,3.923825979232788,-5.880029201507568,0.90445476770401,-0.10049497336149216,-0.22648866474628448,-1.0406651496887207,-0.6665408611297607,-1.791337013244629
2,26410,26412,-0.1746116727590561,-0.0776664987206459,0.8407436013221741,-4.395035266876221,3.7939295768737793,-4.3499226570129395,0.9179540872573853,-0.09599519520998001,-0.24898754060268402,-1.1100430488586426,-0.7354817986488342,-1.8815441131591797
3,26420,26422,-0.19110596179962158,-0.026091109961271286,0.8819212913513184,-8.340635299682617,6.426233768463135,0.33263617753982544,0.9239537715911865,-0.10199490189552307,-0.2369881421327591,-1.1152653694152832,-0.8713839054107666,-1.9447360038757324
4,26430,26432,-0.09747584909200668,-0.007044669706374407,0.9294832944869995,-10.11750316619873,11.508003234863281,1.8473376035690308,0.9179540872573853,-0.10199490189552307,-0.23998799920082092,-1.4153133630752563,-0.929834246635437,-1.9847171306610107
5,26440,26442,-0.04273959621787071,0.009681007824838161,0.902422308921814,-9.936742782592773,17.63500213623047,3.184969186782837,0.9164541363716125,-0.12149392068386078,-0.24148792028427124,-1.3846619129180908,-1.1438335180282593,-1.9795674085617065
6,26450,26452,-0.08666370064020157,-0.019487444311380386,0.9427291750907898,-8.620698928833008,11.914727210998535,3.623002052307129,0.9224538803100586,-0.11249437183141708,-0.23548822104930878,-1.6456360816955566,-1.207321047782898,-1.9575897455215454
7,26460,26462,-0.09053831547498703,-0.012535822577774525,0.9230585098266602,-6.070745468139648,4.3998284339904785,3.359910488128662,0.9224538803100586,-0.11249437183141708,-0.24448777735233307,-1.7981915473937988,-1.2528074979782104,-1.916174054145813
8,26470,26472,-0.050736404955387115,-0.010463999584317207,0.9121918082237244,-12.885350227355957,-12.178672790527344,0.8683671355247498,0.9224538803100586,-0.11549422144889832,-0.24148792028427124,-1.7384285926818848,-1.554801344871521,-1.9389777183532715
9,26480,26482,-0.041735533624887466,0.05541215091943741,1.0250904560089111,-17.676904678344727,-36.154727935791016,-1.519063949584961,0.9209539294242859,-0.11699414998292923,-0.2369881421327591,-1.5293450355529785,-1.7279164791107178,-1.9285944700241089
10,26490,26492,-0.06319750100374222,0.022231128066778183,1.0028407573699951,-15.760725975036621,-54.1359977722168,-7.322380542755127,0.9449527263641357,-0.11999399960041046,-0.24298784136772156,-0.9698870182037354,-1.8854385614395142,-1.9099361896514893
11,26500,26502,-0.07475464791059494,0.06480095535516739,1.0546557903289795,-11.153501510620117,-59.83353042602539,-10.456047058105469,0.9449527263641357,-0.14099295437335968,-0.24898754060268402,-0.8813591599464417,-1.8210103511810303,-1.9359698295593262
12,26510,26512,-0.09646309912204742,0.011195347644388676,1.042656660079956,1.0216655731201172,-43.14686965942383,-13.27562427520752,0.9404529333114624,-0.14549271762371063,-0.2594870328903198,-0.23683732748031616,-1.8778780698776245,-2.001321792602539
13,26520,26522,-0.09557695686817169,-0.030208148062229156,1.006917953491211,15.93044662475586,-15.477745056152344,-13.524704933166504,0.9314534068107605,-0.10649467259645462,-0.24448777735233307,0.04669814929366112,-1.8589142560958862,-2.125162124633789
14,26530,26532,-0.09916567802429199,0.09752267599105835,1.0989694595336914,21.28901481628418,12.917947769165039,-11.968976020812988,0.9389530420303345,-0.11999399960041046,-0.24298784136772156,0.32038775086402893,-1.6298425197601318,-2.236895799636841
15,26540,26542,0.012030025012791157,0.22601720690727234,0.9674420356750488,17.98625946044922,30.072967529296875,-9.72205638885498,0.9359531998634338,-0.10799460113048553,-0.23998799920082092,0.1492239534854889,-1.3354125022888184,-2.3449928760528564
16,26550,26552,0.017931370064616203,0.14167803525924683,1.0554368495941162,11.122310638427734,33.63976287841797,-9.399909973144531,0.9329533576965332,-0.1049947515130043,-0.2459876984357834,-0.18841907382011414,-1.107982873916626,-2.441469669342041
17,26560,26562,-0.026495948433876038,0.05182143300771713,0.9795793294906616,1.7032670974731445,24.12175941467285,-10.072879791259766,0.9344532489776611,-0.10049497336149216,-0.23548822104930878,-0.44170719385147095,-0.9966060519218445,-2.5391898155212402
18,26570,26572,-0.1319507360458374,-0.26519712805747986,0.9675071239471436,-5.973679542541504,7.004655838012695,-12.680156707763672,0.9269536137580872,-0.1049947515130043,-0.24898754060268402,-0.6869072318077087,-1.018409013748169,-2.6496567726135254
19,26580,26582,-0.2703552842140198,-0.2216266393661499,0.9225152134895325,-10.769514083862305,-17.82280921936035,-15.12735366821289,0.9239537715911865,-0.09599519520998001,-0.23398829996585846,-0.7220602631568909,-0.959929347038269,-2.7564680576324463
20,26590,26592,-0.0446525439620018,-0.01627619005739689,0.8730600476264954,-2.4553072452545166,-29.282594680786133,-16.322769165039062,0.9299534559249878,-0.11099445074796677,-0.23998799920082092,-0.45114508271217346,-1.1637808084487915,-2.9128470420837402
21,26600,26602,0.08847245573997498,0.21587413549423218,0.8980233669281006,8.59985065460205,-43.84905242919922,-16.214183807373047,0.9344532489776611,-0.10349482297897339,-0.24148792028427124,-0.23478303849697113,-1.1599922180175781,-3.0667612552642822
22,26610,26612,-0.01617315784096718,0.0013132111635059118,0.9647899866104126,15.777851104736328,-53.7801399230957,-16.18478775024414,0.9284535646438599,-0.12149392068386078,-0.23248836398124695,0.28454965353012085,-0.9227836728096008,-3.198741912841797
23,26620,26622,-0.2711445093154907,-0.18625067174434662,1.0538125038146973,23.56290626525879,-44.837093353271484,-14.184035301208496,0.9389530420303345,-0.11699414998292923,-0.2369881421327591,0.7637048363685608,-0.6249090433120728,-3.3426289558410645
24,26630,26632,-0.09383442252874374,-0.019215581938624382,0.972106397151947,27.73031997680664,-24.831491470336914,-10.680838584899902,0.9389530420303345,-0.1229938492178917,-0.25198739767074585,1.2921183109283447,-0.42740145325660706,-3.4825048446655273
25,26640,26642,-0.07294885814189911,-0.043352559208869934,0.9300870299339294,19.169200897216797,-7.580475330352783,-7.700949192047119,0.9344532489776611,-0.11249437183141708,-0.2384880781173706,1.2942583560943604,-0.11749346554279327,-3.596353054046631
26,26650,26652,-0.018585341051220894,-0.029065264388918877,1.0999916791915894,3.580075979232788,6.4680562019348145,-6.551523685455322,0.9209539294242859,-0.11099445074796677,-0.2369881421327591,1.4614582061767578,0.044029105454683304,-3.6689438819885254
27,26660,26662,-0.0036770247388631105,0.02667008526623249,0.9297401309013367,-12.380793571472168,13.73137092590332,-6.897439479827881,0.9299534559249878,-0.11099445074796677,-0.227988600730896,1.3449780941009521,0.030238492414355278,-3.7388529777526855
28,26670,26672,-0.05196584761142731,-0.02794511616230011,0.9377325177192688,-30.334003448486328,18.955650329589844,-8.314831733703613,0.9419528841972351,-0.09899504482746124,-0.23098844289779663,1.097955346107483,-0.17310817539691925,-3.812490940093994
29,26680,26682,-0.12254279851913452,-0.08077001571655273,0.9979640245437622,-40.26615905761719,17.178579330444336,-7.893856525421143,0.9359531998634338,-0.10199490189552307,-0.2369881421327591,1.0480245351791382,-0.3784339427947998,-3.8856751918792725
30,26690,26692,-0.0038643144071102142,-0.057311221957206726,1.1167725324630737,-35.90081787109375,4.675371170043945,-5.931302070617676,0.9434528350830078,-0.10049497336149216,-0.23548822104930878,0.7698590159416199,-0.6615217924118042,-3.9867820739746094
31,26700,26702,-0.0365060456097126,-0.016778292134404182,1.0097111463546753,-22.83949851989746,-8.499855995178223,-6.361476421356201,0.9419528841972351,-0.09599519520998001,-0.2459876984357834,0.7845231294631958,-0.9991782903671265,-4.043143272399902
32,26710,26712,-0.1263098418712616,-0.05743740499019623,1.0822409391403198,-4.283383846282959,-13.121709823608398,-4.6817097663879395,0.9374530911445618,-0.10049497336149216,-0.2294885218143463,0.9881013035774231,-1.2592439651489258,-4.087752342224121
33,26720,26722,-0.19069673120975494,-0.1755126714706421,0.9608556628227234,13.580376625061035,-4.865594387054443,-2.6193478107452393,0.9404529333114624,-0.11549422144889832,-0.2384880781173706,1.0076706409454346,-1.1403967142105103,-4.165151596069336
34,26730,26732,-0.13521213829517365,-0.06311909109354019,0.9905373454093933,21.840774536132812,5.425555229187012,1.768467664718628,0.9449527263641357,-0.10799460113048553,-0.23098844289779663,1.1184406280517578,-0.9043720364570618,-4.1997599601745605
35,26740,26742,0.08401767909526825,0.055660881102085114,1.2461074590682983,12.610649108886719,14.663881301879883,6.310972213745117,0.9359531998634338,-0.09599519520998001,-0.23398829996585846,1.0662966966629028,-0.645051896572113,-4.192224025726318
36,26750,26752,0.03652751445770264,0.09508326649665833,1.0812489986419678,1.7036062479019165,21.380706787109375,5.988697052001953,0.9224538803100586,-0.0944952741265297,-0.2384880781173706,0.8634204864501953,-0.5163707137107849,-4.141884803771973
37,26760,26762,-0.05529194697737694,-0.005993223749101162,0.9688267111778259,-9.583796501159668,19.32262420654297,0.6515559554100037,0.9254537224769592,-0.085495725274086,-0.2294885218143463,0.5650007128715515,-0.5817955136299133,-4.077977657318115
38,26770,26772,-0.12406241148710251,-0.01907263696193695,0.9987255930900574,-14.708880424499512,17.378639221191406,-2.7330286502838135,0.9284535646438599,-0.0944952741265297,-0.22648866474628448,0.35903453826904297,-0.7405127286911011,-4.060346603393555
39,26780,26782,-0.09902246296405792,-0.05163929611444473,0.9559040665626526,-14.990209579467773,4.141412734985352,-5.735989093780518,0.9179540872573853,-0.08399579674005508,-0.2189890444278717,0.22183991968631744,-0.75454181432724,-4.104140758514404
40,26790,26792,-0.08311238884925842,-0.024234186857938766,0.9360071420669556,-9.048632621765137,2.726555347442627,-5.9283833503723145,0.9164541363716125,-0.07949602603912354,-0.22048896551132202,0.19368264079093933,-0.8463208079338074,-4.163999557495117
41,26800,26802,-0.09526735544204712,-0.015754617750644684,0.8616207242012024,-0.6472110748291016,9.645483016967773,-2.9173851013183594,0.9164541363716125,-0.07949602603912354,-0.22048896551132202,0.1540481597185135,-0.9714190363883972,-4.221714496612549
42,26810,26812,0.014660568907856941,0.051203370094299316,0.9411748647689819,-3.084127902984619,11.580394744873047,0.7118737697601318,0.9164541363716125,-0.07949602603912354,-0.22048896551132202,-0.029397545382380486,-0.9318594336509705,-4.266523361206055
43,26820,26822,-0.08478950709104538,-0.0014259819872677326,0.9182164072990417,-6.405213832855225,9.582085609436035,3.1299662590026855,0.9134542942047119,-0.08849557489156723,-0.2294885218143463,-0.0989604964852333,-0.980632483959198,-4.258557319641113
44,26830,26832,-0.16389811038970947,-0.12473279237747192,1.1438909769058228,-15.938139915466309,12.078033447265625,9.472311973571777,0.9284535646438599,-0.06749662756919861,-0.2294885218143463,-0.08866732567548752,-1.1529335975646973,-4.211155891418457
45,26840,26842,-0.08622067421674728,-0.05250716581940651,0.9790090918540955,-22.2282772064209,6.741908073425293,12.042945861816406,0.9059546589851379,-0.08999549597501755,-0.23998799920082092,-0.24187417328357697,-1.267697811126709,-4.132286071777344
46,26850,26852,-0.2013377696275711,-0.10630963742733002,0.8647129535675049,-25.47255516052246,-4.253117084503174,10.60421085357666,0.9164541363716125,-0.09149542450904846,-0.23248836398124695,-0.24257946014404297,-1.4816901683807373,-4.010612487792969
47,26860,26862,-0.11059237271547318,-0.04681829735636711,0.9012607932090759,-26.192636489868164,-21.28500747680664,7.683931827545166,0.9299534559249878,-0.09599519520998001,-0.23098844289779663,-0.1603202223777771,-1.5510646104812622,-3.911360025405884
48,26870,26872,-0.015474077314138412,0.11024990677833557,1.0614211559295654,-13.948766708374023,-27.51058578491211,4.112232208251953,0.919454038143158,-0.0944952741265297,-0.2384880781173706,0.02680140919983387,-1.895417332649231,-3.82218861579895
49,26880,26882,0.00300299352966249,5.7210134400520474e-05,0.9917657971382141,2.4288203716278076,-20.2276611328125,5.627985000610352,0.9374530911445618,-0.10049497336149216,-0.2294885218143463,0.4922840893268585,-1.9580010175704956,-3.7659595012664795
50,26890,26892,-0.058063097298145294,-0.0394243486225605,0.9350530505180359,11.836276054382324,-7.837902069091797,8.139925003051758,0.9329533576965332,-0.1049947515130043,-0.23098844289779663,0.7419569492340088,-1.9071078300476074,-3.709172487258911
51,26900,26902,-0.14886720478534698,-0.13210321962833405,0.9433355927467346,11.169635772705078,5.688246250152588,11.136382102966309,0.9374530911445618,-0.09749512374401093,-0.2384880781173706,0.784947395324707,-1.7804889678955078,-3.626948595046997
52,26910,26912,-0.06970908492803574,-0.04636825621128082,0.9795094728469849,6.2954559326171875,21.806678771972656,11.79716968536377,0.919454038143158,-0.085495725274086,-0.2474876195192337,0.6790242195129395,-1.6655526161193848,-3.519824504852295
53,26920,26922,-0.016941914334893227,0.013885973021388054,0.926082193851471,-2.427589178085327,29.54917335510254,12.446284294128418,0.9434528350830078,-0.085495725274086,-0.22648866474628448,0.38735538721084595,-1.6420449018478394,-3.4029808044433594
54,26930,26932,-0.01775103248655796,0.019131438806653023,0.8243594169616699,-17.9366455078125,22.658079147338867,11.473481178283691,0.9179540872573853,-0.08399579674005508,-0.23998799920082092,-0.06069885939359665,-1.623734712600708,-3.2896788120269775
55,26940,26942,-0.12164407968521118,-0.09294355660676956,0.8220484852790833,-31.816633224487305,6.541266441345215,8.056288719177246,0.9104544520378113,-0.09149542450904846,-0.24448777735233307,-0.1107209175825119,-1.9192390441894531,-3.176988363265991
56,26950,26952,-0.03482561185956001,-0.042393237352371216,0.8845463395118713,-32.24064254760742,-17.64963150024414,2.5471067428588867,0.919454038143158,-0.08849557489156723,-0.2294885218143463,-0.14855986833572388,-2.3454067707061768,-3.0935683250427246
57,26960,26962,-0.026265379041433334,0.0923624038696289,1.0514280796051025,-20.642597198486328,-38.32933044433594,-1.4638922214508057,0.9329533576965332,-0.09599519520998001,-0.2459876984357834,-0.02705143392086029,-2.4136626720428467,-3.068131685256958
58,26970,26972,-0.014088918454945087,0.131633922457695,1.0577449798583984,-1.7515252828598022,-51.2577018737793,-5.188101768493652,0.9374530911445618,-0.10049497336149216,-0.24148792028427124,0.495309054851532,-2.707862377166748,-3.0671117305755615
59,26980,26982,0.0015921186422929168,0.14869418740272522,0.9953161478042603,15.708810806274414,-53.10032272338867,-6.584839344024658,0.9359531998634338,-0.11699414998292923,-0.24298784136772156,0.9300869703292847,-2.6895592212677,-3.089517831802368
60,26990,26992,-0.071583591401577,0.03293005749583244,1.1150957345962524,27.4954833984375,-49.04177474975586,-7.630044937133789,0.9419528841972351,-0.12599369883537292,-0.24298784136772156,1.4663786888122559,-2.601500988006592,-3.125450611114502
61,27000,27002,-0.06754765659570694,0.006011740770190954,1.1089297533035278,37.80302429199219,-32.48829650878906,-8.536235809326172,0.9524523615837097,-0.12149392068386078,-0.25048747658729553,1.9114528894424438,-2.2436532974243164,-3.1830618381500244
62,27010,27012,-0.05076994374394417,0.0017779336776584387,0.9621860384941101,35.46567916870117,-12.080606460571289,-6.9613728523254395,0.9479525685310364,-0.12599369883537292,-0.23998799920082092,2.397118330001831,-1.815792202949524,-3.2772228717803955
63,27020,27022,-0.11178913712501526,-0.050721704959869385,1.0832796096801758,23.517906188964844,18.62322998046875,-4.0186991691589355,0.9434528350830078,-0.10349482297897339,-0.2294885218143463,2.392882823944092,-1.5724527835845947,-3.31111216545105
64,27030,27032,-0.07886701077222824,-0.07254402339458466,1.0528279542922974,9.229787826538086,41.720577239990234,-3.8357932567596436,0.9359531998634338,-0.1049947515130043,-0.2369881421327591,2.0797924995422363,-1.4392497539520264,-3.321924924850464
65,27040,27042,-0.10732898861169815,-0.05139998346567154,0.9942074418067932,-3.271789073944092,53.35084915161133,-3.9233593940734863,0.9464526772499084,-0.09749512374401093,-0.24148792028427124,1.5341285467147827,-1.3382999897003174,-3.3553061485290527
66,27050,27052,-0.07140849530696869,-0.0298248790204525,0.9698904752731323,-15.993819236755371,54.388668060302734,-5.66396951675415,0.9389530420303345,-0.09599519520998001,-0.22498874366283417,0.9639121294021606,-1.4339936971664429,-3.391329288482666
67,27060,27062,-0.1462518870830536,-0.19464097917079926,1.1601239442825317,-19.15193748474121,46.245811462402344,-5.960357189178467,0.9389530420303345,-0.10799460113048553,-0.24298784136772156,0.38530847430229187,-1.6960281133651733,-3.4372856616973877
68,27070,27072,0.0005722739733755589,0.06296522170305252,1.0025289058685303,-15.736738204956055,29.562971115112305,-3.9642622470855713,0.9254537224769592,-0.0944952741265297,-0.24148792028427124,-0.10723288357257843,-1.7897611856460571,-3.523862361907959
69,27080,27082,0.009257822297513485,0.024258483201265335,0.9759064316749573,-8.239498138427734,0.8800016045570374,-3.007373094558716,0.9344532489776611,-0.10349482297897339,-0.24148792028427124,-0.5169424414634705,-1.8282769918441772,-3.5823042392730713
70,27090,27092,-0.1273539960384369,-0.08971518278121948,0.9614766836166382,2.775424003601074,-25.438411712646484,-3.1738336086273193,0.9344532489776611,-0.10949452221393585,-0.23548822104930878,-0.3119637668132782,-1.9641956090927124,-3.627523899078369
71,27100,27102,-0.2722458243370056,-0.07099229097366333,1.0322978496551514,22.565820693969727,-35.74650192260742,-4.806837558746338,0.9389530420303345,-0.1049947515130043,-0.2459876984357834,0.05861024931073189,-1.879460096359253,-3.671351671218872
72,27110,27112,-0.10455284267663956,-0.02961527369916439,1.00786292552948,42.83995056152344,-29.35586929321289,-3.570164442062378,0.9374530911445618,-0.11849407106637955,-0.24148792028427124,0.5011789798736572,-1.4808733463287354,-3.7349636554718018
73,27120,27122,-0.055293407291173935,0.0027974024415016174,0.9716458320617676,52.1956787109375,-14.326687812805176,-2.7409989833831787,0.9284535646438599,-0.13049347698688507,-0.24448777735233307,0.7467578053474426,-1.058159351348877,-3.7596988677978516
74,27130,27132,-0.0870591551065445,-0.0034409728832542896,0.9796749949455261,50.509151458740234,2.376020908355713,-2.715233087539673,0.9389530420303345,-0.113994300365448,-0.23998799920082092,0.798293948173523,-0.5071134567260742,-3.7798922061920166
75,27140,27142,-0.09193892776966095,-0.07025323808193207,0.9834291934967041,38.93080520629883,8.53360366821289,-2.7886993885040283,0.9284535646438599,-0.12449377030134201,-0.2384880781173706,0.8257956504821777,0.0025580197107046843,-3.812032461166382
76,27150,27152,-0.11889045685529709,-0.03638703003525734,0.9288306832313538,10.975258827209473,7.982478141784668,-2.985140323638916,0.9344532489776611,-0.12149392068386078,-0.23548822104930878,0.7510350942611694,0.2333277314901352,-3.823194742202759
77,27160,27162,-0.01751016639173031,0.10235614329576492,1.0157383680343628,-22.128189086914062,4.667578220367432,-6.572721004486084,0.9269536137580872,-0.11699414998292923,-0.2369881421327591,0.5565451383590698,0.3474136292934418,-3.848176956176758
78,27170,27172,-0.09975825995206833,-0.14936669170856476,1.0194216966629028,-48.611717224121094,-2.0407209396362305,-11.367066383361816,0.9239537715911865,-0.10799460113048553,-0.24298784136772156,0.5695329904556274,0.007324302569031715,-3.8960673809051514
79,27180,27182,-0.14492344856262207,-0.17855608463287354,0.9334883689880371,-56.60149383544922,-8.830839157104492,-14.740540504455566,0.9419528841972351,-0.113994300365448,-0.2459876984357834,0.6158432960510254,-0.3545995056629181,-4.014071464538574
80,27190,27192,-0.10569053143262863,-0.04296503961086273,1.016730546951294,-47.41656494140625,-7.342855930328369,-15.620975494384766,0.9404529333114624,-0.11549422144889832,-0.25048747658729553,0.7641327381134033,-1.0507545471191406,-4.140666484832764
81,27200,27202,-0.004376797471195459,-0.04407530277967453,1.0285776853561401,-21.666358947753906,0.5734884738922119,-12.255915641784668,0.9434528350830078,-0.11249437183141708,-0.2384880781173706,0.7320747375488281,-1.2884281873703003,-4.322016716003418
82,27210,27212,-0.04209771007299423,0.00931952428072691,1.031338095664978,12.585990905761719,11.656665802001953,-6.270055294036865,0.9419528841972351,-0.113994300365448,-0.23998799920082092,0.7950159907341003,-1.378950834274292,-4.459322452545166
83,27220,27222,-0.005802549887448549,0.1276310384273529,1.0341475009918213,42.77582931518555,30.136878967285156,1.041666030883789,0.9419528841972351,-0.11699414998292923,-0.227988600730896,0.7433619499206543,-1.1680073738098145,-4.540848731994629
84,27230,27232,-0.04866897687315941,-0.014661507681012154,1.0347193479537964,58.998600006103516,41.12685775756836,7.745919227600098,0.9359531998634338,-0.13499325513839722,-0.25198739767074585,0.30708006024360657,-0.6128204464912415,-4.560177803039551
85,27240,27242,-0.05815749987959862,-0.019223244860768318,1.0124316215515137,56.85654067993164,44.62220764160156,12.87585735321045,0.9239537715911865,-0.1319933980703354,-0.25198739767074585,-0.22399689257144928,0.024711985141038895,-4.500812530517578
86,27250,27252,-0.06431421637535095,-0.05017606168985367,0.8946690559387207,28.470428466796875,34.19377136230469,14.028121948242188,0.9314534068107605,-0.1334933191537857,-0.2564871609210968,-0.6469155550003052,0.3153229355812073,-4.3533244132995605
87,27260,27262,0.04523564502596855,0.05790996178984642,0.9379571676254272,-13.521987915039062,12.838237762451172,14.199466705322266,0.9434528350830078,-0.13949301838874817,-0.2564871609210968,-1.0263067483901978,0.6455338597297668,-4.214447975158691
88,27270,27272,-0.08561103045940399,-0.0016672643832862377,1.0134354829788208,-52.027645111083984,-11.676642417907715,12.563254356384277,0.9389530420303345,-0.1319933980703354,-0.24298784136772156,-1.1773278713226318,0.49264129996299744,-4.070839881896973
89,27280,27282,-0.06358056515455246,0.01936977729201317,1.0079989433288574,-79.33963012695312,-27.709632873535156,11.093595504760742,0.9479525685310364,-0.13499325513839722,-0.2369881421327591,-0.9384838342666626,-0.13543535768985748,-3.9312334060668945
90,27290,27292,-0.052769239991903305,-0.0162714384496212,0.8602975606918335,-98.13531494140625,-37.663368225097656,9.226923942565918,0.9644517302513123,-0.1514924168586731,-0.26848655939102173,-0.4819542467594147,-1.1024268865585327,-3.7977304458618164
91,27300,27302,-0.06690807640552521,0.01810923032462597,0.9664998650550842,-97.47196960449219,-38.773887634277344,5.5488600730896,0.9629518389701843,-0.15599219501018524,-0.2579870820045471,-0.159056156873703,-1.8419450521469116,-3.6923723220825195
92,27310,27312,-0.051167938858270645,0.02086329460144043,0.922429621219635,-80.67634582519531,-30.33037567138672,4.416361331939697,0.9719513654708862,-0.13799309730529785,-0.2669866383075714,0.2420380413532257,-2.847414970397949,-3.615375280380249
93,27320,27322,-0.053954705595970154,0.011044972576200962,0.9895507097244263,-54.20863723754883,-20.103429794311523,1.8483905792236328,0.9554522037506104,-0.12749361991882324,-0.2594870328903198,0.4993775188922882,-3.4153919219970703,-3.553607940673828
94,27330,27332,-0.06721583008766174,0.15669377148151398,0.9775809645652771,-24.266847610473633,-6.046813488006592,1.2704169750213623,0.9719513654708862,-0.1319933980703354,-0.26098695397377014,0.730871319770813,-3.9954915046691895,-3.5185611248016357
95,27340,27342,-0.06900526583194733,0.04244144633412361,1.0156844854354858,10.033278465270996,1.3236192464828491,-2.614321231842041,0.9404529333114624,-0.10649467259645462,-0.25348731875419617,0.816007673740387,-4.199043273925781,-3.5001707077026367
96,27350,27352,-0.053782787173986435,-0.005005498882383108,0.9946667551994324,35.37894821166992,6.03135871887207,-6.816226959228516,0.9344532489776611,-0.11549422144889832,-0.2474876195192337,0.7113252878189087,-4.008112907409668,-3.520735740661621
97,27360,27362,-0.022206420078873634,0.077061727643013,1.01964271068573,58.22063446044922,7.973931312561035,-12.821741104125977,0.9374530911445618,-0.10349482297897339,-0.2474876195192337,0.6189593076705933,-3.56615948677063,-3.587742805480957
98,27370,27372,-0.08798886090517044,0.013393357396125793,0.9925506114959717,69.56427001953125,9.2603759765625,-18.89432144165039,0.9314534068107605,-0.10349482297897339,-0.25048747658729553,0.5058848261833191,-3.1187732219696045,-3.707954168319702
99,27380,27382,-0.08549351245164871,-0.022738393396139145,0.9210321307182312,71.6537094116211,8.1644868850708,-22.9545955657959,0.9464526772499084,-0.11549422144889832,-0.2594870328903198,0.4413311779499054,-2.1404645442962646,-3.903139591217041
100,27390,27392,-0.044710446149110794,-0.008947567082941532,0.9674873948097229,61.51585388183594,3.425384044647217,-24.873659133911133,0.9434528350830078,-0.12449377030134201,-0.25048747658729553,0.33158037066459656,-1.8646987676620483,-4.115640163421631
101,27400,27402,-0.09437043964862823,-0.06154985353350639,0.9552546739578247,42.17967224121094,-1.4684205055236816,-25.01275634765625,0.9374530911445618,-0.12149392068386078,-0.26248687505722046,0.4504207968711853,-1.1800016164779663,-4.38275671005249
102,27410,27412,-0.04726837947964668,-0.010407923720777035,0.9634720087051392,21.780447006225586,-1.0691131353378296,-23.30087661743164,0.9269536137580872,-0.11699414998292923,-0.2579870820045471,0.4086915850639343,-0.7291870713233948,-4.621454238891602
103,27420,27422,-0.08459345996379852,-0.057796139270067215,0.9434524774551392,7.4841508865356445,-5.395246505737305,-20.336244583129883,0.9569521546363831,-0.10799460113048553,-0.23998799920082092,0.43571093678474426,-0.6649652123451233,-4.849115371704102
104,27430,27432,-0.022288598120212555,-0.017947299405932426,0.9730257391929626,-2.511784553527832,-14.285198211669922,-19.079317092895508,0.9539523124694824,-0.11099445074796677,-0.23098844289779663,0.5381484031677246,-0.5393677353858948,-5.059007167816162
105,27440,27442,-0.08277326077222824,-0.04510173574090004,1.0148518085479736,-3.708754539489746,-18.84832763671875,-17.326330184936523,0.9434528350830078,-0.10649467259645462,-0.25048747658729553,0.6303137540817261,-0.5537936091423035,-5.241959095001221
106,27450,27452,-0.06473487615585327,0.1360868364572525,1.0453624725341797,-0.5383040904998779,-15.0897855758667,-15.61370849609375,0.9434528350830078,-0.13049347698688507,-0.25348731875419617,0.9367161989212036,-0.6576752066612244,-5.417840957641602
107,27460,27462,-0.022116802632808685,0.08150185644626617,1.1215184926986694,9.665068626403809,-8.948360443115234,-11.910611152648926,0.950952410697937,-0.11999399960041046,-0.2459876984357834,0.973288893699646,-0.6261768937110901,-5.567773342132568
108,27470,27472,-0.13399986922740936,-0.053060535341501236,1.121075987815857,22.9869441986084,0.9183515906333923,-10.093541145324707,0.9479525685310364,-0.11999399960041046,-0.24298784136772156,1.10986328125,-0.49702557921409607,-5.6933207511901855
109,27480,27482,-0.15869006514549255,-0.024183370172977448,1.0541268587112427,34.45844268798828,12.515485763549805,-7.5071210861206055,0.9434528350830078,-0.11249437183141708,-0.25048747658729553,1.0764477252960205,-0.3030605912208557,-5.7941107749938965
110,27490,27492,-0.08999491482973099,-0.030569326132535934,1.0364124774932861,39.52735900878906,20.940065383911133,-2.7883803844451904,0.9299534559249878,-0.11699414998292923,-0.2369881421327591,0.8471935987472534,0.07610725611448288,-5.873542785644531
111,27500,27502,-0.14397643506526947,-0.26239901781082153,1.0231953859329224,35.081661224365234,27.36410903930664,0.7122776508331299,0.9404529333114624,-0.12449377030134201,-0.23548822104930878,0.47862228751182556,0.45333626866340637,-5.904723167419434
112,27510,27512,-0.11990921944379807,-0.11264309287071228,1.0171443223953247,21.65108299255371,30.970928192138672,4.888687610626221,0.9254537224769592,-0.12449377030134201,-0.2564871609210968,0.18361498415470123,0.7247815132141113,-5.891398906707764
113,27520,27522,0.08552651107311249,0.045468609780073166,0.947093665599823,2.4977498054504395,29.81529998779297,8.111682891845703,0.9359531998634338,-0.113994300365448,-0.24298784136772156,-0.2893071472644806,0.9246387481689453,-5.852907657623291
114,27530,27532,0.007728780619800091,0.043903790414333344,0.9919511675834656,-13.227242469787598,22.76381492614746,7.869056701660156,0.9284535646438599,-0.11249437183141708,-0.25048747658729553,-0.5955929160118103,0.9701234102249146,-5.770556926727295
115,27540,27542,-0.06732369214296341,-0.056529853492975235,1.0342836380004883,-20.254270553588867,12.159582138061523,7.980737686157227,0.9404529333114624,-0.11849407106637955,-0.2474876195192337,-0.7839526534080505,0.8462782502174377,-5.681928634643555
116,27550,27552,-0.04969571903347969,-0.07075228542089462,1.1327035427093506,-24.17652130126953,-1.3893879652023315,7.702542781829834,0.9449527263641357,-0.11699414998292923,-0.24898754060268402,-0.8028407692909241,0.5466303825378418,-5.584256172180176
117,27560,27562,0.022915450856089592,0.024212973192334175,1.0739036798477173,-26.168668746948242,-9.946131706237793,9.455270767211914,0.9524523615837097,-0.12749361991882324,-0.2594870328903198,-0.8242964744567871,0.6042619347572327,-5.504514694213867
118,27570,27572,-0.077333003282547,-0.011854208074510098,1.0583027601242065,-26.927318572998047,-11.091873168945312,9.388497352600098,0.9389530420303345,-0.1229938492178917,-0.2579870820045471,-0.6296979188919067,0.19182680547237396,-5.400945663452148
119,27580,27582,-0.06663171947002411,-0.04555669054389,1.0927571058273315,-26.394521713256836,-3.465651512145996,9.478635787963867,0.9419528841972351,-0.11999399960041046,-0.24898754060268402,-0.5775462985038757,-0.2256159633398056,-5.327963352203369
120,27590,27592,0.015287485904991627,-0.0032719222363084555,1.013797402381897,-17.013235092163086,7.925830841064453,7.967698574066162,0.9404529333114624,-0.12149392068386078,-0.26248687505722046,-0.7339026927947998,-0.3273216187953949,-5.263263702392578
121,27600,27602,-0.10065075010061264,0.034386858344078064,1.0399320125579834,-3.6060614585876465,16.730558395385742,8.760002136230469,0.9224538803100586,-0.11549422144889832,-0.25348731875419617,-0.6273428201675415,-0.5629640221595764,-5.154541969299316
122,27610,27612,-0.07949330657720566,-0.0015307049034163356,1.0549925565719604,2.0428390502929688,20.276273727416992,11.445076942443848,0.9314534068107605,-0.11849407106637955,-0.25048747658729553,-0.8751286268234253,-0.5821441411972046,-5.085229873657227
123,27620,27622,-0.0859680250287056,-0.0005076522356830537,1.0422314405441284,2.726593494415283,14.457564353942871,13.043852806091309,0.9314534068107605,-0.11849407106637955,-0.25048747658729553,-1.0924105644226074,-0.3714812099933624,-4.963606834411621
124,27630,27632,-0.0818924754858017,-0.11823625862598419,0.8380842804908752,-0.6767473220825195,1.826164722442627,14.208908081054688,0.9314534068107605,-0.11849407106637955,-0.25048747658729553,-1.2246310710906982,-0.3758275508880615,-4.837873458862305
125,27640,27642,-0.07602055370807648,-0.10426612198352814,0.9467164874076843,-3.2606186866760254,-16.464344024658203,14.683709144592285,0.9359531998634338,-0.113994300365448,-0.24898754060268402,-1.215669870376587,-0.37155240774154663,-4.689499378204346
126,27650,27652,-0.04663940146565437,0.011475656181573868,1.0168403387069702,-4.3498640060424805,-30.660799026489258,13.922355651855469,0.9434528350830078,-0.12149392068386078,-0.25348731875419617,-0.8920284509658813,-0.4156872034072876,-4.515817642211914
127,27660,27662,0.015616891905665398,-0.002508005127310753,0.9921430945396423,-1.6558574438095093,-29.42253303527832,12.598390579223633,0.9389530420303345,-0.11699414998292923,-0.24298784136772156,-0.7941793203353882,-0.46671101450920105,-4.408967971801758
128,27670,27672,-0.024544773623347282,-0.02151615358889103,1.0820826292037964,-3.0592644214630127,-18.03468132019043,12.514077186584473,0.9314534068107605,-0.12749361991882324,-0.25048747658729553,-0.3728581964969635,-0.4826382100582123,-4.257852554321289
129,27680,27682,-0.0645318403840065,0.08923255652189255,0.9839637875556946,-5.158627986907959,-8.11838150024414,13.899542808532715,0.9344532489776611,-0.13049347698688507,-0.24448777735233307,-0.2892826497554779,-0.3819345533847809,-4.128817558288574
130,27690,27692,0.058772943913936615,0.037380676716566086,0.9295189380645752,-8.392727851867676,-2.8334381580352783,12.561168670654297,0.9359531998634338,-0.12899354100227356,-0.24898754060268402,-0.13000233471393585,-0.4742652475833893,-3.982194185256958
131,27700,27702,0.06847192347049713,0.1348547339439392,1.0076076984405518,-11.423157691955566,-0.28692373633384705,9.576556205749512,0.9449527263641357,-0.11699414998292923,-0.2459876984357834,-0.12397244572639465,-0.6107728481292725,-3.865593194961548
132,27710,27712,-0.012597380205988884,0.06432273238897324,0.9405006170272827,-12.3472261428833,2.238063097000122,7.165235996246338,0.9239537715911865,-0.1049947515130043,-0.24298784136772156,-0.09598740190267563,-0.7847010493278503,-3.771303176879883
133,27720,27722,-0.07235945016145706,-0.10299327969551086,1.052972674369812,-10.643289566040039,-0.7596865296363831,4.40753173828125,0.9344532489776611,-0.10649467259645462,-0.23248836398124695,-0.17546965181827545,-0.7493956685066223,-3.687500238418579
134,27730,27732,-0.05428820103406906,-0.027142204344272614,1.043652057647705,-3.257826328277588,-2.0248522758483887,3.838427782058716,0.919454038143158,-0.10049497336149216,-0.2474876195192337,-0.1340208500623703,-0.969474196434021,-3.648496150970459
135,27740,27742,-0.05164279043674469,-0.08062483370304108,0.9368229508399963,6.113609313964844,1.2490781545639038,3.531752347946167,0.9374530911445618,-0.11249437183141708,-0.23548822104930878,-0.0831214189529419,-1.0063458681106567,-3.599963665008545
136,27750,27752,-0.04302006587386131,0.0003886555496137589,0.9621399641036987,10.588712692260742,5.4215168952941895,1.121719479560852,0.9419528841972351,-0.12599369883537292,-0.2549872398376465,-0.2116672396659851,-0.8851945400238037,-3.5767619609832764
137,27760,27762,-0.03623586520552635,0.0365230068564415,0.9552697539329529,7.561074256896973,18.972965240478516,0.22486329078674316,0.9299534559249878,-0.11099445074796677,-0.23998799920082092,-0.42397165298461914,-0.9817125201225281,-3.6050100326538086
138,27770,27772,-0.041017550975084305,-0.011521964333951473,0.9287325143814087,-0.5624704360961914,28.926074981689453,0.5672605037689209,0.9359531998634338,-0.11699414998292923,-0.2459876984357834,-0.7064966559410095,-0.854453980922699,-3.6089727878570557
139,27780,27782,-0.11460454761981964,0.016797902062535286,0.9938566088676453,-0.7508914470672607,20.69672393798828,2.0819759368896484,0.9449527263641357,-0.11099445074796677,-0.25198739767074585,-0.9551126956939697,-0.9088582992553711,-3.611255168914795
140,27790,27792,-0.09102778136730194,-0.005096291657537222,0.9663887619972229,5.862624168395996,-2.9744863510131836,3.5427005290985107,0.9344532489776611,-0.09749512374401093,-0.2564871609210968,-1.2106894254684448,-0.8832558989524841,-3.596405506134033
141,27800,27802,0.143156960606575,0.13116276264190674,0.8162941336631775,12.680368423461914,-30.221637725830078,8.421160697937012,0.9389530420303345,-0.11099445074796677,-0.2459876984357834,-1.3560705184936523,-0.8347287774085999,-3.573962688446045
142,27810,27812,-0.07014825940132141,0.039518676698207855,0.9787726402282715,22.236982345581055,-55.39673614501953,11.82504653930664,0.9389530420303345,-0.11699414998292923,-0.23998799920082092,-0.955054521560669,-0.7174439430236816,-3.4820287227630615
143,27820,27822,0.10999084264039993,0.07815079391002655,0.9854572415351868,34.36882019042969,-67.76387786865234,16.657949447631836,0.958452045917511,-0.14249287545681,-0.25048747658729553,-0.18874849379062653,-0.38360676169395447,-3.329887866973877
144,27830,27832,-0.09661650657653809,0.07777435332536697,1.2122743129730225,43.53364181518555,-74.4498062133789,23.44346809387207,0.9539523124694824,-0.14099295437335968,-0.24298784136772156,0.42105087637901306,-0.1468774527311325,-3.1849772930145264
145,27840,27842,-0.050192106515169144,0.012183019891381264,1.0518062114715576,46.113319396972656,-61.709590911865234,28.81485366821289,0.9464526772499084,-0.15749211609363556,-0.24448777735233307,0.9539504647254944,0.31261834502220154,-2.9709362983703613
146,27850,27852,-0.03785158693790436,-0.017254652455449104,1.0086686611175537,34.586971282958984,-42.73777770996094,31.70151138305664,0.9599519968032837,-0.1619918942451477,-0.24898754060268402,1.4284963607788086,0.7136034369468689,-2.709742784500122
147,27860,27862,0.07103386521339417,0.16017800569534302,0.9365383386611938,14.904767990112305,-21.922119140625,34.577335357666016,0.9569521546363831,-0.1619918942451477,-0.2459876984357834,1.9815609455108643,0.9935543537139893,-2.3970868587493896
148,27870,27872,-0.07701445370912552,0.07840266078710556,1.020592212677002,-10.060770988464355,0.2685580551624298,35.50003433227539,0.9734513163566589,-0.1514924168586731,-0.24448777735233307,2.1025283336639404,1.0048168897628784,-2.0772273540496826
149,27880,27882,0.028961440548300743,0.029810890555381775,1.142616868019104,-35.64527893066406,18.325469970703125,35.29409408569336,0.9614518880844116,-0.14249287545681,-0.23248836398124695,2.1062533855438232,0.8466949462890625,-1.72896146774292
150,27890,27892,-0.003035184694454074,0.01827957294881344,1.0332934856414795,-56.778865814208984,27.5556583404541,35.2142219543457,0.9599519968032837,-0.13799309730529785,-0.23398829996585846,1.8215703964233398,0.3547224700450897,-1.3900864124298096
151,27900,27902,-0.050037216395139694,-0.1322835236787796,1.0043730735778809,-64.94397735595703,33.13725280761719,31.581968307495117,0.9779511094093323,-0.12899354100227356,-0.23998799920082092,1.669682502746582,-0.23767831921577454,-1.0158805847167969
152,27910,27912,-0.1971619725227356,-0.028444461524486542,1.2062970399856567,-58.595306396484375,33.64153289794922,25.23066520690918,0.9644517302513123,-0.1334933191537857,-0.2384880781173706,1.2147420644760132,-0.812885582447052,-0.731865644454956
153,27920,27922,-0.17476892471313477,0.02525772899389267,1.201221227645874,-32.01163101196289,29.455585479736328,19.572267532348633,0.9614518880844116,-0.13949301838874817,-0.24148792028427124,0.9612505435943604,-1.4017661809921265,-0.46675777435302734
154,27930,27932,-0.010075373575091362,-0.09586095064878464,1.0818850994110107,2.3101413249969482,9.386292457580566,15.04355525970459,0.9494525194168091,-0.11849407106637955,-0.24148792028427124,0.621062695980072,-1.5630133152008057,-0.29955998063087463
155,27940,27942,-0.12678688764572144,-0.0841323509812355,1.0575956106185913,38.74427795410156,-19.22724723815918,11.922144889831543,0.9464526772499084,-0.12149392068386078,-0.2384880781173706,0.549115777015686,-1.525571346282959,-0.14512431621551514
156,27950,27952,-0.1441432535648346,0.06610944867134094,1.1272255182266235,68.6904067993164,-43.461849212646484,11.054350852966309,0.9524523615837097,-0.12749361991882324,-0.25048747658729553,0.9390286803245544,-1.3319530487060547,0.021190283820033073
157,27960,27962,-0.10692817717790604,-0.006965038366615772,1.1032763719558716,77.37862396240234,-62.126373291015625,11.819278717041016,0.9464526772499084,-0.14249287545681,-0.24148792028427124,1.4360837936401367,-0.36509478092193604,0.10964981466531754
158,27970,27972,0.01546589843928814,0.10285448282957077,1.0807725191116333,60.351715087890625,-65.59117889404297,11.890625,0.950952410697937,-0.15599219501018524,-0.24298784136772156,2.1478822231292725,0.12193234264850616,0.2714735269546509
159,27980,27982,-0.051593128591775894,-0.015909060835838318,1.0602794885635376,35.50663375854492,-47.8508415222168,9.306867599487305,0.958452045917511,-0.13949301838874817,-0.22648866474628448,2.8630356788635254,0.8268691897392273,0.3722345232963562
160,27990,27992,-0.030388161540031433,-0.057414017617702484,1.0520062446594238,6.401800632476807,-19.560630798339844,5.802820682525635,0.9494525194168091,-0.14549271762371063,-0.24448777735233307,3.5042614936828613,1.1323871612548828,0.4845254421234131
161,28000,28002,-0.05386235937476158,-0.0534508191049099,1.0328142642974854,-18.904876708984375,10.624077796936035,0.4458980858325958,0.9599519968032837,-0.14399279654026031,-0.227988600730896,3.6768617630004883,1.2517915964126587,0.5253239870071411
162,28010,28012,-0.0681559219956398,0.10557586699724197,1.0086551904678345,-25.7286319732666,34.930015563964844,-4.035651683807373,0.9599519968032837,-0.12899354100227356,-0.2189890444278717,3.5138163566589355,0.9883761405944824,0.552154004573822
163,28020,28022,-0.07906993478536606,0.008772704750299454,1.006523847579956,-13.728979110717773,46.5306510925293,-4.734468460083008,0.9404529333114624,-0.11249437183141708,-0.23248836398124695,3.0918149948120117,0.6526587009429932,0.5343995094299316
164,28030,28032,-0.06311693042516708,0.11614875495433807,0.9501561522483826,0.3400421440601349,50.369781494140625,-0.9928626418113708,0.9419528841972351,-0.09599519520998001,-0.23398829996585846,2.5584821701049805,0.4294315278530121,0.5056594014167786
165,28040,28042,0.04719696566462517,0.04337318241596222,0.9549165964126587,14.749334335327148,42.75181198120117,1.2064546346664429,0.9254537224769592,-0.0944952741265297,-0.22048896551132202,1.9073805809020996,0.500013530254364,0.4442153871059418
166,28050,28052,0.016489963978528976,0.08699735999107361,0.9411400556564331,22.45228385925293,24.625118255615234,3.4062793254852295,0.9344532489776611,-0.09149542450904846,-0.22648866474628448,1.8709276914596558,0.6538381576538086,0.5164302587509155
167,28060,28062,-0.03346717357635498,0.028598932549357414,0.93192458152771,18.85796546936035,0.6201936602592468,3.846548557281494,0.9209539294242859,-0.09599519520998001,-0.227988600730896,1.5081629753112793,0.9186211228370667,0.5200902223587036
168,28070,28072,-0.045641858130693436,-0.021460723131895065,0.9929541349411011,12.51193618774414,-19.38555335998535,1.8866324424743652,0.9389530420303345,-0.113994300365448,-0.22498874366283417,1.517556071281433,0.9145570397377014,0.6299170851707458
169,28080,28082,-0.06538945436477661,-0.010566029697656631,0.9920196533203125,0.03245930373668671,-32.51383590698242,-1.4080030918121338,0.9479525685310364,-0.14399279654026031,-0.227988600730896,1.8427127599716187,1.072116732597351,0.6683958768844604
170,28090,28092,-0.004861408844590187,0.0360572524368763,0.917267382144928,-10.341687202453613,-32.23197555541992,-6.642505168914795,0.9434528350830078,-0.12149392068386078,-0.2384880781173706,2.203608274459839,1.109848976135254,0.6513550281524658
171,28100,28102,0.07774683088064194,0.07970459014177322,0.9477857947349548,-14.136026382446289,-21.083606719970703,-11.182873725891113,0.9434528350830078,-0.12149392068386078,-0.2384880781173706,2.478374719619751,0.9163020849227905,0.6152969598770142
172,28110,28112,0.03071369044482708,-0.056401222944259644,0.9305599927902222,-7.880000114440918,1.5596903562545776,-17.62315559387207,0.9464526772499084,-0.12449377030134201,-0.2384880781173706,2.7659380435943604,0.7558687329292297,0.5299331545829773
173,28120,28122,-0.055222176015377045,-0.12516191601753235,0.9482836127281189,7.306565284729004,21.275331497192383,-18.816972732543945,0.9449527263641357,-0.08999549597501755,-0.23098844289779663,2.679724931716919,0.7106415629386902,0.3322051763534546
174,28130,28132,-0.07569816708564758,-0.02119794860482216,1.011736273765564,26.6225643157959,31.433366775512695,-17.909509658813477,0.9404529333114624,-0.10649467259645462,-0.22048896551132202,2.2190942764282227,0.9258232116699219,0.03387637063860893
175,28140,28142,-0.17313438653945923,-0.17310065031051636,0.9782814383506775,42.598793029785156,39.28059005737305,-15.113147735595703,0.9329533576965332,-0.1229938492178917,-0.22498874366283417,1.888498306274414,1.0059508085250854,-0.08127890527248383
176,28150,28152,-0.1187082827091217,-0.14112429320812225,0.8447462320327759,50.19352340698242,41.810665130615234,-12.915863990783691,0.9329533576965332,-0.1229938492178917,-0.22498874366283417,1.366649866104126,1.4849475622177124,-0.282478928565979
177,28160,28162,-0.14261098206043243,-0.1377488672733307,0.9798595905303955,43.239356994628906,33.82843780517578,-11.048168182373047,0.9224538803100586,-0.1334933191537857,-0.23248836398124695,0.8140110373497009,2.0626347064971924,-0.4547232389450073
178,28170,28172,-0.07751268148422241,-0.040211573243141174,0.9996588230133057,19.717174530029297,22.583457946777344,-10.078861236572266,0.9224538803100586,-0.1334933191537857,-0.23248836398124695,0.4726030230522156,2.300773859024048,-0.4857807457447052
179,28180,28182,-0.010996845550835133,0.02533882111310959,1.0085264444351196,-9.501876831054688,15.446932792663574,-9.918037414550781,0.9344532489776611,-0.11249437183141708,-0.2474876195192337,0.37918004393577576,2.5129499435424805,-0.5270254611968994
180,28190,28192,-0.0656404048204422,-0.020074034109711647,0.9790107607841492,-31.581897735595703,8.348588943481445,-9.726110458374023,0.9389530420303345,-0.12599369883537292,-0.23998799920082092,0.19319888949394226,2.3717215061187744,-0.6072789430618286
181,28200,28202,-0.10854125022888184,-0.03694170340895653,0.8156611919403076,-47.969913482666016,7.6466569900512695,-10.28150749206543,0.9389530420303345,-0.12599369883537292,-0.23998799920082092,0.03509434685111046,1.9080452919006348,-0.6808543801307678
182,28210,28212,-0.06438560038805008,-0.002724558347836137,0.9022864103317261,-56.24306869506836,15.28249454498291,-10.417925834655762,0.9404529333114624,-0.12149392068386078,-0.24148792028427124,-0.0504700131714344,1.4591751098632812,-0.7838187217712402
183,28220,28222,-0.023809898644685745,0.002060794038698077,0.9390682578086853,-53.51424789428711,21.282840728759766,-11.129274368286133,0.9329533576965332,-0.12899354100227356,-0.2549872398376465,-0.329800009727478,1.099878191947937,-0.963372528553009
184,28230,28232,-0.0852108970284462,-0.039983510971069336,0.9622814655303955,-39.24238204956055,19.30266571044922,-13.09985637664795,0.9359531998634338,-0.11099445074796677,-0.2369881421327591,-0.5994828343391418,0.3800249695777893,-1.0572521686553955
185,28240,28242,0.029809679836034775,0.06545773893594742,0.9148768782615662,-18.05338478088379,17.174720764160156,-13.055109977722168,0.9314534068107605,-0.10949452221393585,-0.24148792028427124,-0.6247054934501648,0.22743752598762512,-1.1571537256240845
186,28250,28252,0.023691466078162193,0.04625177010893822,0.8967844247817993,6.787044525146484,14.37654972076416,-13.669622421264648,0.919454038143158,-0.11549422144889832,-0.25348731875419617,-0.8270757794380188,0.09086509793996811,-1.2992641925811768
187,28260,28262,-0.05366107448935509,-0.0110965296626091,0.8972755074501038,17.59673309326172,9.417562484741211,-13.059308052062988,0.9284535646438599,-0.10649467259645462,-0.2294885218143463,-0.8416410088539124,0.25639981031417847,-1.4043080806732178
188,28270,28272,0.001480482635088265,0.12824971973896027,0.9130203127861023,13.654345512390137,4.431731700897217,-14.182120323181152,0.9149542450904846,-0.11699414998292923,-0.2369881421327591,-0.9842271208763123,0.4217122793197632,-1.5485717058181763
189,28280,28282,-0.038592904806137085,0.02575060911476612,0.9291830658912659,2.660273313522339,1.0828993320465088,-17.021644592285156,0.9314534068107605,-0.10049497336149216,-0.23548822104930878,-1.0515596866607666,0.6577082276344299,-1.693589448928833
190,28290,28292,-0.09122645109891891,-0.00400708569213748,0.850327730178833,-14.035333633422852,0.6946282386779785,-19.19542121887207,0.9269536137580872,-0.11099445074796677,-0.23098844289779663,-1.0745360851287842,0.5647569894790649,-1.8631664514541626
191,28300,28302,-0.21466602385044098,-0.16919347643852234,0.9661052227020264,-29.87289810180664,4.331167697906494,-22.672521591186523,0.9389530420303345,-0.1049947515130043,-0.227988600730896,-1.1011993885040283,0.36766451597213745,-2.060152530670166
192,28310,28312,-0.04175930097699165,0.04802156612277031,0.9451626539230347,-43.45478439331055,16.650386810302734,-23.831445693969727,0.9344532489776611,-0.10649467259645462,-0.23548822104930878,-1.18341064453125,0.22038350999355316,-2.2849526405334473
193,28320,28322,0.006170555949211121,-0.002398359589278698,0.9776732921600342,-43.83086013793945,34.50240707397461,-23.698152542114258,0.9284535646438599,-0.085495725274086,-0.25048747658729553,-1.400263786315918,-0.3356432020664215,-2.5471487045288086
194,28330,28332,0.04000405594706535,0.12095475196838379,0.8430262804031372,-24.637908935546875,46.116024017333984,-21.098360061645508,0.9269536137580872,-0.07799609750509262,-0.23098844289779663,-1.9639317989349365,-0.8629236221313477,-2.8480122089385986
195,28340,28342,-0.06280073523521423,0.03186017647385597,0.8683367967605591,0.33182644844055176,47.222652435302734,-16.802265167236328,0.9179540872573853,-0.09299534559249878,-0.23998799920082092,-2.0593857765197754,-0.9100738763809204,-2.961671829223633
196,28350,28352,-0.006230742670595646,0.04388617351651192,0.9149810075759888,30.46544075012207,37.16208267211914,-15.071344375610352,0.919454038143158,-0.10649467259645462,-0.24448777735233307,-2.654569387435913,-0.8980000615119934,-3.1566011905670166
197,28360,28362,-0.11268441379070282,-0.0016679015243425965,0.8486269116401672,51.372467041015625,22.82073402404785,-11.729108810424805,0.9179540872573853,-0.113994300365448,-0.24898754060268402,-2.965035915374756,-0.6592310070991516,-3.306809186935425
198,28370,28372,-0.04873369261622429,0.009229801595211029,0.9885572195053101,62.321685791015625,0.17367365956306458,-9.062481880187988,0.919454038143158,-0.13049347698688507,-0.2474876195192337,-3.301497459411621,-0.015942858532071114,-3.395536184310913
199,28380,28382,-0.0009009694331325591,0.051448430866003036,0.950567901134491,56.45774841308594,-26.278247833251953,-6.442121982574463,0.9164541363716125,-0.13649317622184753,-0.2564871609210968,-3.2427947521209717,0.7034031748771667,-3.4446332454681396
200,28390,28392,-0.08279615640640259,-0.08839200437068939,0.8648955225944519,40.56418991088867,-43.44110107421875,-2.7329821586608887,0.919454038143158,-0.14249287545681,-0.2474876195192337,-2.875014543533325,0.9070739150047302,-3.6234705448150635
201,28400,28402,0.03546466678380966,0.07184286415576935,0.8190305233001709,14.410137176513672,-51.031700134277344,1.4462350606918335,0.9374530911445618,-0.14249287545681,-0.25348731875419617,-2.29253888130188,1.5592641830444336,-3.5638887882232666
202,28410,28412,0.014435680583119392,0.03685549646615982,0.8367024660110474,-10.655354499816895,-48.297122955322266,2.0919718742370605,0.9344532489776611,-0.15449227392673492,-0.25048747658729553,-1.8857150077819824,1.4312747716903687,-3.6898813247680664
203,28420,28422,-0.04515768960118294,-0.03418842703104019,0.9395909309387207,-29.900190353393555,-35.654319763183594,3.006242036819458,0.9344532489776611,-0.15449227392673492,-0.25048747658729553,-1.450589895248413,1.347899317741394,-3.6894443035125732
204,28430,28432,-0.012443753890693188,0.03876539692282677,0.9294753670692444,-41.283878326416016,-19.174198150634766,3.223607063293457,0.9344532489776611,-0.15449227392673492,-0.25048747658729553,-1.220035433769226,1.0976102352142334,-3.678632974624634
205,28440,28442,-0.009134309366345406,0.11817124485969543,1.0197588205337524,-41.08910369873047,-4.791884422302246,2.8508636951446533,0.9344532489776611,-0.15449227392673492,-0.25048747658729553,-0.9564255475997925,0.5975165367126465,-3.6776230335235596
206,28450,28452,-0.007036006078124046,0.017220862209796906,0.9587197303771973,-32.774757385253906,6.207156181335449,3.409036636352539,0.950952410697937,-0.14399279654026031,-0.24898754060268402,-1.0091578960418701,0.11591094732284546,-3.690965414047241
207,28460,28462,-0.048501238226890564,-0.010780206881463528,0.963305652141571,-17.666200637817383,12.7290620803833,4.035067081451416,0.9464526772499084,-0.13949301838874817,-0.25048747658729553,-1.1660441160202026,-0.04932239279150963,-3.6145687103271484
208,28470,28472,-0.009305846877396107,0.015695367008447647,0.9660655856132507,0.03817891329526901,14.180741310119629,3.6234304904937744,0.9389530420303345,-0.11999399960041046,-0.24898754060268402,-1.3369134664535522,-0.19434620440006256,-3.569801092147827
209,28480,28482,-0.050061993300914764,0.029616447165608406,0.9343215227127075,14.720312118530273,9.738492012023926,3.565037250518799,0.9344532489776611,-0.13649317622184753,-0.2654867172241211,-1.5126065015792847,-0.2950548231601715,-3.5680646896362305
210,28490,28492,-0.10110073536634445,0.006666769739240408,1.0443089008331299,23.591236114501953,-1.1132231950759888,4.030580043792725,0.9434528350830078,-0.13649317622184753,-0.25048747658729553,-1.5895483493804932,-0.08736033737659454,-3.502382278442383
211,28500,28502,-0.15823517739772797,-0.14147303998470306,1.0332227945327759,27.930274963378906,-12.330068588256836,3.736161231994629,0.950952410697937,-0.14399279654026031,-0.2579870820045471,-1.5754241943359375,0.19074128568172455,-3.4467692375183105
212,28510,28512,-0.174972265958786,-0.26473721861839294,1.0495719909667969,25.865121841430664,-20.244247436523438,3.6089165210723877,0.9524523615837097,-0.14849257469177246,-0.2594870328903198,-1.1950205564498901,0.32856327295303345,-3.4397003650665283
213,28520,28522,-0.12515932321548462,-0.14361372590065002,0.9661601185798645,21.271520614624023,-23.744850158691406,4.289432048797607,0.9479525685310364,-0.16499175131320953,-0.2639867961406708,-1.1319376230239868,0.78605055809021,-3.3486506938934326
214,28530,28532,0.028619788587093353,-0.04262829199433327,0.9414928555488586,12.671481132507324,-24.061758041381836,3.2379672527313232,0.9329533576965332,-0.15599219501018524,-0.2549872398376465,-1.199345350265503,0.8553780913352966,-3.3835623264312744
215,28540,28542,0.06807637214660645,0.214689239859581,0.9527363181114197,2.9077391624450684,-22.559539794921875,3.6287357807159424,0.9449527263641357,-0.14699265360832214,-0.2579870820045471,-0.9439402222633362,0.9317476749420166,-3.3735289573669434
216,28550,28552,-0.19595135748386383,0.28226014971733093,0.9487903714179993,-5.302087783813477,-20.765634536743164,3.185607671737671,0.9464526772499084,-0.15749211609363556,-0.26248687505722046,-0.6339215040206909,0.9960527420043945,-3.326613664627075
217,28560,28562,-0.20485641062259674,0.15755373239517212,1.0950381755828857,-10.445961952209473,-15.772756576538086,3.4103527069091797,0.9524523615837097,-0.14549271762371063,-0.26248687505722046,-0.36257925629615784,0.8553977012634277,-3.3208963871002197
218,28570,28572,-0.04636155813932419,0.058823347091674805,1.0900062322616577,-9.595074653625488,-10.323752403259277,3.7641594409942627,0.9494525194168091,-0.15449227392673492,-0.26248687505722046,-0.522632360458374,0.7224469184875488,-3.3335225582122803
219,28580,28582,0.053348518908023834,-0.0234222449362278,1.0587581396102905,-9.299969673156738,-7.014682292938232,4.190256595611572,0.9614518880844116,-0.15449227392673492,-0.2564871609210968,-0.3858604431152344,0.5906716585159302,-3.3067164421081543
220,28590,28592,-0.004697130061686039,0.015608558431267738,1.0197473764419556,-1.9806468486785889,-4.967360973358154,4.1437225341796875,0.958452045917511,-0.1514924168586731,-0.25048747658729553,-0.33638960123062134,0.5047909617424011,-3.2679851055145264
221,28600,28602,-0.18167559802532196,-0.04402904585003853,1.0453705787658691,3.741952419281006,-7.978475570678711,3.5040905475616455,0.9404529333114624,-0.15449227392673492,-0.24448777735233307,-0.3089263439178467,0.5314075350761414,-3.217613697052002
222,28610,28612,-0.19680866599082947,-0.18906915187835693,1.07559335231781,7.508984088897705,-11.198050498962402,2.054497003555298,0.9434528350830078,-0.13949301838874817,-0.24148792028427124,-0.0906825140118599,0.6354194283485413,-3.1547675132751465
223,28620,28622,-0.19778408110141754,-0.13265903294086456,1.006284475326538,8.599570274353027,-15.797204971313477,1.1349396705627441,0.950952410697937,-0.12899354100227356,-0.24898754060268402,-0.04516429454088211,0.7917695641517639,-3.120187997817993
224,28630,28632,-0.044394101947546005,-0.002194898435845971,1.0272516012191772,4.4228835105896,-17.84380340576172,1.1803832054138184,0.9389530420303345,-0.14999249577522278,-0.2549872398376465,-0.13179028034210205,0.7282858490943909,-3.162930965423584
225,28640,28642,-0.11545269191265106,-0.102871373295784,1.0450267791748047,0.44379666447639465,-18.063325881958008,1.0877221822738647,0.9539523124694824,-0.14699265360832214,-0.24298784136772156,0.1141907125711441,0.8271645307540894,-3.136227607727051
226,28650,28652,-0.03752196207642555,-0.021057140082120895,0.9005042910575867,-3.3422906398773193,-19.615909576416016,0.7465094327926636,0.9464526772499084,-0.14549271762371063,-0.25048747658729553,0.1519279181957245,0.8526089787483215,-3.142224073410034
227,28660,28662,-0.0262311901897192,0.015694258734583855,1.0101265907287598,-4.217779636383057,-21.36516571044922,-1.187947154045105,0.9569521546363831,-0.14399279654026031,-0.24898754060268402,0.5080686807632446,0.8178551197052002,-3.1233136653900146
228,28670,28672,-0.032713234424591064,-0.0825452134013176,1.0053719282150269,-3.6823151111602783,-21.037107467651367,-1.0514150857925415,0.9524523615837097,-0.14849257469177246,-0.25048747658729553,0.4481283724308014,0.6224591732025146,-3.1783931255340576
229,28680,28682,0.006057027727365494,-0.04234853759407997,0.9130675196647644,0.18283537030220032,-20.37103271484375,-1.4079203605651855,0.9614518880844116,-0.1514924168586731,-0.2474876195192337,0.6192023158073425,0.5984449982643127,-3.195892095565796
230,28690,28692,-0.0039190929383039474,-0.06822218000888824,1.0435070991516113,6.9031901359558105,-19.6977596282959,-1.5541706085205078,0.9569521546363831,-0.14699265360832214,-0.26098695397377014,1.0624438524246216,0.6376502513885498,-3.1838583946228027
231,28700,28702,-0.0366586409509182,-0.09397736936807632,1.1006975173950195,13.233626365661621,-18.972278594970703,-1.2028354406356812,0.958452045917511,-0.14549271762371063,-0.25048747658729553,1.1243059635162354,0.7853806018829346,-3.2096669673919678
232,28710,28712,-0.05925287678837776,-0.0006965693319216371,1.1041460037231445,19.798185348510742,-19.108680725097656,-1.7748548984527588,0.9704514741897583,-0.15449227392673492,-0.24448777735233307,1.5433108806610107,0.7601041197776794,-3.2100305557250977
233,28720,28722,0.0005658568697981536,0.03599436581134796,1.0499422550201416,17.577638626098633,-15.526718139648438,0.935684859752655,0.9644517302513123,-0.16949152946472168,-0.2474876195192337,1.5107625722885132,0.9648172855377197,-3.247627019882202
234,28730,28732,-0.12639008462429047,-0.03570615127682686,1.0606565475463867,16.831212997436523,-12.108304023742676,2.1761057376861572,0.950952410697937,-0.14399279654026031,-0.24898754060268402,1.7210397720336914,1.1423780918121338,-3.2405097484588623
235,28740,28742,-0.10157701373100281,0.0918896347284317,0.9689041376113892,8.553537368774414,-7.810902118682861,4.397127151489258,0.9734513163566589,-0.13949301838874817,-0.23548822104930878,1.936278223991394,1.4328773021697998,-3.2217798233032227
236,28750,28752,-0.20249855518341064,0.14525069296360016,1.0169912576675415,-4.115760803222656,-7.452509880065918,5.600039005279541,0.9689515233039856,-0.15599219501018524,-0.23098844289779663,1.9429957866668701,1.3587150573730469,-3.176217555999756
237,28760,28762,-0.2295999377965927,0.12729547917842865,1.137874960899353,-16.791793823242188,-7.466634273529053,7.834496021270752,0.9554522037506104,-0.14249287545681,-0.2474876195192337,2.1547906398773193,1.290309190750122,-3.103970527648926
238,28770,28772,-0.03621550649404526,0.22132514417171478,1.038741111755371,-19.30436897277832,-7.850050449371338,10.343079566955566,0.9644517302513123,-0.13049347698688507,-0.2384880781173706,1.876927137374878,1.0430798530578613,-3.0607290267944336
239,28780,28782,0.035365715622901917,0.2125275880098343,0.9978578686714172,-20.287790298461914,-4.693201065063477,12.568181991577148,0.9644517302513123,-0.1334933191537857,-0.24448777735233307,2.0425734519958496,0.8246840238571167,-2.9482040405273438
240,28790,28792,-0.013292827643454075,0.20056898891925812,1.1170145273208618,-19.339567184448242,-2.8307323455810547,14.775107383728027,0.965951681137085,-0.12599369883537292,-0.23098844289779663,2.017878770828247,0.5905128121376038,-2.8313519954681396
241,28800,28802,0.022198595106601715,0.20601239800453186,1.0924712419509888,-17.57678985595703,-3.7993106842041016,16.603099822998047,0.9644517302513123,-0.13049347698688507,-0.2384880781173706,2.119999408721924,0.44188135862350464,-2.6937255859375
242,28810,28812,-0.023113781586289406,0.0903969556093216,1.1970024108886719,-11.913866996765137,-5.0307817459106445,16.160730361938477,0.9479525685310364,-0.13499325513839722,-0.23998799920082092,2.1522316932678223,0.1952405720949173,-2.51527738571167
243,28820,28822,-0.02920042723417282,0.0010890954872593284,1.0350936651229858,-7.638025760650635,-5.434845447540283,15.251819610595703,0.9569521546363831,-0.13499325513839722,-0.227988600730896,2.184091091156006,0.03946638107299805,-2.349172830581665
244,28830,28832,-0.04451032355427742,-0.02365277335047722,1.0497864484786987,-5.984716892242432,-9.192018508911133,13.335273742675781,0.9689515233039856,-0.11999399960041046,-0.2369881421327591,2.1503546237945557,-0.057059917598962784,-2.198793888092041
245,28840,28842,-0.04921533539891243,0.051476508378982544,1.0232936143875122,-2.9549129009246826,-12.89049243927002,12.197196960449219,0.9614518880844116,-0.11549422144889832,-0.2384880781173706,2.1971864700317383,-0.0526403933763504,-2.0884978771209717
246,28850,28852,0.005264895036816597,-0.026246218010783195,0.9638621807098389,2.1420249938964844,-12.532807350158691,10.758460998535156,0.9539523124694824,-0.1229938492178917,-0.2189890444278717,2.4884822368621826,-0.00427466444671154,-1.9809561967849731
247,28860,28862,0.029723510146141052,0.010487829335033894,0.88264000415802,8.917835235595703,-9.098213195800781,9.11039924621582,0.950952410697937,-0.113994300365448,-0.227988600730896,2.4111249446868896,-0.022346103563904762,-1.8753718137741089
248,28870,28872,-0.03850264474749565,0.031308118253946304,0.9865455031394958,14.979093551635742,-1.1590715646743774,7.39276123046875,0.9569521546363831,-0.1229938492178917,-0.23098844289779663,2.627938747406006,0.15801911056041718,-1.811226725578308
249,28880,28882,-0.04904993623495102,0.03124660812318325,1.010914921760559,18.961576461791992,5.987790584564209,6.248767375946045,0.9644517302513123,-0.13649317622184753,-0.2174891233444214,2.706364870071411,0.2868303060531616,-1.7300221920013428
250,28890,28892,-0.17074325680732727,-0.1378071904182434,1.0741256475448608,19.853294372558594,10.220572471618652,4.866130352020264,0.9614518880844116,-0.12449377030134201,-0.2294885218143463,2.456923723220825,0.40927302837371826,-1.6490306854248047
251,28900,28902,-0.19879159331321716,-0.16445478796958923,0.9360864758491516,18.6972713470459,13.611660957336426,3.3087847232818604,0.9599519968032837,-0.11999399960041046,-0.24298784136772156,2.218522071838379,0.5502369403839111,-1.5813883543014526
252,28910,28912,-0.0370643325150013,0.019738471135497093,0.9560781717300415,15.21349048614502,9.195741653442383,2.2277722358703613,0.9554522037506104,-0.10649467259645462,-0.24148792028427124,2.1572415828704834,0.7993849515914917,-1.5664286613464355
253,28920,28922,-0.006084296852350235,0.03384486585855484,0.9894834160804749,10.949378967285156,1.7743457555770874,3.4695568084716797,0.9569521546363831,-0.11999399960041046,-0.23398829996585846,2.109375,0.8451624512672424,-1.5008118152618408
254,28930,28932,-0.03871285170316696,0.02887156791985035,1.0096677541732788,8.16372013092041,-7.520547389984131,2.70725417137146,0.9554522037506104,-0.12449377030134201,-0.2384880781173706,2.1065196990966797,0.9064388275146484,-1.4486310482025146
255,28940,28942,-0.03221454471349716,-0.03132567182183266,0.9950433969497681,3.6322948932647705,-13.847904205322266,2.918541193008423,0.965951681137085,-0.14699265360832214,-0.227988600730896,2.1061487197875977,0.9105276465415955,-1.3930785655975342
256,28950,28952,-0.3202511966228485,-0.22691813111305237,0.9339998364448547,0.7708340287208557,-15.351612091064453,3.5646374225616455,0.9599519968032837,-0.13799309730529785,-0.2369881421327591,2.4143826961517334,0.9916418194770813,-1.3773077726364136
257,28960,28962,-0.20351970195770264,-0.07786020636558533,1.0029504299163818,-1.4379570484161377,-16.989233016967773,5.609999179840088,0.9824508428573608,-0.1514924168586731,-0.23548822104930878,2.52651309967041,1.0260357856750488,-1.3565248250961304
258,28970,28972,-0.03562984615564346,0.027775032445788383,1.0258030891418457,3.1389784812927246,-15.229640007019043,5.686232089996338,0.9824508428573608,-0.14249287545681,-0.2384880781173706,2.654651403427124,0.9658307433128357,-1.2901028394699097
259,28980,28982,-0.040074076503515244,0.010291229002177715,1.0058897733688354,8.1055326461792,-10.163207054138184,5.6600728034973145,0.9839507937431335,-0.14999249577522278,-0.2369881421327591,2.884003162384033,1.064380407333374,-1.2630615234375
260,28990,28992,-0.019625654444098473,0.017439864575862885,1.0395307540893555,13.390972137451172,-5.290255069732666,6.048404693603516,0.9599519968032837,-0.16499175131320953,-0.2369881421327591,2.874450445175171,1.1599310636520386,-1.221335530281067
261,29000,29002,-0.04138549044728279,0.014337358064949512,1.0163154602050781,14.432580947875977,-0.9008777141571045,5.950478553771973,0.9809509515762329,-0.14699265360832214,-0.23098844289779663,2.870880126953125,1.2583438158035278,-1.1553082466125488
262,29010,29012,-0.06448361277580261,0.0007481885841116309,1.039704442024231,10.508675575256348,1.8163241147994995,7.44337272644043,0.9749512076377869,-0.14999249577522278,-0.24298784136772156,2.8020849227905273,1.2942759990692139,-1.0565177202224731
263,29020,29022,-0.08243458718061447,-0.005646954756230116,1.0633288621902466,9.639694213867188,-1.3732439279556274,6.732861042022705,0.9749512076377869,-0.1529923528432846,-0.24298784136772156,2.847571611404419,1.4952080249786377,-1.0226414203643799
264,29030,29032,-0.07700464874505997,-0.02828282117843628,1.0496971607208252,8.135540008544922,-1.889931321144104,8.401411056518555,0.9629518389701843,-0.14999249577522278,-0.24898754060268402,2.7813661098480225,1.5281919240951538,-0.9317951798439026
265,29040,29042,0.010839809663593769,0.06391990184783936,1.0737894773483276,2.1952033042907715,-5.825356483459473,6.333220481872559,0.9764511585235596,-0.16649167239665985,-0.23248836398124695,2.884242534637451,1.6684781312942505,-0.871597409248352
266,29050,29052,-0.032829806208610535,0.0136919179931283,1.0258933305740356,-2.049128293991089,-5.157705783843994,6.336493968963623,0.9689515233039856,-0.14399279654026031,-0.23398829996585846,2.9602389335632324,1.561488389968872,-0.7489420175552368
267,29060,29062,-0.087562195956707,0.011421102099120617,1.0301363468170166,-6.468462944030762,2.9577319622039795,6.982539176940918,0.9689515233039856,-0.15599219501018524,-0.23998799920082092,2.9284021854400635,1.5427700281143188,-0.6957485675811768
268,29070,29072,-0.07853194326162338,-0.010685212910175323,1.0333677530288696,-9.956342697143555,11.489025115966797,3.9450132846832275,0.9644517302513123,-0.1334933191537857,-0.2474876195192337,2.9093246459960938,1.5165190696716309,-0.6458693742752075
269,29080,29082,-0.12400614470243454,0.009840601123869419,1.0557262897491455,-14.534014701843262,15.812911033630371,2.7584476470947266,0.9674516320228577,-0.14549271762371063,-0.23248836398124695,2.8274965286254883,1.359539270401001,-0.5748468041419983
270,29090,29092,-0.10729669779539108,-0.027935782447457314,1.0283666849136353,-18.22260093688965,24.073577880859375,4.233597278594971,0.9674516320228577,-0.13049347698688507,-0.2294885218143463,2.584413766860962,1.2759547233581543,-0.5814399123191833
271,29100,29102,0.10982196033000946,0.16385240852832794,0.9474737048149109,-18.55784797668457,32.07493591308594,6.977219581604004,0.9644517302513123,-0.12749361991882324,-0.2384880781173706,2.3059723377227783,1.0583020448684692,-0.5224878191947937
272,29110,29112,-0.015396060422062874,0.007025320548564196,0.9813620448112488,-18.332674026489258,25.16039276123047,9.415679931640625,0.9599519968032837,-0.11699414998292923,-0.23398829996585846,1.9183387756347656,1.1216986179351807,-0.5706576108932495
273,29120,29122,-0.034007616341114044,-0.012548381462693214,0.9879052042961121,-17.14063262939453,12.700705528259277,11.47408676147461,0.9674516320228577,-0.13949301838874817,-0.2384880781173706,1.7236125469207764,0.8216155171394348,-0.41795217990875244
274,29130,29132,0.0013946753460913897,0.09773056209087372,1.042175531387329,-18.809375762939453,1.9651508331298828,12.519393920898438,0.9719513654708862,-0.14399279654026031,-0.2369881421327591,1.5716601610183716,0.6077541708946228,-0.28929781913757324
275,29140,29142,-0.05922482907772064,0.025668522343039513,1.0011825561523438,-19.136131286621094,-8.369405746459961,10.764202117919922,0.9704514741897583,-0.13049347698688507,-0.24148792028427124,1.4613572359085083,0.4385167956352234,-0.18482980132102966
276,29150,29152,-0.05514107272028923,0.042455241084098816,1.0370479822158813,-15.916046142578125,-18.3638916015625,10.14881706237793,0.9779511094093323,-0.12899354100227356,-0.2459876984357834,1.6475434303283691,0.33899685740470886,-0.10103338211774826
277,29160,29162,-0.03486287593841553,0.038598425686359406,1.0420503616333008,-6.290064334869385,-25.58957862854004,9.642755508422852,0.9704514741897583,-0.15449227392673492,-0.24448777735233307,1.9913060665130615,0.24487806856632233,-0.006233564577996731
278,29170,29172,-0.03513294458389282,0.0376385934650898,1.0204596519470215,5.916746616363525,-27.83803939819336,10.541301727294922,0.9779511094093323,-0.14999249577522278,-0.2369881421327591,2.2222986221313477,0.2324783056974411,0.06831841915845871
279,29180,29182,-0.017003661021590233,-0.061399947851896286,0.941797137260437,12.66427993774414,-22.382383346557617,11.211512565612793,0.9779511094093323,-0.1529923528432846,-0.25198739767074585,2.529780387878418,0.17274785041809082,0.20947770774364471
280,29190,29192,-0.11550194025039673,0.038443852216005325,1.0658859014511108,16.499910354614258,-12.043112754821777,12.341391563415527,0.9644517302513123,-0.15749211609363556,-0.2384880781173706,2.6037933826446533,0.29176026582717896,0.3114067018032074
281,29200,29202,-0.05126805603504181,-0.007694725412875414,1.0338153839111328,18.377464294433594,1.3024938106536865,11.009456634521484,0.9809509515762329,-0.13799309730529785,-0.227988600730896,2.725827217102051,0.5393204092979431,0.3969411849975586
282,29210,29212,-0.08390016853809357,0.013100625947117805,1.0373562574386597,12.0698881149292,17.875825881958008,7.684545993804932,0.9689515233039856,-0.14699265360832214,-0.24298784136772156,2.692460536956787,0.6676919460296631,0.5206629633903503
283,29220,29222,-0.03777027502655983,-0.020602697506546974,0.9979464411735535,-8.876978874206543,37.873085021972656,4.702625751495361,0.9704514741897583,-0.13649317622184753,-0.24448777735233307,2.3722846508026123,0.7261417508125305,0.6183058619499207
284,29230,29232,0.03127758949995041,0.013627630658447742,0.981540858745575,-26.76816177368164,47.05860137939453,3.389040946960449,0.9704514741897583,-0.14549271762371063,-0.24148792028427124,1.9083882570266724,0.5970710515975952,0.6869929432868958
285,29240,29242,0.008105944842100143,-0.019782045856118202,0.9869480729103088,-44.31170654296875,46.25557327270508,2.504796266555786,0.9704514741897583,-0.14549271762371063,-0.24148792028427124,1.3921691179275513,0.2560647130012512,0.749731719493866
286,29250,29252,0.00961693748831749,0.0018133283592760563,0.9909200668334961,-51.99550247192383,39.36455535888672,-1.2975789308547974,0.9704514741897583,-0.14549271762371063,-0.24148792028427124,0.9775842428207397,-0.19149526953697205,0.7813853621482849
287,29260,29262,0.00697715487331152,0.024699408560991287,1.0396772623062134,-46.888362884521484,26.824310302734375,-5.109412670135498,0.9704514741897583,-0.15749211609363556,-0.26848655939102173,0.5461127161979675,-0.7372357845306396,0.7755832672119141
288,29270,29272,-0.015208757482469082,-0.0009386888705193996,1.0664527416229248,-30.386343002319336,11.886423110961914,-9.560589790344238,0.9824508428573608,-0.14549271762371063,-0.25348731875419617,0.39101430773735046,-1.250071406364441,0.7324116826057434
289,29280,29282,-0.04584009200334549,0.01829364523291588,1.104997158050537,-6.62350606918335,-4.317336082458496,-13.795236587524414,0.9794510006904602,-0.14849257469177246,-0.2384880781173706,0.2580685019493103,-1.4746495485305786,0.6178643107414246
290,29290,29292,-0.0278682429343462,0.018190480768680573,1.0869709253311157,13.940791130065918,-19.178136825561523,-14.808894157409668,0.9749512076377869,-0.16499175131320953,-0.25198739767074585,0.3871481120586395,-1.3970799446105957,0.44916990399360657
291,29300,29302,-0.020721610635519028,-0.015262733213603497,1.0835413932800293,24.279096603393555,-34.40591812133789,-15.111763000488281,0.9794510006904602,-0.16349181532859802,-0.25348731875419617,0.7510312795639038,-1.2987618446350098,0.29461103677749634
292,29310,29312,-0.05205201357603073,0.004008314572274685,1.1061811447143555,28.872188568115234,-36.439266204833984,-14.278169631958008,0.9839507937431335,-0.17699114978313446,-0.2579870820045471,1.1104792356491089,-0.9696534872055054,0.13594897091388702
293,29320,29322,-0.009848051704466343,0.021870560944080353,1.068089485168457,32.35439682006836,-25.91257095336914,-13.31937026977539,0.9734513163566589,-0.16349181532859802,-0.2564871609210968,1.610669732093811,-0.5713507533073425,-0.0352608822286129
294,29330,29332,-0.04940037429332733,-0.018864817917346954,1.049546241760254,36.180580139160156,-4.883474349975586,-12.029516220092773,0.9704514741897583,-0.1514924168586731,-0.23548822104930878,1.8334453105926514,-0.324288547039032,-0.1484212577342987
295,29340,29342,-0.01847032643854618,-0.0008164395694620907,1.0443092584609985,34.209049224853516,20.257152557373047,-11.610876083374023,0.958452045917511,-0.14549271762371063,-0.25348731875419617,1.84193754196167,-0.027726296335458755,-0.2504212558269501
296,29350,29352,-0.006885309237986803,0.0458260215818882,1.033323884010315,28.18376922607422,39.1280632019043,-10.939044952392578,0.9494525194168091,-0.13049347698688507,-0.24148792028427124,1.4676237106323242,0.3020806610584259,-0.333450049161911
297,29360,29362,-0.06748121231794357,-0.004777068272233009,1.0576386451721191,20.17366600036621,47.11553955078125,-9.535808563232422,0.9479525685310364,-0.13499325513839722,-0.23098844289779663,0.9620043635368347,0.6052626371383667,-0.4228087365627289
298,29370,29372,-0.08202508091926575,-0.01504470407962799,1.070736050605774,10.638084411621094,44.21335983276367,-8.187647819519043,0.9494525194168091,-0.1334933191537857,-0.23248836398124695,0.2887944281101227,0.8393189311027527,-0.4857432246208191
299,29380,29382,-0.011736639775335789,-0.006419018842279911,1.0074199438095093,-0.7234543561935425,31.963926315307617,-6.98952579498291,0.9419528841972351,-0.13799309730529785,-0.2459876984357834,0.035374630242586136,0.8452344536781311,-0.5754237771034241
300,29390,29392,-0.00985791813582182,-0.013089924119412899,1.0106799602508545,-8.429414749145508,12.652108192443848,-6.395572662353516,0.9449527263641357,-0.1229938492178917,-0.2459876984357834,-0.2979344427585602,0.8934690356254578,-0.6427193284034729
301,29400,29402,0.04424624145030975,0.030392097309231758,1.0152825117111206,-12.169486045837402,-3.443356513977051,-4.2134575843811035,0.9389530420303345,-0.11099445074796677,-0.24298784136772156,-0.46287959814071655,0.7542924880981445,-0.7014690041542053
302,29410,29412,0.02248632349073887,-0.0058682020753622055,0.9949715733528137,-11.721772193908691,-16.962984085083008,-2.8323962688446045,0.950952410697937,-0.12599369883537292,-0.23398829996585846,-0.4299374520778656,0.5646927952766418,-0.7478384971618652
303,29420,29422,-0.037798892706632614,-0.018695088103413582,1.0387593507766724,-7.5273895263671875,-26.48820686340332,-1.1191604137420654,0.958452045917511,-0.12149392068386078,-0.24148792028427124,-0.1254453957080841,0.4526421129703522,-0.7867211699485779
304,29430,29432,-0.04536872357130051,-0.013611956499516964,1.0265756845474243,-1.2376508712768555,-30.57975959777832,0.5681741237640381,0.9494525194168091,-0.11849407106637955,-0.2294885218143463,0.32000407576560974,0.4201653003692627,-0.8130648732185364
305,29440,29442,-0.07484503835439682,-0.005550236441195011,1.027443528175354,4.580496788024902,-25.56614875793457,4.3957672119140625,0.9314534068107605,-0.12149392068386078,-0.22648866474628448,0.5795467495918274,0.41474223136901855,-0.807725191116333
306,29450,29452,0.005656637251377106,-0.021649150177836418,0.9610036611557007,5.240802764892578,-18.198307037353516,5.416884899139404,0.9314534068107605,-0.11249437183141708,-0.22648866474628448,0.7596889734268188,0.5647209882736206,-0.7577091455459595
307,29460,29462,-0.016056912019848824,0.015022778883576393,0.9714557528495789,-0.7518296241760254,-9.263422012329102,5.4267425537109375,0.9389530420303345,-0.11699414998292923,-0.22498874366283417,1.0256484746932983,0.5658097267150879,-0.7144158482551575
308,29470,29472,-0.04786011949181557,0.013191118836402893,0.9566968083381653,-13.316709518432617,0.8883501887321472,5.984497547149658,0.958452045917511,-0.12449377030134201,-0.22648866474628448,1.15072500705719,0.5871813297271729,-0.6611273884773254
309,29480,29482,-0.01949581876397133,-0.0013762180460616946,0.9123103618621826,-23.0972957611084,8.24191951751709,5.453625202178955,0.9569521546363831,-0.11699414998292923,-0.23098844289779663,1.0429326295852661,0.3344254195690155,-0.6034020781517029
310,29490,29492,0.021118421107530594,0.03194689378142357,0.9120927453041077,-29.47754669189453,16.070388793945312,6.057445049285889,0.9614518880844116,-0.10949452221393585,-0.22048896551132202,0.9567029476165771,0.07827562093734741,-0.5473985075950623
311,29500,29502,0.056492261588573456,0.10916133970022202,0.9782724380493164,-27.385494232177734,24.010406494140625,6.643406867980957,0.9569521546363831,-0.113994300365448,-0.23098844289779663,0.759595513343811,-0.18849524855613708,-0.48414358496665955
312,29510,29512,-0.08932650834321976,-0.01014121063053608,1.0027846097946167,-19.692493438720703,27.83222198486328,5.821410655975342,0.9524523615837097,-0.12449377030134201,-0.2294885218143463,0.36369678378105164,-0.41715893149375916,-0.41016650199890137
313,29520,29522,-0.007837317883968353,-0.004016959574073553,0.9003996253013611,-11.844768524169922,26.06831932067871,5.091838359832764,0.9344532489776611,-0.10949452221393585,-0.2384880781173706,0.12360671162605286,-0.5837234854698181,-0.35207852721214294
314,29530,29532,0.0172356516122818,0.027462517842650414,0.9594154357910156,-8.920760154724121,13.468195915222168,5.041043758392334,0.9539523124694824,-0.10799460113048553,-0.23398829996585846,-0.1945514976978302,-0.7907410860061646,-0.30499693751335144
315,29540,29542,-0.04728911444544792,0.009194735437631607,0.9314714074134827,-5.854055881500244,-2.58135986328125,4.7540202140808105,0.9389530420303345,-0.11999399960041046,-0.2369881421327591,-0.17037975788116455,-0.7901972532272339,-0.26105010509490967
316,29550,29552,0.017838353291153908,0.04509840905666351,0.9343392252922058,-4.289390563964844,-17.475866317749023,3.695554494857788,0.9434528350830078,-0.11849407106637955,-0.23248836398124695,-0.116498664021492,-0.8213645219802856,-0.21642014384269714
317,29560,29562,-0.06823261082172394,-0.006355001125484705,0.9602907299995422,-1.8824152946472168,-26.67271614074707,3.9967620372772217,0.958452045917511,-0.12149392068386078,-0.2294885218143463,0.029793700203299522,-0.8939752578735352,-0.17820757627487183
318,29570,29572,-0.06512884795665741,-0.007423527538776398,0.9086905121803284,-0.968237578868866,-29.240962982177734,2.941474676132202,0.9539523124694824,-0.13799309730529785,-0.2369881421327591,0.23087839782238007,-0.8610970973968506,-0.12231702357530594
319,29580,29582,-0.0773017406463623,-0.01954864338040352,0.9409971833229065,-0.4970692992210388,-23.637020111083984,4.350639820098877,0.9494525194168091,-0.11849407106637955,-0.25048747658729553,0.6841109991073608,-0.8894810080528259,-0.1107877716422081
320,29590,29592,-0.023381918668746948,0.004324541427195072,0.9642214179039001,3.9176828861236572,-13.063820838928223,5.720234394073486,0.9554522037506104,-0.11849407106637955,-0.23248836398124695,0.9548364877700806,-0.896801233291626,-0.06977962702512741
321,29600,29602,-0.04938587173819542,-0.0176994651556015,0.9413072466850281,9.813321113586426,0.7244017720222473,6.174200534820557,0.9524523615837097,-0.12149392068386078,-0.22648866474628448,1.043029546737671,-0.8366084098815918,-0.0030934298411011696
322,29610,29612,-0.024536490440368652,-0.011419778689742088,0.9560188055038452,14.607077598571777,12.005929946899414,5.579842567443848,0.9479525685310364,-0.12599369883537292,-0.23398829996585846,0.9176809787750244,-0.6749235987663269,0.08402866870164871
323,29620,29622,-0.0646248534321785,-0.016396688297390938,0.9750550985336304,17.549665451049805,24.142745971679688,6.742461681365967,0.9449527263641357,-0.11699414998292923,-0.22498874366283417,0.6876315474510193,-0.5835416913032532,0.1516333371400833
324,29630,29632,0.015326001681387424,-0.022507965564727783,0.9446925520896912,19.333614349365234,34.179203033447266,8.503036499023438,0.9644517302513123,-0.12449377030134201,-0.23548822104930878,0.403956800699234,-0.30038899183273315,0.23628750443458557
325,29640,29642,0.041005995124578476,0.03152526170015335,0.9142554402351379,15.447633743286133,34.313941955566406,8.627104759216309,0.950952410697937,-0.13499325513839722,-0.23398829996585846,0.044239308685064316,-0.21526262164115906,0.3096095621585846
326,29650,29652,-0.06885359436273575,-0.0378558449447155,0.9676588773727417,4.524687767028809,24.55894660949707,7.975332736968994,0.9539523124694824,-0.14999249577522278,-0.2369881421327591,-0.44393181800842285,-0.06806253641843796,0.4184650480747223
327,29660,29662,-0.23994548618793488,-0.22231656312942505,0.9893842935562134,-8.216850280761719,9.547897338867188,5.251818656921387,0.9539523124694824,-0.14699265360832214,-0.2579870820045471,-0.612735390663147,-0.004857083782553673,0.4837615191936493
328,29670,29672,0.043561965227127075,0.013449300080537796,0.9378201961517334,-15.95386791229248,-3.941091775894165,3.143494129180908,0.9554522037506104,-0.14849257469177246,-0.25048747658729553,-0.7356991171836853,-0.16158261895179749,0.5256235599517822
329,29680,29682,-0.0354808084666729,-0.10820521414279938,1.0161782503128052,-19.13173484802246,-14.544964790344238,2.2030892372131348,0.9704514741897583,-0.14249287545681,-0.24148792028427124,-0.6606806516647339,-0.35293224453926086,0.5458651185035706
330,29690,29692,-0.029219983145594597,-0.0024574589915573597,1.0037950277328491,-16.011472702026367,-19.84234046936035,1.8351746797561646,0.9764511585235596,-0.16349181532859802,-0.2564871609210968,-0.47809267044067383,-0.509283721446991,0.5685595870018005
331,29700,29702,0.0353982038795948,0.04083435237407684,0.9796943068504333,-8.988471984863281,-22.097389221191406,0.800650954246521,0.9689515233039856,-0.16499175131320953,-0.2459876984357834,-0.21666529774665833,-0.6811001300811768,0.57671058177948
332,29710,29712,-0.012886391952633858,0.02105250582098961,1.0145753622055054,0.9533132314682007,-17.528364181518555,0.9828293919563293,0.9614518880844116,-0.16349181532859802,-0.25348731875419617,-0.08380590379238129,-0.7237697839736938,0.6103431582450867
333,29720,29722,-0.03069767728447914,0.023374663665890694,1.0240516662597656,9.804521560668945,-11.371908187866211,-0.2533443868160248,0.9524523615837097,-0.1604919731616974,-0.24448777735233307,0.04984722658991814,-0.6846094727516174,0.6345534324645996
334,29730,29732,-0.06765332072973251,0.031182026490569115,1.031410813331604,12.851048469543457,-3.7772903442382812,1.6728849411010742,0.9644517302513123,-0.14549271762371063,-0.24148792028427124,0.21354854106903076,-0.5149085521697998,0.6415576338768005
335,29740,29742,0.0006455390830524266,0.03588896989822388,1.0318862199783325,14.184690475463867,-3.2776970863342285,0.7879192233085632,0.9524523615837097,-0.14849257469177246,-0.2474876195192337,0.2696068286895752,-0.3739653527736664,0.6544996500015259
336,29750,29752,-0.06877157837152481,-0.03179468214511871,1.022405743598938,10.55224895477295,-6.821090221405029,-0.2130279242992401,0.9524523615837097,-0.14249287545681,-0.24448777735233307,0.3218775987625122,-0.29890596866607666,0.6464446187019348
337,29760,29762,-0.03924236074090004,0.03927883505821228,1.0568532943725586,1.0475468635559082,-12.075216293334961,-3.169238567352295,0.9599519968032837,-0.14399279654026031,-0.24298784136772156,0.441556453704834,-0.15788573026657104,0.6422310471534729
338,29770,29772,-0.05308469757437706,-0.013041037134826183,1.061551570892334,-2.8175911903381348,-18.5589542388916,-6.8517374992370605,0.9689515233039856,-0.13499325513839722,-0.22498874366283417,0.36227625608444214,-0.2208900898694992,0.6267545819282532
339,29780,29782,-0.05278782546520233,0.005753581877797842,1.030465006828308,-3.5929198265075684,-20.29153823852539,-8.44652271270752,0.9524523615837097,-0.12449377030134201,-0.24448777735233307,0.6720523834228516,-0.3267962336540222,0.5276507139205933
340,29790,29792,-0.029417574405670166,0.06448841094970703,1.0772944688796997,-7.644115924835205,-11.931680679321289,-10.575274467468262,0.9569521546363831,-0.12899354100227356,-0.24298784136772156,0.7116841673851013,-0.3126235604286194,0.4762609601020813
341,29800,29802,-0.0593312606215477,0.018535658717155457,1.043646216392517,-8.076348304748535,4.387879371643066,-12.23215389251709,0.9614518880844116,-0.10949452221393585,-0.23548822104930878,0.8850626349449158,-0.4238581955432892,0.36083224415779114
342,29810,29812,-0.02146078646183014,0.03128886595368385,1.043247938156128,-5.130249500274658,13.271865844726562,-12.598559379577637,0.9599519968032837,-0.12899354100227356,-0.24298784136772156,0.8079901337623596,-0.6113815903663635,0.2327023446559906
343,29820,29822,-0.039963122457265854,0.02832270786166191,1.0526533126831055,0.19410426914691925,19.181459426879883,-13.469451904296875,0.9464526772499084,-0.11549422144889832,-0.23548822104930878,0.5949490666389465,-0.5943860411643982,0.127600759267807
344,29830,29832,-0.000687602034304291,0.014950183220207691,1.028719186782837,4.727688312530518,19.903764724731445,-14.870083808898926,0.958452045917511,-0.11249437183141708,-0.23248836398124695,0.30090489983558655,-0.5701578259468079,0.01304925698786974
345,29840,29842,-0.05544266477227211,-0.0431111641228199,0.9331677556037903,14.160557746887207,16.21971321105957,-16.38199234008789,0.9569521546363831,-0.11699414998292923,-0.24298784136772156,0.22196447849273682,-0.5293098092079163,-0.15092474222183228
346,29850,29852,-0.09159672260284424,-0.04114069417119026,0.9825792908668518,23.766490936279297,6.189145565032959,-16.63896942138672,0.958452045917511,-0.12749361991882324,-0.23548822104930878,0.07616560906171799,-0.2768040597438812,-0.2969083786010742
347,29860,29862,-0.031125251203775406,0.0024750344455242157,1.0058552026748657,31.589872360229492,-2.8405089378356934,-15.876644134521484,0.9494525194168091,-0.12749361991882324,-0.2384880781173706,0.007035324349999428,-0.01647278293967247,-0.45611771941185
348,29870,29872,0.03107606992125511,0.06603740155696869,1.0520899295806885,35.75021743774414,-10.418559074401855,-14.797242164611816,0.950952410697937,-0.12899354100227356,-0.2369881421327591,0.08173778653144836,0.3572317063808441,-0.6135381460189819
349,29880,29882,-0.03002004697918892,-0.0014142023865133524,0.9986928105354309,35.6734504699707,-12.942988395690918,-11.87767219543457,0.9479525685310364,-0.13799309730529785,-0.2459876984357834,0.26296281814575195,0.5209798216819763,-0.7993982434272766
350,29890,29892,-0.09457522630691528,-0.037209928035736084,1.0077292919158936,31.5500545501709,-16.671512603759766,-7.890773296356201,0.9494525194168091,-0.14249287545681,-0.22648866474628448,0.270618736743927,1.0389291048049927,-0.8906239867210388
351,29900,29902,-0.023900501430034637,0.011813391000032425,1.0012317895889282,20.286754608154297,-12.164799690246582,-4.037510871887207,0.9524523615837097,-0.13049347698688507,-0.23548822104930878,0.5410046577453613,1.3909130096435547,-0.9810963273048401
352,29910,29912,-0.02688095159828663,-0.008032828569412231,1.0013172626495361,-1.8484289646148682,2.20054292678833,2.480071544647217,0.9464526772499084,-0.13049347698688507,-0.2474876195192337,0.7119735479354858,1.546426773071289,-1.0380778312683105
353,29920,29922,-0.006464800331741571,-0.026234980672597885,0.9326280355453491,-27.367666244506836,14.442726135253906,7.282511234283447,0.950952410697937,-0.14399279654026031,-0.25198739767074585,0.6667053699493408,1.3955070972442627,-1.0346020460128784
354,29930,29932,-0.08808545023202896,-0.007755281403660774,0.9570918679237366,-49.78787612915039,27.429027557373047,10.735251426696777,0.9569521546363831,-0.14399279654026031,-0.25198739767074585,0.399868369102478,1.1238296031951904,-0.9616007208824158
355,29940,29942,-0.18155264854431152,-0.05186330899596214,1.0739833116531372,-60.498985290527344,27.910829544067383,12.965784072875977,0.9764511585235596,-0.13649317622184753,-0.2474876195192337,0.049134910106658936,0.4631141722202301,-0.8737639784812927
356,29950,29952,-0.024403845891356468,-0.07938983291387558,0.9110085368156433,-56.18436813354492,23.77157211303711,14.299677848815918,0.9629518389701843,-0.13799309730529785,-0.2579870820045471,-0.31951501965522766,-0.2005855143070221,-0.7584108114242554
357,29960,29962,-0.06283501535654068,-0.1763240247964859,1.0123555660247803,-43.25956344604492,10.352633476257324,12.501180648803711,0.9614518880844116,-0.13649317622184753,-0.25348731875419617,-0.5415382385253906,-0.49901866912841797,-0.5842269659042358
358,29970,29972,-0.10881898552179337,-0.19861818850040436,1.0128506422042847,-27.868499755859375,-5.426895618438721,9.717190742492676,0.9629518389701843,-0.13799309730529785,-0.2579870820045471,-0.6892786622047424,-1.0403985977172852,-0.47232741117477417
359,29980,29982,0.02439277246594429,0.025025570765137672,0.9801154136657715,-6.0969014167785645,-20.570755004882812,3.9251537322998047,0.9569521546363831,-0.13499325513839722,-0.24898754060268402,-0.5501381158828735,-1.1636621952056885,-0.35075441002845764
360,29990,29992,-0.004280846565961838,-0.0346016027033329,0.9142371416091919,20.18967056274414,-26.03558349609375,0.2496483325958252,0.9674516320228577,-0.14549271762371063,-0.23548822104930878,-0.23429900407791138,-1.2604236602783203,-0.3034278154373169
361,30000,30002,-0.01370003167539835,-0.0925709530711174,0.9307021498680115,40.24947738647461,-28.543981552124023,-1.3025681972503662,0.9539523124694824,-0.14399279654026031,-0.25198739767074585,-0.034185659140348434,-1.067982792854309,-0.2870953679084778
362,30010,30012,-0.05532608553767204,-0.03098546341061592,0.9341995716094971,54.55442428588867,-31.06643295288086,-2.3221347332000732,0.9734513163566589,-0.17249137163162231,-0.2594870328903198,0.43922004103660583,-0.5293787717819214,-0.28561466932296753
363,30020,30022,-0.0558050237596035,-0.01493244618177414,1.0168232917785645,55.23893737792969,-34.07688903808594,-2.8675785064697266,0.9734513163566589,-0.17249137163162231,-0.2594870328903198,0.8021286129951477,0.07262194156646729,-0.30120575428009033
364,30030,30032,-0.037021830677986145,0.01422034576535225,1.0350927114486694,45.996761322021484,-36.597930908203125,-5.769299507141113,0.9734513163566589,-0.17249137163162231,-0.2594870328903198,1.144478678703308,0.45289668440818787,-0.35480859875679016
365,30040,30042,-0.08814850449562073,-0.02415667660534382,1.0692861080169678,34.599483489990234,-32.40427017211914,-5.204170227050781,0.9734513163566589,-0.17249137163162231,-0.2594870328903198,1.5781176090240479,1.1089588403701782,-0.4010464549064636
366,30050,30052,-0.24245098233222961,-0.19811192154884338,1.161874532699585,20.92759895324707,-26.277612686157227,-3.4250545501708984,0.9779511094093323,-0.15899205207824707,-0.2459876984357834,1.6722548007965088,1.2446134090423584,-0.4695674777030945
367,30060,30062,-0.10563929378986359,-0.05177612230181694,1.1199275255203247,4.715636253356934,-20.162580490112305,-4.12075662612915,0.9764511585235596,-0.18449077010154724,-0.25048747658729553,2.083294630050659,1.5630942583084106,-0.5140607357025146
368,30070,30072,-0.17993924021720886,-0.21555373072624207,1.0715065002441406,-12.110501289367676,-18.78586769104004,-3.7273406982421875,0.9839507937431335,-0.1529923528432846,-0.2459876984357834,2.175623655319214,1.4721614122390747,-0.5620673894882202
369,30080,30082,-0.03705122694373131,-0.02150876633822918,1.1117674112319946,-23.230792999267578,-12.895379066467285,-4.315500259399414,0.9869506359100342,-0.1799909919500351,-0.2549872398376465,2.378100872039795,1.3846352100372314,-0.6022910475730896
370,30090,30092,-0.1606484353542328,-0.09771278500556946,1.1186999082565308,-25.42549705505371,-3.144541025161743,-4.964978218078613,0.9944502711296082,-0.16649167239665985,-0.25048747658729553,2.4087421894073486,1.0861469507217407,-0.6481072902679443
371,30100,30102,-0.07270105928182602,-0.01582510955631733,1.1305485963821411,-24.74540138244629,4.382636547088623,-2.014019012451172,0.9779511094093323,-0.15899205207824707,-0.25198739767074585,2.492086887359619,0.8259767293930054,-0.6911261677742004
372,30110,30112,-0.06393007189035416,0.023669084534049034,1.1072741746902466,-30.76225471496582,0.06431067734956741,-1.1223701238632202,0.9794510006904602,-0.1514924168586731,-0.25048747658729553,2.422271490097046,0.6158550381660461,-0.7187726497650146
373,30120,30122,-0.07279203087091446,-0.016955077648162842,1.081773281097412,-38.36558532714844,-6.804177284240723,-1.6479707956314087,0.9809509515762329,-0.15899205207824707,-0.2549872398376465,2.4227256774902344,0.5141991376876831,-0.7559429407119751
374,30130,30132,-0.07480574399232864,0.052032604813575745,1.1717262268066406,-37.24155044555664,-9.424522399902344,-1.0713051557540894,0.9719513654708862,-0.14399279654026031,-0.23398829996585846,2.5272066593170166,-0.12721207737922668,-0.7283865213394165
375,30140,30142,-0.12529465556144714,-0.15254922211170197,1.1668133735656738,-21.700424194335938,0.2233991175889969,0.022240575402975082,0.9869506359100342,-0.14699265360832214,-0.23398829996585846,2.7591519355773926,-0.41329512000083923,-0.7408074736595154
376,30150,30152,-0.050073541700839996,-0.05370781570672989,1.0823439359664917,0.038536593317985535,16.948667526245117,-0.1153661385178566,0.9854506850242615,-0.13949301838874817,-0.2384880781173706,2.6596782207489014,-0.5849129557609558,-0.7573670148849487
377,30160,30162,-0.09450538456439972,0.07873506098985672,1.1441147327423096,18.165502548217773,34.919677734375,-0.7469407320022583,0.9704514741897583,-0.13649317622184753,-0.23548822104930878,2.480334520339966,-0.4137469530105591,-0.7987825274467468
378,30170,30172,-0.04020772501826286,0.024330569431185722,1.0666897296905518,31.172462463378906,47.62818145751953,-3.560976982116699,0.9479525685310364,-0.13799309730529785,-0.23998799920082092,2.1280109882354736,-0.31521934270858765,-0.7896184325218201
379,30180,30182,-0.07418502122163773,0.007677965331822634,1.06943941116333,36.415584564208984,55.86479187011719,-7.659078121185303,0.9569521546363831,-0.13799309730529785,-0.24298784136772156,1.4395930767059326,0.11866801977157593,-0.8603600263595581
380,30190,30192,-0.023707186803221703,0.00266620353795588,1.060813307762146,38.43785858154297,64.07911682128906,-8.751725196838379,0.9494525194168091,-0.12449377030134201,-0.23248836398124695,1.04050874710083,0.6251678466796875,-0.9585819840431213
381,30200,30202,0.05060401186347008,0.14199210703372955,1.025648832321167,25.538002014160156,71.87084197998047,-8.885892868041992,0.9464526772499084,-0.12149392068386078,-0.2384880781173706,0.5006716251373291,0.8278483748435974,-0.9980465173721313
382,30210,30212,0.00809808075428009,0.015315406024456024,0.976494550704956,0.5746576189994812,68.24253845214844,-9.326776504516602,0.9464526772499084,-0.10049497336149216,-0.2294885218143463,-0.4899822175502777,1.1554919481277466,-1.099003791809082
383,30220,30222,0.045026812702417374,0.050505079329013824,0.8982583284378052,-22.910734176635742,56.76237869262695,-9.067644119262695,0.9284535646438599,-0.10349482297897339,-0.23548822104930878,-0.6851843595504761,1.0866825580596924,-1.1437466144561768
384,30230,30232,-0.0381692610681057,-0.004543859511613846,0.9751022458076477,-39.04420852661133,38.950042724609375,-8.603544235229492,0.9254537224769592,-0.10349482297897339,-0.23548822104930878,-1.4206280708312988,0.6671846508979797,-1.2154464721679688
385,30240,30242,0.12690424919128418,0.06313719600439072,0.9222714304924011,-45.22130584716797,21.565536499023438,-7.527078151702881,0.9344532489776611,-0.10649467259645462,-0.23548822104930878,-1.8262535333633423,0.21763597428798676,-1.2929596900939941
386,30250,30252,0.11558020114898682,0.05885416269302368,0.827899694442749,-44.56317138671875,1.8105714321136475,-7.1232123374938965,0.9434528350830078,-0.10949452221393585,-0.2384880781173706,-2.0568079948425293,-0.1101120114326477,-1.3661071062088013
387,30260,30262,0.008327861316502094,0.030272677540779114,0.9731218814849854,-34.645912170410156,-12.1652250289917,-6.1504034996032715,0.9254537224769592,-0.11849407106637955,-0.22648866474628448,-1.9677760601043701,-0.6224871277809143,-1.4318733215332031
388,30270,30272,0.04215160757303238,0.11305808275938034,0.9594898223876953,-18.933488845825195,-13.587971687316895,-5.187045574188232,0.9404529333114624,-0.10949452221393585,-0.2384880781173706,-1.8428163528442383,-0.8318430185317993,-1.477928876876831
389,30280,30282,0.1095152422785759,0.15254293382167816,0.9824692606925964,-8.83788776397705,-18.587614059448242,-2.8880369663238525,0.9389530420303345,-0.11099445074796677,-0.23098844289779663,-1.635280728340149,-1.081153154373169,-1.5294792652130127
390,30290,30292,0.002153221517801285,0.05060642212629318,1.0082664489746094,4.105945110321045,-15.854301452636719,-0.7342725992202759,0.9479525685310364,-0.1049947515130043,-0.24298784136772156,-1.3770025968551636,-1.0774829387664795,-1.5386886596679688
391,30300,30302,-0.09223540872335434,-0.08873774856328964,0.881964385509491,12.879606246948242,-8.173556327819824,1.360490083694458,0.9239537715911865,-0.10199490189552307,-0.23398829996585846,-1.1867821216583252,-1.0113072395324707,-1.5392119884490967
392,30310,30312,-0.015131966210901737,0.000797151995357126,0.9655881524085999,16.291969299316406,1.3203178644180298,3.1442935466766357,0.9239537715911865,-0.10199490189552307,-0.24298784136772156,-1.145037293434143,-0.8888038992881775,-1.5263187885284424
393,30320,30322,-0.04783110320568085,-0.021137621253728867,0.9465093612670898,17.360347747802734,7.066516876220703,4.350584030151367,0.9329533576965332,-0.10199490189552307,-0.2459876984357834,-1.1648403406143188,-0.6519047617912292,-1.4784095287322998
394,30330,30332,0.08057860285043716,0.11274265497922897,0.9813538789749146,15.685842514038086,9.581512451171875,5.590085029602051,0.9389530420303345,-0.11099445074796677,-0.23998799920082092,-1.325347661972046,-0.5427408814430237,-1.4433255195617676
395,30340,30342,0.043516453355550766,-0.045199424028396606,0.9554098844528198,9.167216300964355,7.771629333496094,5.619966983795166,0.9224538803100586,-0.11249437183141708,-0.2384880781173706,-1.2727161645889282,-0.4106060564517975,-1.4015594720840454
396,30350,30352,-0.12640073895454407,-0.0783843994140625,0.8591306805610657,4.343931198120117,6.081360340118408,5.115081787109375,0.9359531998634338,-0.09899504482746124,-0.23098844289779663,-1.3841139078140259,-0.2681604027748108,-1.3341902494430542
397,30360,30362,-0.021456383168697357,-0.01038078498095274,0.8996732831001282,0.55915367603302,3.03214430809021,4.824681282043457,0.9284535646438599,-0.10049497336149216,-0.2294885218143463,-1.5286368131637573,-0.29074186086654663,-1.3018275499343872
398,30370,30372,-0.03488855063915253,-0.040345698595047,0.9516345262527466,-1.5589207410812378,1.1447464227676392,3.9768621921539307,0.9254537224769592,-0.11549422144889832,-0.24148792028427124,-1.546120524406433,-0.30200275778770447,-1.2600855827331543
399,30380,30382,0.022452661767601967,-0.026936687529087067,0.9770776033401489,-2.2654597759246826,-2.1534013748168945,4.8431620597839355,0.9404529333114624,-0.10949452221393585,-0.2174891233444214,-1.3262693881988525,-0.3679332733154297,-1.2483505010604858
400,30390,30392,0.030400600284337997,0.02179204858839512,0.9537854194641113,-1.6606206893920898,-4.084041595458984,4.002323150634766,0.9434528350830078,-0.11549422144889832,-0.2294885218143463,-1.3282018899917603,-0.3481723964214325,-1.1859049797058105
401,30400,30402,-0.16073253750801086,-0.06429894268512726,1.0147883892059326,1.692897915840149,-2.256671905517578,5.372435569763184,0.9269536137580872,-0.10799460113048553,-0.2369881421327591,-1.4275836944580078,-0.3466198742389679,-1.1341338157653809
402,30410,30412,-0.009001138620078564,0.020722636952996254,0.9414411187171936,4.2116498947143555,0.34266403317451477,6.892968654632568,0.9419528841972351,-0.11699414998292923,-0.23398829996585846,-1.4474239349365234,-0.3225835859775543,-1.077937126159668
403,30420,30422,0.10590288788080215,0.11166880279779434,0.8867936730384827,4.874988555908203,2.3832380771636963,9.363212585449219,0.9314534068107605,-0.12749361991882324,-0.24148792028427124,-1.4850752353668213,-0.28959420323371887,-1.0059694051742554
404,30430,30432,0.05941331759095192,0.03937879949808121,0.8162261247634888,7.3154497146606445,-0.4388558566570282,12.838234901428223,0.9284535646438599,-0.12449377030134201,-0.24148792028427124,-1.468224048614502,-0.2084956020116806,-0.9029319882392883
405,30440,30442,0.033686086535453796,-0.037690795958042145,0.8247285485267639,6.990171432495117,-9.93115520477295,15.424391746520996,0.9329533576965332,-0.1319933980703354,-0.2459876984357834,-1.4782754182815552,-0.08565260469913483,-0.7622947096824646
406,30450,30452,-0.01761019416153431,0.004007864743471146,0.9449850916862488,3.167653799057007,-24.372413635253906,17.34482192993164,0.950952410697937,-0.14999249577522278,-0.23098844289779663,-1.3150900602340698,0.010890018194913864,-0.6083914637565613
407,30460,30462,-0.05856683850288391,-0.022291844710707664,0.9396693706512451,-8.99177360534668,-32.582435607910156,18.615507125854492,0.9644517302513123,-0.15749211609363556,-0.2384880781173706,-1.1395381689071655,-0.05480051785707474,-0.46754252910614014
408,30470,30472,0.017297634854912758,0.013558514416217804,0.959203839302063,-28.437105178833008,-26.498249053955078,19.50638198852539,0.9644517302513123,-0.1604919731616974,-0.24448777735233307,-0.6503020524978638,-0.23761415481567383,-0.32853642106056213
409,30480,30482,-0.02960752323269844,-0.00880320556461811,0.9225218892097473,-47.35862350463867,-16.60948944091797,19.31348991394043,0.9674516320228577,-0.15449227392673492,-0.2474876195192337,-0.28303062915802,-0.6060789227485657,-0.17011819779872894
410,30490,30492,-0.020765412598848343,0.021521082147955894,0.9093514680862427,-58.892555236816406,-7.259901523590088,18.945688247680664,0.9689515233039856,-0.14099295437335968,-0.2459876984357834,-0.22697462141513824,-1.046980857849121,0.0395292192697525
411,30500,30502,0.04407279193401337,0.052573006600141525,0.8065481781959534,-58.13796615600586,1.613817811012268,19.659523010253906,0.9704514741897583,-0.14249287545681,-0.25048747658729553,-0.1614924520254135,-1.7382397651672363,0.19630806148052216
412,30510,30512,0.0013680902775377035,0.03317195922136307,0.8934478163719177,-44.238643646240234,11.164262771606445,20.559675216674805,0.9734513163566589,-0.1334933191537857,-0.2384880781173706,-0.15773841738700867,-2.097780704498291,0.4600987136363983
413,30520,30522,-0.04108652099967003,0.04642641171813011,0.9842702746391296,-17.746479034423828,20.28862762451172,21.248353958129883,0.9629518389701843,-0.13499325513839722,-0.24898754060268402,-0.40690115094184875,-2.607776403427124,0.6548730731010437
414,30530,30532,-0.03474285081028938,0.03540102764964104,1.000910758972168,3.658304214477539,23.155529022216797,19.729658126831055,0.965951681137085,-0.1319933980703354,-0.24898754060268402,-0.7918081283569336,-2.7659435272216797,0.8886353373527527
415,30540,30542,-0.025829430669546127,0.054048143327236176,0.9991396069526672,21.33167839050293,18.849790573120117,16.222803115844727,0.9614518880844116,-0.14549271762371063,-0.25048747658729553,-0.9022126793861389,-2.5139613151550293,1.1136502027511597
416,30550,30552,0.007253771182149649,0.037817586213350296,0.976383626461029,30.722856521606445,8.670511245727539,14.4501371383667,0.958452045917511,-0.14549271762371063,-0.25048747658729553,-1.0764083862304688,-2.212993860244751,1.291763186454773
417,30560,30562,-0.003080520546063781,-0.029422741383314133,0.9454519748687744,29.384727478027344,-2.1328799724578857,13.97318172454834,0.9719513654708862,-0.15599219501018524,-0.2669866383075714,-1.2118964195251465,-2.072600841522217,1.3945562839508057
418,30570,30572,0.011268853209912777,0.02058285102248192,0.9609888792037964,22.07550621032715,-19.095914840698242,12.592578887939453,0.9539523124694824,-0.14399279654026031,-0.2459876984357834,-1.1396819353103638,-1.81742525100708,1.5090562105178833
419,30580,30582,0.027363944798707962,0.20445191860198975,0.9948564171791077,16.360122680664062,-22.218948364257812,11.790946960449219,0.9554522037506104,-0.15749211609363556,-0.2384880781173706,-0.899538516998291,-1.5202571153640747,1.6471666097640991
420,30590,30592,-0.01902257464826107,0.05835613235831261,1.0238709449768066,9.870038032531738,-24.307790756225586,10.506887435913086,0.9629518389701843,-0.170991450548172,-0.2579870820045471,-0.676641583442688,-1.4047566652297974,1.7594143152236938
421,30600,30602,-0.00481949420645833,0.004983298014849424,1.0202443599700928,0.06604712456464767,-18.526870727539062,8.259536743164062,0.9779511094093323,-0.15599219501018524,-0.25198739767074585,-0.32039904594421387,-1.394929051399231,1.8151187896728516
422,30610,30612,-0.0511510968208313,0.016203155741095543,1.0202749967575073,-5.293715953826904,-11.061325073242188,5.888282775878906,0.9779511094093323,-0.14999249577522278,-0.26098695397377014,-0.20606298744678497,-1.453439474105835,1.904270887374878
423,30620,30622,0.019078852608799934,-0.0025075816083699465,1.0169804096221924,-6.198283672332764,-1.2241767644882202,3.5944461822509766,0.9569521546363831,-0.14099295437335968,-0.2549872398376465,-0.07175184041261673,-1.589552879333496,1.9397889375686646
424,30630,30632,-0.03200642764568329,-0.0101047083735466,1.0345803499221802,-2.934208393096924,9.465299606323242,0.5947633981704712,0.9539523124694824,-0.14999249577522278,-0.25198739767074585,-0.2475992739200592,-1.7228384017944336,2.0091073513031006
425,30640,30642,-0.007218454498797655,0.12463061511516571,1.059566855430603,3.50732159614563,20.03750228881836,-2.918410301208496,0.950952410697937,-0.1319933980703354,-0.24898754060268402,-0.4254566729068756,-1.718265414237976,2.0470566749572754
426,30650,30652,-0.020268190652132034,0.018717601895332336,1.0744092464447021,9.999263763427734,20.817747116088867,-7.081043243408203,0.9554522037506104,-0.13049347698688507,-0.25348731875419617,-0.6193204522132874,-1.6042792797088623,2.031696319580078
427,30660,30662,-0.04553762078285217,-0.012848041020333767,1.0913069248199463,14.51906681060791,12.836519241333008,-11.772422790527344,0.9479525685310364,-0.13799309730529785,-0.2639867961406708,-0.7308890223503113,-1.4705474376678467,1.9408705234527588
428,30670,30672,0.02702450379729271,0.14955075085163116,1.0964754819869995,22.232654571533203,5.732881546020508,-15.132515907287598,0.9539523124694824,-0.13799309730529785,-0.24898754060268402,-0.8490822911262512,-1.3220525979995728,1.8217324018478394
429,30680,30682,0.01672179065644741,0.20492951571941376,1.1467280387878418,39.075340270996094,6.30765962600708,-15.143707275390625,0.9419528841972351,-0.13499325513839722,-0.23998799920082092,-0.9050682187080383,-1.2610292434692383,1.6428512334823608
430,30690,30692,0.004460785072296858,0.12287306785583496,1.109971284866333,55.055694580078125,9.316088676452637,-16.1137638092041,0.9464526772499084,-0.12749361991882324,-0.23548822104930878,-1.0064263343811035,-0.6341400146484375,1.5561825037002563
431,30700,30702,-0.017489982768893242,-0.009029331617057323,1.033807635307312,62.592498779296875,5.5727925300598145,-17.327667236328125,0.9404529333114624,-0.14849257469177246,-0.25348731875419617,-1.0749337673187256,-0.31851398944854736,1.3389805555343628
432,30710,30712,-0.04297690838575363,-0.007102415896952152,1.0444939136505127,58.17144012451172,-0.7180609703063965,-17.413516998291016,0.9494525194168091,-0.12449377030134201,-0.23248836398124695,-1.1666408777236938,0.38092678785324097,1.1908870935440063
433,30720,30722,0.004898416809737682,-0.012128614820539951,1.0249459743499756,50.529911041259766,-4.900763988494873,-15.766315460205078,0.9359531998634338,-0.12899354100227356,-0.24298784136772156,-1.084777593612671,1.0024811029434204,1.0068745613098145
434,30730,30732,-0.04639913886785507,-0.012760668061673641,1.0158406496047974,38.32430648803711,-11.222078323364258,-13.833111763000488,0.9314534068107605,-0.13649317622184753,-0.24148792028427124,-1.06732976436615,1.2711668014526367,0.800697386264801
435,30740,30742,0.06488267332315445,0.07258574664592743,1.058654546737671,22.3525390625,-14.002102851867676,-11.614994049072266,0.9299534559249878,-0.1319933980703354,-0.23098844289779663,-0.9509347677230835,1.768869161605835,0.683051347732544
436,30750,30752,0.1478852480649948,0.02648826315999031,0.9920803308486938,4.064643383026123,-9.649674415588379,-7.852697849273682,0.9284535646438599,-0.12749361991882324,-0.23548822104930878,-0.8613387942314148,1.8631700277328491,0.5345315933227539
437,30760,30762,-0.23219403624534607,-0.01630275510251522,0.9860419034957886,-11.32226848602295,-14.906816482543945,-4.87288236618042,0.9419528841972351,-0.13499325513839722,-0.23998799920082092,-0.6449031829833984,1.9518176317214966,0.4534642994403839
438,30770,30772,-0.2624826431274414,-0.0200174693018198,0.9698001146316528,-28.1688232421875,-16.86421012878418,-3.9568376541137695,0.9479525685310364,-0.14399279654026031,-0.23398829996585846,-0.5407169461250305,1.7193174362182617,0.3717590868473053
439,30780,30782,-0.39462319016456604,-0.021913619711995125,0.9698726534843445,-40.19025421142578,-14.309786796569824,-2.4855189323425293,0.9569521546363831,-0.1319933980703354,-0.23398829996585846,-0.2666301429271698,1.4199533462524414,0.32378101348876953
440,30790,30792,-0.5616095066070557,-0.007415892090648413,1.0026599168777466,-39.42141342163086,-7.785553455352783,-1.073723316192627,0.9479525685310364,-0.1229938492178917,-0.24898754060268402,-0.050570983439683914,0.9632217288017273,0.286342054605484
441,30800,30802,-0.34834930300712585,-0.15851278603076935,1.0039976835250854,-25.83517074584961,-1.3029887676239014,-0.8776264190673828,0.950952410697937,-0.12899354100227356,-0.24298784136772156,-0.012943604961037636,0.7055321335792542,0.2919091582298279
442,30810,30812,-0.15315291285514832,-0.1456301510334015,1.0175695419311523,-3.855376720428467,12.057381629943848,-0.004428139887750149,0.950952410697937,-0.12899354100227356,-0.24298784136772156,-0.008630681782960892,0.5188730359077454,0.2914843261241913
443,30820,30822,-0.05490139499306679,-0.01803053356707096,1.0073883533477783,16.44487190246582,22.854524612426758,1.315610408782959,0.950952410697937,-0.12899354100227356,-0.24298784136772156,-0.23539215326309204,0.5397151708602905,0.28862079977989197
444,30830,30832,0.03911209478974342,0.0015241065993905067,0.9364041686058044,29.867233276367188,25.005569458007812,0.6338215470314026,0.9569521546363831,-0.14099295437335968,-0.2369881421327591,-0.602421760559082,0.8077517747879028,0.3034016788005829
445,30840,30842,-0.005299902055412531,-0.01059839129447937,0.9269415736198425,34.6884880065918,21.878328323364258,0.43199434876441956,0.9374530911445618,-0.14549271762371063,-0.2474876195192337,-0.9884084463119507,1.2594572305679321,0.32301566004753113
446,30850,30852,-0.04173224791884422,0.010889444500207901,0.9750008583068848,32.39735412597656,7.787744522094727,-0.0497589148581028,0.9479525685310364,-0.1319933980703354,-0.2369881421327591,-1.0748449563980103,1.4881681203842163,0.33291032910346985
447,30860,30862,-0.25221505761146545,-0.18194271624088287,1.0725229978561401,18.229503631591797,-15.116437911987305,-0.1292005032300949,0.9344532489776611,-0.14249287545681,-0.24448777735233307,-0.9753462672233582,1.8752987384796143,0.3671446442604065
448,30870,30872,-0.3596346378326416,-0.25355595350265503,0.9754712581634521,-2.5706470012664795,-33.457969665527344,1.5957844257354736,0.9449527263641357,-0.14999249577522278,-0.2369881421327591,-0.9659727811813354,1.8947603702545166,0.31017836928367615
449,30880,30882,-0.7669243216514587,-0.2762863039970398,0.9745480418205261,-21.63089942932129,-46.4308967590332,2.380831718444824,0.9464526772499084,-0.1604919731616974,-0.2474876195192337,-0.39184972643852234,1.9359898567199707,0.3674771785736084
450,30890,30892,-0.35648685693740845,-0.02562122605741024,0.9197160601615906,-28.281953811645508,-52.56141662597656,4.121163845062256,0.965951681137085,-0.1619918942451477,-0.24898754060268402,0.21824820339679718,1.6050786972045898,0.3926214873790741
451,30900,30902,-0.23966030776500702,-0.2036152482032776,0.9260812997817993,-30.73261833190918,-55.592262268066406,4.217971324920654,0.9674516320228577,-0.16349181532859802,-0.25048747658729553,0.41402918100357056,1.3934482336044312,0.35121655464172363
452,30910,30912,-0.09490261226892471,-0.06985689699649811,0.8100894093513489,-32.83550262451172,-50.982730865478516,4.78007173538208,0.9749512076377869,-0.16799159348011017,-0.23398829996585846,1.008842945098877,1.0027074813842773,0.3853006958961487
453,30920,30922,-0.05768528953194618,0.0045561715960502625,0.9044895768165588,-32.22957992553711,-42.09754180908203,5.404784679412842,0.9704514741897583,-0.14849257469177246,-0.23248836398124695,1.7652859687805176,0.9112674593925476,0.5001806020736694
454,30930,30932,0.025944482535123825,0.13391587138175964,0.9639099836349487,-24.61337661743164,-20.856788635253906,6.265435695648193,0.9704514741897583,-0.15749211609363556,-0.2474876195192337,1.7140620946884155,0.4838235080242157,0.4228377640247345
455,30940,30942,-0.015757426619529724,-0.025721117854118347,0.9867719411849976,-13.339811325073242,6.792919635772705,7.741116523742676,0.9689515233039856,-0.14399279654026031,-0.23998799920082092,1.8929338455200195,0.24458251893520355,0.47023922204971313
456,30950,30952,-0.08287428319454193,0.010941526852548122,0.9438869953155518,-1.901872992515564,32.95750427246094,9.582154273986816,0.9554522037506104,-0.12749361991882324,-0.2294885218143463,1.7689169645309448,0.13479740917682648,0.5270721912384033
457,30960,30962,0.0029479183722287416,0.09812771528959274,0.9768319725990295,9.297882080078125,50.842735290527344,11.074057579040527,0.9569521546363831,-0.13799309730529785,-0.227988600730896,1.236422061920166,0.18930558860301971,0.5654953718185425
458,30970,30972,0.037211354821920395,0.048144832253456116,1.0046581029891968,18.183576583862305,51.358524322509766,12.1527738571167,0.9494525194168091,-0.13949301838874817,-0.23548822104930878,0.8673174977302551,0.2151632457971573,0.71091628074646
459,30980,30982,-0.023355640470981598,0.025691915303468704,0.9758707284927368,20.870107650756836,38.02831268310547,11.664852142333984,0.9449527263641357,-0.14399279654026031,-0.23998799920082092,0.16926278173923492,0.520641028881073,0.7789073586463928
460,30990,30992,-0.10008969157934189,-0.168244868516922,0.9809312224388123,21.123109817504883,20.63774871826172,10.11760425567627,0.950952410697937,-0.14099295437335968,-0.23998799920082092,0.24280160665512085,0.7279336452484131,0.9892334342002869
461,31000,31002,-0.11308565735816956,-0.01315347757190466,1.043826937675476,19.258363723754883,5.587651252746582,8.800568580627441,0.9539523124694824,-0.14699265360832214,-0.23998799920082092,-0.12354054301977158,1.0071923732757568,1.0558829307556152
462,31010,31012,-0.3516426682472229,-0.1986541897058487,1.0541998147964478,12.330004692077637,-5.242295265197754,8.653707504272461,0.950952410697937,-0.14099295437335968,-0.2459876984357834,-0.16804783046245575,1.2435319423675537,1.14557945728302
463,31020,31022,-0.23423464596271515,-0.11116955429315567,0.9972618222236633,4.5365095138549805,-15.456024169921875,6.639347076416016,0.958452045917511,-0.14249287545681,-0.2474876195192337,-0.03451593592762947,1.295923113822937,1.2522075176239014
464,31030,31032,-0.16369076073169708,-0.10922879725694656,1.0315728187561035,-6.0617356300354,-18.069698333740234,6.7389235496521,0.9674516320228577,-0.1514924168586731,-0.24448777735233307,0.26133885979652405,1.3460066318511963,1.347369909286499
465,31040,31042,-0.12567000091075897,-0.10467279702425003,0.9936488270759583,-12.702198028564453,-16.5827693939209,5.479936122894287,0.9569521546363831,-0.15599219501018524,-0.25198739767074585,0.44963884353637695,1.2371668815612793,1.4092832803726196
466,31050,31052,-0.04287611320614815,-0.03894999995827675,0.9979197978973389,-17.82773780822754,-11.371914863586426,3.5087430477142334,0.9674516320228577,-0.16349181532859802,-0.2384880781173706,0.6954339742660522,1.0896471738815308,1.4744056463241577
467,31060,31062,-0.13364677131175995,0.004150310065597296,1.03761625289917,-19.53147315979004,-5.393892765045166,1.7611806392669678,0.9629518389701843,-0.16499175131320953,-0.2369881421327591,0.8903363943099976,0.8534150123596191,1.525984287261963
468,31070,31072,-0.08600176125764847,0.15300901234149933,1.0747703313827515,-17.457448959350586,1.8186863660812378,0.8227501511573792,0.9614518880844116,-0.15749211609363556,-0.24448777735233307,0.9199760556221008,0.6735897660255432,1.5341765880584717
469,31080,31082,-0.014270479790866375,0.04719988629221916,1.1159977912902832,-10.354717254638672,7.777341842651367,-0.8261894583702087,0.965951681137085,-0.14999249577522278,-0.24898754060268402,0.899826169013977,0.45588821172714233,1.5442606210708618
470,31090,31092,0.04038560763001442,0.012157004326581955,1.0279277563095093,-2.3023152351379395,13.09580135345459,-0.46683773398399353,0.958452045917511,-0.16349181532859802,-0.23548822104930878,0.7637235522270203,0.4296157658100128,1.5130116939544678
471,31100,31102,-0.047557614743709564,0.021504465490579605,1.046872854232788,8.847960472106934,11.561175346374512,-2.312467336654663,0.9644517302513123,-0.15749211609363556,-0.2384880781173706,0.5562101602554321,0.3994405269622803,1.4906543493270874
472,31110,31112,-0.12753631174564362,-0.08369511365890503,1.042563796043396,15.779280662536621,9.114527702331543,-1.0013937950134277,0.958452045917511,-0.14849257469177246,-0.24448777735233307,0.44937989115715027,0.5438522100448608,1.4638421535491943
