,timestamp_start,timestamp_end,acc.x,acc.y,acc.z,gyro.x,gyro.y,gyro.z,mag.x,mag.y,mag.z,stabilizer.pitch,stabilizer.roll,stabilizer.yaw
0,172413,172415,-0.02282061241567135,-0.22871792316436768,0.833187997341156,46.87659454345703,-24.109609603881836,-3.659691333770752,1.3859306573867798,1.0529472827911377,0.05399730056524277,1.6849664449691772,-3.333141803741455,-0.6358957290649414
1,172423,172425,-0.06858979910612106,-0.6646483540534973,0.9277120232582092,47.15420150756836,1.1252217292785645,-1.9179978370666504,1.376931071281433,1.0919454097747803,0.044997747987508774,1.799370288848877,-3.144840717315674,-0.5428048968315125
2,172433,172435,0.13762274384498596,-0.28885453939437866,1.0054144859313965,37.148902893066406,25.496549606323242,0.43924203515052795,1.3949302434921265,1.1009448766708374,0.056997150182724,1.8536150455474854,-2.477447032928467,-0.6033844351768494
3,172443,172445,0.12913312017917633,-0.06871854513883591,0.9909747242927551,27.76502799987793,26.079227447509766,3.209346294403076,1.3649317026138306,1.1009448766708374,0.044997747987508774,1.5875251293182373,-2.2921783924102783,-0.5591605305671692
4,172453,172455,0.21999482810497284,-0.11561986804008484,0.7669577598571777,24.92336082458496,9.066733360290527,9.838797569274902,1.3949302434921265,1.0919454097747803,0.05399730056524277,1.3073205947875977,-2.100468635559082,-0.5044028759002686
5,172463,172465,0.14463567733764648,-0.04158305749297142,0.8031777143478394,20.33515167236328,-13.504191398620605,12.45582103729248,1.3994300365447998,1.0754462480545044,0.06149692460894585,1.2238801717758179,-2.011606216430664,-0.40360063314437866
6,172473,172475,0.06037954241037369,-0.10826615244150162,0.7108995318412781,17.386625289916992,-36.791961669921875,11.71808910369873,1.3784310817718506,1.0844457149505615,0.06749662756919861,1.4960452318191528,-1.6494793891906738,-0.3676537573337555
7,172483,172485,0.023058654740452766,-0.12808650732040405,0.7747207283973694,18.834497451782227,-64.25885772705078,10.292638778686523,1.3844307661056519,1.0784460306167603,0.05549722537398338,1.7544779777526855,-1.59981107711792,-0.17625921964645386
8,172493,172495,0.01188410259783268,-0.10385879874229431,0.8478161096572876,26.867616653442383,-83.5759506225586,8.175043106079102,1.3859306573867798,1.0829458236694336,0.04199789837002754,2.520062208175659,-1.2468907833099365,-0.12078581750392914
9,172503,172505,0.022277796640992165,-0.025805678218603134,0.8606276512145996,31.043380737304688,-73.42096710205078,4.631765365600586,1.3964301347732544,1.0814459323883057,0.04349782317876816,3.3521230220794678,-1.1119954586029053,-0.002427582163363695
10,172513,172515,-0.03204313665628433,-0.07662572711706161,0.652932345867157,28.211240768432617,-42.164268493652344,2.0293025970458984,1.3964301347732544,1.0784460306167603,0.037498123943805695,4.219663143157959,-0.7689307332038879,0.014240281656384468
11,172523,172525,-0.029034271836280823,-0.22695063054561615,0.6858389973640442,21.821989059448242,-15.337828636169434,0.270630806684494,1.4024298191070557,1.0814459323883057,0.037498123943805695,4.590240001678467,-0.4795468747615814,0.06029416620731354
12,172533,172535,-0.04726368561387062,-0.17895659804344177,0.6609561443328857,18.620697021484375,10.793335914611816,-3.3841912746429443,1.4009299278259277,1.1009448766708374,0.03299834951758385,4.647957801818848,-0.22461295127868652,0.07521495968103409
13,172543,172545,-0.22224095463752747,-0.21331153810024261,0.7159721851348877,11.69337272644043,41.47294235229492,-8.878443717956543,1.4009299278259277,1.1069446802139282,0.044997747987508774,4.742832183837891,-0.137779101729393,0.030982892960309982
14,172553,172555,-0.2200765460729599,-0.7043967843055725,0.7768725156784058,-3.602687358856201,52.71525192260742,-11.317435264587402,1.3889305591583252,1.109944462776184,0.03899804875254631,4.295337200164795,0.09496337920427322,-0.08838547766208649
15,172563,172565,0.03211698308587074,-0.5184131264686584,0.786234438419342,-16.175640106201172,51.60637664794922,-9.788429260253906,1.3934303522109985,1.12644362449646,0.05249737575650215,3.918562650680542,0.07078636437654495,-0.21484248340129852
16,172573,172575,0.1503867208957672,-0.40182608366012573,0.9066187739372253,-18.412372589111328,42.53231430053711,-7.606155872344971,1.3649317026138306,1.1219438314437866,0.047997597604990005,3.401585340499878,-0.1492331176996231,-0.2881276309490204
17,172583,172585,0.03614102303981781,-0.1660509556531906,0.938836395740509,-13.550202369689941,28.924686431884766,-7.767932891845703,1.369431495666504,1.1204439401626587,0.06749662756919861,3.361640691757202,-0.32257235050201416,-0.37256181240081787
18,172593,172595,-0.005546380300074816,-0.0020216081757098436,0.9184853434562683,-2.210017204284668,5.366988182067871,-5.98771333694458,1.3784310817718506,1.1174441576004028,0.05549722537398338,2.9180920124053955,-0.47883573174476624,-0.443093478679657
19,172603,172605,-0.07880456745624542,-0.18911397457122803,0.8120006322860718,10.217339515686035,-3.7944202423095703,-5.908848285675049,1.376931071281433,1.1189440488815308,0.04199789837002754,3.157968759536743,-0.4533085227012634,-0.5087082982063293
20,172613,172615,0.06276076287031174,-0.33775535225868225,0.9260159730911255,14.022631645202637,-1.9863289594650269,-5.906111240386963,1.367931604385376,1.109944462776184,0.04199789837002754,3.1638879776000977,-0.17450696229934692,-0.6428838968276978
21,172623,172625,0.08756255358457565,0.015383479185402393,1.033898115158081,16.889450073242188,5.325870990753174,-6.092196941375732,1.3724313974380493,1.1144442558288574,0.04949752241373062,3.339569568634033,-0.11671397089958191,-0.6514832377433777
22,172633,172635,0.11440431326627731,-0.044115737080574036,0.9900872707366943,14.79908275604248,22.0732421875,-6.403479099273682,1.3724313974380493,1.1144442558288574,0.04949752241373062,3.184267997741699,0.1267796903848648,-0.7524030208587646
23,172643,172645,0.1709730327129364,0.016872059553861618,1.0100809335708618,11.354928970336914,32.262550354003906,-2.592763662338257,1.3604319095611572,1.1174441576004028,0.05549722537398338,2.9235219955444336,0.19864362478256226,-0.7823951244354248
24,172653,172655,-0.02511121705174446,0.002623834414407611,0.9033353328704834,7.534431457519531,42.9397087097168,-1.5148364305496216,1.3649317026138306,1.124943733215332,0.05399730056524277,2.637223243713379,0.2865857183933258,-0.7931947708129883
25,172663,172665,-0.11525034159421921,-0.04591284319758415,0.8692328333854675,2.5687599182128906,44.8272819519043,-2.222917318344116,1.354432225227356,1.1174441576004028,0.04649767279624939,2.3090195655822754,0.44672533869743347,-0.8273066878318787
26,172673,172675,-0.09230878204107285,-0.07394953072071075,0.9177820682525635,-5.343015193939209,34.983741760253906,-0.6761544346809387,1.3604319095611572,1.1204439401626587,0.06149692460894585,1.8638787269592285,0.448454350233078,-0.8350693583488464
27,172683,172685,0.11153002828359604,0.06567153334617615,1.0882014036178589,-11.608672142028809,25.40528678894043,-1.7238328456878662,1.3574321269989014,1.1084445714950562,0.06149692460894585,1.8366518020629883,0.38990169763565063,-0.7701760530471802
28,172693,172695,0.04893685504794121,-0.11213936656713486,1.1776158809661865,-9.867039680480957,18.058696746826172,-4.864800453186035,1.352932333946228,1.1189440488815308,0.056997150182724,1.453118085861206,0.23572692275047302,-0.7929612994194031
29,172703,172705,-0.013925318606197834,0.0492030531167984,1.162121057510376,7.003747463226318,8.303083419799805,-11.54661750793457,1.367931604385376,1.1129443645477295,0.06299684941768646,1.2606210708618164,0.2618241012096405,-0.8793621063232422
30,172713,172715,0.13761243224143982,0.033616915345191956,1.0808665752410889,13.612838745117188,6.386906147003174,-14.588736534118652,1.369431495666504,1.1024448871612549,0.06449677050113678,1.0882999897003174,0.3244907557964325,-1.0085359811782837
31,172723,172725,0.15385983884334564,0.08413218706846237,1.1543314456939697,7.068723678588867,8.597993850708008,-11.902207374572754,1.3589320182800293,1.109944462776184,0.07499624788761139,1.2411236763000488,0.5656768083572388,-1.1280711889266968
32,172733,172735,-0.01683189533650875,0.04345697909593582,1.0921294689178467,-4.447418212890625,21.487285614013672,-5.75563383102417,1.3424328565597534,1.1174441576004028,0.058497074991464615,1.0474629402160645,0.6198350191116333,-1.2702374458312988
33,172743,172745,-0.0006136766169220209,-0.21777954697608948,1.0542911291122437,0.7487516403198242,45.31899642944336,-4.923027038574219,1.3574321269989014,1.1144442558288574,0.058497074991464615,1.0513728857040405,0.5720040202140808,-1.2613320350646973
34,172753,172755,0.2606279253959656,-0.13681773841381073,1.1410315036773682,12.646632194519043,56.390018463134766,-3.6137354373931885,1.3409329652786255,1.1189440488815308,0.06299684941768646,0.3319936692714691,0.6163613200187683,-1.3909889459609985
35,172763,172765,0.12502627074718475,-0.010214370675384998,1.0159326791763306,17.619712829589844,53.467079162597656,-0.9857478737831116,1.3454327583312988,1.1054446697235107,0.07349632680416107,0.028202947229146957,0.626476526260376,-1.328651785850525
36,172773,172775,-0.03524113446474075,0.018536178395152092,0.9734187722206116,12.327387809753418,49.9808349609375,-0.9548636674880981,1.3469326496124268,1.1069446802139282,0.05999699980020523,-0.8291816711425781,0.9230831265449524,-1.4482253789901733
37,172783,172785,-0.06298775225877762,-0.016595950350165367,1.1045033931732178,12.554021835327148,39.848751068115234,-4.4423651695251465,1.3439327478408813,1.1129443645477295,0.056997150182724,-1.0385662317276,1.0663501024246216,-1.3602522611618042
38,172793,172795,0.09491000324487686,-0.006163773592561483,1.1215084791183472,5.873510837554932,21.60109519958496,-7.991416931152344,1.3439327478408813,1.0979450941085815,0.05999699980020523,-1.452172040939331,1.2022804021835327,-1.3990583419799805
39,172803,172805,0.11303526163101196,-0.04783577471971512,1.2190604209899902,-4.704895496368408,15.534135818481445,-7.669492244720459,1.3304334878921509,1.0994449853897095,0.07349632680416107,-1.6834580898284912,1.3010272979736328,-1.4677625894546509
40,172813,172815,0.28131797909736633,0.04309900104999542,1.303513765335083,-19.976709365844727,23.252288818359375,-5.789480209350586,1.3439327478408813,1.0979450941085815,0.05999699980020523,-1.9452422857284546,1.2179278135299683,-1.578747034072876
41,172823,172825,0.2622945308685303,0.17180727422237396,1.2344388961791992,-34.60765838623047,34.10475158691406,-2.468404769897461,1.3289334774017334,1.0979450941085815,0.05999699980020523,-2.183281898498535,0.9401304721832275,-1.632995843887329
42,172833,172835,0.14365988969802856,0.3165884017944336,1.2294256687164307,-44.086402893066406,48.79631805419922,-3.467773199081421,1.339432954788208,1.1144442558288574,0.085495725274086,-2.539886474609375,0.4338906705379486,-1.6792070865631104
43,172843,172845,0.15601451694965363,0.1390232890844345,1.1377689838409424,-52.83772277832031,44.03372573852539,-0.17967206239700317,1.3304334878921509,1.0994449853897095,0.07349632680416107,-3.0890119075775146,0.12992745637893677,-1.7056803703308105
44,172853,172855,0.030399683862924576,0.14507059752941132,1.216178059577942,-44.21137619018555,26.534780502319336,3.486943244934082,1.3274335861206055,1.0964452028274536,0.08249587565660477,-3.620075225830078,-0.5796451568603516,-1.7896302938461304
45,172863,172865,0.05190504714846611,0.12546969950199127,1.266046404838562,-16.297956466674805,9.150364875793457,4.319810390472412,1.3229337930679321,1.1069446802139282,0.07499624788761139,-3.9103143215179443,-0.9056070446968079,-1.7441022396087646
46,172873,172875,-0.004628869704902172,0.04365204647183418,1.309178352355957,16.29515266418457,-0.5775219798088074,5.132038593292236,1.3469326496124268,1.0919454097747803,0.07499624788761139,-4.154001235961914,-1.1318062543869019,-1.7829959392547607
47,172883,172885,0.058304645121097565,-0.14014992117881775,1.0477625131607056,40.677310943603516,-15.45837688446045,6.8874053955078125,1.3364331722259521,1.0964452028274536,0.07949602603912354,-4.211648464202881,-0.82893967628479,-1.7008346319198608
48,172893,172895,0.09344397485256195,-0.19356651604175568,0.9921956062316895,67.34060668945312,-31.15526580810547,3.161417245864868,1.3409329652786255,1.0649467706680298,0.0659966990351677,-3.8804402351379395,-0.2832276225090027,-1.5172532796859741
49,172903,172905,0.1232968270778656,-0.4224178194999695,0.8522780537605286,79.44640350341797,-42.97200393676758,1.2647708654403687,1.3469326496124268,1.0769461393356323,0.06299684941768646,-3.4899024963378906,0.34583547711372375,-1.4808380603790283
50,172913,172915,-0.023220432922244072,-0.37695425748825073,0.9367770552635193,65.4698486328125,-36.39339065551758,-0.13132482767105103,1.352932333946228,1.085945725440979,0.07499624788761139,-3.130321741104126,1.2228262424468994,-1.4423537254333496
51,172923,172925,0.15475748479366302,-0.23175345361232758,0.8697131276130676,26.488109588623047,-39.297569274902344,-2.3421988487243652,1.3424328565597534,1.0664466619491577,0.0764961764216423,-2.6481635570526123,1.913392424583435,-1.399694561958313
52,172933,172935,0.027608701959252357,-0.18115101754665375,0.7524803280830383,-6.374521732330322,-37.66585922241211,-2.418164014816284,1.3664315938949585,1.0544472932815552,0.0764961764216423,-2.4828286170959473,1.9826658964157104,-1.609276294708252
53,172943,172945,0.028951235115528107,-0.11979816108942032,0.7436779737472534,-36.434356689453125,-20.920211791992188,-0.16842076182365417,1.3364331722259521,1.0664466619491577,0.06149692460894585,-2.0471415519714355,1.8018035888671875,-1.6898573637008667
54,172953,172955,0.031704723834991455,-0.3961915075778961,0.9156831502914429,-58.58307647705078,2.5463531017303467,-0.4606075882911682,1.339432954788208,1.0844457149505615,0.05249737575650215,-1.8739618062973022,1.4364975690841675,-1.725914478302002
55,172963,172965,0.08196961134672165,-0.31341755390167236,0.9034249186515808,-73.07513427734375,14.163521766662598,4.062605857849121,1.3454327583312988,1.0934453010559082,0.06749662756919861,-1.9197204113006592,0.6395263671875,-1.866320252418518
56,172973,172975,0.09027329087257385,-0.07467761635780334,0.9775171875953674,-67.53565216064453,14.07876205444336,4.399138927459717,1.3289334774017334,1.109944462776184,0.0659966990351677,-2.0276477336883545,0.1136016994714737,-1.7095578908920288
57,172983,172985,0.03787314519286156,0.08407598733901978,0.8786119818687439,-43.48997116088867,-2.6211130619049072,0.57792067527771,1.3319333791732788,1.0979450941085815,0.06899654865264893,-2.2593283653259277,-0.6020905375480652,-1.728468418121338
58,172993,172995,-0.05473518371582031,0.05151018500328064,0.8822166323661804,-7.892670154571533,-33.221923828125,-2.1374499797821045,1.3514324426651,1.0904453992843628,0.058497074991464615,-2.19028639793396,-0.9068241119384766,-1.6440770626068115
59,173003,173005,-0.13458944857120514,0.005423218943178654,0.7982094287872314,22.3380126953125,-63.486541748046875,-3.8541383743286133,1.3499324321746826,1.1069446802139282,0.0659966990351677,-1.62947416305542,-0.8559957146644592,-1.5277544260025024
60,173013,173015,-0.1387152224779129,-0.17953146994113922,0.6639891266822815,32.484283447265625,-73.88973999023438,-2.55444598197937,1.3619319200515747,1.0919454097747803,0.07199639827013016,-1.1607869863510132,-0.5595636963844299,-1.5657504796981812
61,173023,173025,-0.20507533848285675,-0.1878521740436554,0.8835164308547974,19.45314598083496,-67.38906860351562,1.2457045316696167,1.3454327583312988,1.087445616722107,0.04949752241373062,-0.36743876338005066,-0.2550937831401825,-1.5791757106781006
62,173033,173035,-0.018751027062535286,-0.20448370277881622,0.8465747833251953,10.895062446594238,-55.56229019165039,-0.17186477780342102,1.3559322357177734,1.0919454097747803,0.06299684941768646,0.30006733536720276,-0.08581004291772842,-1.590408444404602
63,173043,173045,-0.036256320774555206,0.017864521592855453,0.9399543404579163,6.568784236907959,-34.89625930786133,0.16717426478862762,1.3574321269989014,1.1024448871612549,0.058497074991464615,0.9118890166282654,0.08682499825954437,-1.5459423065185547
64,173053,173055,-0.110490582883358,0.09390760958194733,1.0363744497299194,5.139341831207275,-15.07473373413086,2.4948079586029053,1.3649317026138306,1.109944462776184,0.050997450947761536,0.963295042514801,0.11080793291330338,-1.6302140951156616
65,173063,173065,-0.20574437081813812,-0.07455501705408096,0.8119671940803528,10.557519912719727,-10.190108299255371,9.300050735473633,1.3709313869476318,1.0979450941085815,0.0659966990351677,1.2303491830825806,0.057372257113456726,-1.620781660079956
66,173073,173075,-0.22063639760017395,-0.0015643619699403644,0.9657595157623291,15.967453956604004,-3.9843595027923584,14.671205520629883,1.3664315938949585,1.0934453010559082,0.06449677050113678,1.3555691242218018,0.1728588342666626,-1.5266271829605103
67,173083,173085,-0.1668945997953415,0.14085842669010162,1.0809664726257324,17.663833618164062,4.436982154846191,18.123493194580078,1.3649317026138306,1.0889455080032349,0.06299684941768646,1.4341131448745728,0.36913979053497314,-1.364186406135559
68,173093,173095,-0.009898343123495579,0.17919941246509552,0.9505006670951843,17.68804168701172,14.41146469116211,18.407941818237305,1.3589320182800293,1.0979450941085815,0.050997450947761536,1.3517727851867676,0.44430363178253174,-1.2204139232635498
69,173103,173105,-0.24614699184894562,0.15126636624336243,0.9159934520721436,12.073796272277832,15.021668434143066,19.57012367248535,1.352932333946228,1.1039447784423828,0.056997150182724,1.126364827156067,0.7294259667396545,-1.0261311531066895
70,173113,173115,-0.09252643585205078,-0.10428031533956528,0.8811634182929993,3.568394899368286,5.572415828704834,18.408357620239258,1.3649317026138306,1.0949451923370361,0.0659966990351677,0.9174626469612122,0.7792269587516785,-0.8609558343887329
71,173123,173125,-0.05381665751338005,-0.1541263610124588,0.9057875871658325,-7.959834575653076,-3.876534938812256,16.85480308532715,1.354432225227356,1.087445616722107,0.07049647718667984,1.1454282999038696,0.8278895616531372,-0.6146582961082458
72,173133,173135,0.04147930443286896,0.09417905658483505,1.2011234760284424,-16.29511260986328,-11.25678825378418,12.063814163208008,1.3559322357177734,1.0829458236694336,0.06899654865264893,1.2126699686050415,0.7602084875106812,-0.4454725682735443
73,173143,173145,0.18313287198543549,-0.1585729420185089,0.9187199473381042,-16.352663040161133,-18.44561767578125,8.849164962768555,1.3604319095611572,1.0844457149505615,0.06149692460894585,1.507956862449646,0.49307480454444885,-0.3021807074546814
74,173153,173155,0.016059571877121925,-0.0799904614686966,0.9180319309234619,-21.73793601989746,-8.145418167114258,7.937210559844971,1.3604319095611572,1.0904453992843628,0.07049647718667984,1.5544507503509521,0.2915348708629608,-0.243894562125206
75,173163,173165,-0.022340575233101845,0.042128849774599075,0.9951590299606323,-23.366640090942383,7.453591346740723,10.224226951599121,1.3649317026138306,1.0889455080032349,0.05399730056524277,1.5080363750457764,0.14382395148277283,-0.18632227182388306
76,173173,173175,0.07218839973211288,-0.048548463732004166,0.8626555800437927,-18.384374618530273,31.99028968811035,13.826297760009766,1.3574321269989014,1.0994449853897095,0.05549722537398338,1.3359591960906982,-0.031824782490730286,-0.09760607033967972
77,173183,173185,0.005670198705047369,0.06823606044054031,0.9357354044914246,-1.9130064249038696,56.1661262512207,12.080524444580078,1.354432225227356,1.1024448871612549,0.05249737575650215,0.8506976962089539,-0.1202017292380333,0.00522095151245594
78,173193,173195,-0.12953053414821625,0.16464470326900482,0.9036762118339539,12.009052276611328,80.35372924804688,8.589902877807617,1.3499324321746826,1.1159441471099854,0.07199639827013016,0.4125860333442688,-0.14707812666893005,0.14812272787094116
79,173203,173205,-0.004221390467137098,0.12271943688392639,1.081076979637146,23.09857749938965,94.79962158203125,3.568128824234009,1.3499324321746826,1.1219438314437866,0.05399730056524277,-0.6282399892807007,0.11532971262931824,0.18684199452400208
80,173213,173215,-0.03359629213809967,-0.3763015866279602,1.2307460308074951,28.89975357055664,86.45700073242188,0.4342622458934784,1.3439327478408813,1.124943733215332,0.05999699980020523,-1.3879481554031372,0.3304564356803894,0.2594504654407501
81,173223,173225,-0.08851355314254761,-0.24963496625423431,1.2711671590805054,27.572145462036133,50.438941955566406,-3.706056594848633,1.3364331722259521,1.1084445714950562,0.07349632680416107,-2.423158645629883,0.5655601620674133,0.23335148394107819
82,173233,173235,0.09227913618087769,-0.1654195785522461,1.230055332183838,14.48243236541748,4.793527603149414,-4.324392318725586,1.3334332704544067,1.1054446697235107,0.07349632680416107,-2.4566595554351807,0.8521776795387268,0.2909923493862152
83,173243,173245,0.11158233880996704,-0.13860775530338287,1.0970349311828613,-7.263853073120117,-37.586421966552734,-1.3498831987380981,1.3514324426651,1.0784460306167603,0.07049647718667984,-2.5476760864257812,1.05234956741333,0.2497546374797821
84,173253,173255,0.0704946219921112,-0.1549648940563202,1.016754388809204,-15.853727340698242,-75.62075805664062,0.09802693873643875,1.3424328565597534,1.0754462480545044,0.07349632680416107,-1.9600995779037476,0.9908786416053772,0.2641857862472534
85,173263,173265,-0.15526053309440613,-0.22055338323116302,0.864922285079956,-10.392200469970703,-105.49884033203125,-2.0983896255493164,1.3439327478408813,1.085945725440979,0.07499624788761139,-0.9048172235488892,0.735859751701355,0.29178664088249207
86,173273,173275,-0.07797905802726746,-0.16755938529968262,0.9208703637123108,-8.740509986877441,-106.35871887207031,-3.314650535583496,1.3559322357177734,1.085945725440979,0.05999699980020523,0.059115324169397354,0.7012838125228882,0.2510168254375458
87,173283,173285,-0.04276031628251076,-0.07634830474853516,0.9163166284561157,-17.83683967590332,-92.00282287597656,-5.903460502624512,1.3514324426651,1.0844457149505615,0.06149692460894585,1.1629184484481812,0.5978937149047852,0.20849372446537018
88,173293,173295,0.059253621846437454,-0.03698911517858505,0.9412685036659241,-25.723806381225586,-58.359893798828125,-10.55969524383545,1.3649317026138306,1.070946455001831,0.06299684941768646,2.1712863445281982,0.36483538150787354,0.14779157936573029
89,173303,173305,0.06520728766918182,0.006159971468150616,0.940534770488739,-39.11493682861328,-12.022612571716309,-14.074357032775879,1.3619319200515747,1.0769461393356323,0.050997450947761536,2.5287811756134033,0.20037943124771118,0.000491261132992804
90,173313,173315,-0.0544101782143116,-0.02870633825659752,0.8616244792938232,-53.22328567504883,33.37224197387695,-10.258874893188477,1.367931604385376,1.0979450941085815,0.05399730056524277,2.510418653488159,-0.18570733070373535,-0.16099219024181366
91,173323,173325,-0.01113487035036087,0.013919400982558727,0.9442853331565857,-62.85552215576172,67.35503387451172,-5.4881134033203125,1.354432225227356,1.123443841934204,0.06749662756919861,1.948197841644287,-0.9275103807449341,-0.31769847869873047
92,173333,173335,0.017955463379621506,-0.10261325538158417,0.9803023934364319,-60.025596618652344,66.89814758300781,-1.4456396102905273,1.369431495666504,1.1294435262680054,0.06149692460894585,1.4382864236831665,-1.2536157369613647,-0.362163245677948
93,173343,173345,-0.05198938027024269,-0.17324309051036835,1.0057971477508545,-46.60310363769531,52.35403823852539,4.278342247009277,1.3619319200515747,1.1219438314437866,0.0659966990351677,0.6265538334846497,-1.8950992822647095,-0.41567420959472656
94,173353,173355,0.08832522481679916,-0.19168992340564728,0.9046460390090942,-26.861360549926758,31.737424850463867,12.975090980529785,1.3634318113327026,1.111444354057312,0.06749662756919861,0.33192065358161926,-2.247821807861328,-0.3574424684047699
95,173363,173365,-0.018462471663951874,0.1332462579011917,1.0125974416732788,-3.3551530838012695,7.906913757324219,17.81646728515625,1.3424328565597534,1.1084445714950562,0.06749662756919861,0.08185742795467377,-2.557664394378662,-0.23549437522888184
96,173373,173375,-0.09246119111776352,0.12704652547836304,0.9739364385604858,20.872156143188477,-8.024066925048828,21.547069549560547,1.3634318113327026,1.0994449853897095,0.06149692460894585,0.171665757894516,-2.644481658935547,-0.04595670476555824
97,173383,173385,-0.049819935113191605,-0.050964098423719406,0.8803012371063232,42.639076232910156,-21.011804580688477,25.27818489074707,1.3559322357177734,1.0889455080032349,0.047997597604990005,0.2869580388069153,-2.2892305850982666,0.1746872216463089
98,173393,173395,0.030287550762295723,-0.03368335962295532,1.020292043685913,55.19770050048828,-25.021453857421875,27.7321834564209,1.3604319095611572,1.0814459323883057,0.05549722537398338,0.5019761919975281,-1.835334062576294,0.43956464529037476
99,173403,173405,0.05819457024335861,0.013043147511780262,1.0919086933135986,62.257144927978516,-20.487070083618164,29.56548309326172,1.3439327478408813,1.0889455080032349,0.05399730056524277,0.7545956969261169,-1.0482137203216553,0.7190195322036743
100,173413,173415,-0.030619245022535324,-0.08152098208665848,1.110898733139038,64.79240417480469,2.0844578742980957,28.724016189575195,1.3634318113327026,1.0934453010559082,0.06449677050113678,0.9707134962081909,-0.7168336510658264,1.0238163471221924
101,173423,173425,0.040877509862184525,0.07381879538297653,1.012891173362732,56.26542663574219,28.870182037353516,22.960880279541016,1.3634318113327026,1.0994449853897095,0.06749662756919861,0.8587867617607117,-0.04670475050806999,1.3088793754577637
102,173433,173435,-0.06180104985833168,0.13052578270435333,0.8582639098167419,37.47287368774414,52.93715286254883,14.728400230407715,1.3664315938949585,1.0994449853897095,0.05549722537398338,0.6239748597145081,0.2057407945394516,1.5482962131500244
103,173443,173445,-0.041119690984487534,0.06960741430521011,0.8767309784889221,10.951689720153809,75.42577362060547,7.016674995422363,1.3559322357177734,1.1009448766708374,0.047997597604990005,-0.04137933626770973,0.6437984704971313,1.7021305561065674
104,173453,173455,-0.07720766216516495,0.07464184612035751,0.8688355088233948,-7.782341003417969,81.29901123046875,2.62673020362854,1.3604319095611572,1.1084445714950562,0.06449677050113678,-0.5395762920379639,0.60527104139328,1.7790840864181519
105,173463,173465,-0.13592542707920074,0.0893215462565422,0.9498740434646606,-24.29790496826172,76.4146499633789,-0.7696581482887268,1.339432954788208,1.0964452028274536,0.06749662756919861,-1.5503959655761719,0.4745577275753021,1.8183659315109253
106,173473,173475,-0.104728102684021,-0.12862567603588104,1.0397576093673706,-41.61608123779297,52.29358673095703,-2.54720139503479,1.33793306350708,1.1189440488815308,0.06299684941768646,-2.0634305477142334,0.1500643640756607,1.8116405010223389
107,173483,173485,-0.14609508216381073,-0.19812555611133575,1.0957839488983154,-49.89544677734375,18.786054611206055,-5.45447301864624,1.3289334774017334,1.1159441471099854,0.06899654865264893,-2.7827537059783936,-0.3047042191028595,1.781348705291748
108,173493,173495,-0.03070863150060177,-0.05324505642056465,1.1467052698135376,-40.231075286865234,0.11796639859676361,-4.155567169189453,1.3214339017868042,1.1174441576004028,0.08249587565660477,-2.728013515472412,-0.6614663004875183,1.7391951084136963
109,173503,173505,0.12162874639034271,-0.12759079039096832,0.9441803693771362,-23.123720169067383,-13.150696754455566,-0.9204286932945251,1.3439327478408813,1.1069446802139282,0.06899654865264893,-2.8026175498962402,-1.2383323907852173,1.6869813203811646
110,173513,173515,0.04943738132715225,0.01570138707756996,1.0495332479476929,-2.5730865001678467,-29.95698356628418,0.307917982339859,1.3439327478408813,1.0979450941085815,0.07799609750509262,-2.6598703861236572,-1.3811726570129395,1.6948648691177368
111,173523,173525,0.1012684628367424,0.02018078789114952,1.1355352401733398,19.249588012695312,-43.00497055053711,0.4071706533432007,1.3289334774017334,1.0829458236694336,0.06899654865264893,-2.0226991176605225,-1.3959378004074097,1.7080835103988647
112,173533,173535,0.14292529225349426,0.015987472608685493,1.0934114456176758,35.48006820678711,-36.51218032836914,0.1330823004245758,1.3469326496124268,1.1009448766708374,0.0659966990351677,-1.5801445245742798,-1.131354808807373,1.7309086322784424
113,173543,173545,0.20203466713428497,-0.03758392482995987,0.9615867137908936,39.22908401489258,-11.530715942382812,-0.8779835104942322,1.3559322357177734,1.0949451923370361,0.0659966990351677,-1.260505199432373,-0.617205023765564,1.7620187997817993
114,173553,173555,0.1204136312007904,-0.07634928077459335,0.9312130212783813,30.65888214111328,20.523361206054688,-3.2143375873565674,1.3469326496124268,1.0919454097747803,0.0659966990351677,-1.1916224956512451,-0.19890153408050537,1.7579786777496338
115,173563,173565,-0.015113512985408306,-0.12622521817684174,0.89110267162323,13.655484199523926,44.64510726928711,-6.323616981506348,1.3349332809448242,1.1069446802139282,0.05999699980020523,-1.602325677871704,0.07838749885559082,1.7261590957641602
116,173573,173575,-0.0564916618168354,-0.11890684813261032,0.8247426152229309,-3.818584442138672,56.568756103515625,-8.000456809997559,1.3409329652786255,1.0949451923370361,0.0659966990351677,-1.996303915977478,0.16039146482944489,1.6510974168777466
117,173583,173585,-0.0008393482421524823,-0.03659544140100479,0.8731651306152344,-15.749418258666992,59.502777099609375,-4.928799629211426,1.3274335861206055,1.0994449853897095,0.058497074991464615,-2.6384708881378174,-0.04561484605073929,1.5433549880981445
118,173593,173595,0.04496206343173981,0.06725539267063141,1.1243634223937988,-12.9599027633667,50.25691223144531,-3.925532579421997,1.3304334878921509,1.111444354057312,0.07049647718667984,-3.058850049972534,-0.011021282523870468,1.5370672941207886
119,173603,173605,0.13533209264278412,-0.05579520761966705,1.0649361610412598,2.2104382514953613,19.0069580078125,1.009955883026123,1.3304334878921509,1.0904453992843628,0.06449677050113678,-3.6292595863342285,-0.21844568848609924,1.485372543334961
120,173613,173615,0.16907060146331787,-0.08505593985319138,1.0440568923950195,8.948376655578613,-10.353113174438477,6.895772933959961,1.3349332809448242,1.1009448766708374,0.0659966990351677,-3.6991307735443115,-0.11295714229345322,1.5229554176330566
121,173623,173625,0.14949144423007965,0.003527335822582245,0.9342565536499023,9.38401985168457,-25.284358978271484,12.085465431213379,1.3259336948394775,1.0829458236694336,0.07199639827013016,-3.601390838623047,0.03640677034854889,1.6056770086288452
122,173633,173635,0.10979583859443665,0.1958003044128418,1.0727040767669678,11.413993835449219,-28.825010299682617,16.111778259277344,1.3364331722259521,1.0844457149505615,0.06149692460894585,-3.3710248470306396,0.11096256971359253,1.7197376489639282
123,173643,173645,0.10164692252874374,0.1099671795964241,1.0596619844436646,17.532838821411133,-15.94436264038086,18.224634170532227,1.3304334878921509,1.087445616722107,0.07049647718667984,-3.0478506088256836,0.29748377203941345,1.9078068733215332
124,173653,173655,0.2479182779788971,-0.026811590418219566,1.1145291328430176,21.27495574951172,-1.8235588073730469,20.158899307250977,1.3259336948394775,1.0889455080032349,0.06299684941768646,-2.8854100704193115,0.4297715723514557,2.0772082805633545
125,173663,173665,0.17946183681488037,-0.03463437780737877,1.0627673864364624,22.53635597229004,9.853360176086426,17.963420867919922,1.339432954788208,1.0754462480545044,0.058497074991464615,-2.8659842014312744,0.703741729259491,2.3005669116973877
126,173673,173675,0.13967815041542053,-0.02174871414899826,0.9884106516838074,33.294288635253906,13.531176567077637,15.496404647827148,1.3424328565597534,1.087445616722107,0.06749662756919861,-3.065805673599243,0.7313750386238098,2.3974640369415283
127,173683,173685,0.025433789938688278,0.15715456008911133,1.014862298965454,37.00428009033203,18.41632843017578,7.157291412353516,1.3289334774017334,1.0769461393356323,0.0659966990351677,-3.2994179725646973,1.2192803621292114,2.6083502769470215
128,173693,173695,0.03779667243361473,0.1545344889163971,1.118041753768921,23.01968765258789,27.636192321777344,-1.606461763381958,1.3454327583312988,1.0754462480545044,0.07049647718667984,-3.5543055534362793,1.4450877904891968,2.620414972305298
129,173703,173705,0.1886952668428421,-0.0011190596269443631,1.093558430671692,-8.287510871887207,27.471803665161133,-8.99665355682373,1.3334332704544067,1.0844457149505615,0.06449677050113678,-3.9803547859191895,1.7017487287521362,2.6240954399108887
130,173713,173715,0.19410835206508636,-0.07923761010169983,1.0578540563583374,-57.09126663208008,20.3216552734375,-5.505031108856201,1.3334332704544067,1.0904453992843628,0.058497074991464615,-4.098267078399658,1.4356554746627808,2.495624542236328
131,173723,173725,-0.019594457000494003,-0.1080114096403122,1.0516825914382935,-74.12621307373047,14.173617362976074,-2.4027819633483887,1.313934326171875,1.0949451923370361,0.0659966990351677,-4.454234600067139,0.5898150205612183,2.287747859954834
132,173733,173735,0.05416375398635864,-0.09219206869602203,1.0980430841445923,-64.29908752441406,14.62394905090332,0.9095011353492737,1.3124343156814575,1.0994449853897095,0.0944952741265297,-4.678867340087891,0.25237658619880676,2.45613169670105
133,173743,173745,0.07304097712039948,-0.08573928475379944,0.9718945622444153,-27.383831024169922,16.310983657836914,-0.513266384601593,1.3214339017868042,1.0994449853897095,0.08249587565660477,-4.674184799194336,-0.5464817881584167,2.3918142318725586
134,173753,173755,0.019724931567907333,0.02257285825908184,1.0626455545425415,7.452056884765625,3.451878547668457,-3.5397086143493652,1.3319333791732788,1.1009448766708374,0.07799609750509262,-4.840476036071777,-0.5991286039352417,2.497344970703125
135,173763,173765,0.00292269978672266,-0.004569594282656908,0.986316978931427,21.521303176879883,-20.19380760192871,-3.7598211765289307,1.3274335861206055,1.0754462480545044,0.06449677050113678,-4.830073833465576,-0.47424668073654175,2.4990642070770264
136,173773,173775,-0.04800208657979965,-0.030096713453531265,1.0356947183609009,29.340328216552734,-28.491451263427734,-3.5252490043640137,1.3334332704544067,1.0844457149505615,0.08249587565660477,-4.4842848777771,-0.12947943806648254,2.5519328117370605
137,173783,173785,-0.05420221760869026,-0.12730452418327332,0.9727141261100769,38.589996337890625,-33.10356521606445,-4.366322994232178,1.3304334878921509,1.0844457149505615,0.07349632680416107,-4.265336990356445,0.21032848954200745,2.532339334487915
138,173793,173795,0.07203658670186996,-0.2087351381778717,1.0286707878112793,31.34893035888672,-44.480918884277344,-6.415154457092285,1.3439327478408813,1.070946455001831,0.07199639827013016,-3.8454837799072266,0.5999376177787781,2.500748872756958
139,173803,173805,0.06193481758236885,-0.0028577768243849277,0.9625013470649719,14.526535034179688,-60.48686981201172,-4.707026958465576,1.3334332704544067,1.0694465637207031,0.06449677050113678,-3.2298266887664795,0.781266987323761,2.375845432281494
140,173813,173815,0.05204261094331741,0.07511405646800995,0.9718258380889893,-2.4375855922698975,-77.92262268066406,-2.2979719638824463,1.3484325408935547,1.0754462480545044,0.07349632680416107,-2.75966215133667,0.9823033213615417,2.3521039485931396
141,173823,173825,0.0242933239787817,-0.014988028444349766,0.9243957996368408,-27.405790328979492,-94.4154281616211,0.7232983708381653,1.3469326496124268,1.0649467706680298,0.05999699980020523,-1.8609188795089722,0.8306437730789185,2.2640089988708496
142,173833,173835,0.01072045136243105,-0.04651700332760811,0.8972889184951782,-54.94719314575195,-102.62027740478516,4.579339504241943,1.3409329652786255,1.0829458236694336,0.05399730056524277,-0.9877477288246155,0.46805068850517273,2.211655616760254
143,173843,173845,0.049294862896203995,-0.1542929857969284,0.7939422726631165,-73.45315551757812,-101.8687744140625,9.802695274353027,1.354432225227356,1.0784460306167603,0.05549722537398338,0.3095497190952301,-0.2941640615463257,2.1691677570343018
144,173853,173855,0.02124621346592903,-0.19640207290649414,0.6690593957901001,-73.47422790527344,-94.24238586425781,16.07847023010254,1.3589320182800293,1.0919454097747803,0.05999699980020523,1.234526515007019,-0.9033001661300659,2.316274642944336
145,173863,173865,-0.014402106404304504,-0.10792454332113266,0.7135004997253418,-63.70891189575195,-67.46278381347656,22.077960968017578,1.3559322357177734,1.0949451923370361,0.06299684941768646,2.4419667720794678,-1.6639373302459717,2.5134568214416504
146,173873,173875,-0.1136089637875557,0.053982995450496674,0.9330984950065613,-44.24118423461914,-30.688907623291016,26.372154235839844,1.3574321269989014,1.0994449853897095,0.05549722537398338,2.713557004928589,-2.0647847652435303,2.7971925735473633
147,173883,173885,-0.11375974863767624,0.10154526680707932,1.0457431077957153,-12.661886215209961,0.8765316605567932,28.946430206298828,1.3589320182800293,1.1189440488815308,0.06299684941768646,3.1450769901275635,-2.519592761993408,3.083259105682373
148,173893,173895,0.12218523770570755,-0.14666524529457092,0.9956777095794678,22.357757568359375,18.811065673828125,30.0353946685791,1.3574321269989014,1.111444354057312,0.05549722537398338,2.8922622203826904,-2.5315582752227783,3.390031099319458
149,173903,173905,0.1614723801612854,-0.2257469743490219,0.8571375608444214,48.87494659423828,32.20534133911133,26.113786697387695,1.3754311800003052,1.1204439401626587,0.04649767279624939,2.720456838607788,-2.17500638961792,3.702507972717285
150,173913,173915,0.051840171217918396,0.04100417345762253,0.8290910720825195,69.63507843017578,39.99750518798828,20.590335845947266,1.3634318113327026,1.12644362449646,0.04949752241373062,2.2517523765563965,-1.818555235862732,3.94260311126709
151,173923,173925,-0.13819743692874908,0.12092714011669159,1.078474521636963,82.26820373535156,41.40037536621094,14.884716033935547,1.3649317026138306,1.1309434175491333,0.050997450947761536,1.772322177886963,-0.9991751909255981,4.146943092346191
152,173933,173935,0.06389494240283966,-0.20770582556724548,0.8982611894607544,79.64256286621094,35.430179595947266,5.503377914428711,1.352932333946228,1.124943733215332,0.06899654865264893,1.4737040996551514,-0.4036761224269867,4.281185150146484
153,173943,173945,0.07384873926639557,-0.22466303408145905,0.805172324180603,58.401187896728516,25.869773864746094,0.4584343731403351,1.352932333946228,1.1189440488815308,0.056997150182724,1.0599220991134644,0.5371895432472229,4.343186378479004
154,173953,173955,-0.16927006840705872,0.052192844450473785,0.8747517466545105,26.0117130279541,14.216005325317383,-5.935693740844727,1.3439327478408813,1.109944462776184,0.0659966990351677,0.8258103132247925,1.0834927558898926,4.358809471130371
155,173963,173965,-0.15571346879005432,0.09784668684005737,0.9409710168838501,-6.951141357421875,7.369953632354736,-10.815285682678223,1.3514324426651,1.1084445714950562,0.058497074991464615,0.6911694407463074,1.3131603002548218,4.308959007263184
156,173973,173975,0.09440530836582184,-0.10654467344284058,0.8431763648986816,-38.55974197387695,4.263753414154053,-13.532363891601562,1.3409329652786255,1.1159441471099854,0.0659966990351677,0.580069899559021,1.1433964967727661,4.220266342163086
157,173983,173985,-0.015981873497366905,-0.11563898622989655,1.0255075693130493,-56.74807357788086,-3.2929577827453613,-16.2869930267334,1.3499324321746826,1.1369431018829346,0.056997150182724,0.6794479489326477,0.6161777377128601,4.105790615081787
158,173993,173995,-0.103944331407547,-0.06721437722444534,1.0924835205078125,-55.67049026489258,-4.1693501472473145,-15.554403305053711,1.3469326496124268,1.1309434175491333,0.05999699980020523,0.7516133189201355,0.21473123133182526,3.9328482151031494
159,174003,174005,0.02322867512702942,-0.01369839534163475,1.15547513961792,-49.590511322021484,2.365442991256714,-15.617304801940918,1.3409329652786255,1.1279436349868774,0.050997450947761536,0.7667478919029236,-0.415540486574173,3.788865804672241
160,174013,174015,0.012312137521803379,-0.12101756036281586,1.1135227680206299,-40.84546661376953,-2.3238539695739746,-13.11531925201416,1.3319333791732788,1.1339433193206787,0.06899654865264893,0.8199175000190735,-0.7987441420555115,3.616669178009033
161,174023,174025,0.12089700996875763,-0.13928718864917755,0.9835973381996155,-15.901195526123047,-18.348400115966797,-8.75436019897461,1.352932333946228,1.1279436349868774,0.0659966990351677,0.8063525557518005,-1.252307415008545,3.492689609527588
162,174033,174035,0.09812363982200623,-0.06704176217317581,1.0110708475112915,17.155750274658203,-31.99899673461914,-10.979023933410645,1.3424328565597534,1.1174441576004028,0.06149692460894585,1.2072373628616333,-1.4274342060089111,3.4140706062316895
163,174043,174045,0.0064848605543375015,0.03961728513240814,1.2044906616210938,52.57334518432617,-16.48781394958496,-16.729604721069336,1.3409329652786255,1.1279436349868774,0.050997450947761536,1.3556747436523438,-0.9680506587028503,3.255737543106079
164,174053,174055,0.003809839254245162,-0.08573666214942932,1.115951657295227,77.58626556396484,9.563715934753418,-22.823719024658203,1.352932333946228,1.1309434175491333,0.056997150182724,1.6181527376174927,-0.4854774475097656,3.0993754863739014
165,174063,174065,0.14115935564041138,-0.1100408211350441,1.1400097608566284,82.26506042480469,35.25003433227539,-29.05341339111328,1.3499324321746826,1.124943733215332,0.06299684941768646,1.4655237197875977,0.4095507860183716,2.850681781768799
166,174073,174075,-0.009685461409389973,-0.04099250212311745,1.203588604927063,52.438682556152344,55.640869140625,-40.64170455932617,1.3424328565597534,1.1204439401626587,0.06749662756919861,0.9037795662879944,1.0081675052642822,2.627439260482788
167,174083,174085,0.13864834606647491,-0.023875007405877113,1.091668963432312,0.7537768483161926,55.164649963378906,-42.79887771606445,1.3319333791732788,1.124943733215332,0.06899654865264893,0.23722800612449646,1.6290805339813232,2.229891300201416
168,174093,174095,0.02970379963517189,0.019538940861821175,1.1727761030197144,-51.49393844604492,43.699790954589844,-38.55717468261719,1.3514324426651,1.1354432106018066,0.058497074991464615,-0.1512496918439865,1.613107681274414,1.8226313591003418
169,174103,174105,0.04840812459588051,-3.8958314689807594e-05,1.2342939376831055,-93.29297637939453,30.232723236083984,-27.50245475769043,1.3424328565597534,1.1054446697235107,0.07049647718667984,-0.5246273279190063,0.8031291961669922,1.5199604034423828
170,174113,174115,0.21998292207717896,0.04115739464759827,1.332475185394287,-102.28977966308594,12.234617233276367,-17.77622413635254,1.339432954788208,1.1174441576004028,0.05549722537398338,-0.7611192464828491,0.17001467943191528,1.1827582120895386
171,174123,174125,0.301496297121048,0.006033609621226788,1.2296286821365356,-77.61419677734375,-12.938501358032227,-9.584270477294922,1.3424328565597534,1.111444354057312,0.06449677050113678,-1.0101807117462158,-1.0892235040664673,1.037848711013794
172,174133,174135,0.12706224620342255,-0.42992135882377625,1.248296856880188,-29.47058868408203,-38.51050567626953,-7.39259147644043,1.3424328565597534,1.1204439401626587,0.08249587565660477,-0.845943033695221,-1.6862680912017822,0.9003726840019226
173,174143,174145,0.12475872784852982,-0.3618190288543701,0.9147997498512268,11.880423545837402,-65.9368667602539,-7.28461217880249,1.3454327583312988,1.1054446697235107,0.08249587565660477,-0.4645991623401642,-1.954448938369751,0.8196636438369751
174,174153,174155,0.0891256183385849,-0.3030330538749695,0.8841910362243652,34.748294830322266,-84.96925354003906,-5.289244174957275,1.352932333946228,1.1009448766708374,0.05999699980020523,0.03911392390727997,-1.802039623260498,0.7486389875411987
175,174163,174165,0.0316915437579155,-0.16961005330085754,1.0269138813018799,46.019100189208984,-87.07699584960938,0.1337120682001114,1.3619319200515747,1.070946455001831,0.05999699980020523,1.0103214979171753,-1.5376005172729492,0.7319402694702148
176,174173,174175,0.008359928615391254,-0.06432687491178513,0.9603962898254395,54.4629020690918,-78.44561767578125,3.6090919971466064,1.3739312887191772,1.0799460411071777,0.06299684941768646,1.7269083261489868,-1.1489133834838867,0.7624984979629517
177,174183,174185,0.015429922379553318,-0.15673105418682098,0.8372097015380859,53.13959503173828,-48.291015625,6.194730758666992,1.3799309730529785,1.0829458236694336,0.05999699980020523,2.6717073917388916,-0.49124231934547424,0.777123749256134
178,174193,174195,0.022609416395425797,0.0007913035806268454,0.9299684166908264,48.667503356933594,-8.234344482421875,6.437373638153076,1.367931604385376,1.0769461393356323,0.06299684941768646,3.071155548095703,0.01690112240612507,0.8526760339736938
179,174203,174205,-0.05494888126850128,-0.07501216232776642,0.907017171382904,38.46994400024414,28.699220657348633,0.34226709604263306,1.369431495666504,1.087445616722107,0.037498123943805695,3.2452168464660645,0.4503827691078186,0.9246712923049927
180,174213,174215,0.13299748301506042,-0.28361406922340393,0.9364320635795593,22.164480209350586,59.66679382324219,-3.711876153945923,1.3589320182800293,1.1039447784423828,0.050997450947761536,2.749724864959717,0.7864522933959961,0.9544592499732971
181,174223,174225,-0.0003154250734951347,-0.3758161664009094,0.8547837138175964,9.324410438537598,67.80851745605469,-3.6887452602386475,1.3484325408935547,1.1084445714950562,0.05549722537398338,1.8720241785049438,0.9431194067001343,0.9643691778182983
182,174233,174235,-0.03867924213409424,-0.10737480223178864,0.977758526802063,3.307387113571167,56.15934753417969,-4.96825647354126,1.3514324426651,1.0934453010559082,0.05249737575650215,1.1778907775878906,1.2439428567886353,0.8794253468513489
183,174243,174245,-0.053403906524181366,-0.1498057097196579,0.9771739840507507,-2.454944610595703,30.482677459716797,-5.337109088897705,1.3739312887191772,1.0829458236694336,0.0659966990351677,0.7408944368362427,1.0057120323181152,0.9255704879760742
184,174253,174255,-0.07747486233711243,0.040871504694223404,1.0110375881195068,-6.1589484214782715,-0.5987493991851807,-4.914990425109863,1.3514324426651,1.0784460306167603,0.058497074991464615,0.5734882950782776,1.1111465692520142,0.8432968854904175
185,174263,174265,-0.03597037494182587,0.028088534250855446,1.0140899419784546,-7.582188606262207,-28.443967819213867,-6.412203311920166,1.3514324426651,1.087445616722107,0.06149692460894585,0.6186753511428833,1.0809836387634277,0.7889096736907959
186,174273,174275,-0.040903106331825256,-0.009988275356590748,1.078583002090454,-8.16254711151123,-48.584503173828125,-5.430816173553467,1.3469326496124268,1.0799460411071777,0.06299684941768646,1.1080493927001953,0.9529785513877869,0.7508279085159302
187,174283,174285,0.0032216692343354225,0.12571671605110168,1.0316433906555176,-7.985405921936035,-53.69461441040039,-5.278982162475586,1.3469326496124268,1.085945725440979,0.056997150182724,1.5430959463119507,0.8164865970611572,0.7047508358955383
188,174293,174295,-0.11713231354951859,0.19766101241111755,1.0413835048675537,-10.22354507446289,-38.472381591796875,-6.52684211730957,1.3499324321746826,1.0889455080032349,0.05999699980020523,2.1813032627105713,0.8899408578872681,0.6031584739685059
189,174303,174305,-0.05768006667494774,-0.06593719869852066,0.8894903659820557,-12.590128898620605,-2.8552167415618896,-7.6307549476623535,1.3664315938949585,1.0994449853897095,0.06149692460894585,2.5980823040008545,0.7717282176017761,0.5417271256446838
190,174313,174315,-0.0410766527056694,-0.21535074710845947,0.9819763898849487,-9.533903121948242,34.96403121948242,-7.661579132080078,1.354432225227356,1.1054446697235107,0.037498123943805695,2.221376657485962,0.7711060047149658,0.39248672127723694
191,174323,174325,0.13609878718852997,-0.3003343343734741,0.9025934338569641,-7.562522888183594,62.23278045654297,-13.781108856201172,1.352932333946228,1.1159441471099854,0.056997150182724,1.7115710973739624,0.6830365657806396,0.30076444149017334
192,174333,174335,0.3165890574455261,-0.3819926083087921,0.9803342819213867,-9.713225364685059,68.8721923828125,-16.430326461791992,1.3619319200515747,1.1129443645477295,0.05999699980020523,1.3648695945739746,0.6141980290412903,0.19939781725406647
193,174343,174345,0.15556643903255463,-0.2656483054161072,1.2665258646011353,-15.849932670593262,80.90418243408203,-19.37877655029297,1.3469326496124268,1.1189440488815308,0.06299684941768646,0.5316593050956726,0.5766192674636841,0.006328659597784281
194,174353,174355,0.2446853369474411,-0.1080484613776207,1.20235013961792,-26.643049240112305,82.30196380615234,-18.873655319213867,1.339432954788208,1.1144442558288574,0.06449677050113678,-0.14064684510231018,0.4186432659626007,-0.16540350019931793
195,174363,174365,0.21642911434173584,-0.00038859876804053783,1.083840250968933,-24.857995986938477,57.250911712646484,-18.29843521118164,1.3454327583312988,1.1144442558288574,0.07049647718667984,-0.9527509212493896,0.032583560794591904,-0.3137107789516449
196,174373,174375,0.18870215117931366,-0.30097833275794983,0.9473880529403687,-28.07546615600586,30.10209846496582,-17.62316131591797,1.3349332809448242,1.1129443645477295,0.07499624788761139,-1.4808785915374756,-0.11560330539941788,-0.5273736715316772
197,174383,174385,0.019842177629470825,-0.08383817970752716,1.0315617322921753,-30.378761291503906,2.2529289722442627,-12.559355735778809,1.3289334774017334,1.0889455080032349,0.07199639827013016,-1.8611605167388916,-0.45715323090553284,-0.7029658555984497
198,174393,174395,-0.04679602384567261,0.04831068962812424,1.0085495710372925,-35.2396240234375,-23.364328384399414,-5.788756847381592,1.3364331722259521,1.0994449853897095,0.07049647718667984,-1.8634154796600342,-0.6978904008865356,-0.8416650891304016
199,174403,174405,-0.015094943344593048,-0.11309130489826202,1.023969054222107,-33.69401168823242,-43.03263473510742,2.179699182510376,1.3574321269989014,1.0994449853897095,0.07349632680416107,-1.4852155447006226,-1.0858116149902344,-0.8694636225700378
200,174413,174415,0.08215882629156113,-0.20407772064208984,1.114143967628479,-29.54220199584961,-56.80347442626953,8.083915710449219,1.3499324321746826,1.085945725440979,0.06899654865264893,-0.8278183341026306,-1.5243992805480957,-0.8080652356147766
201,174423,174425,0.23265789449214935,-0.3353850841522217,1.1458135843276978,-13.203042984008789,-56.206687927246094,12.589648246765137,1.3364331722259521,1.0964452028274536,0.07349632680416107,-0.0946105495095253,-1.9165829420089722,-0.684902548789978
202,174433,174435,0.2031986266374588,-0.3426729738712311,1.004172921180725,3.0221738815307617,-40.65385055541992,18.7810115814209,1.3619319200515747,1.0949451923370361,0.056997150182724,0.14861798286437988,-1.8322829008102417,-0.5763995051383972
203,174443,174445,0.13078632950782776,-0.24600420892238617,1.042815089225769,16.254066467285156,-14.217889785766602,25.30427360534668,1.3574321269989014,1.0844457149505615,0.06749662756919861,0.5397688150405884,-1.783087968826294,-0.3765357732772827
204,174453,174455,0.17798878252506256,-0.16087821125984192,0.976270318031311,28.563684463500977,3.1834661960601807,28.140697479248047,1.3724313974380493,1.087445616722107,0.06149692460894585,0.7310553193092346,-1.6537834405899048,-0.11878922581672668
205,174463,174465,0.1310289204120636,-0.27826640009880066,0.8420032858848572,34.30356979370117,17.2554874420166,28.985599517822266,1.3604319095611572,1.087445616722107,0.06749662756919861,0.7021997570991516,-1.2581260204315186,0.1500316858291626
206,174473,174475,-0.1217426061630249,-0.7905373573303223,0.8852294683456421,27.49773597717285,28.688785552978516,31.141904830932617,1.3739312887191772,1.0919454097747803,0.056997150182724,0.44243139028549194,-0.9285231828689575,0.44306206703186035
207,174483,174485,-0.08929561823606491,-0.36497989296913147,0.9006818532943726,15.98665714263916,32.832061767578125,35.59174346923828,1.3469326496124268,1.109944462776184,0.056997150182724,-0.015483657829463482,-0.6404085755348206,0.7620999217033386
208,174493,174495,-0.027044877409934998,0.046584662050008774,0.9347105622291565,5.208090782165527,28.852603912353516,39.38988494873047,1.339432954788208,1.0904453992843628,0.058497074991464615,-0.21135637164115906,-0.544483482837677,1.1063077449798584
209,174503,174505,0.14877310395240784,0.03148052096366882,1.1215304136276245,10.162654876708984,12.459057807922363,42.4853630065918,1.3319333791732788,1.085945725440979,0.05999699980020523,-0.41424164175987244,-0.4650305211544037,1.4843204021453857
210,174513,174515,0.24224594235420227,-0.11107105016708374,0.8886138796806335,18.83021354675293,-4.515475273132324,45.020259857177734,1.3574321269989014,1.087445616722107,0.06449677050113678,-0.6179981231689453,-0.3798690140247345,1.9086577892303467
211,174523,174525,0.07058848440647125,-0.1780245304107666,0.8066269159317017,24.468673706054688,-21.91059684753418,43.59762191772461,1.339432954788208,1.0904453992843628,0.058497074991464615,-0.5327406525611877,-0.15663142502307892,2.3460116386413574
212,174533,174535,-0.06658078730106354,-0.077351413667202,0.9151337146759033,24.09619140625,-33.47022247314453,44.50201416015625,1.3514324426651,1.0994449853897095,0.058497074991464615,-0.4211249053478241,0.07831983268260956,2.787120819091797
213,174543,174545,0.09619533270597458,-0.21312598884105682,0.8969229459762573,18.422475814819336,-37.83731460571289,38.730506896972656,1.3499324321746826,1.0829458236694336,0.06899654865264893,-0.03622710332274437,0.31898948550224304,3.2219557762145996
214,174553,174555,0.0846981406211853,-0.09027265757322311,0.8534551858901978,16.12122917175293,-40.25986099243164,31.682579040527344,1.3424328565597534,1.0964452028274536,0.06149692460894585,0.18718457221984863,0.4083973169326782,3.6284306049346924
215,174563,174565,-0.07371947169303894,-0.144949808716774,0.8085182905197144,12.8516845703125,-30.72760009765625,24.477842330932617,1.3454327583312988,1.0994449853897095,0.05549722537398338,0.7758861184120178,0.6647824048995972,3.9339821338653564
216,174573,174575,-0.040909264236688614,-0.10090402513742447,0.8342645764350891,4.631799221038818,-19.34738540649414,19.994590759277344,1.3409329652786255,1.0919454097747803,0.05399730056524277,0.9163845777511597,0.774559736251831,4.18924617767334
217,174583,174585,-0.018610786646604538,-0.008330829441547394,1.0481541156768799,-4.9176530838012695,-10.48025894165039,16.408748626708984,1.3469326496124268,1.0979450941085815,0.05999699980020523,1.2297405004501343,0.7588890194892883,4.388836860656738
218,174593,174595,-0.023944789543747902,-0.027178708463907242,0.974854052066803,-8.735183715820312,1.9865779876708984,12.52637004852295,1.3454327583312988,1.1024448871612549,0.05549722537398338,1.311608076095581,0.7407326698303223,4.547159671783447
219,174603,174605,0.05780709907412529,-0.1441670060157776,0.9645854830741882,-10.14321231842041,14.813754081726074,9.235063552856445,1.3319333791732788,1.1129443645477295,0.05399730056524277,1.223569393157959,0.5903890132904053,4.676950931549072
220,174613,174615,-0.022397251799702644,-0.057652633637189865,0.9564931392669678,-7.794233322143555,20.51180648803711,8.442278861999512,1.3469326496124268,1.1189440488815308,0.056997150182724,1.0653976202011108,0.7009096145629883,4.758325099945068
221,174623,174625,-0.14544044435024261,0.05085543543100357,0.9392284154891968,0.07328237593173981,13.928366661071777,7.81216287612915,1.339432954788208,1.1144442558288574,0.06449677050113678,0.8374951481819153,0.5483425855636597,4.853507041931152
222,174633,174635,0.012335732579231262,-0.05735933780670166,0.9804547429084778,7.281852722167969,8.847040176391602,4.858565330505371,1.3364331722259521,1.1054446697235107,0.05549722537398338,0.6058249473571777,0.5281232595443726,4.932232856750488
223,174643,174645,0.055805303156375885,-0.08181297034025192,1.0238425731658936,8.192831039428711,2.0518860816955566,1.036292314529419,1.352932333946228,1.1159441471099854,0.047997597604990005,0.5330566167831421,0.6183230876922607,4.980000019073486
224,174653,174655,0.013063717633485794,-0.02367650903761387,1.0930973291397095,6.19389533996582,-3.9385135173797607,-1.48820161819458,1.3424328565597534,1.1204439401626587,0.05249737575650215,0.6507789492607117,0.8114275336265564,4.988003730773926
225,174663,174665,0.024175381287932396,-0.3827730119228363,1.0912513732910156,-0.7313499450683594,-3.9615747928619385,-3.244504690170288,1.3364331722259521,1.123443841934204,0.058497074991464615,0.7109082937240601,0.8832029104232788,4.970554828643799
226,174673,174675,0.006757570430636406,-0.3554779589176178,0.9813705682754517,-15.219175338745117,2.2810981273651123,-5.772940158843994,1.339432954788208,1.1174441576004028,0.05549722537398338,0.7659310102462769,0.8377483487129211,4.939752578735352
227,174683,174685,-0.04038921743631363,-0.30443108081817627,1.1563643217086792,-28.538375854492188,13.885174751281738,-6.360638618469238,1.3439327478408813,1.1219438314437866,0.050997450947761536,0.7965370416641235,0.7049223184585571,4.884615898132324
228,174693,174695,0.09204903244972229,-0.15834945440292358,1.101335048675537,-29.957332611083984,28.649499893188477,-5.9004011154174805,1.3454327583312988,1.1174441576004028,0.058497074991464615,0.5748083591461182,0.4310379922389984,4.814850330352783
229,174703,174705,0.048142094165086746,-0.24233613908290863,1.0940003395080566,-20.219966888427734,40.01115036010742,-9.777544975280762,1.3454327583312988,1.111444354057312,0.05549722537398338,0.13722217082977295,0.0701633021235466,4.753542423248291
230,174713,174715,-0.00911532249301672,-0.05497075617313385,1.2258646488189697,-24.7275447845459,50.11939239501953,-14.617951393127441,1.3499324321746826,1.1339433193206787,0.07199639827013016,-0.2852989435195923,0.06274659931659698,4.63955545425415
231,174723,174725,-0.09207537025213242,-0.16920100152492523,0.9315852522850037,-43.87977600097656,53.74795150756836,-18.46715545654297,1.3304334878921509,1.1324433088302612,0.06749662756919861,-0.7827106714248657,-0.16653919219970703,4.495153903961182
232,174733,174735,-0.00432719336822629,0.013803976587951183,1.2092266082763672,-68.71553039550781,47.4455680847168,-18.664409637451172,1.3274335861206055,1.1294435262680054,0.05549722537398338,-1.1990138292312622,-0.6432872414588928,4.32668924331665
233,174743,174745,0.09295152872800827,-0.015490110032260418,1.1252126693725586,-80.28384399414062,27.57546615600586,-13.904918670654297,1.3214339017868042,1.1324433088302612,0.06749662756919861,-1.400542974472046,-1.2387473583221436,4.155006408691406
234,174753,174755,0.11596162617206573,-0.001899208058603108,1.1132527589797974,-67.69098663330078,5.905776023864746,-10.151050567626953,1.3289334774017334,1.1369431018829346,0.06299684941768646,-1.7924883365631104,-2.0878500938415527,3.9999489784240723
235,174763,174765,-0.04213599115610123,0.04174770042300224,1.0877019166946411,-30.1514949798584,-35.72742462158203,-6.7238545417785645,1.3304334878921509,1.138443112373352,0.06749662756919861,-1.7910246849060059,-2.662839412689209,3.899164915084839
236,174773,174775,0.07189084589481354,0.057320885360240936,1.2038002014160156,20.938114166259766,-66.62199401855469,-6.61815881729126,1.3334332704544067,1.1204439401626587,0.058497074991464615,-1.2665843963623047,-2.8266513347625732,3.8546674251556396
237,174783,174785,0.10314904898405075,0.03545054420828819,1.1358134746551514,69.96627044677734,-79.72900390625,-10.392632484436035,1.3349332809448242,1.1339433193206787,0.056997150182724,-0.8743812441825867,-2.5931663513183594,3.8189053535461426
238,174793,174795,-0.04655607417225838,-0.031491391360759735,1.0101817846298218,103.38622283935547,-86.8209457397461,-11.692924499511719,1.3514324426651,1.1174441576004028,0.06449677050113678,0.0033660386689007282,-2.0361030101776123,3.7374417781829834
239,174803,174805,0.08629700541496277,-0.31602585315704346,0.8029976487159729,117.86670684814453,-81.4488296508789,-15.066231727600098,1.352932333946228,1.1039447784423828,0.06899654865264893,0.9930858612060547,-0.7800759673118591,3.645920515060425
240,174813,174815,-0.023737255483865738,-0.13521653413772583,0.8668352365493774,101.94441223144531,-59.112831115722656,-14.099505424499512,1.3574321269989014,1.0904453992843628,0.06149692460894585,1.7640599012374878,0.2980954349040985,3.50870943069458
241,174823,174825,-0.18678942322731018,0.11696389317512512,0.987480640411377,62.530033111572266,-24.58462142944336,-12.809020042419434,1.3484325408935547,1.087445616722107,0.04649767279624939,2.5388529300689697,1.5784683227539062,3.3395540714263916
242,174833,174835,-0.0813661739230156,-0.08095530420541763,0.8531460762023926,4.55626106262207,20.290273666381836,-14.445462226867676,1.3604319095611572,1.0964452028274536,0.05549722537398338,2.8071377277374268,1.9465656280517578,3.199953317642212
243,174843,174845,0.00886558834463358,-0.1529540866613388,0.7425455451011658,-50.39321517944336,52.591712951660156,-14.984797477722168,1.3499324321746826,1.1219438314437866,0.047997597604990005,2.49444842338562,2.04722261428833,3.075826644897461
244,174853,174855,-0.11405044049024582,-0.11850951611995697,0.9598934054374695,-91.83963775634766,60.83103561401367,-12.082429885864258,1.33793306350708,1.1369431018829346,0.056997150182724,1.9667731523513794,1.5406088829040527,2.9518539905548096
245,174863,174865,-0.002614052966237068,0.09179724007844925,1.0095363855361938,-113.5235366821289,50.93947982788086,-11.872304916381836,1.3199340105056763,1.13994300365448,0.06299684941768646,1.1939786672592163,0.4744117856025696,2.8624231815338135
246,174873,174875,-0.060422632843256,0.1902085840702057,1.0195742845535278,-108.29289245605469,30.42932891845703,-11.012358665466309,1.3304334878921509,1.141442894935608,0.06749662756919861,0.698165774345398,-0.6786631345748901,2.7525739669799805
247,174883,174885,-0.16424515843391418,-0.17836754024028778,1.0680334568023682,-79.01958465576172,7.682807922363281,-12.61766529083252,1.3424328565597534,1.1354432106018066,0.06449677050113678,0.44972726702690125,-1.7802975177764893,2.6347427368164062
248,174893,174895,-0.05191372334957123,-0.2850918173789978,0.98629230260849,-28.44533348083496,-3.3136520385742188,-16.841737747192383,1.3424328565597534,1.1204439401626587,0.06149692460894585,0.2970096170902252,-2.4290008544921875,2.4904568195343018
249,174903,174905,0.03935687616467476,0.06801287829875946,1.0912936925888062,15.216906547546387,-6.784610271453857,-24.442516326904297,1.3484325408935547,1.1354432106018066,0.05249737575650215,0.4735235273838043,-2.8521647453308105,2.338992118835449
250,174913,174915,0.020790450274944305,0.13598524034023285,1.201282024383545,38.696685791015625,-5.667751789093018,-31.72195053100586,1.3409329652786255,1.1309434175491333,0.056997150182724,0.5574407577514648,-2.6058614253997803,2.091731548309326
251,174923,174925,0.03617884963750839,0.03620932251214981,1.0424401760101318,39.384483337402344,13.490365982055664,-36.460086822509766,1.3319333791732788,1.1219438314437866,0.047997597604990005,0.5695652961730957,-2.106844902038574,1.775980830192566
252,174933,174935,0.04342283308506012,0.10039489716291428,1.0080400705337524,20.67525863647461,54.26120376586914,-35.04981231689453,1.3469326496124268,1.1309434175491333,0.044997747987508774,0.4388068616390228,-1.7866781949996948,1.4283230304718018
253,174943,174945,-0.04338856041431427,0.166929692029953,1.1491633653640747,-10.22073745727539,89.31648254394531,-28.91457176208496,1.3469326496124268,1.1429427862167358,0.05399730056524277,-0.1305479109287262,-1.6121058464050293,1.0722109079360962
254,174953,174955,0.0281999371945858,-0.01769372634589672,1.0677051544189453,-26.915159225463867,94.36813354492188,-15.27010440826416,1.3229337930679321,1.1429427862167358,0.06899654865264893,-0.7807033658027649,-1.8450736999511719,0.7397208213806152
255,174963,174965,0.03646615147590637,-0.25463560223579407,0.9043538570404053,-25.9277400970459,75.2602767944336,-5.277770519256592,1.3364331722259521,1.141442894935608,0.05549722537398338,-2.045865774154663,-2.1366524696350098,0.589287281036377
256,174973,174975,0.016566986218094826,-0.06499295681715012,1.0590263605117798,-3.473663330078125,46.7724723815918,1.4946238994598389,1.3289334774017334,1.1279436349868774,0.07799609750509262,-2.444206953048706,-2.4350767135620117,0.44065582752227783
257,174983,174985,0.014431589283049107,-0.16276462376117706,1.0935821533203125,27.628129959106445,8.417593955993652,5.391508102416992,1.3304334878921509,1.1054446697235107,0.07049647718667984,-3.1120221614837646,-2.3757052421569824,0.4545493423938751
258,174993,174995,-0.07948528975248337,0.0678207203745842,1.041190266609192,44.6970100402832,-40.4486198425293,6.5976104736328125,1.3409329652786255,1.1129443645477295,0.07499624788761139,-3.2315356731414795,-2.0405516624450684,0.5022798776626587
259,175003,175005,-0.11619870364665985,-0.09800949692726135,1.1382173299789429,43.78023910522461,-76.81678009033203,12.036314010620117,1.3364331722259521,1.0964452028274536,0.07349632680416107,-2.659055709838867,-1.629135251045227,0.5289657711982727
260,175013,175015,-0.0038510276935994625,-0.1904980093240738,0.9538403153419495,30.76377296447754,-92.85549926757812,19.350252151489258,1.3334332704544067,1.0964452028274536,0.06749662756919861,-1.9118895530700684,-1.1468408107757568,0.6610715985298157
261,175023,175025,0.005767283029854298,0.061807870864868164,1.0909141302108765,1.7503936290740967,-88.8801498413086,26.298107147216797,1.3469326496124268,1.0829458236694336,0.08399579674005508,-0.8204531669616699,-0.8631125092506409,0.8112587928771973
262,175033,175035,0.026759665459394455,0.045435890555381775,0.9592599868774414,-19.300947189331055,-70.88797760009766,32.55503845214844,1.3499324321746826,1.0889455080032349,0.056997150182724,-0.23229536414146423,-0.9531635046005249,1.107258677482605
263,175043,175045,-0.05324581637978554,-0.06635449826717377,0.8026729822158813,-17.42021369934082,-40.00605392456055,38.26285171508789,1.3484325408935547,1.087445616722107,0.06149692460894585,0.5324630737304688,-1.190126657485962,1.4203017950057983
264,175053,175055,0.014399753883481026,-0.03252222761511803,0.8915739059448242,-9.035087585449219,-9.897034645080566,41.16853713989258,1.3454327583312988,1.0904453992843628,0.05549722537398338,0.7753376364707947,-1.483537197113037,1.829837441444397
265,175063,175065,-0.05511070787906647,-0.2782801687717438,0.8504084348678589,8.595307350158691,19.54048728942871,43.8839225769043,1.354432225227356,1.0934453010559082,0.05249737575650215,0.8459985852241516,-1.6130380630493164,2.245577335357666
266,175073,175075,-0.05309509485960007,-0.186981201171875,0.8282500505447388,31.536174774169922,45.13861083984375,42.44683074951172,1.3559322357177734,1.1159441471099854,0.06299684941768646,0.5201811194419861,-1.8193879127502441,2.671428680419922
267,175083,175085,-0.1169959157705307,-0.0653960332274437,0.9587064981460571,48.406768798828125,60.68541717529297,39.95914840698242,1.3409329652786255,1.1189440488815308,0.056997150182724,-0.061075206845998764,-1.2858099937438965,3.1440348625183105
268,175093,175095,-0.024887369945645332,-0.08770710974931717,0.9671589732170105,59.58871078491211,56.26072692871094,35.111175537109375,1.3304334878921509,1.111444354057312,0.07049647718667984,-0.5415093302726746,-0.6172124147415161,3.522716522216797
269,175103,175105,-0.030627639964222908,-0.10161899775266647,0.981063187122345,57.03464126586914,36.02606964111328,30.757108688354492,1.3334332704544067,1.111444354057312,0.07049647718667984,-1.0795927047729492,0.3583599030971527,3.908024311065674
270,175113,175115,0.021191254258155823,-0.11936326324939728,0.9246881604194641,39.42972946166992,8.101095199584961,25.73626136779785,1.3334332704544067,1.0964452028274536,0.06449677050113678,-1.5643987655639648,0.3663954436779022,4.1837077140808105
271,175123,175125,-0.05172022432088852,-0.04940139502286911,0.8931407332420349,9.390462875366211,-25.333480834960938,20.698572158813477,1.3304334878921509,1.087445616722107,0.058497074991464615,-1.6907172203063965,0.8999953269958496,4.465075969696045
272,175133,175135,0.015429003164172173,-0.15537290275096893,0.9218097925186157,-19.782705307006836,-57.748172760009766,18.72878074645996,1.3304334878921509,1.0814459323883057,0.07049647718667984,-1.329594373703003,1.0795679092407227,4.654135227203369
273,175143,175145,-0.03930312767624855,-0.03178877383470535,0.9865779876708984,-43.18619155883789,-79.95374298095703,15.464531898498535,1.33793306350708,1.0829458236694336,0.05999699980020523,-0.6493027806282043,0.705457329750061,4.784085750579834
274,175153,175155,-0.06057928875088692,-0.023580269888043404,0.8934733271598816,-52.07098388671875,-86.6463394165039,13.749561309814453,1.3454327583312988,1.0964452028274536,0.06149692460894585,-0.125605046749115,0.2365812510251999,4.947832107543945
275,175163,175165,-0.0854327529668808,0.05878154933452606,0.8580424785614014,-53.509620666503906,-79.01910400390625,14.344999313354492,1.3454327583312988,1.0964452028274536,0.06149692460894585,1.0145635604858398,-0.35628995299339294,5.055438041687012
276,175173,175175,0.016049208119511604,0.02867462858557701,1.0075632333755493,-47.544979095458984,-64.58989715576172,12.412681579589844,1.3454327583312988,1.0934453010559082,0.04949752241373062,1.6069529056549072,-0.7124831080436707,5.236854076385498
277,175183,175185,0.007308660075068474,-0.11076954752206802,1.0975865125656128,-33.6610221862793,-39.970947265625,11.993377685546875,1.3559322357177734,1.1009448766708374,0.04199789837002754,2.196326732635498,-1.4076920747756958,5.3580217361450195
278,175193,175195,0.07853232324123383,-0.13239605724811554,0.9685748219490051,-6.624050617218018,-17.349971771240234,12.341107368469238,1.3484325408935547,1.0994449853897095,0.06149692460894585,2.6040713787078857,-1.5082849264144897,5.505833148956299
279,175203,175205,-0.00955246388912201,-0.027175331488251686,1.016714334487915,27.127399444580078,8.040651321411133,8.677872657775879,1.3649317026138306,1.1009448766708374,0.044997747987508774,2.767451286315918,-1.6178926229476929,5.635207176208496
280,175213,175215,-0.13979102671146393,0.11898865550756454,0.9620822668075562,54.30184555053711,33.59873962402344,5.2346415519714355,1.352932333946228,1.1039447784423828,0.050997450947761536,2.7279467582702637,-1.385223388671875,5.724787712097168
281,175223,175225,0.03779789060354233,-0.06366729736328125,0.8930280804634094,73.31346893310547,46.95210266113281,-0.1734265238046646,1.352932333946228,1.1039447784423828,0.050997450947761536,2.3606762886047363,-0.69659024477005,5.768659591674805
282,175233,175235,-0.021867677569389343,-0.02123936265707016,1.013815999031067,74.57022857666016,52.916927337646484,-5.239434242248535,1.354432225227356,1.1174441576004028,0.05249737575650215,1.9721094369888306,-0.21063187718391418,5.788601875305176
283,175243,175245,0.018662063404917717,-0.05178660526871681,0.9863866567611694,57.61933135986328,50.19026184082031,-10.917143821716309,1.3664315938949585,1.1204439401626587,0.04949752241373062,1.1865065097808838,0.8098586201667786,5.736737251281738
284,175253,175255,0.0725116953253746,-0.07845769822597504,0.952057421207428,32.7048225402832,31.29383659362793,-16.93621253967285,1.3469326496124268,1.1009448766708374,0.056997150182724,0.883588433265686,1.2114074230194092,5.658260345458984
285,175263,175265,0.056498534977436066,-0.04423704743385315,0.9525347352027893,-2.3724124431610107,5.676671981811523,-21.209243774414062,1.3619319200515747,1.1069446802139282,0.056997150182724,0.7267408967018127,1.5625017881393433,5.493803024291992
286,175273,175275,0.03139938786625862,-0.01875871606171131,0.9198549389839172,-34.7360725402832,-17.314044952392578,-27.062488555908203,1.33793306350708,1.0829458236694336,0.05999699980020523,0.7145749926567078,1.4953120946884155,5.295576572418213
287,175283,175285,-0.004493159707635641,0.02696097083389759,1.0042160749435425,-60.63785934448242,-26.228879928588867,-35.040775299072266,1.3319333791732788,1.1039447784423828,0.06299684941768646,1.052343726158142,1.0378806591033936,5.0432024002075195
288,175293,175295,0.06428788602352142,-0.0733608603477478,0.9655556678771973,-79.03768920898438,-22.77387237548828,-38.22272491455078,1.3454327583312988,1.0964452028274536,0.06449677050113678,1.3676873445510864,0.37083131074905396,4.71236515045166
289,175303,175305,-0.025487396866083145,-0.0651492103934288,1.0121979713439941,-90.84596252441406,-12.821700096130371,-37.56907653808594,1.3439327478408813,1.109944462776184,0.05999699980020523,1.4802863597869873,-0.3746626675128937,4.32542085647583
290,175313,175315,0.03553876653313637,-0.2917404770851135,0.9037991762161255,-82.47615051269531,-1.2588181495666504,-35.37620162963867,1.3484325408935547,1.1144442558288574,0.06749662756919861,1.6536868810653687,-1.4527634382247925,3.9892523288726807
291,175323,175325,-0.04904025420546532,0.012686146423220634,1.0119526386260986,-51.296077728271484,8.39352798461914,-34.868038177490234,1.3424328565597534,1.1294435262680054,0.03149842470884323,1.6485568284988403,-2.1033918857574463,3.601407527923584
292,175333,175335,-0.0599435418844223,-0.007307057268917561,0.970572292804718,-8.807947158813477,9.262579917907715,-33.486854553222656,1.3439327478408813,1.1369431018829346,0.056997150182724,1.5772396326065063,-2.4822049140930176,3.217928886413574
293,175343,175345,0.07616466283798218,-0.006492285523563623,1.0024309158325195,21.944217681884766,18.55221939086914,-33.43052291870117,1.3514324426651,1.1294435262680054,0.05249737575650215,1.698084831237793,-2.5243332386016846,2.8752613067626953
294,175353,175355,-0.007090375293046236,0.022124124690890312,1.0122157335281372,35.88412857055664,43.494789123535156,-29.757692337036133,1.3634318113327026,1.123443841934204,0.058497074991464615,1.3582165241241455,-2.070575475692749,2.4880363941192627
295,175363,175365,-0.07677377015352249,-0.12213293462991714,1.1573649644851685,41.117759704589844,70.82540130615234,-22.497957229614258,1.3619319200515747,1.124943733215332,0.05999699980020523,0.8475939035415649,-1.8213549852371216,2.202118158340454
296,175373,175375,0.09683743864297867,-0.1678924262523651,0.9888072609901428,27.799278259277344,100.67255401611328,-15.000751495361328,1.3634318113327026,1.1174441576004028,0.06149692460894585,0.0396561436355114,-1.2802950143814087,1.9298862218856812
297,175383,175385,0.044444818049669266,0.04299504682421684,1.2928588390350342,13.934141159057617,117.65151977539062,-4.834653854370117,1.3259336948394775,1.1489425897598267,0.06899654865264893,-0.9129747152328491,-1.0988448858261108,1.776154637336731
298,175393,175395,0.09452517330646515,-0.25318998098373413,1.1602445840835571,20.395103454589844,92.2421875,1.655927062034607,1.3289334774017334,1.1519423723220825,0.08099594712257385,-2.340057134628296,-1.0448065996170044,1.7246508598327637
299,175403,175405,0.022351520135998726,-0.048443760722875595,1.2823679447174072,53.750572204589844,39.40152359008789,6.002062797546387,1.3199340105056763,1.1189440488815308,0.08399579674005508,-2.7867565155029297,-0.7518331408500671,1.6734164953231812
300,175413,175415,0.06471072882413864,-0.013429107144474983,1.230719804763794,79.12875366210938,-10.067198753356934,9.807429313659668,1.3289334774017334,1.0979450941085815,0.05999699980020523,-3.462124824523926,-0.13632485270500183,1.7387828826904297
301,175423,175425,0.12531903386116028,-0.17845164239406586,1.204971432685852,81.51449584960938,-56.05229568481445,17.914920806884766,1.3319333791732788,1.0799460411071777,0.0659966990351677,-2.892350912094116,0.6624698042869568,1.7963730096817017
302,175433,175435,0.030602209270000458,-0.3770141303539276,1.087751030921936,57.53934097290039,-83.50353240966797,24.29653549194336,1.3334332704544067,1.072446346282959,0.0764961764216423,-2.1293303966522217,1.569990634918213,1.9357300996780396
303,175443,175445,0.008874478749930859,-0.23709608614444733,1.068863868713379,19.152328491210938,-84.41329193115234,29.787864685058594,1.3289334774017334,1.0649467706680298,0.06899654865264893,-1.483157753944397,1.761080265045166,2.132859230041504
304,175453,175455,0.08402792364358902,-0.2420988380908966,1.0721949338912964,-25.32162857055664,-63.2269287109375,33.622798919677734,1.3289334774017334,1.0589470863342285,0.05399730056524277,-0.5746577978134155,1.9914313554763794,2.3928537368774414
305,175463,175465,0.19656680524349213,-0.5545603632926941,0.9281772971153259,-42.52255630493164,-35.22027587890625,36.230247497558594,1.3424328565597534,1.057447075843811,0.058497074991464615,-0.1966829001903534,1.5901492834091187,2.6802515983581543
306,175473,175475,0.1601598560810089,-0.1360209882259369,1.1211251020431519,-38.68605041503906,4.2506303787231445,35.36979675292969,1.3514324426651,1.0544472932815552,0.06149692460894585,0.2259550243616104,0.9686799049377441,3.0078189373016357
307,175483,175485,0.1810932159423828,-0.10279825329780579,1.1658772230148315,-20.84507179260254,25.6044979095459,29.25149154663086,1.3439327478408813,1.0679465532302856,0.05999699980020523,-0.10621269047260284,0.6899428367614746,3.3473541736602783
308,175493,175495,0.16163043677806854,-0.23188532888889313,1.1090316772460938,8.092509269714355,23.20472526550293,22.911727905273438,1.3574321269989014,1.0784460306167603,0.058497074991464615,-0.4919488728046417,0.6091892719268799,3.6478681564331055
309,175503,175505,0.12942887842655182,-0.2570601999759674,0.8656480312347412,31.251869201660156,6.371835708618164,14.106229782104492,1.3514324426651,1.0664466619491577,0.07949602603912354,-0.7800641655921936,0.695188581943512,3.8828389644622803
310,175513,175515,-0.13763327896595,0.058838751167058945,0.9147631525993347,42.162845611572266,-13.793240547180176,5.931229591369629,1.352932333946228,1.070946455001831,0.05999699980020523,-0.7566259503364563,1.0181978940963745,4.049859523773193
311,175523,175525,0.01374355610460043,-0.05103784799575806,0.8023015856742859,39.75480651855469,-28.06295394897461,-0.44777584075927734,1.3559322357177734,1.0499475002288818,0.06299684941768646,-0.5284074544906616,1.5239375829696655,4.140864849090576
312,175533,175535,0.10846026241779327,-0.0661303848028183,0.9426546096801758,28.196304321289062,-35.67771530151367,-8.898696899414062,1.3604319095611572,1.0544472932815552,0.06149692460894585,-0.21848726272583008,2.0642871856689453,4.1563615798950195
313,175543,175545,0.07272060215473175,-0.07613739371299744,0.8611977696418762,6.423778533935547,-37.753841400146484,-12.877772331237793,1.3604319095611572,1.042447805404663,0.04949752241373062,0.21978674829006195,2.2725436687469482,4.06852388381958
314,175553,175555,-0.1110914945602417,-0.04268159344792366,0.8931679129600525,-15.368602752685547,-35.38957595825195,-17.12704086303711,1.3664315938949585,1.057447075843811,0.06449677050113678,0.5291246771812439,2.194438934326172,3.90197491645813
315,175563,175565,-0.11362381279468536,-0.04388989880681038,0.699299156665802,-31.326894760131836,-29.45840072631836,-17.959880828857422,1.3514324426651,1.0664466619491577,0.05249737575650215,0.741532027721405,1.997937560081482,3.688408613204956
316,175573,175575,0.014626601710915565,-0.055711597204208374,0.8165522813796997,-32.66967010498047,-20.794260025024414,-21.013198852539062,1.3304334878921509,1.0694465637207031,0.06449677050113678,1.1467671394348145,1.686570405960083,3.5233144760131836
317,175583,175585,-0.004803243558853865,-0.10915043950080872,0.826171875,-26.422697067260742,-11.30508804321289,-21.849302291870117,1.3589320182800293,1.0589470863342285,0.050997450947761536,1.4158952236175537,1.4820256233215332,3.332353115081787
318,175593,175595,0.10812394320964813,-0.17884749174118042,0.961079478263855,-11.305310249328613,-3.5307953357696533,-20.8669376373291,1.3664315938949585,1.0814459323883057,0.04649767279624939,1.5863465070724487,1.0794897079467773,3.1263978481292725
319,175603,175605,-0.017263177782297134,-0.03638634830713272,0.9372525215148926,4.362222194671631,8.021078109741211,-19.460834503173828,1.3604319095611572,1.0754462480545044,0.058497074991464615,1.4151744842529297,1.1387393474578857,2.8668665885925293
320,175613,175615,0.10004495829343796,-0.2543780207633972,0.7897447943687439,18.638179779052734,15.056156158447266,-16.433950424194336,1.3409329652786255,1.0889455080032349,0.05399730056524277,1.2440630197525024,1.2932437658309937,2.639176845550537
321,175623,175625,0.1835251748561859,-0.2407674938440323,0.8555477261543274,24.329681396484375,19.904754638671875,-17.013370513916016,1.352932333946228,1.1039447784423828,0.056997150182724,1.0472662448883057,1.5282185077667236,2.4649999141693115
322,175633,175635,-0.019237788394093513,-0.1885603368282318,1.0178521871566772,21.801103591918945,23.61587905883789,-16.977218627929688,1.3454327583312988,1.1084445714950562,0.04949752241373062,0.7347326278686523,1.7927277088165283,2.268151044845581
323,175643,175645,-0.12069135159254074,-0.382068932056427,0.8315550088882446,18.187307357788086,16.211301803588867,-15.880853652954102,1.354432225227356,1.0994449853897095,0.05549722537398338,0.6586654782295227,2.1473331451416016,2.1458492279052734
324,175653,175655,-0.061815276741981506,-0.24852785468101501,0.9466049075126648,3.511429786682129,2.1845099925994873,-15.468352317810059,1.3589320182800293,1.1039447784423828,0.06299684941768646,0.5339537262916565,2.2794086933135986,2.006173849105835
325,175663,175665,-0.018067054450511932,-0.8689563274383545,0.8966585993766785,-18.03258514404297,-11.52507209777832,-14.327491760253906,1.3514324426651,1.0934453010559082,0.05549722537398338,0.4687926173210144,2.2565932273864746,1.855459451675415
326,175673,175675,-0.253836452960968,-0.6185603737831116,0.9379733204841614,-42.485015869140625,-16.228052139282227,-14.839086532592773,1.3559322357177734,1.0919454097747803,0.0659966990351677,0.7153658270835876,1.9640511274337769,1.7595828771591187
327,175683,175685,-0.14782793819904327,-0.2977171838283539,1.014359712600708,-61.59376525878906,-14.742109298706055,-16.60564613342285,1.339432954788208,1.087445616722107,0.06449677050113678,0.9601761102676392,1.5628907680511475,1.637259602546692
328,175693,175695,0.035276032984256744,-0.2574351727962494,0.9664260149002075,-79.81640625,-0.8232064247131348,-14.030323028564453,1.3364331722259521,1.1144442558288574,0.06749662756919861,1.0848140716552734,0.8374283313751221,1.475864052772522
329,175703,175705,-0.0015995955327525735,-0.08390530943870544,1.0307178497314453,-84.1023941040039,1.3280935287475586,-2.3930108547210693,1.3319333791732788,1.1309434175491333,0.07199639827013016,1.216708779335022,0.10830173641443253,1.3746442794799805
330,175713,175715,0.07744359225034714,-0.0185954999178648,1.166540265083313,-66.17387390136719,-9.867584228515625,11.47563648223877,1.3274335861206055,1.138443112373352,0.07049647718667984,1.0924206972122192,-0.828590452671051,1.3150240182876587
331,175723,175725,0.05996416136622429,-0.07236175984144211,1.0386806726455688,-26.742162704467773,-14.155888557434082,24.405292510986328,1.3319333791732788,1.1309434175491333,0.06299684941768646,1.1385372877120972,-1.342286467552185,1.3889832496643066
332,175733,175735,0.06696052849292755,-0.0007723658345639706,1.1079630851745605,38.584617614746094,-0.2616671025753021,31.42313003540039,1.339432954788208,1.1354432106018066,0.06449677050113678,1.3261997699737549,-1.5532238483428955,1.6362113952636719
333,175743,175745,-0.048777494579553604,-0.1223495602607727,0.9987053871154785,97.76754760742188,24.388816833496094,34.42290496826172,1.3454327583312988,1.1294435262680054,0.05249737575650215,1.2150330543518066,-1.1041333675384521,1.8983557224273682
334,175753,175755,0.11420409381389618,-0.49050042033195496,0.9681766629219055,135.7787322998047,50.792171478271484,33.18111038208008,1.3484325408935547,1.1294435262680054,0.05549722537398338,1.0120567083358765,0.23959533870220184,2.1862614154815674
335,175763,175765,0.013754799030721188,-0.7298532128334045,0.9950828552246094,150.6449737548828,77.48509216308594,31.733774185180664,1.33793306350708,1.1279436349868774,0.06899654865264893,0.4342581033706665,1.4006487131118774,2.5307703018188477
336,175773,175775,-0.2031880021095276,-0.34915927052497864,1.111977219581604,143.04757690429688,91.01158142089844,25.690959930419922,1.3454327583312988,1.1174441576004028,0.07349632680416107,-0.5379697680473328,3.176682710647583,2.807469606399536
337,175783,175785,-0.09981226176023483,-0.3024457097053528,0.9968512654304504,122.21974182128906,88.56962585449219,20.701087951660156,1.3469326496124268,1.0979450941085815,0.07199639827013016,-1.1291742324829102,4.322589874267578,3.2019965648651123
338,175793,175795,0.052195679396390915,-0.36161234974861145,0.899517297744751,90.30439758300781,60.618106842041016,13.107723236083984,1.3304334878921509,1.087445616722107,0.07049647718667984,-2.221360921859741,5.8569793701171875,3.433994770050049
339,175803,175805,-0.02824602834880352,-0.2174849659204483,1.0808947086334229,39.286930084228516,16.426010131835938,8.354300498962402,1.3244338035583496,1.0754462480545044,0.058497074991464615,-2.857245445251465,6.436980247497559,3.660550117492676
340,175813,175815,-0.05200083181262016,-0.23623377084732056,1.0566319227218628,-29.06087875366211,-18.800865173339844,4.58674955368042,1.313934326171875,1.0769461393356323,0.07499624788761139,-2.9836654663085938,6.988192081451416,3.795340061187744
341,175823,175825,0.09713336080312729,-0.3612253963947296,1.0272666215896606,-90.35261535644531,-36.86283874511719,-4.41640567779541,1.3109344244003296,1.073946237564087,0.07199639827013016,-2.55180287361145,6.562788963317871,3.9107065200805664
342,175833,175835,0.0778854563832283,-0.08799157291650772,1.0938782691955566,-136.32350158691406,-44.940975189208984,-15.722274780273438,1.3079345226287842,1.0769461393356323,0.06299684941768646,-2.115219831466675,5.3304524421691895,3.8403379917144775
343,175843,175845,0.06690451502799988,0.002139408839866519,0.9567736387252808,-174.18585205078125,-42.150821685791016,-23.525188446044922,1.3184340000152588,1.0934453010559082,0.04949752241373062,-1.5497262477874756,4.284249305725098,3.7462728023529053
344,175853,175855,0.17517340183258057,-0.3103797733783722,1.2135553359985352,-191.83778381347656,-25.48133659362793,-25.066253662109375,1.313934326171875,1.109944462776184,0.07199639827013016,-1.0501866340637207,2.323218584060669,3.5105841159820557
345,175863,175865,0.07373049855232239,-0.4374546706676483,1.3864282369613647,-195.8378448486328,-10.414827346801758,-19.27973747253418,1.3214339017868042,1.12644362449646,0.05549722537398338,-0.6590354442596436,0.9314994215965271,3.4003584384918213
346,175873,175875,0.23790626227855682,-0.7579560279846191,1.4246234893798828,-175.05665588378906,1.8407920598983765,-11.78526496887207,1.3229337930679321,1.1459426879882812,0.07799609750509262,-0.6623455286026001,-1.56365966796875,3.0458297729492188
347,175883,175885,0.25889384746551514,-0.40906521677970886,1.3423206806182861,-121.13433074951172,-5.031978130340576,-1.7483636140823364,1.301934838294983,1.1729413270950317,0.06299684941768646,-0.7122189998626709,-2.8361849784851074,2.9764485359191895
348,175893,175895,0.1737101823091507,-0.16770242154598236,1.291119933128357,-60.30426025390625,-10.750792503356934,3.9606454372406006,1.313934326171875,1.1489425897598267,0.07199639827013016,-0.6804035305976868,-4.219468116760254,2.9306366443634033
349,175903,175905,0.07976212352514267,0.031419239938259125,1.0691990852355957,8.01523494720459,-4.806380271911621,6.317012310028076,1.3199340105056763,1.1369431018829346,0.05999699980020523,-0.5579400062561035,-4.520934581756592,3.044079065322876
350,175913,175915,-0.010818910785019398,0.11812294274568558,1.0901192426681519,75.48112487792969,3.1975772380828857,9.438243865966797,1.3409329652786255,1.1279436349868774,0.05399730056524277,-0.49369287490844727,-4.446534633636475,3.1272454261779785
351,175923,175925,0.0571131557226181,0.040757130831480026,1.140720248222351,124.93533325195312,6.753514766693115,7.327560901641846,1.3274335861206055,1.1354432106018066,0.06449677050113678,-0.5771307349205017,-3.5627901554107666,3.235943555831909
352,175933,175935,0.13822227716445923,-0.09099192172288895,1.2206082344055176,153.42605590820312,8.853364944458008,5.268077373504639,1.3439327478408813,1.1339433193206787,0.050997450947761536,-0.7200548052787781,-2.079660654067993,3.344120740890503
353,175943,175945,0.12241065502166748,-0.09391142427921295,1.1721715927124023,155.1909942626953,11.189042091369629,0.6655325889587402,1.33793306350708,1.1129443645477295,0.06299684941768646,-0.9556460976600647,-0.7839005589485168,3.3564493656158447
354,175953,175955,-0.03023981675505638,-0.1623069792985916,0.9799582958221436,122.10284423828125,8.158068656921387,-2.455291271209717,1.339432954788208,1.1144442558288574,0.07049647718667984,-1.1324433088302612,0.9245583415031433,3.3941709995269775
355,175963,175965,0.21997252106666565,-0.13946299254894257,0.8988485336303711,71.04320526123047,7.266263961791992,-6.173169136047363,1.3499324321746826,1.0949451923370361,0.06299684941768646,-1.2561532258987427,1.9801812171936035,3.3384876251220703
356,175973,175975,-0.010881617665290833,-0.027693504467606544,0.9017292261123657,9.03543758392334,1.359048843383789,-12.5088529586792,1.3469326496124268,1.070946455001831,0.07199639827013016,-1.2342638969421387,2.5107643604278564,3.2397360801696777
357,175983,175985,-0.11382089555263519,-0.03663687780499458,0.9294511675834656,-48.85919952392578,-2.5503008365631104,-13.993094444274902,1.3424328565597534,1.0754462480545044,0.07049647718667984,-1.2567352056503296,2.6217193603515625,3.115753412246704
358,175993,175995,0.02097407914698124,-0.06943879276514053,0.9414464235305786,-103.328125,-10.28410816192627,-17.47409439086914,1.3349332809448242,1.070946455001831,0.05999699980020523,-1.233554720878601,1.773905873298645,2.897660970687866
359,176003,176005,0.053071390837430954,-0.16348204016685486,1.0822582244873047,-143.47921752929688,-26.308856964111328,-13.811186790466309,1.3199340105056763,1.0889455080032349,0.06299684941768646,-1.075825572013855,1.0480263233184814,2.7854514122009277
360,176013,176015,0.0881786048412323,-0.19303734600543976,0.8611291646957397,-162.67242431640625,-34.05031967163086,-13.593432426452637,1.3244338035583496,1.1174441576004028,0.05249737575650215,-0.7370060086250305,-0.7024547457695007,2.5819625854492188
361,176023,176025,0.15745124220848083,-0.5150554776191711,1.017516016960144,-172.08160400390625,-31.111186981201172,-7.89598274230957,1.3214339017868042,1.1204439401626587,0.058497074991464615,-0.2781154215335846,-1.8441215753555298,2.5534894466400146
362,176033,176035,0.08866921812295914,-0.22647593915462494,0.9253475666046143,-157.83152770996094,-20.306245803833008,0.7739348411560059,1.3274335861206055,1.12644362449646,0.06749662756919861,0.21273288130760193,-3.936420440673828,2.4231224060058594
363,176043,176045,0.07098928838968277,0.11217880994081497,0.9915786385536194,-129.2653045654297,-3.2445406913757324,9.90512752532959,1.3274335861206055,1.1294435262680054,0.06149692460894585,0.31350651383399963,-5.078095436096191,2.507455587387085
364,176053,176055,0.06564988195896149,0.1669701635837555,1.1858965158462524,-79.63233184814453,0.8484930396080017,19.85750961303711,1.3304334878921509,1.138443112373352,0.06449677050113678,0.2884710133075714,-6.57028341293335,2.57595157623291
365,176063,176065,0.07687697559595108,-0.02874656766653061,1.0777932405471802,-13.807709693908691,7.996532917022705,26.262508392333984,1.3454327583312988,1.1444427967071533,0.05549722537398338,0.15664735436439514,-7.115725994110107,2.813340663909912
366,176073,176075,0.03744444623589516,0.049764715135097504,1.0364991426467896,51.67643737792969,14.223395347595215,28.222131729125977,1.3484325408935547,1.1324433088302612,0.05249737575650215,-0.013580206781625748,-7.0624189376831055,3.099782705307007
367,176083,176085,0.10355739295482635,-0.06462378054857254,1.0385010242462158,108.37108612060547,19.312713623046875,29.08431625366211,1.3469326496124268,1.1369431018829346,0.047997597604990005,-0.28099319338798523,-6.69711446762085,3.380092144012451
368,176093,176095,0.09327957034111023,-0.10604588687419891,0.9610530138015747,138.5325164794922,23.130205154418945,27.575130462646484,1.339432954788208,1.123443841934204,0.04649767279624939,-0.6955249309539795,-5.343204975128174,3.7554521560668945
369,176103,176105,-0.016013989225029945,-0.021712513640522957,1.0335524082183838,139.02235412597656,8.042315483093262,30.158191680908203,1.3454327583312988,1.1204439401626587,0.04949752241373062,-0.9158226847648621,-4.586297512054443,3.9337401390075684
370,176113,176115,0.0994957834482193,-0.07245241105556488,1.161132574081421,129.19644165039062,-0.8309474587440491,27.47452163696289,1.3484325408935547,1.1024448871612549,0.058497074991464615,-1.0701241493225098,-2.865973711013794,4.279465675354004
371,176123,176125,0.034653544425964355,-0.0752815306186676,0.9984034895896912,100.28121948242188,-3.5443122386932373,20.858808517456055,1.3499324321746826,1.0949451923370361,0.05399730056524277,-1.1325161457061768,-1.8641422986984253,4.547789096832275
372,176133,176135,0.12754075229167938,-0.19744037091732025,0.8061692714691162,52.431297302246094,-16.447298049926758,14.020918846130371,1.3514324426651,1.0844457149505615,0.058497074991464615,-1.0566534996032715,-0.6754915118217468,4.75780725479126
373,176143,176145,-0.05099949613213539,-0.22133806347846985,0.834477424621582,-11.56657600402832,-42.907711029052734,10.912822723388672,1.3559322357177734,1.0799460411071777,0.050997450947761536,-0.8397158980369568,-0.2512652575969696,4.8478474617004395
374,176153,176155,-0.12389511615037918,0.003688253927975893,0.7480434775352478,-56.900333404541016,-62.24384689331055,4.958096027374268,1.339432954788208,1.0814459323883057,0.05549722537398338,-0.3482903242111206,-0.4089733958244324,4.894529342651367
375,176163,176165,-0.10290813446044922,0.16784504055976868,0.9635915756225586,-80.2947998046875,-61.24795150756836,-2.247422933578491,1.3424328565597534,1.0934453010559082,0.058497074991464615,0.24819065630435944,-1.100130558013916,4.936323642730713
376,176173,176175,0.13741901516914368,-0.10110466927289963,1.0905468463897705,-85.11198425292969,-50.4561882019043,-5.8499908447265625,1.3364331722259521,1.0964452028274536,0.05549722537398338,0.977966845035553,-2.113208293914795,4.8527421951293945
377,176183,176185,0.07533031702041626,-0.012804224155843258,1.0416309833526611,-76.18290710449219,-29.346309661865234,-8.018221855163574,1.3514324426651,1.1084445714950562,0.04949752241373062,1.0836857557296753,-3.0453219413757324,4.982975006103516
378,176193,176195,0.10051228851079941,-0.09530960023403168,0.8833397626876831,-58.317169189453125,-5.565793037414551,-7.6595025062561035,1.354432225227356,1.1174441576004028,0.040497973561286926,1.5093247890472412,-3.544919490814209,4.883416175842285
379,176203,176205,-0.02912536822259426,0.05891309678554535,1.031421184539795,-37.49538040161133,16.462434768676758,-6.5881242752075195,1.352932333946228,1.1279436349868774,0.044997747987508774,1.6243942975997925,-3.9816055297851562,4.799569606781006
380,176213,176215,-0.06427991390228271,0.11112640053033829,1.0992597341537476,-6.468721866607666,24.800508499145508,-0.8467883467674255,1.3514324426651,1.1174441576004028,0.05549722537398338,1.234740972518921,-4.435972213745117,4.836319923400879
381,176223,176225,-0.036496661603450775,-0.1927892565727234,1.0453453063964844,29.048843383789062,33.63489532470703,3.1342082023620605,1.3514324426651,1.138443112373352,0.05549722537398338,0.925044059753418,-4.505478382110596,4.837106704711914
382,176233,176235,0.1501391977071762,-0.31398770213127136,1.024925947189331,62.80809783935547,36.84451675415039,5.189252853393555,1.3619319200515747,1.1189440488815308,0.05399730056524277,0.46604281663894653,-4.228456020355225,4.903390884399414
383,176243,176245,0.16736240684986115,-0.16245198249816895,0.7934655547142029,83.02637481689453,29.29606056213379,3.8097803592681885,1.3469326496124268,1.1189440488815308,0.06299684941768646,0.059543825685977936,-3.660078287124634,4.9498491287231445
384,176253,176255,0.08967911452054977,-0.14124180376529694,0.9454373121261597,78.11412811279297,16.41058349609375,5.81964635848999,1.3604319095611572,1.1144442558288574,0.05249737575650215,-0.15757648646831512,-2.5719010829925537,4.925074577331543
385,176263,176265,0.04389136657118797,-0.07451147586107254,0.9591319561004639,56.83811569213867,-2.2353060245513916,7.67210054397583,1.3454327583312988,1.111444354057312,0.06449677050113678,-0.2918798625469208,-1.993249773979187,4.965977668762207
386,176273,176275,0.006937315221875906,0.08297359198331833,0.8187977075576782,29.202917098999023,-22.782318115234375,6.464592933654785,1.3499324321746826,1.0889455080032349,0.06299684941768646,-0.2764572501182556,-1.3908544778823853,5.037225723266602
387,176283,176285,-0.11986050754785538,-0.0013208143645897508,0.8080260157585144,-2.1774704456329346,-38.914093017578125,4.691043853759766,1.3484325408935547,1.1024448871612549,0.04949752241373062,0.12403924018144608,-1.1810460090637207,5.000762939453125
388,176293,176295,-0.024799756705760956,-0.055702775716781616,0.8179982900619507,-26.83772850036621,-50.35990905761719,1.9311532974243164,1.3349332809448242,1.0949451923370361,0.056997150182724,0.5925899147987366,-1.3763591051101685,5.014518737792969
389,176303,176305,-0.05337134003639221,0.13414964079856873,0.8800238966941833,-41.28627395629883,-49.546058654785156,0.1842142641544342,1.3484325408935547,1.0964452028274536,0.05549722537398338,0.8802973031997681,-1.6133042573928833,5.156954288482666
390,176313,176315,0.013776494190096855,0.022034820169210434,0.9290483593940735,-38.72914505004883,-39.452598571777344,0.9135090708732605,1.3499324321746826,1.1039447784423828,0.050997450947761536,1.4246244430541992,-2.225403070449829,5.157102108001709
391,176323,176325,0.03218351677060127,-0.012885353527963161,0.9401779770851135,-19.28987693786621,-21.120790481567383,3.973769187927246,1.3319333791732788,1.1219438314437866,0.05999699980020523,1.7463504076004028,-2.7616477012634277,5.229257106781006
392,176333,176335,-0.014810660853981972,0.13474294543266296,0.9688001871109009,14.56109619140625,-9.330300331115723,4.377034664154053,1.3424328565597534,1.123443841934204,0.06149692460894585,1.8474233150482178,-2.906907081604004,5.325736999511719
393,176343,176345,0.12834449112415314,-0.17163097858428955,1.0462735891342163,58.00045394897461,9.39806079864502,4.422739505767822,1.3559322357177734,1.1189440488815308,0.050997450947761536,1.998957872390747,-2.5598220825195312,5.319477558135986
394,176353,176355,0.08509615063667297,-0.18342509865760803,0.9157959818840027,103.09233093261719,24.431333541870117,0.8972892761230469,1.3439327478408813,1.1279436349868774,0.047997597604990005,1.8843088150024414,-1.8531999588012695,5.352358818054199
395,176363,176365,-0.018841253593564034,0.020983830094337463,0.9895240664482117,132.2381591796875,45.50542068481445,-3.3618011474609375,1.354432225227356,1.1294435262680054,0.06149692460894585,1.5223344564437866,-0.9347310662269592,5.4326653480529785
396,176373,176375,-0.11291322112083435,0.12349942326545715,1.0338934659957886,138.84864807128906,72.1971206665039,-10.861222267150879,1.352932333946228,1.13994300365448,0.05399730056524277,0.8613518476486206,0.660498321056366,5.439372539520264
397,176383,176385,0.176503524184227,-0.2945016622543335,1.0887328386306763,120.99934387207031,75.54373168945312,-16.915943145751953,1.3589320182800293,1.1159441471099854,0.05999699980020523,0.3648700714111328,1.567999243736267,5.3273420333862305
398,176393,176395,0.07229269295930862,-0.328594446182251,0.9302382469177246,83.48428344726562,60.37428283691406,-24.163284301757812,1.3304334878921509,1.0994449853897095,0.05249737575650215,-0.6602784395217896,2.987110137939453,5.259821891784668
399,176403,176405,0.0302448570728302,-0.44578778743743896,0.7865630388259888,30.28431510925293,32.82859420776367,-25.302539825439453,1.3409329652786255,1.0979450941085815,0.05399730056524277,-1.0864075422286987,3.391366958618164,5.0536417961120605
400,176413,176415,0.11613340675830841,-0.3381052315235138,0.807305097579956,-24.006216049194336,-9.355752944946289,-23.73297882080078,1.3094345331192017,1.1054446697235107,0.05249737575650215,-1.3535068035125732,3.7406182289123535,4.795254230499268
401,176423,176425,-0.16362862288951874,-0.028412800282239914,0.8835415244102478,-58.96648406982422,-49.43486785888672,-22.43059539794922,1.3229337930679321,1.1129443645477295,0.05999699980020523,-1.141534686088562,3.43424391746521,4.541618347167969
402,176433,176435,-0.26559847593307495,0.20874273777008057,0.9257967472076416,-73.36510467529297,-82.72010803222656,-20.362627029418945,1.3109344244003296,1.1069446802139282,0.06299684941768646,-0.36158308386802673,2.5585808753967285,4.292275428771973
403,176443,176445,-0.19656629860401154,0.14213310182094574,1.1466872692108154,-73.5611343383789,-99.3448486328125,-13.771563529968262,1.313934326171875,1.1159441471099854,0.06299684941768646,0.3499736189842224,2.116570234298706,4.043984413146973
404,176453,176455,-0.05753667652606964,0.041404496878385544,1.0801751613616943,-52.33487319946289,-94.41156005859375,-9.068902015686035,1.3334332704544067,1.0964452028274536,0.05549722537398338,1.7459614276885986,1.2352403402328491,3.9031362533569336
405,176463,176465,-0.04917563125491142,-0.04135272651910782,1.1315022706985474,-26.677671432495117,-55.07524871826172,-7.092337608337402,1.3409329652786255,1.1009448766708374,0.047997597604990005,2.3287079334259033,1.0479955673217773,3.7288434505462646
406,176473,176475,0.06747685372829437,-0.09112098813056946,1.1403487920761108,1.1972466707229614,-10.792830467224121,-6.069715976715088,1.339432954788208,1.0994449853897095,0.040497973561286926,3.1723737716674805,0.6043329834938049,3.6952035427093506
407,176483,176485,0.3962702751159668,-0.2643766701221466,1.1430267095565796,16.979650497436523,40.186859130859375,-4.602055549621582,1.3514324426651,1.1084445714950562,0.05249737575650215,2.98036527633667,0.771479606628418,3.563124418258667
408,176493,176495,0.26226311922073364,-0.43673956394195557,1.2226866483688354,30.707677841186523,87.19157409667969,-3.905362367630005,1.3574321269989014,1.1174441576004028,0.058497074991464615,2.363962173461914,1.0555974245071411,3.457655906677246
409,176503,176505,0.36318281292915344,-0.4292963743209839,1.0510832071304321,33.858421325683594,104.14138793945312,-4.067802429199219,1.3484325408935547,1.1324433088302612,0.05549722537398338,1.3623601198196411,1.3200435638427734,3.404243230819702
410,176513,176515,0.28958550095558167,-0.5930309891700745,1.3773891925811768,39.48686599731445,102.32599639892578,-3.7824630737304688,1.3349332809448242,1.13994300365448,0.05999699980020523,0.1376151740550995,1.729224681854248,3.339053153991699
411,176523,176525,0.14588728547096252,-0.6809355616569519,1.1744425296783447,42.988101959228516,65.4953384399414,-1.5637433528900146,1.3364331722259521,1.1174441576004028,0.06149692460894585,-0.9684493541717529,1.7941768169403076,3.3783152103424072
412,176533,176535,0.1516844481229782,-0.22300074994564056,1.102044701576233,40.14316940307617,17.811599731445312,-0.338335245847702,1.3364331722259521,1.111444354057312,0.07049647718667984,-1.6370469331741333,2.427321672439575,3.3541789054870605
413,176543,176545,0.06408565491437912,-0.13698114454746246,1.1459152698516846,32.683860778808594,-26.7559757232666,1.948803424835205,1.3469326496124268,1.0829458236694336,0.08399579674005508,-1.8261566162109375,2.7178030014038086,3.3853726387023926
414,176553,176555,0.06899557262659073,-0.006932456512004137,1.099938154220581,24.839275360107422,-70.53113555908203,4.637330055236816,1.3439327478408813,1.070946455001831,0.0659966990351677,-1.356452465057373,3.2371625900268555,3.4404735565185547
415,176563,176565,0.02835989184677601,-0.0008240772294811904,1.1045148372650146,17.130680084228516,-110.69878387451172,3.9568748474121094,1.339432954788208,1.0694465637207031,0.07049647718667984,-0.4194697141647339,3.2691733837127686,3.5514938831329346
416,176573,176575,0.2500804364681244,-0.3614000380039215,0.9055286645889282,9.344390869140625,-122.76687622070312,2.2999842166900635,1.3469326496124268,1.0769461393356323,0.05999699980020523,0.8697097301483154,3.5396642684936523,3.5951321125030518
417,176583,176585,0.1409945785999298,-0.13786081969738007,1.05998957157135,-11.795050621032715,-118.70559692382812,4.176494598388672,1.3409329652786255,1.0589470863342285,0.05999699980020523,1.741073489189148,3.6099836826324463,3.422825574874878
418,176593,176595,-0.011366263031959534,0.017294064164161682,1.0687808990478516,-39.159061431884766,-88.02774810791016,4.822967052459717,1.354432225227356,1.0604469776153564,0.05249737575650215,3.127103567123413,3.614874839782715,3.4481685161590576
419,176603,176605,-0.019467169418931007,0.021069934591650963,1.0414094924926758,-51.904449462890625,-48.63280487060547,5.215588569641113,1.3574321269989014,1.042447805404663,0.05549722537398338,3.8218326568603516,3.3219048976898193,3.337484359741211
420,176613,176615,-0.04345276206731796,-0.08199403434991837,0.865437924861908,-54.12530517578125,-2.9409682750701904,5.856442451477051,1.3649317026138306,1.0529472827911377,0.050997450947761536,4.389719009399414,2.6559877395629883,3.3890390396118164
421,176623,176625,-0.1762830913066864,-0.007271443959325552,0.9186069369316101,-45.34566879272461,42.2555046081543,6.633997917175293,1.3709313869476318,1.0829458236694336,0.04199789837002754,4.372745513916016,2.1774117946624756,3.364022731781006
422,176633,176635,-0.015511236153542995,0.018103085458278656,1.0166295766830444,-34.895606994628906,80.14412689208984,9.056853294372559,1.3634318113327026,1.0904453992843628,0.040497973561286926,3.8212928771972656,1.7294853925704956,3.329270839691162
423,176643,176645,-0.01457189954817295,-0.07098203897476196,0.9683830738067627,-16.725191116333008,95.83993530273438,8.255373001098633,1.3439327478408813,1.109944462776184,0.047997597604990005,3.010092258453369,1.596503734588623,3.3404855728149414
424,176653,176655,0.044884487986564636,-0.1742674559354782,0.8553521633148193,0.31091073155403137,90.24269104003906,4.201417446136475,1.369431495666504,1.1054446697235107,0.06749662756919861,2.013296604156494,1.3772801160812378,3.416651964187622
425,176663,176665,-0.20956382155418396,0.0984363853931427,1.1434308290481567,16.244672775268555,72.39368438720703,-1.5825693607330322,1.3634318113327026,1.087445616722107,0.06449677050113678,1.2122501134872437,1.505316972732544,3.496915340423584
426,176673,176675,-0.04383713752031326,0.018836671486496925,1.025679588317871,22.149572372436523,47.492305755615234,-8.596758842468262,1.3424328565597534,1.087445616722107,0.058497074991464615,0.30718520283699036,1.6019984483718872,3.454331398010254
427,176683,176685,0.051934145390987396,-0.12131744623184204,0.836966872215271,21.369083404541016,19.85057258605957,-12.952445983886719,1.3424328565597534,1.0754462480545044,0.06449677050113678,0.16739366948604584,1.877002477645874,3.5585124492645264
428,176693,176695,0.1954071968793869,-0.04957548901438713,0.953926146030426,14.215113639831543,-9.142467498779297,-17.030778884887695,1.3469326496124268,1.0619468688964844,0.056997150182724,-0.10358903557062149,2.132291078567505,3.4162120819091797
429,176703,176705,0.11334358900785446,-0.1344662606716156,0.9809911847114563,-4.272659778594971,-21.899578094482422,-21.331748962402344,1.3409329652786255,1.0769461393356323,0.05999699980020523,-0.12537367641925812,2.0633909702301025,3.2839395999908447
430,176713,176715,0.0019616216886788607,0.044409722089767456,1.1836766004562378,-31.5506534576416,-22.017791748046875,-19.700443267822266,1.3349332809448242,1.0799460411071777,0.06299684941768646,0.09048088639974594,2.0054993629455566,3.091587781906128
431,176723,176725,0.018099142238497734,-0.11668074876070023,1.0825670957565308,-53.77164077758789,-9.56469440460205,-17.460485458374023,1.3454327583312988,1.0904453992843628,0.05549722537398338,0.4550158679485321,1.7934869527816772,2.9341142177581787
432,176733,176735,0.0068055749870836735,-0.10940749943256378,0.9796329140663147,-53.880950927734375,3.827194929122925,-10.393484115600586,1.3424328565597534,1.0994449853897095,0.058497074991464615,0.6879755854606628,1.1445454359054565,2.8393096923828125
433,176743,176745,0.041108109056949615,-0.056381408125162125,0.9890422224998474,-29.01203727722168,25.846439361572266,-10.790300369262695,1.3514324426651,1.0994449853897095,0.058497074991464615,0.4584105312824249,0.7759048938751221,2.612783908843994
434,176753,176755,0.1621534526348114,-0.04123377799987793,1.048677682876587,-3.5552546977996826,44.34583282470703,-9.453659057617188,1.3499324321746826,1.085945725440979,0.07199639827013016,0.2958020567893982,0.44201675057411194,2.5599846839904785
435,176763,176765,0.14984513819217682,-0.08401952683925629,0.9507436156272888,15.780801773071289,28.73320960998535,-13.71897029876709,1.339432954788208,1.1024448871612549,0.06449677050113678,-0.1222594827413559,0.6012564897537231,2.436969041824341
436,176773,176775,0.1654205173254013,-0.14337028563022614,1.1615818738937378,26.54872703552246,2.578329086303711,-19.3367919921875,1.3439327478408813,1.0949451923370361,0.05999699980020523,-0.5072811245918274,0.8282294869422913,2.2542548179626465
437,176783,176785,0.191547229886055,-0.407835453748703,0.9004323482513428,18.20919418334961,-25.185609817504883,-17.195302963256836,1.3364331722259521,1.0994449853897095,0.058497074991464615,-0.5166759490966797,1.0744130611419678,2.0721864700317383
438,176793,176795,-0.0665617361664772,-0.14311666786670685,1.13898766040802,-4.0226874351501465,-38.986961364746094,-18.154308319091797,1.3424328565597534,1.0814459323883057,0.06749662756919861,-0.17518310248851776,1.2388087511062622,1.9284346103668213
439,176803,176805,-0.0972248762845993,-0.107526496052742,0.9656786918640137,-11.286337852478027,-46.70658874511719,-19.28681182861328,1.352932333946228,1.0769461393356323,0.05999699980020523,0.30392375588417053,1.0677142143249512,1.7870113849639893
440,176813,176815,-0.02839333936572075,-0.040235452353954315,1.1573081016540527,-16.847896575927734,-31.445432662963867,-21.21217918395996,1.354432225227356,1.0844457149505615,0.06749662756919861,0.6643556356430054,1.0583008527755737,1.5577596426010132
441,176823,176825,0.06277704238891602,-0.056602220982313156,1.0461763143539429,-16.193458557128906,-12.286211967468262,-21.839902877807617,1.354432225227356,1.0784460306167603,0.058497074991464615,1.1078529357910156,0.7588416337966919,1.3928191661834717
442,176833,176835,0.09777569770812988,-0.06077894940972328,0.9544590711593628,-8.923935890197754,14.913008689880371,-21.357297897338867,1.3439327478408813,1.085945725440979,0.0659966990351677,1.2902610301971436,0.6206881999969482,1.1873862743377686
443,176843,176845,0.051168590784072876,-0.034545011818408966,0.9772024154663086,-3.0200672149658203,38.58106994628906,-23.876882553100586,1.3589320182800293,1.1009448766708374,0.06299684941768646,0.9977203607559204,0.6556058526039124,0.9200474619865417
444,176853,176855,0.030872775241732597,-0.3572853207588196,0.9483985900878906,1.2665209770202637,45.51365661621094,-25.57039451599121,1.3424328565597534,1.0994449853897095,0.06749662756919861,0.41695499420166016,0.641412079334259,0.6285369396209717
445,176863,176865,0.028883641585707664,-0.11143862456083298,1.019699215888977,5.121657848358154,38.02619934082031,-23.61258316040039,1.33793306350708,1.1009448766708374,0.07499624788761139,0.09652016311883926,0.6895760893821716,0.4197164475917816
446,176873,176875,0.029316505417227745,-0.14146895706653595,0.8015023469924927,6.535409927368164,24.992996215820312,-23.127031326293945,1.3364331722259521,1.0994449853897095,0.06749662756919861,-0.39076370000839233,0.7183141708374023,0.16515661776065826
447,176883,176885,-0.007180475164204836,0.008989446796476841,1.025456190109253,1.0545588731765747,2.7679693698883057,-20.598388671875,1.33793306350708,1.085945725440979,0.056997150182724,-0.6330296397209167,0.7606267333030701,-0.05811391398310661
448,176893,176895,0.02790527045726776,-0.07744193822145462,0.892889678478241,-14.090928077697754,-17.81357765197754,-17.564720153808594,1.3469326496124268,1.0829458236694336,0.07199639827013016,-0.6779547333717346,0.71940016746521,-0.26828324794769287
449,176903,176905,-0.03793739154934883,-0.10506754368543625,0.865434467792511,-30.82369041442871,-36.872032165527344,-13.67528247833252,1.3364331722259521,1.0904453992843628,0.06149692460894585,-0.3826310336589813,0.5800087451934814,-0.4175260663032532
450,176913,176915,0.024072960019111633,0.016263043507933617,0.9950731992721558,-48.32638931274414,-47.349143981933594,-12.703804969787598,1.3289334774017334,1.0919454097747803,0.06299684941768646,0.21161624789237976,0.09489999711513519,-0.5076457262039185
451,176923,176925,-0.031344905495643616,-0.0485987514257431,0.904198169708252,-59.97745132446289,-42.53410339355469,-13.950538635253906,1.3274335861206055,1.0934453010559082,0.058497074991464615,0.6002859473228455,-0.15830029547214508,-0.6455733776092529
452,176933,176935,-0.0059883384965360165,0.05841943621635437,1.0413575172424316,-65.15249633789062,-29.649747848510742,-11.539867401123047,1.33793306350708,1.1009448766708374,0.050997450947761536,0.9099631309509277,-0.9658790826797485,-0.8084200620651245
453,176943,176945,0.012002557516098022,-0.038894519209861755,0.9371371865272522,-59.58264923095703,-7.140933990478516,-8.693360328674316,1.354432225227356,1.1174441576004028,0.06149692460894585,1.2878555059432983,-1.419553279876709,-0.8980517983436584
454,176953,176955,0.03531014546751976,-0.2209811955690384,0.8415520191192627,-39.69023132324219,2.90983247756958,-5.404488563537598,1.367931604385376,1.1039447784423828,0.06299684941768646,1.1770292520523071,-2.1352221965789795,-1.0119413137435913
455,176963,176965,-0.04084809124469757,-0.2387903928756714,0.921718955039978,-8.37146282196045,8.740840911865234,-5.399540424346924,1.3289334774017334,1.1219438314437866,0.050997450947761536,1.1062594652175903,-2.4461450576782227,-1.0724289417266846
456,176973,176975,-0.0621662437915802,-0.29453858733177185,1.017060399055481,21.69805145263672,7.223459720611572,-3.5503714084625244,1.3484325408935547,1.1174441576004028,0.06449677050113678,0.9562960267066956,-2.608192205429077,-1.129944086074829
457,176983,176985,0.004311345983296633,-0.26812902092933655,0.8962603807449341,46.56788635253906,-0.00858170073479414,-1.6877164840698242,1.3514324426651,1.111444354057312,0.04949752241373062,1.049195408821106,-2.2088403701782227,-1.1681275367736816
458,176993,176995,0.018678896129131317,-0.10290873795747757,0.9619936943054199,57.04368209838867,-1.6601221561431885,0.28767186403274536,1.3484325408935547,1.1204439401626587,0.058497074991464615,1.0177580118179321,-1.7069491147994995,-1.1851251125335693
459,177003,177005,-0.01679326966404915,-0.12388860434293747,1.0705766677856445,52.44578552246094,4.059756755828857,-2.0577168464660645,1.352932333946228,1.1159441471099854,0.0659966990351677,1.0241612195968628,-1.3929510116577148,-1.1787781715393066
460,177013,177015,0.12499136477708817,-0.08176659047603607,0.9728768467903137,35.238746643066406,9.446111679077148,-1.703393816947937,1.3499324321746826,1.1159441471099854,0.07199639827013016,1.1086652278900146,-0.5689460039138794,-1.223719835281372
461,177023,177025,0.1896466463804245,-0.09345362335443497,0.8654314279556274,7.7404351234436035,11.843742370605469,-1.7180962562561035,1.3484325408935547,1.1054446697235107,0.058497074991464615,0.9490385055541992,-0.3323730528354645,-1.224287986755371
462,177033,177035,-0.006343037821352482,-0.08318603783845901,1.0431220531463623,-16.966215133666992,13.136756896972656,-0.9343903064727783,1.3334332704544067,1.1084445714950562,0.058497074991464615,0.741639256477356,-0.2483731508255005,-1.2273751497268677
463,177043,177045,0.14643406867980957,-0.29330605268478394,0.9405567646026611,-32.37238311767578,14.946914672851562,-0.5303019881248474,1.3409329652786255,1.1159441471099854,0.0659966990351677,0.5874166488647461,-0.5615770816802979,-1.2287222146987915
464,177053,177055,-0.060601912438869476,-0.4803040325641632,1.1510292291641235,-36.740203857421875,9.364699363708496,0.21490947902202606,1.3349332809448242,1.1219438314437866,0.0659966990351677,0.5680801272392273,-0.9627867341041565,-1.2486884593963623
465,177063,177065,0.1355750858783722,-0.5958666801452637,1.0399608612060547,-30.498125076293945,8.052186012268066,-0.16521486639976501,1.3409329652786255,1.124943733215332,0.06899654865264893,0.542422354221344,-1.4272656440734863,-1.2514431476593018
466,177073,177075,0.08157115429639816,-0.11833017319440842,1.0572936534881592,-11.32063102722168,-0.681918203830719,-3.5809402465820312,1.3364331722259521,1.111444354057312,0.05549722537398338,0.6092185974121094,-1.6893835067749023,-1.2839179039001465
467,177083,177085,0.13376246392726898,-0.003920233808457851,0.9427111744880676,1.773319959640503,-10.492788314819336,-8.583634376525879,1.339432954788208,1.0994449853897095,0.05549722537398338,0.6024718284606934,-1.7870525121688843,-1.318623423576355
468,177093,177095,0.021456755697727203,0.05375371500849724,0.9624785780906677,2.9181623458862305,-16.428226470947266,-11.680350303649902,1.3424328565597534,1.1024448871612549,0.06149692460894585,0.7456040382385254,-1.756813406944275,-1.4064923524856567
469,177103,177105,-0.02597210370004177,-0.0006983833154663444,0.9966806173324585,-5.359851360321045,-5.865508079528809,-11.375564575195312,1.3484325408935547,1.111444354057312,0.05549722537398338,0.9555725455284119,-1.7169880867004395,-1.528834581375122
470,177113,177115,0.07046948373317719,-0.07980302721261978,1.0437636375427246,-22.07111167907715,23.438385009765625,-7.262352466583252,1.3439327478408813,1.1219438314437866,0.05399730056524277,0.9923195242881775,-1.8132601976394653,-1.6323024034500122
471,177123,177125,0.157319575548172,0.10607599467039108,1.1799683570861816,-30.058979034423828,50.46103286743164,-1.6260874271392822,1.3424328565597534,1.1204439401626587,0.05249737575650215,0.8525500893592834,-2.0235867500305176,-1.7276637554168701
472,177133,177135,0.08784123510122299,0.2577686607837677,1.212929606437683,-27.29156494140625,66.19388580322266,4.513981819152832,1.3319333791732788,1.1309434175491333,0.06299684941768646,0.1910083293914795,-2.42452335357666,-1.7140215635299683
473,177143,177145,0.010168706998229027,0.129408597946167,1.1942501068115234,-20.22256088256836,54.03667068481445,13.093510627746582,1.3259336948394775,1.1369431018829346,0.056997150182724,-0.2643466293811798,-2.628652811050415,-1.7543781995773315
474,177153,177155,0.005635095294564962,-0.11279097199440002,1.0895220041275024,0.5365649461746216,28.055177688598633,25.87385368347168,1.3349332809448242,1.1309434175491333,0.07199639827013016,-0.8258147239685059,-2.9193055629730225,-1.6439197063446045
475,177163,177165,0.15929442644119263,-0.04171193763613701,1.2163492441177368,35.8637809753418,12.86588191986084,31.58286476135254,1.3274335861206055,1.1204439401626587,0.07949602603912354,-1.1823598146438599,-2.782310962677002,-1.3892900943756104
476,177173,177175,0.25681009888648987,-0.12300925701856613,1.2314106225967407,67.1943130493164,-3.5900309085845947,32.76264953613281,1.3334332704544067,1.123443841934204,0.06149692460894585,-1.409846544265747,-2.2226219177246094,-1.0419526100158691
477,177183,177185,0.07093505561351776,-0.10513027757406235,1.1346737146377563,91.52165222167969,-26.620620727539062,34.99238967895508,1.33793306350708,1.1009448766708374,0.05999699980020523,-1.1586521863937378,-1.6652369499206543,-0.7960831522941589
478,177193,177195,0.019696665927767754,-0.06338143348693848,1.170498013496399,112.7886962890625,-35.141845703125,36.727176666259766,1.339432954788208,1.0934453010559082,0.06149692460894585,-0.8407323956489563,-0.6270243525505066,-0.45403462648391724
479,177203,177205,0.1116892546415329,-0.08663118630647659,1.0891683101654053,110.3104248046875,-30.21792221069336,34.835670471191406,1.3439327478408813,1.085945725440979,0.050997450947761536,-0.4591132700443268,0.23481044173240662,-0.12054245173931122
