,gyro.x,gyro.y,gyro.z,stabilizer.pitch,stabilizer.roll,stabilizer.yaw,label
0,-0.004909401293843985,-0.08478139340877533,0.05786580219864845,-0.1664176732301712,0.5377275347709656,-0.11289281398057938,3
1,0.07511671632528305,0.06004204973578453,0.008398073725402355,-0.17963331937789917,0.5381036400794983,-0.11232809722423553,3
2,0.043018992990255356,-0.022971520200371742,0.15041863918304443,-0.19136366248130798,0.5389258861541748,-0.11093047261238098,3
3,0.03548971936106682,0.003640259150415659,-0.032676100730895996,-0.25928160548210144,0.4873277246952057,-0.11049488186836243,3
4,0.10857946425676346,0.014390069991350174,0.11284855008125305,-0.2591564655303955,0.4875864088535309,-0.10981430113315582,3
5,0.06853856146335602,0.006691134534776211,0.1526329070329666,-0.24997800588607788,0.5031119585037231,-0.10885736346244812,3
6,0.08786467462778091,-0.07086257636547089,0.03143639117479324,-0.3127717971801758,0.5149062871932983,-0.10743807256221771,3
7,0.11546285450458527,0.004785242956131697,0.0720544308423996,-0.218514546751976,0.5240026116371155,-0.10753995180130005,3
8,0.05028706416487694,-0.1026177853345871,-0.06346890330314636,-0.1481694132089615,0.5320244431495667,-0.1080794632434845,3
9,0.07508151233196259,-0.0013482894282788038,0.06725288927555084,-0.1648271232843399,0.5379102230072021,-0.10780993103981018,3
10,0.08001235127449036,-0.021995514631271362,0.026151930913329124,-0.17824219167232513,0.5429950952529907,-0.10678420215845108,3
11,-0.024205422028899193,-0.009575934149324894,-0.022041112184524536,-0.187991201877594,0.5466181039810181,-0.10716085880994797,3
12,-0.03197754919528961,0.02445407211780548,0.12367837131023407,-0.196160688996315,0.5485439300537109,-0.10638132691383362,3
13,0.027339259162545204,-0.08549413084983826,0.05517137050628662,-0.1314387321472168,0.5504458546638489,-0.10527253150939941,3
14,0.05621366202831268,-0.03197423741221428,0.001972034340724349,-0.15363170206546783,0.5525468587875366,-0.10486327856779099,3
15,0.0027605039067566395,-0.08304714411497116,0.0355304591357708,-0.16927014291286469,0.5531651377677917,-0.10462670028209686,3
16,-0.05543209984898567,0.017932560294866562,0.07804321497678757,-0.1812293529510498,0.553500771522522,-0.10405494272708893,3
17,0.050561558455228806,0.06755382567644119,-0.03454234451055527,-0.19178643822669983,0.5537606477737427,-0.10361246019601822,3
18,0.06445325911045074,-0.1543329358100891,0.022952955216169357,-0.1991075575351715,0.5556644201278687,-0.10338924080133438,3
19,0.02916082553565502,-0.007311936467885971,0.01279585063457489,-0.19828371703624725,0.5552735328674316,-0.10356829315423965,3
20,0.04058850184082985,-0.0633174479007721,-0.0274415984749794,-0.27008336782455444,0.5564640164375305,-0.10315243154764175,3
21,0.09877151995897293,-0.05266420915722847,0.045983631163835526,-0.2534167766571045,0.5578517913818359,-0.10248096287250519,3
22,0.0814586952328682,-0.04574016109108925,0.029521597549319267,-0.2412354052066803,0.5601059198379517,-0.10236100852489471,3
23,-0.031258177012205124,-0.06218309700489044,0.03807270899415016,-0.23268470168113708,0.5603697299957275,-0.10168787091970444,3
24,0.019333017989993095,0.045753076672554016,0.021840443834662437,-0.15766292810440063,0.5610014796257019,-0.10167516767978668,3
25,-0.07985161244869232,-0.04446198418736458,0.10925974696874619,-0.1716330200433731,0.5618273019790649,-0.1009967029094696,3
26,0.018860267475247383,-0.09811414033174515,0.13996918499469757,-0.18128344416618347,0.5619190335273743,-0.09990782290697098,3
27,-0.029983025044202805,-0.009554821997880936,0.15451054275035858,-0.18803997337818146,0.5621719360351562,-0.09865075349807739,3
28,-0.06958711892366409,-0.07731278240680695,0.10642984509468079,-0.1933998465538025,0.5624855756759644,-0.09720898419618607,3
29,0.0036682526115328074,-0.01609872654080391,0.07602597028017044,-0.19265814125537872,0.5616381764411926,-0.09610581398010254,3
30,0.01005015429109335,0.019416095688939095,-0.009073769673705101,-0.1924102008342743,0.5607413053512573,-0.09560611099004745,3
31,-0.03972005471587181,-0.02037063241004944,0.04150097072124481,-0.1925448179244995,0.5600446462631226,-0.09482754021883011,3
32,0.09413263201713562,-0.06343325227499008,0.1669800579547882,-0.1917123794555664,0.5597853660583496,-0.09402608871459961,3
33,0.18142414093017578,0.09220506995916367,0.03056148998439312,-0.1916123628616333,0.5604714751243591,-0.0931326374411583,3
34,0.046723268926143646,-0.07080288231372833,0.044430043548345566,-0.26205673813819885,0.5629358291625977,-0.09242557734251022,3
35,0.060477446764707565,0.050448447465896606,0.11201837658882141,-0.24476169049739838,0.5637214779853821,-0.09149169921875,3
36,-0.016108939424157143,-0.043306343257427216,0.014659130945801735,-0.23187634348869324,0.5643064379692078,-0.0910344272851944,3
37,0.03976104035973549,-0.10738564282655716,0.03115481697022915,-0.2215820848941803,0.5644948482513428,-0.09053287655115128,3
38,0.07126318663358688,-0.06328751891851425,0.051557447761297226,-0.2139502614736557,0.5643388628959656,-0.08967141062021255,3
39,-0.04840107262134552,0.00387178105302155,0.07088952511548996,-0.21356268227100372,0.5637151002883911,-0.08893737941980362,3
40,0.11157255619764328,-0.024008531123399734,0.1882214993238449,-0.21316225826740265,0.563576877117157,-0.08815857768058777,3
41,-0.04978916421532631,0.003896518610417843,-0.05141831934452057,-0.21237973868846893,0.5631526708602905,-0.08761756122112274,3
42,0.026925958693027496,0.044835321605205536,0.002455363981425762,-0.27839669585227966,0.5623600482940674,-0.08775628358125687,3
43,0.15424630045890808,-0.10728559643030167,0.03307357802987099,-0.19239476323127747,0.5634953379631042,-0.0875622108578682,3
44,0.04618527740240097,-0.01139619667083025,0.007532653398811817,-0.19226256012916565,0.5636649131774902,-0.08727975189685822,3
45,0.03479863330721855,-0.1255897581577301,-0.0527457520365715,-0.19074104726314545,0.563605010509491,-0.0871962457895279,3
46,0.056840796023607254,-0.006917220074683428,0.14106698334217072,-0.19051311910152435,0.5636187195777893,-0.08670677244663239,3
47,0.03099529817700386,0.011364923790097237,0.03882523998618126,-0.19058385491371155,0.5629106760025024,-0.08589423447847366,3
48,-0.1103971004486084,-0.014071030542254448,0.02099711261689663,-0.2600911259651184,0.6289676427841187,-0.08514672517776489,3
49,-0.05586725100874901,0.021094856783747673,-0.007045687176287174,-0.24289269745349884,0.6084827184677124,-0.08533933758735657,3
50,-0.03919615224003792,-0.07402205467224121,0.14604124426841736,-0.2309899628162384,0.5941615700721741,-0.08454128354787827,3
51,0.11242973804473877,-0.014402274042367935,0.02616952732205391,-0.22033573687076569,0.5834585428237915,-0.08332164585590363,3
52,0.04172445461153984,-0.019211838021874428,0.01568661257624626,-0.1435835212469101,0.5765205025672913,-0.0833141952753067,3
53,-0.05041011795401573,0.11440113931894302,0.00623041158542037,-0.22804738581180573,0.5714906454086304,-0.08304201066493988,3
54,0.004650616552680731,-0.08241932839155197,-0.0573887825012207,-0.22076793015003204,0.5651524662971497,-0.08346302062273026,3
55,0.036267444491386414,0.010853942483663559,0.17065896093845367,-0.21452496945858002,0.5622612833976746,-0.0823555737733841,3
56,0.058354586362838745,0.05332615226507187,0.05653051659464836,-0.214433953166008,0.5618307590484619,-0.08133460581302643,3
57,0.019012734293937683,0.03657200187444687,-0.03529669716954231,-0.21466156840324402,0.5619238615036011,-0.08114124834537506,3
58,0.02473304606974125,0.07458005100488663,0.07455728203058243,-0.2151273638010025,0.561019241809845,-0.08093900978565216,3
59,0.011369084939360619,-0.08977606892585754,0.046809032559394836,-0.21462392807006836,0.5609750151634216,-0.08024831861257553,3
60,0.030255481600761414,-0.001261063851416111,0.04314299300312996,-0.21406535804271698,0.5609098076820374,-0.07914327085018158,3
61,0.061099350452423096,-0.009552903473377228,0.03800256550312042,-0.21400266885757446,0.5602843761444092,-0.07906793057918549,3
62,-0.08189188688993454,-0.02760954573750496,0.055160678923130035,-0.21318894624710083,0.5591055750846863,-0.07843955606222153,3
63,0.06649306416511536,-0.07355502992868423,0.10201405733823776,-0.21261999011039734,0.5587906837463379,-0.07731609046459198,3
64,-0.017024589702486992,0.00849403627216816,0.012682090513408184,-0.14105112850666046,0.5591443777084351,-0.07704900950193405,3
65,0.034969981759786606,0.0172300785779953,0.1341533064842224,-0.29949626326560974,0.5587958693504333,-0.07552086561918259,3
66,-0.005839344579726458,-0.08922269195318222,-0.03758429363369942,-0.20635397732257843,0.5588365197181702,-0.07532767206430435,3
67,0.015685029327869415,-0.027552442625164986,0.1725705862045288,-0.20565390586853027,0.5584754943847656,-0.07416459918022156,3
68,0.042399320751428604,-0.07301434129476547,0.04091562703251839,-0.2045453041791916,0.558292031288147,-0.07325907796621323,3
69,0.03390294313430786,-0.055591318756341934,0.11093659698963165,-0.2039518803358078,0.5576233863830566,-0.07225454598665237,3
70,0.0965794026851654,-0.10798544436693192,0.009508837945759296,-0.20343247056007385,0.557663083076477,-0.07099325954914093,3
71,-0.08549174666404724,0.02279052510857582,0.02780611254274845,-0.2026071548461914,0.5568532347679138,-0.07081689685583115,3
72,0.054183077067136765,0.07010114938020706,0.11829999834299088,-0.20320935547351837,0.5568469166755676,-0.0700683444738388,3
73,-0.05499667301774025,-0.03139868751168251,0.09220348298549652,-0.20250873267650604,0.5562889575958252,-0.06884831935167313,3
74,0.0119146928191185,-0.1177174523472786,0.011573543772101402,-0.20165130496025085,0.5558329820632935,-0.06850558519363403,3
75,0.07577504217624664,0.0013663859572261572,0.024378035217523575,-0.20089426636695862,0.5561558604240417,-0.0681772232055664,3
76,0.0014632736565545201,-0.042807817459106445,0.006103023421019316,-0.2002735435962677,0.555643618106842,-0.06798133999109268,3
77,-0.042160749435424805,0.005744239781051874,0.18100082874298096,-0.20027247071266174,0.5552266836166382,-0.06698757410049438,3
78,0.08842938393354416,-0.03210320323705673,-0.06421969085931778,-0.199430912733078,0.5551174283027649,-0.0667249858379364,3
79,0.02315102331340313,-0.08694545179605484,0.07555563747882843,-0.1988525390625,0.5549920797348022,-0.06679272651672363,3
80,-0.026799868792295456,-0.02204432524740696,0.03879484906792641,-0.1982724368572235,0.5543689727783203,-0.06526456028223038,3
81,0.03786981850862503,0.02983376383781433,0.008200264535844326,-0.19801472127437592,0.5536766052246094,-0.06542351096868515,3
82,-0.042413994669914246,-0.01984701119363308,-0.007673786953091621,-0.19775508344173431,0.5533992052078247,-0.06538396328687668,3
83,-0.015985677018761635,-0.0377691313624382,0.1007230281829834,-0.12936116755008698,0.5532394051551819,-0.0654633641242981,3
84,-0.08463895320892334,0.08437671512365341,0.11860194057226181,-0.1487116813659668,0.5532509684562683,-0.06403712928295135,3
85,0.06207812950015068,0.0942232757806778,-0.0344315804541111,-0.16497987508773804,0.5544403791427612,-0.06382095813751221,3
86,0.04040095582604408,-0.0548807755112648,0.10707779228687286,-0.17613373696804047,0.5557348132133484,-0.06341665238142014,3
87,0.023199807852506638,-0.052836477756500244,0.10458183288574219,-0.1839996725320816,0.556547999382019,-0.06210961565375328,3
88,0.027399325743317604,-0.021324720233678818,-0.0127703957259655,-0.1899576634168625,0.5572971701622009,-0.061574406921863556,3
89,0.025535212829709053,0.03468877449631691,0.07764916867017746,0.0,0.0,0.0,3
90,0.05786371976137161,-0.04145553708076477,0.09760158509016037,-7.216032827273011e-05,0.00047010023263283074,0.00047176535008475184,3
91,0.02315724641084671,-0.1653990000486374,0.049329135566949844,-0.002849244512617588,0.015658263117074966,0.001246778410859406,3
92,0.10648602247238159,-0.03488392010331154,-0.010373210534453392,-0.00840271171182394,0.03819187358021736,0.0015820914413779974,3
93,-0.029831944033503532,-0.07071759551763535,0.08406772464513779,-0.4851089417934418,0.07860531657934189,0.0019725835882127285,3
94,0.062348831444978714,-0.049440961331129074,0.048809077590703964,-0.30394190549850464,0.12258850783109665,0.0025569775607436895,3
95,0.06241990998387337,-0.013350476510822773,0.01522768009454012,-0.17917023599147797,0.17338864505290985,0.003296421840786934,3
96,0.08072121441364288,0.036924414336681366,0.11563927680253983,-0.10233350098133087,0.22702640295028687,0.003480006707832217,3
97,-0.04240028187632561,-0.11057721078395844,0.13409636914730072,-0.06626386195421219,0.2758733630180359,0.004629084374755621,3
98,0.06216098740696907,0.012538173235952854,0.009248961694538593,-0.04388224706053734,0.31070956587791443,0.005972562823444605,3
99,0.07391735166311264,-0.024018311873078346,0.05605826899409294,-0.03925846517086029,0.3423847556114197,0.006691461428999901,3
100,0.06245879828929901,-0.05715872719883919,0.14827962219715118,-0.03588097169995308,0.3586347699165344,0.006888341624289751,3
101,-0.060985319316387177,0.05190066993236542,-0.010728077962994576,-0.038715559989213943,0.3738318979740143,0.008001724258065224,3
102,-0.058254174888134,-0.06944037973880768,0.008866730146110058,-0.050870660692453384,0.38605400919914246,0.008118276484310627,3
103,0.004658482503145933,-0.049966610968112946,0.027809441089630127,-0.05779518932104111,0.4008573293685913,0.00822683796286583,3
104,-0.09163758158683777,-0.08473919332027435,-0.05663944035768509,-0.06704860925674438,0.4162219166755676,0.008714389987289906,3
105,0.021830720826983452,-0.012359431013464928,0.11549562960863113,-0.07420291006565094,0.42672330141067505,0.00832648016512394,3
106,0.04783279448747635,0.09369069337844849,-0.03598107770085335,-0.08239626884460449,0.43920543789863586,0.00892986636608839,3
107,0.01735428161919117,-0.03842145577073097,0.07289884239435196,-0.09307017922401428,0.450696736574173,0.008987694047391415,3
108,-0.02235793136060238,-0.009632795117795467,-0.0061315749771893024,-0.09960994869470596,0.4600699245929718,0.009478299878537655,3
109,-0.08741569519042969,-0.09698043763637543,-0.016883917152881622,-0.10517270863056183,0.46623551845550537,0.009578796103596687,3
110,0.048726651817560196,-0.14754362404346466,0.04539070650935173,-0.10796115547418594,0.47136807441711426,0.009494582191109657,3
111,0.0744534358382225,-0.02282738871872425,0.08715186268091202,-0.10989418625831604,0.47927817702293396,0.009896501898765564,3
112,0.0788738951086998,-0.017298053950071335,0.126653790473938,-0.1155305877327919,0.48755770921707153,0.0106503302231431,3
113,0.05940144136548042,-0.01135457307100296,0.07813995331525803,-0.1218511164188385,0.49557241797447205,0.011650647968053818,3
114,-0.00878758355975151,-0.031634051352739334,0.05494210869073868,0.06402220577001572,0.5037485957145691,0.013724242337048054,3
115,0.09098192304372787,0.12204436957836151,0.12710429728031158,0.00404149666428566,0.5087715983390808,0.014118142426013947,3
116,-0.12313845753669739,0.007002685684710741,0.016341963782906532,-0.044569965451955795,0.5146714448928833,0.014410012401640415,3
117,0.059546589851379395,0.040375255048274994,0.04010111838579178,-0.07838528603315353,0.5154693126678467,0.014675709418952465,3
118,0.0025600302033126354,-0.040827296674251556,-0.03943515568971634,-0.10364493727684021,0.5206031203269958,0.0150526138022542,3
119,0.1029205471277237,-0.00944477878510952,0.07951999455690384,-0.1202012374997139,0.5245752334594727,0.015175568871200085,3
120,-0.0694713220000267,-0.05750283598899841,0.0021944993641227484,-0.13327649235725403,0.5295475721359253,0.015278970822691917,3
121,0.04679684340953827,-0.08114250749349594,0.02735811099410057,-0.14304085075855255,0.5302855968475342,0.015176836401224136,3
122,-0.009406412951648235,0.07793321460485458,0.03416047617793083,-0.1504150778055191,0.5329973697662354,0.01569301262497902,3
123,0.027135012671351433,-0.0035374066792428493,0.1027856171131134,-0.29686781764030457,0.5347661375999451,0.015442932024598122,3
124,-0.023190569132566452,-0.01571688801050186,0.04084015637636185,-0.2644512951374054,0.5370079874992371,0.016367826610803604,3
125,-0.024465644732117653,-0.057011786848306656,0.010480553843080997,-0.2406107485294342,0.538364052772522,0.017517579719424248,3
126,-0.01405839528888464,-0.11432968080043793,0.061877913773059845,-0.22280780971050262,0.5396772027015686,0.017845213413238525,3
127,0.052015628665685654,-0.0252093356102705,0.10443289577960968,-0.20930394530296326,0.5410493612289429,0.01849960722029209,3
128,-0.015152315609157085,-0.0733710303902626,0.07632603496313095,-0.20154468715190887,0.5438346266746521,0.019682371988892555,3
129,-0.10921712964773178,-0.021557331085205078,0.06089610233902931,-0.20096954703330994,0.5431839823722839,0.020237231627106667,3
130,-0.07449209690093994,-0.030306100845336914,0.036349907517433167,-0.20091569423675537,0.5417027473449707,0.020361006259918213,3
131,-0.041395071893930435,-0.12069583684206009,-0.08838452398777008,-0.08558282256126404,0.5416385531425476,0.021448688581585884,3
132,0.05637718364596367,-0.06600252538919449,0.06208460405468941,-0.11182667315006256,0.541732668876648,0.020714307203888893,3
133,0.03796031326055527,-0.08889306336641312,-0.010709687136113644,-0.13232086598873138,0.5426483154296875,0.02102041430771351,3
134,0.05232783034443855,-0.012031598947942257,0.0624307245016098,-0.14772389829158783,0.5436476469039917,0.020630693063139915,3
135,0.12073776125907898,-0.04525607451796532,0.06416823714971542,-0.1609441488981247,0.5446525812149048,0.021118901669979095,3
136,0.023942703381180763,0.014507301151752472,-0.019873609766364098,-0.27306702733039856,0.4441448450088501,0.02034483477473259,3
137,-0.04413524642586708,0.014402195811271667,0.11526553332805634,-0.25421392917633057,0.4724012613296509,0.02140427567064762,3
138,0.004535552579909563,-0.035303663462400436,0.10802529752254486,-0.24013634026050568,0.49281081557273865,0.02240564301609993,3
139,0.04891837015748024,-0.04024035111069679,0.07453931123018265,-0.22900930047035217,0.5089839696884155,0.023487050086259842,3
140,-0.04975370690226555,-0.03773684799671173,-0.026381587609648705,-0.22108431160449982,0.5215399861335754,0.024634122848510742,3
141,0.01778242737054825,0.04310878366231918,0.04793943837285042,-0.21529662609100342,0.5296263098716736,0.024761231616139412,3
142,-0.01387856062501669,0.06508341431617737,0.11609207838773727,-0.21239294111728668,0.5365382432937622,0.024806194007396698,3
143,0.026309525594115257,-0.0020972364582121372,0.009639554657042027,-0.212619811296463,0.5357095003128052,0.02539321407675743,3
144,-0.07593368738889694,-0.1555567979812622,-0.001089655444957316,-0.21055355668067932,0.6295658349990845,0.027089130133390427,3
145,0.05020710825920105,0.02852320671081543,0.059484172612428665,-0.11808499693870544,0.6072903871536255,0.02771046757698059,3
146,0.04513230174779892,-0.008756209164857864,0.0758768618106842,-0.14197386801242828,0.5922206044197083,0.02748989313840866,3
147,0.023311085999011993,0.03687524423003197,0.09924094378948212,-0.15973830223083496,0.5805035829544067,0.027926968410611153,3
148,0.05241117998957634,-0.05691086873412132,0.03500761091709137,-0.1734088957309723,0.571624219417572,0.028508324176073074,3
149,-0.02533971518278122,-0.05235641077160835,0.07404408603906631,-0.18241813778877258,0.5654478669166565,0.028804946690797806,3
150,-0.033164069056510925,-0.0652734786272049,-0.0009349858737550676,-0.18898336589336395,0.5598920583724976,0.029115453362464905,3
151,0.0803622156381607,0.05373093858361244,-0.16243155300617218,-0.27797001600265503,0.5558934211730957,0.028890347108244896,3
152,0.04930149018764496,-0.044368352741003036,0.12919196486473083,-0.26020562648773193,0.5546017289161682,0.02794911339879036,3
153,0.02549286186695099,-0.20452378690242767,0.06362251937389374,-0.2462763637304306,0.5537227988243103,0.028783323243260384,3
154,0.06498751044273376,-0.023672515526413918,0.15931744873523712,-0.23394730687141418,0.5532060265541077,0.029596948996186256,3
155,0.01466898713260889,-0.005380647256970406,0.1141313686966896,-0.22710663080215454,0.5537672638893127,0.030824407935142517,3
156,0.04404119402170181,-0.043668001890182495,0.03445281833410263,-0.2267441302537918,0.553505003452301,0.03152250126004219,3
157,-0.005742092151194811,-0.046800728887319565,-0.010890715755522251,-0.14164790511131287,0.5541273951530457,0.03305166959762573,3
158,-0.08432925492525101,-0.015655215829610825,0.06689385324716568,-0.16000613570213318,0.5540798306465149,0.03297419473528862,3
159,-0.04330936819314957,0.07324695587158203,0.21273966133594513,-0.17410942912101746,0.5533213019371033,0.03353200852870941,3
160,0.08386528491973877,0.05084054917097092,0.10508700460195541,-0.18582625687122345,0.5532476902008057,0.035007525235414505,3
161,-0.0546172559261322,-0.01943245343863964,0.1993604451417923,-0.1946246474981308,0.5549564361572266,0.03582306578755379,3
162,0.09332223981618881,-0.05137300491333008,0.15578746795654297,-0.27922487258911133,0.5545702576637268,0.037043843418359756,3
163,-0.025284111499786377,-0.06351786106824875,0.061116915196180344,-0.261862188577652,0.5561941862106323,0.03880215063691139,3
164,0.03746870905160904,-0.033400095999240875,-0.03348476067185402,-0.24814118444919586,0.5558153986930847,0.04008789360523224,3
165,0.009330780245363712,-0.02212391048669815,-0.0585426427423954,-0.2379201352596283,0.5564051866531372,0.039669428020715714,3
166,-0.008033673278987408,-0.03768378496170044,0.04704706743359566,-0.2299734205007553,0.5565463304519653,0.03959077596664429,3
167,0.037333421409130096,-0.06880512833595276,0.06316614896059036,-0.2238883525133133,0.4795503318309784,0.03940244019031525,3
168,-0.051504846662282944,-0.015587138943374157,0.1800309121608734,-0.21898016333580017,0.500729501247406,0.04027998074889183,3
169,-0.04570171982049942,-0.09432011097669601,0.086158387362957,-0.21567831933498383,0.5156888961791992,0.042017556726932526,3
170,-0.04116670414805412,-0.09515716880559921,-0.04371011257171631,-0.21194298565387726,0.5269811749458313,0.04304607957601547,3
171,-0.030534086748957634,0.1313813179731369,0.04059576988220215,-0.20865444839000702,0.5354635119438171,0.042435213923454285,3
172,-0.016927696764469147,0.02382967434823513,-0.016851132735610008,-0.13398624956607819,0.5416847467422485,0.042896635830402374,3
173,0.08378133177757263,-0.06113516166806221,-0.041938383132219315,-0.1535356193780899,0.5473505258560181,0.042756058275699615,3
174,-0.016363782808184624,0.04119744524359703,0.03261534869670868,-0.16813728213310242,0.5531491041183472,0.042231298983097076,3
175,0.013817377388477325,-0.11241789162158966,0.16314123570919037,-0.179859459400177,0.5564259886741638,0.04222259670495987,3
176,-0.12087373435497284,-0.05597084388136864,0.060608718544244766,-0.18686707317829132,0.5591057538986206,0.0434267558157444,3
177,-0.017795657739043236,-0.08341916650533676,-0.0890154018998146,-0.19268721342086792,0.5595064163208008,0.04396761208772659,3
178,0.03658054396510124,0.004866720177233219,0.04767174646258354,-0.19187895953655243,0.5586439967155457,0.04324483126401901,3
179,-0.047476716339588165,-0.049444712698459625,0.06797831505537033,-0.19166351854801178,0.5580298900604248,0.04350623860955238,3
180,0.030987851321697235,-0.07279254496097565,0.1293802112340927,-0.2689434587955475,0.5587064623832703,0.044002972543239594,3
181,-0.010818793438374996,-0.07475198805332184,0.05278325080871582,-0.2513013184070587,0.6333171725273132,0.04564617574214935,3
182,-0.02962552197277546,-0.021635614335536957,0.0026405840180814266,-0.23807337880134583,0.6136497855186462,0.0458231195807457,3
183,0.09111164510250092,-0.05196960270404816,-0.07953711599111557,-0.22861063480377197,0.59858638048172,0.04607633873820305,3
184,0.04015835374593735,-0.052742600440979004,0.019379885867238045,-0.2212505340576172,0.5888226628303528,0.045407798141241074,3
185,0.03696568310260773,0.02116153948009014,0.042218856513500214,-0.21516010165214539,0.5090229511260986,0.04479345306754112,3
186,-0.05015777423977852,-0.07748778164386749,-0.00571004394441843,-0.2115461677312851,0.521990180015564,0.04506426677107811,3
187,0.00031482818303629756,0.11569458246231079,0.08290264010429382,-0.2070605307817459,0.5307413935661316,0.04534740000963211,3
188,-0.00494665140286088,0.05052681639790535,0.048523902893066406,-0.2059083878993988,0.5375674366950989,0.04598400741815567,3
189,-0.012494241818785667,-0.022552408277988434,0.0690421387553215,-0.2062469720840454,0.5370631217956543,0.046457864344120026,3
190,-0.06970712542533875,-0.056785017251968384,-0.027192672714591026,-0.20568916201591492,0.5363468527793884,0.04694320261478424,3
191,0.038640961050987244,0.022070080041885376,0.03524084389209747,-0.2049688696861267,0.5352581739425659,0.04668174311518669,3
192,0.13272960484027863,0.02862456999719143,-0.01563831977546215,-0.20459160208702087,0.6099742650985718,0.04734422639012337,3
193,-0.013098010793328285,-0.03958375006914139,-0.01691206358373165,-0.1315377801656723,0.5941799283027649,0.047518882900476456,3
194,-0.011738443747162819,-0.03500567004084587,0.0199094507843256,-0.1492801457643509,0.5810338854789734,0.04755645617842674,3
195,0.055860113352537155,0.01722671650350094,0.15641725063323975,-0.1629144698381424,0.5717625021934509,0.04756927862763405,3
196,0.0383676216006279,-0.016835086047649384,0.09118340909481049,-0.244654580950737,0.5654706358909607,0.04812862351536751,3
197,-0.10776159912347794,0.025937624275684357,0.055799033492803574,-0.23395104706287384,0.5606627464294434,0.04882659763097763,3
198,-0.13414163887500763,-0.11681641638278961,0.0630902498960495,-0.22626742720603943,0.5554296970367432,0.049530595541000366,3
199,-0.03471146896481514,0.0017597480909898877,-0.07328666001558304,-0.21839962899684906,0.5507838129997253,0.050014689564704895,3
200,-0.018344178795814514,0.08638641238212585,0.0418090783059597,-0.1441449373960495,0.548191249370575,0.0494421012699604,3
201,0.0448613166809082,0.044189196079969406,0.00661238469183445,-0.16077476739883423,0.5467520356178284,0.04968756064772606,3
202,0.026401937007904053,-0.09082739055156708,0.09290166944265366,-0.1726197600364685,0.54692143201828,0.049762237817049026,3
203,0.06658383458852768,0.036996934562921524,-0.065667062997818,-0.17989957332611084,0.5470075011253357,0.05035672336816788,3
204,-0.04076298698782921,-0.02814806066453457,0.017596138641238213,-0.18673349916934967,0.5480009317398071,0.05003013834357262,3
205,0.030770014971494675,-0.014646919444203377,0.08015947043895721,-0.1864430159330368,0.5471189618110657,0.04992324486374855,3
206,0.012362444773316383,-0.04928894713521004,0.08757676929235458,-0.1863933503627777,0.546949028968811,0.050743505358695984,3
207,-0.00047861930215731263,-0.009193451143801212,0.053464267402887344,-0.1858081817626953,0.5466658473014832,0.05166550725698471,3
208,0.0944318175315857,-0.015772484242916107,-0.00047521808301098645,-0.25727131962776184,0.5468871593475342,0.052222564816474915,3
209,0.002195540349930525,-0.05941765382885933,0.04179186001420021,-0.240966334939003,0.5487377047538757,0.052164189517498016,3
210,-0.1253056824207306,-0.11957841366529465,0.09042581170797348,-0.22822219133377075,0.5489023327827454,0.052610598504543304,3
211,0.23228982090950012,-0.13493768870830536,0.0621110200881958,-0.2171354591846466,0.5480501651763916,0.053260114043951035,3
212,0.35832786560058594,0.13136374950408936,0.49893060326576233,-0.20868460834026337,0.5475478768348694,0.05274636298418045,3
213,0.11060081422328949,0.048008888959884644,-1.1015417575836182,-0.13594165444374084,0.5452703833580017,0.05611725151538849,3
214,-0.19602099061012268,-1.9470731019973755,0.08779188245534897,-0.1554567515850067,0.5389659404754639,0.05091476812958717,3
215,-1.6506508588790894,0.24378882348537445,-2.3147125244140625,-0.14874064922332764,0.5295788645744324,0.05399283766746521,3
216,-0.7606787085533142,-0.05558990314602852,0.6413318514823914,-0.16904886066913605,0.49783211946487427,0.04851214960217476,3
217,-0.4384211003780365,2.8849196434020996,0.8544808030128479,-0.16018284857273102,0.49433407187461853,0.048669420182704926,3
218,0.16302302479743958,0.6472055912017822,-0.5233464241027832,-0.1913658231496811,0.47398072481155396,0.05561737343668938,3
219,-1.916203260421753,1.4288849830627441,0.8690927028656006,-0.18438051640987396,0.4740249812602997,0.05599603056907654,3
220,-0.4279160499572754,1.0132088661193848,-1.2958263158798218,-0.12530627846717834,0.4424680173397064,0.06315158307552338,3
221,-3.8007614612579346,3.8865206241607666,-2.6661033630371094,-0.272915780544281,0.2959187924861908,0.057440053671598434,3
222,3.098740577697754,-1.5067626237869263,-4.236444473266602,-0.30232101678848267,0.20763994753360748,0.030697796493768692,3
223,1.7989755868911743,-1.9586304426193237,-2.6256330013275146,-0.26403874158859253,0.0741790384054184,-0.014889451675117016,3
224,1.2054537534713745,-0.18384160101413727,-2.891266345977783,-0.21507219970226288,-0.01735902763903141,-0.04424930363893509,3
225,2.515648603439331,-3.0436856746673584,-3.343231678009033,-0.2689841389656067,-0.03072306327521801,-0.06995778530836105,3
226,13.632674217224121,-11.084792137145996,-4.171515464782715,-0.7302979230880737,-0.2035159468650818,-0.07943718880414963,3
227,-2.8963310718536377,9.62070369720459,1.0549484491348267,-0.6376788020133972,-0.053492221981287,-0.11366406828165054,3
228,-11.347587585449219,11.689921379089355,5.784265995025635,-0.7925319075584412,-0.445588618516922,-0.11555549502372742,3
229,-10.27464771270752,-6.850771427154541,2.502922773361206,-0.9195945262908936,-0.7163612246513367,-0.07497501373291016,3
230,11.66229248046875,-10.75592041015625,1.458521842956543,-0.9136266708374023,-0.7548052668571472,-0.04443899542093277,3
231,23.208341598510742,-20.03022575378418,1.9712512493133545,-0.7311893701553345,-0.43092474341392517,-0.020581142976880074,3
232,-13.973780632019043,18.201377868652344,6.843905925750732,-1.168076992034912,-0.6238911151885986,0.046099014580249786,3
233,4.756653785705566,-3.051029682159424,6.914595127105713,-1.702034831047058,-0.7841562032699585,0.15732350945472717,3
234,29.303064346313477,-29.976768493652344,4.066495895385742,-1.3092021942138672,-0.5978928208351135,0.19196093082427979,3
235,0.8958001136779785,-12.31165599822998,2.8719451427459717,-1.631152868270874,-0.3845337927341461,0.3157081604003906,3
236,-14.534479141235352,-17.94563865661621,1.717934012413025,-1.4623442888259888,-0.47939643263816833,0.3191852569580078,3
237,-0.6445473432540894,-39.31757736206055,2.0431711673736572,-1.567557692527771,-0.4568406343460083,0.4198039174079895,3
238,16.47582244873047,-54.009159088134766,0.5957075357437134,-0.7886896729469299,-0.24509675800800323,0.43977969884872437,3
239,24.378704071044922,-63.12016677856445,0.8649182319641113,-1.0226317644119263,-0.27899491786956787,0.5014973878860474,3
240,23.89482879638672,-66.01982879638672,1.8665449619293213,-1.07313871383667,-0.16541779041290283,0.560261607170105,3
241,23.04364013671875,-76.8163070678711,-0.07250119000673294,0.0370124913752079,0.14269697666168213,0.5505760908126831,3
242,21.943830490112305,-82.34894561767578,1.92625093460083,0.43962058424949646,0.1860586553812027,0.561405599117279,3
243,19.045297622680664,-78.02264404296875,2.225768804550171,1.7053135633468628,0.4865279495716095,0.5443640351295471,3
244,16.02316665649414,-73.46011352539062,1.6661769151687622,2.27729868888855,0.4727776050567627,0.5710914731025696,3
245,23.57853889465332,-74.4561538696289,-1.5415260791778564,3.8267762660980225,0.9848532676696777,0.500023365020752,3
246,23.234031677246094,-64.97349548339844,-3.9016311168670654,5.171573638916016,1.2735551595687866,0.4460543096065521,3
247,19.321678161621094,-31.685487747192383,-1.1782196760177612,6.5898590087890625,1.6347328424453735,0.36194315552711487,3
248,16.646547317504883,-3.512346029281616,1.068189024925232,7.918052673339844,1.9493166208267212,0.3584282100200653,3
249,3.3680901527404785,29.481157302856445,3.3043344020843506,8.893664360046387,2.20064115524292,0.4273260235786438,3
250,-16.67278289794922,66.56797790527344,3.3760297298431396,8.53410530090332,2.0071654319763184,0.6418612003326416,3
251,-39.07148361206055,89.71766662597656,3.434619426727295,5.712274074554443,3.1216142177581787,-1.1738827228546143,3
252,-50.709861755371094,107.7246322631836,9.228693008422852,5.765176773071289,2.7322659492492676,-0.8819456100463867,3
253,-54.3742790222168,108.83438873291016,7.966613292694092,6.7677154541015625,2.15228533744812,-0.07896024733781815,3
254,-48.960201263427734,101.32081604003906,6.270195484161377,5.172814846038818,1.5174729824066162,-0.10484439134597778,3
255,-33.247802734375,89.65853118896484,6.088248252868652,5.2850775718688965,0.5302550792694092,0.8786887526512146,3
256,-22.07311248779297,70.51943969726562,0.5064842700958252,3.7339212894439697,-0.7179182767868042,1.6808946132659912,3
257,-17.774486541748047,60.628318786621094,-0.17748934030532837,1.6540971994400024,-1.1282926797866821,1.6369900703430176,3
258,-9.113329887390137,40.52035903930664,3.6764395236968994,-1.0952967405319214,-0.22176647186279297,0.7161343097686768,3
259,1.8163050413131714,23.223833084106445,8.029967308044434,-0.6376214027404785,-0.44407641887664795,0.8475022912025452,3
260,20.204458236694336,7.671167373657227,9.614867210388184,0.23069165647029877,-0.560241162776947,0.9802966713905334,3
261,33.69722366333008,0.2732901871204376,10.254426956176758,0.758946418762207,-0.17451637983322144,0.9772043824195862,3
262,39.88569259643555,0.8288427591323853,11.043416023254395,1.1412495374679565,-0.0027174281422048807,0.9571014642715454,3
263,33.657745361328125,-1.6703592538833618,11.78011703491211,0.7913870811462402,0.3975510001182556,1.1245636940002441,3
264,30.72402572631836,-0.6718673706054688,9.121342658996582,1.3085976839065552,0.5887020826339722,1.1819511651992798,3
265,22.81924057006836,3.3454389572143555,5.090795040130615,1.5638773441314697,0.7701850533485413,1.171908974647522,3
266,9.088651657104492,15.117613792419434,2.753361940383911,1.3635492324829102,1.0972874164581299,1.2283821105957031,3
267,-3.6847774982452393,34.49407958984375,1.3619465827941895,1.224920392036438,1.0332673788070679,1.2686647176742554,3
268,-18.649459838867188,55.351863861083984,0.23944325745105743,0.4640481472015381,0.8448019623756409,1.3079723119735718,3
269,-21.29657554626465,65.09965515136719,-0.08523551374673843,-0.2078750878572464,0.8282803893089294,1.2893424034118652,3
270,-17.28302574157715,65.78226470947266,-1.5984079837799072,-1.4875999689102173,0.5859658718109131,1.2734640836715698,3
271,-8.652497291564941,53.11629867553711,-0.6645258069038391,-1.858420968055725,0.5046184062957764,1.284362554550171,3
272,-0.17966748774051666,27.841102600097656,1.549964427947998,-2.4744009971618652,0.7027343511581421,1.3112984895706177,3
273,4.308568000793457,0.9416483044624329,2.222458600997925,-2.934617042541504,0.5221145153045654,1.2741360664367676,3
274,9.290270805358887,-10.05173110961914,-0.700698971748352,-2.6866180896759033,1.3297464847564697,1.571946382522583,3
275,6.075466632843018,-12.801419258117676,-4.726984977722168,-2.648947238922119,1.0640013217926025,1.3985657691955566,3
276,-2.0171658992767334,-4.410833358764648,-7.109871864318848,-2.7310752868652344,1.2167503833770752,1.383148193359375,3
277,-15.348750114440918,1.1122380495071411,-7.460696697235107,-3.0111024379730225,1.1340372562408447,1.2640854120254517,3
278,-25.062509536743164,-1.7927322387695312,-2.453400135040283,-2.5867934226989746,0.8494985699653625,1.169127106666565,3
279,-33.34814453125,-7.648244380950928,0.6505181789398193,-2.8394553661346436,0.09756579995155334,0.842659592628479,3
280,-37.08024597167969,-9.18455982208252,3.143660306930542,-2.908621072769165,-0.38565436005592346,0.7641810774803162,3
281,-35.798431396484375,-10.515593528747559,2.365370035171509,-2.767132520675659,-0.8045857548713684,0.7686283588409424,3
282,-23.651933670043945,-11.125659942626953,4.174114227294922,-2.8698909282684326,-1.1654727458953857,0.788466215133667,3
283,4.316842079162598,-14.970710754394531,3.1258113384246826,-2.819840669631958,-1.2900573015213013,0.8774396181106567,3
284,23.131980895996094,-19.148046493530273,3.2793819904327393,-2.5980236530303955,-1.014458417892456,1.031699299812317,3
285,35.64402389526367,-22.85868263244629,3.4420597553253174,-2.987286329269409,-0.3933761715888977,1.3666092157363892,3
286,30.4542236328125,-28.76300048828125,1.814505696296692,-2.0746071338653564,0.45739874243736267,1.578552007675171,3
287,13.60117244720459,-19.38276481628418,0.8755698800086975,-2.1892952919006348,1.1095812320709229,1.842369556427002,3
288,-12.53631591796875,0.5563384890556335,-0.060896240174770355,-1.897509217262268,0.6819403171539307,1.5680304765701294,3
289,-24.968307495117188,11.297340393066406,-1.0716688632965088,-2.0002951622009277,0.8020346760749817,1.6970819234848022,3
290,-33.538848876953125,10.289295196533203,-0.28939303755760193,-2.1618218421936035,0.2597239017486572,1.5629024505615234,3
291,-46.596466064453125,8.951406478881836,1.495948314666748,-2.278733968734741,-0.8968309760093689,1.2143927812576294,3
292,-45.88686752319336,10.83537769317627,2.1788713932037354,-2.300877571105957,-0.5628928542137146,1.5677164793014526,3
293,-32.32971954345703,15.11522388458252,1.7181135416030884,-1.8949519395828247,-1.340775728225708,1.4265623092651367,3
294,-16.582355499267578,12.292610168457031,4.415954113006592,-3.1521522998809814,-2.1492691040039062,1.3507944345474243,3
295,5.52653169631958,-1.3291164636611938,6.5042314529418945,-3.751800060272217,-2.3819403648376465,1.4230937957763672,3
296,29.512907028198242,-22.113784790039062,7.279231548309326,-2.9445228576660156,-2.1189630031585693,1.4093915224075317,3
297,51.011043548583984,-42.42966079711914,12.18110179901123,-1.874106526374817,-1.3423439264297485,1.4809967279434204,3
298,56.57052230834961,-47.55747604370117,18.1434383392334,-0.918222963809967,-0.7552819848060608,1.4977589845657349,3
299,48.65127182006836,-42.51691436767578,21.47735023498535,-0.1943274289369583,0.18651698529720306,1.746763825416565,3
300,37.1621208190918,-24.4156494140625,23.96128273010254,0.6293469071388245,0.5754889249801636,1.8419482707977295,3
301,22.309572219848633,-0.40430575609207153,22.286863327026367,1.1717674732208252,2.538113832473755,2.2990198135375977,3
302,-4.367029190063477,20.236797332763672,18.45551872253418,0.9778655171394348,2.186768054962158,2.462886333465576,3
303,-27.326602935791016,39.254329681396484,15.153162002563477,0.9068672060966492,1.7983086109161377,2.6542701721191406,3
304,-43.24144744873047,61.421485900878906,12.217657089233398,0.19978992640972137,0.8303284049034119,2.8203749656677246,3
305,-47.26232147216797,75.52099609375,8.423914909362793,-1.2619072198867798,-0.0101477624848485,2.9025938510894775,3
306,-45.36143493652344,72.7229995727539,2.011505603790283,-2.1256165504455566,-0.3230801820755005,2.9658470153808594,3
307,-42.226810455322266,52.11689376831055,0.12970811128616333,-1.3809120655059814,0.07031117379665375,3.067793369293213,3
308,-35.181968688964844,24.218740463256836,0.9620818495750427,-2.802555799484253,-0.9234230518341064,2.9902803897857666,3
309,-29.41085433959961,4.731334209442139,1.1309112310409546,-2.2974750995635986,-0.8634204268455505,3.0558674335479736,3
310,-15.663468360900879,-10.048630714416504,3.524439573287964,-2.9238393306732178,-1.8514089584350586,2.9562883377075195,3
311,-1.8190761804580688,-20.093080520629883,3.8721446990966797,-3.589539051055908,-2.784735679626465,2.8724584579467773,3
312,16.80827522277832,-42.148719787597656,3.25173020362854,-3.7296698093414307,-3.048755407333374,2.896925210952759,3
313,40.7943000793457,-66.91812896728516,2.438608169555664,-3.6788268089294434,-3.574989080429077,2.767702102661133,3
314,62.41166687011719,-83.11328125,1.9968355894088745,-3.0621209144592285,-3.010303020477295,2.9113032817840576,3
315,75.75269317626953,-87.10660552978516,1.449007272720337,-2.5424251556396484,-2.78867506980896,2.887942314147949,3
316,91.1778335571289,-73.98970031738281,1.1398743391036987,-1.8934111595153809,-2.5405325889587402,2.7589967250823975,3
317,98.82701873779297,-59.48557662963867,0.8793781995773315,-0.9607827067375183,-1.4070860147476196,2.769113063812256,3
318,89.1594467163086,-44.875850677490234,0.3038780093193054,-0.8979260921478271,-1.1123993396759033,2.770993232727051,3
319,70.67807006835938,-31.865991592407227,1.6350239515304565,-0.39784613251686096,-0.02703172154724598,2.8090286254882812,3
320,48.4472541809082,-17.39838409423828,4.327235221862793,-0.25788161158561707,0.22285273671150208,2.8008344173431396,3
321,33.68708801269531,-1.8537187576293945,7.618577003479004,0.02465430647134781,0.8930387496948242,2.8344380855560303,3
322,32.606971740722656,14.930139541625977,10.296207427978516,-0.3012743592262268,1.1853793859481812,2.967770576477051,3
323,34.70117950439453,23.127120971679688,7.374183654785156,-0.3294266164302826,1.9069863557815552,3.060368061065674,3
324,37.914756774902344,21.988479614257812,5.346400737762451,-0.7750024199485779,1.9876551628112793,3.140615940093994,3
325,38.28876495361328,4.166627883911133,5.592161655426025,-0.7793778777122498,2.723219394683838,3.205789089202881,3
326,24.271728515625,-20.250036239624023,6.503152370452881,-0.8464289903640747,2.908017635345459,3.2532236576080322,3
327,2.7317874431610107,-48.956581115722656,7.885702610015869,-0.30498284101486206,3.4401400089263916,3.371643543243408,3
328,-0.8445417881011963,-69.51244354248047,7.179888725280762,0.09192684292793274,3.0429129600524902,3.3854336738586426,3
329,1.1401774883270264,-75.6015625,1.0273168087005615,0.5876149535179138,2.830024242401123,3.332969903945923,3
330,14.954566955566406,-75.12714385986328,-6.692992687225342,1.7411373853683472,3.265533208847046,3.4278950691223145,3
331,36.338748931884766,-56.27121353149414,-11.767632484436035,2.309523344039917,3.4364500045776367,3.2490620613098145,3
332,39.646793365478516,-35.953983306884766,-12.912172317504883,3.178830623626709,3.946841239929199,3.2285900115966797,3
333,39.70854568481445,-21.561702728271484,-14.527268409729004,3.151378870010376,4.231966495513916,2.9501326084136963,3
334,25.226112365722656,-17.400653839111328,-15.227704048156738,3.460617780685425,4.758519649505615,2.7845652103424072,3
335,15.141578674316406,-15.069306373596191,-14.567320823669434,3.4608168601989746,4.603139877319336,2.7230331897735596,3
336,1.6087770462036133,-12.862441062927246,-15.917985916137695,3.838247299194336,5.071347236633301,2.5207431316375732,3
337,-13.498675346374512,-14.211997032165527,-16.497970581054688,3.841367244720459,4.871011257171631,2.388298988342285,3
338,-18.00098419189453,-21.70981788635254,-16.896696090698242,3.6838879585266113,4.551754474639893,2.1362733840942383,3
339,-15.640671730041504,-24.399520874023438,-16.70511817932129,4.162632942199707,4.590649604797363,1.9866336584091187,3
340,-10.592700004577637,-15.061039924621582,-16.694307327270508,4.0955891609191895,4.407659530639648,1.6498603820800781,3
341,3.4046239852905273,-5.349631309509277,-17.99855613708496,4.3843464851379395,4.466134071350098,1.508284330368042,3
342,12.935667991638184,-3.044546365737915,-21.10492706298828,4.3461594581604,4.482644557952881,1.3073209524154663,3
343,15.270401000976562,3.639158248901367,-25.264385223388672,4.460015296936035,4.7641754150390625,1.0655075311660767,3
344,9.170976638793945,13.818511962890625,-29.736839294433594,4.274773120880127,4.607226371765137,0.968704342842102,3
345,-0.6810721755027771,22.68551254272461,-31.60718536376953,4.117126941680908,4.856347560882568,0.5763407349586487,3
346,-6.441275596618652,20.590431213378906,-29.546039581298828,3.689448118209839,4.783558368682861,0.22817465662956238,3
347,-14.466970443725586,19.995473861694336,-27.76335334777832,3.584787368774414,4.727982997894287,0.021266082301735878,3
348,-20.412572860717773,18.524940490722656,-27.730222702026367,3.394916534423828,4.472583293914795,-0.14476174116134644,3
349,-21.633424758911133,13.52563762664795,-29.91901397705078,3.2750346660614014,4.398504257202148,-0.4445820450782776,3
350,-21.296506881713867,14.013937950134277,-31.934829711914062,3.198288917541504,4.137944221496582,-0.6513471603393555,3
351,-22.703222274780273,15.827739715576172,-30.026710510253906,2.8743977546691895,3.9640324115753174,-1.0622962713241577,3
352,-24.126562118530273,12.190224647521973,-27.60875701904297,2.8295812606811523,3.5865871906280518,-1.1807681322097778,3
353,-22.453561782836914,6.225716590881348,-27.07891082763672,2.75055193901062,3.3438467979431152,-1.415949821472168,3
354,-19.438692092895508,-4.269240379333496,-27.138904571533203,2.7570767402648926,3.2721219062805176,-1.7216267585754395,3
355,-10.599711418151855,-15.884992599487305,-28.0247859954834,2.86091685295105,2.947923183441162,-1.898561954498291,3
356,-1.0599125623703003,-16.52607536315918,-26.42289161682129,2.955733299255371,2.9222874641418457,-2.233182907104492,3
357,9.07932186126709,-4.628785133361816,-25.079330444335938,3.168911933898926,3.1016244888305664,-2.5390565395355225,3
358,11.483053207397461,16.804628372192383,-26.85329818725586,2.8563849925994873,2.919466972351074,-2.776926279067993,3
359,8.213983535766602,30.387353897094727,-27.1226749420166,2.6001384258270264,3.2034337520599365,-3.118213415145874,3
360,0.9319108128547668,31.82634735107422,-27.733076095581055,2.2875983715057373,3.2429752349853516,-3.3523831367492676,3
361,-0.30430954694747925,23.351774215698242,-25.363679885864258,1.9756814241409302,3.256643772125244,-3.6062777042388916,3
362,-5.396888256072998,17.099428176879883,-23.69253158569336,1.792488694190979,3.088019609451294,-3.7725796699523926,3
363,-18.1729793548584,16.3150634765625,-20.839153289794922,1.6727176904678345,3.0438392162323,-3.9871931076049805,3
364,-23.660432815551758,20.104656219482422,-15.083962440490723,1.4690526723861694,2.8499958515167236,-4.181986331939697,3
365,-13.207751274108887,21.858978271484375,-7.602121829986572,1.2126948833465576,2.4633450508117676,-4.277822017669678,3
366,4.028906345367432,20.84471321105957,-1.8920695781707764,1.0783765316009521,2.483379602432251,-4.339329719543457,3
367,10.872757911682129,15.345134735107422,3.9380011558532715,0.8104941248893738,2.65535306930542,-4.379831314086914,3
368,24.340200424194336,1.201997995376587,5.499606609344482,0.7193512320518494,2.6510119438171387,-4.302785396575928,3
369,27.22113037109375,-8.406964302062988,6.643312931060791,0.7901987433433533,2.7883224487304688,-4.222041606903076,3
370,25.21077537536621,1.3338838815689087,5.87955904006958,0.8914611339569092,3.1855790615081787,-4.166971206665039,3
371,19.985511779785156,9.092816352844238,5.59071683883667,0.8329891562461853,3.2974579334259033,-4.105770587921143,3
372,9.407687187194824,13.097585678100586,4.333080768585205,0.7231597304344177,3.457824230194092,-4.049949645996094,3
373,0.4799230396747589,11.399903297424316,5.615591526031494,0.6375141739845276,3.373870372772217,-3.98532772064209,3
374,-6.102059841156006,7.897037506103516,6.073261260986328,0.42813295125961304,3.4590401649475098,-3.9417498111724854,3
375,-19.9601993560791,1.41181480884552,7.531287670135498,0.2886241674423218,3.396918296813965,-3.8881170749664307,3
376,-34.005149841308594,-9.337430953979492,5.28486442565918,0.42436814308166504,3.010089159011841,-3.7906992435455322,3
377,-42.58394241333008,-18.909393310546875,0.7507340312004089,0.566189706325531,2.710491895675659,-3.739619731903076,3
378,-37.60902786254883,-20.242265701293945,-1.0494126081466675,0.7002890110015869,2.204725742340088,-3.7560882568359375,3
379,-30.155895233154297,-8.830297470092773,-4.926976680755615,0.8915875554084778,1.7068021297454834,-3.786428213119507,3
380,-23.997764587402344,5.7426629066467285,-5.155656814575195,0.9369298815727234,1.3673843145370483,-3.8405041694641113,3
381,-14.4369478225708,6.032722473144531,-4.0182929039001465,0.7154209613800049,1.1328030824661255,-3.9094536304473877,3
382,4.196896553039551,3.922316312789917,-7.348245143890381,0.8986304402351379,1.0815274715423584,-3.9309325218200684,3
383,18.319412231445312,2.5596210956573486,-6.954061985015869,0.781703770160675,1.3397663831710815,-4.00111198425293,3
384,22.41388511657715,2.447033405303955,-2.7325470447540283,0.7064417600631714,1.9115331172943115,-4.048923015594482,3
385,16.76113510131836,6.833724498748779,1.8538084030151367,0.7710152268409729,2.583045721054077,-4.050236701965332,3
386,3.3023715019226074,20.163782119750977,5.2403764724731445,0.4953956604003906,2.31730580329895,-4.03933572769165,3
387,-7.977076053619385,25.516193389892578,8.72374153137207,0.10714045912027359,2.4830753803253174,-3.962571620941162,3
388,-11.182953834533691,13.426738739013672,14.478020668029785,-0.2948834300041199,2.3107874393463135,-3.858736515045166,3
389,-18.646310806274414,1.3043183088302612,18.677461624145508,-0.37676718831062317,1.955062985420227,-3.7186639308929443,3
390,-32.064414978027344,-3.942091226577759,21.364177703857422,-0.4410041868686676,1.6851307153701782,-3.531372308731079,3
391,-33.08867645263672,-13.134591102600098,24.800884246826172,-0.3149595558643341,1.0908015966415405,-3.3418242931365967,3
392,-27.2807559967041,-20.26591682434082,25.517696380615234,0.02911916933953762,0.5981724858283997,-3.1126694679260254,3
393,-12.392998695373535,-24.971588134765625,26.933244705200195,0.30349740386009216,0.2603634297847748,-2.867650270462036,3
394,5.653997898101807,-24.363134384155273,29.909791946411133,0.7802890539169312,0.16657699644565582,-2.6020164489746094,3
395,17.504899978637695,-12.386244773864746,31.234725952148438,1.7614468336105347,0.3594973683357239,-2.3441200256347656,3
396,37.57352828979492,4.523634910583496,31.14208984375,1.7075245380401611,0.620149552822113,-2.0106546878814697,3
397,45.61382293701172,29.961374282836914,27.892730712890625,1.4501769542694092,1.0222947597503662,-1.68161940574646,3
398,38.03623962402344,53.27442169189453,23.871339797973633,0.8545207977294922,1.4447100162506104,-1.364951491355896,3
399,29.87289810180664,61.353336334228516,19.340248107910156,0.2223670929670334,1.5910604000091553,-1.1180341243743896,3
400,19.199310302734375,54.57344055175781,14.86551284790039,-0.4804532527923584,1.8361212015151978,-0.9042684435844421,3
401,4.746103763580322,38.500823974609375,12.01738452911377,-0.9506261944770813,1.9743608236312866,-0.7497353553771973,3
402,-8.59783935546875,13.788684844970703,10.331939697265625,-1.2652403116226196,1.9466718435287476,-0.6256874203681946,3
403,-10.43571662902832,-7.403501510620117,7.633471488952637,-1.352909803390503,1.801642656326294,-0.5304782390594482,3
404,-11.896697044372559,-21.01099967956543,7.300034046173096,-1.2637786865234375,1.5542550086975098,-0.4788705110549927,3
405,-16.572229385375977,-32.76060485839844,7.416701316833496,-0.9436472654342651,1.3631353378295898,-0.43218284845352173,3
406,-27.795679092407227,-47.96623611450195,5.206244468688965,-0.4818769097328186,1.2326332330703735,-0.36732715368270874,3
407,-37.22990417480469,-60.526153564453125,6.882265090942383,0.2225954681634903,0.8338059782981873,-0.3573920726776123,3
408,-34.72773361206055,-50.10614776611328,10.999781608581543,0.5439199209213257,0.44243714213371277,-0.26647982001304626,3
409,-37.45234680175781,-26.56281852722168,13.421805381774902,1.182071566581726,0.1559676080942154,-0.15694625675678253,3
410,-17.687124252319336,1.533316969871521,15.53760814666748,1.4668530225753784,-0.1307879537343979,-0.01595386303961277,3
411,0.8774436116218567,23.58305549621582,15.256589889526367,1.0822123289108276,-0.38805463910102844,0.16483335196971893,3
412,31.55274200439453,52.000675201416016,10.233358383178711,0.9942263960838318,0.01181024219840765,0.31038427352905273,3
413,43.282230377197266,81.67425537109375,7.611630916595459,-0.23579663038253784,-0.11817225813865662,0.46946069598197937,3
414,49.158409118652344,102.79273986816406,6.0581231117248535,-1.638649821281433,0.6279735565185547,0.6783596873283386,3
415,33.84485626220703,98.1968765258789,4.43466329574585,-2.708885669708252,1.4785115718841553,0.8151932954788208,3
416,10.931190490722656,67.7986068725586,2.2918615341186523,-3.327643871307373,1.1349657773971558,0.7047524452209473,3
417,-13.517704010009766,29.549291610717773,-3.7836861610412598,-3.8034768104553223,0.8765612244606018,0.6369385719299316,3
418,-31.019174575805664,8.083096504211426,-13.841055870056152,-3.985208511352539,0.7042615413665771,0.5766907930374146,3
419,-33.92586135864258,-2.863954782485962,-22.49151039123535,-3.7809031009674072,0.3535414934158325,0.36800554394721985,3
420,-22.041240692138672,-19.197063446044922,-27.413959503173828,-3.613483190536499,0.22940976917743683,0.18622958660125732,3
421,-9.291894912719727,-25.494001388549805,-33.31896209716797,-3.2913219928741455,-0.041595179587602615,-0.1418626606464386,3
422,2.043520927429199,-18.580984115600586,-34.63166809082031,-3.0598111152648926,-0.09272253513336182,-0.4600570797920227,3
423,15.11166000366211,-4.496377468109131,-35.98626708984375,-2.940586805343628,0.06588257849216461,-0.752562940120697,3
424,19.460439682006836,9.540977478027344,-35.05056381225586,-3.0515713691711426,0.16563312709331512,-1.1088354587554932,3
425,20.386682510375977,14.735310554504395,-35.650634765625,-3.2188291549682617,0.4018530547618866,-1.4217534065246582,3
426,28.95888900756836,2.1794302463531494,-36.34196853637695,-3.0501112937927246,0.5952574610710144,-1.8453391790390015,3
427,45.97052764892578,-10.67466926574707,-33.84959030151367,-3.1104257106781006,1.1816242933273315,-2.056572675704956,3
428,53.80809020996094,-13.690958023071289,-30.300439834594727,-2.6258530616760254,2.0011494159698486,-2.294559955596924,3
429,46.53702926635742,-7.605749130249023,-25.20505142211914,-2.7462916374206543,2.366075038909912,-2.6246821880340576,3
430,26.091777801513672,-0.9265563488006592,-22.69927978515625,-2.35307240486145,3.134547710418701,-2.8076226711273193,3
431,-0.06138421967625618,7.035372257232666,-19.874753952026367,-2.9128050804138184,3.829871654510498,-2.7067763805389404,3
432,-22.61461067199707,9.017699241638184,-17.626741409301758,-2.5182924270629883,3.603754997253418,-3.024446725845337,3
433,-39.17738723754883,15.103351593017578,-15.971881866455078,-2.718512535095215,3.249997138977051,-3.2283875942230225,3
434,-50.194923400878906,19.401296615600586,-13.186245918273926,-3.307784080505371,2.488279342651367,-3.5284266471862793,3
435,-54.24160385131836,17.414783477783203,-8.28368091583252,-3.253448724746704,1.5839248895645142,-3.818429946899414,3
436,-48.986541748046875,10.480420112609863,-5.345791816711426,-3.51682448387146,0.9797252416610718,-3.922713279724121,3
437,-31.576900482177734,-2.159759759902954,-2.251941680908203,-3.482520818710327,-0.025835156440734863,-4.230727672576904,3
438,-2.7595341205596924,-12.738384246826172,2.8799867630004883,-3.4842870235443115,0.0189620703458786,-4.0924201011657715,3
439,21.444190979003906,-18.27592658996582,5.425201892852783,-3.224447011947632,-0.010928640142083168,-4.0868940353393555,3
440,45.6624755859375,-13.098533630371094,8.262850761413574,-2.9679460525512695,0.3685140311717987,-3.969740390777588,3
441,54.70022201538086,2.433095932006836,8.832189559936523,-2.754316568374634,1.196420669555664,-3.723418951034546,3
442,46.84217834472656,15.95598316192627,8.16222095489502,-2.8035905361175537,1.6429120302200317,-3.6802313327789307,3
443,29.77131462097168,18.205543518066406,8.409592628479004,-3.0157418251037598,2.382643699645996,-3.440135955810547,3
444,9.84302043914795,20.451902389526367,13.3203763961792,-3.2620022296905518,2.7668402194976807,-3.2604260444641113,3
445,-13.832140922546387,15.582650184631348,19.68755531311035,-3.494792938232422,2.620973825454712,-3.1758527755737305,3
446,-39.5418701171875,7.773242473602295,25.848251342773438,-3.629225492477417,2.3141071796417236,-2.9951534271240234,3
447,-71.9420394897461,-12.236246109008789,31.83261489868164,-3.73055100440979,1.568888783454895,-2.847099542617798,3
448,-89.51251220703125,-26.66718864440918,34.05158615112305,-3.152416229248047,0.45350101590156555,-2.6992685794830322,3
449,-89.57284545898438,-42.39353942871094,34.46698760986328,-2.576251983642578,-0.6757901310920715,-2.4547317028045654,3
450,-71.15803527832031,-49.65604019165039,34.54814147949219,-1.8166477680206299,-2.0149319171905518,-2.3214471340179443,3
451,-45.91461944580078,-44.28276824951172,37.42387008666992,-1.0164014101028442,-2.703822374343872,-1.9826091527938843,3
452,-2.1010031700134277,-28.239519119262695,35.66777420043945,-1.1117920875549316,-3.1551907062530518,-1.6301963329315186,3
453,29.6165828704834,-8.090839385986328,30.968420028686523,-0.15513209998607635,-1.4319409132003784,-0.7617180347442627,3
454,69.54842376708984,29.920120239257812,25.590961456298828,-0.22084610164165497,-0.8876692652702332,-0.427156537771225,3
455,72.72367095947266,70.51304626464844,18.87087059020996,-0.9234575629234314,-0.24850839376449585,-0.1751859337091446,3
456,70.01596069335938,89.61951446533203,11.879026412963867,-2.067026376724243,0.7133605480194092,0.1238999217748642,3
457,41.22704315185547,82.7218246459961,7.405974388122559,-2.8612914085388184,1.1066021919250488,0.16547031700611115,3
458,18.008392333984375,50.93775177001953,9.499296188354492,-3.9802780151367188,1.4352710247039795,0.3447282314300537,3
459,-0.3019610345363617,10.52197265625,12.581389427185059,-4.069680690765381,1.3389581441879272,0.3435310125350952,3
460,-7.030070781707764,-29.904767990112305,16.143592834472656,-4.006611347198486,1.2193479537963867,0.4527510702610016,3
461,-5.2067341804504395,-50.54294967651367,16.551952362060547,-3.5342657566070557,1.0965948104858398,0.5774112939834595,3
462,-5.216864585876465,-61.9481086730957,14.538700103759766,-2.963857650756836,1.0188884735107422,0.7140567302703857,3
463,11.21272087097168,-65.88761901855469,14.237066268920898,-2.1079976558685303,0.881201982498169,0.7763948440551758,3
464,27.1820125579834,-49.77680587768555,14.559781074523926,-1.8166602849960327,1.1317957639694214,0.9752464890480042,3
465,25.356042861938477,-24.943655014038086,14.270071983337402,-1.2680597305297852,1.606555461883545,1.1547489166259766,3
466,13.8261079788208,-9.667447090148926,12.071610450744629,-1.4039113521575928,1.746963381767273,1.297601342201233,3
467,-10.950742721557617,-1.2775495052337646,7.452820301055908,-1.3726435899734497,1.7914868593215942,1.3990720510482788,3
468,-27.16048812866211,-3.2838990688323975,2.987913131713867,-1.522755742073059,1.4104825258255005,1.4217842817306519,3
469,-34.641029357910156,-5.344576835632324,-0.3037499785423279,-1.3636001348495483,0.8968918323516846,1.3800747394561768,3
470,-30.022520065307617,8.667465209960938,-0.5476013422012329,-1.3671408891677856,0.49846914410591125,1.3613109588623047,3
471,-9.076862335205078,17.119022369384766,4.744167327880859,-1.7596256732940674,0.32872384786605835,1.401088833808899,3
472,10.194313049316406,11.135527610778809,9.564384460449219,-1.9516867399215698,0.24447409808635712,1.457472562789917,3
473,25.24940299987793,-10.20925521850586,14.460043907165527,-1.7344772815704346,0.40987429022789,1.5548062324523926,3
474,32.336944580078125,-30.299489974975586,17.47269058227539,-1.9122097492218018,0.9514029026031494,1.7826341390609741,3
475,33.5985221862793,-54.573856353759766,19.6361026763916,-1.4889662265777588,1.421451449394226,1.9779547452926636,3
476,24.664993286132812,-65.82396697998047,22.37025260925293,-0.7904385328292847,1.711023211479187,2.151268720626831,3
477,5.293564796447754,-67.4384765625,22.02541160583496,-0.3891654908657074,1.890676736831665,2.369633436203003,3
478,-19.629606246948242,-59.56965637207031,24.80855941772461,0.5699982047080994,1.7177174091339111,2.538837194442749,3
479,-40.01168441772461,-40.136600494384766,26.130218505859375,0.7931326031684875,1.2924962043762207,2.777099609375,3
480,-66.85640716552734,-21.7919921875,23.049774169921875,0.9449295401573181,0.8717267513275146,3.0359458923339844,3
481,-66.43582153320312,-2.131779909133911,20.792692184448242,1.4108763933181763,-0.1346176415681839,3.2463338375091553,3
482,-55.1107063293457,17.916658401489258,17.820350646972656,1.1957470178604126,-0.7836101055145264,3.4455533027648926,3
483,-23.754405975341797,43.72346496582031,14.359997749328613,0.8808553218841553,-1.2255655527114868,3.6115143299102783,3
484,1.5736160278320312,62.56072998046875,11.978232383728027,0.30078423023223877,-1.1522142887115479,3.726248264312744,3
485,28.30367088317871,84.7825927734375,7.206866264343262,-0.6313198208808899,-1.0311286449432373,3.838927984237671,3
486,41.33280563354492,82.95720672607422,2.167069673538208,-1.6615487337112427,-0.4927714467048645,3.8813138008117676,3
487,43.233158111572266,62.10559844970703,0.4597371220588684,-2.445990562438965,-0.11264050006866455,3.893448829650879,3
488,42.782554626464844,34.799903869628906,-1.8418447971343994,-2.9118831157684326,0.3564265966415405,3.8799796104431152,3
489,36.61378479003906,1.6909085512161255,-5.603618621826172,-3.1030797958374023,0.870297908782959,3.844010591506958,3
490,21.761112213134766,-44.41261291503906,-9.522395133972168,-2.6762332916259766,1.18947172164917,3.737419605255127,3
491,-12.005186080932617,-80.13429260253906,-13.886978149414062,-2.060082197189331,1.0728322267532349,3.6108028888702393,3
492,-43.95417022705078,-98.40901947021484,-21.26972770690918,-0.8249239325523376,0.7324455380439758,3.388056993484497,3
493,-62.90449142456055,-110.70903015136719,-26.474002838134766,0.09800481051206589,-0.03471536189317703,3.156280517578125,3
494,-59.69002151489258,-108.00146484375,-32.93611145019531,1.4668151140213013,-0.8004856705665588,2.8472299575805664,3
495,-46.494049072265625,-91.8519515991211,-38.86402130126953,2.5515947341918945,-1.3200433254241943,2.4859654903411865,3
496,-17.325119018554688,-70.0030746459961,-39.03075408935547,3.6899709701538086,-1.6939038038253784,2.081805944442749,3
497,-3.359274387359619,-41.574459075927734,-36.44234085083008,3.878486394882202,-1.6358537673950195,1.7519400119781494,3
498,8.448403358459473,-14.435708999633789,-31.40165901184082,4.452670097351074,-1.6103556156158447,1.375412940979004,3
499,26.708223342895508,21.235469818115234,-32.41383361816406,4.429100036621094,-1.4214531183242798,1.0584720373153687,3
500,39.36118698120117,58.05504608154297,-32.428504943847656,4.033992290496826,-0.8791651129722595,0.6723945736885071,3
501,52.027244567871094,91.98818969726562,-31.098249435424805,2.9561374187469482,-0.4408136308193207,0.42504650354385376,3
502,52.01077651977539,113.21832275390625,-32.654232025146484,1.7986160516738892,0.0014861650997772813,0.1656375378370285,3
503,46.70223617553711,114.93865966796875,-34.78748321533203,0.29469233751296997,0.6587274670600891,-0.15149705111980438,3
504,36.76970672607422,84.38349151611328,-34.724979400634766,-0.7723211050033569,1.1117361783981323,-0.48980531096458435,3
505,25.35350227355957,45.31901168823242,-36.758277893066406,-1.3691779375076294,1.3729573488235474,-0.8346191644668579,3
506,14.444732666015625,13.817078590393066,-36.4681282043457,-1.4812039136886597,1.5930464267730713,-1.2395740747451782,3
507,3.4517393112182617,-10.496099472045898,-37.98552703857422,-1.5052188634872437,1.6223783493041992,-1.5916240215301514,3
508,-7.749015808105469,-30.603273391723633,-36.85032653808594,-1.2116918563842773,1.552943229675293,-1.9713131189346313,3
509,-5.422935962677002,-42.04540252685547,-36.22138214111328,-0.6049917340278625,1.4279276132583618,-2.3710403442382812,3
510,-1.511614203453064,-49.115074157714844,-31.109996795654297,-0.142198383808136,1.3807398080825806,-2.7229256629943848,3
511,2.600118637084961,-54.359352111816406,-24.056394577026367,0.28538304567337036,1.3881361484527588,-3.0177161693573,3
512,9.031723976135254,-54.54133224487305,-18.26201820373535,1.0060793161392212,1.5565519332885742,-3.280452251434326,3
513,12.21452522277832,-55.92926788330078,-14.127636909484863,1.579703450202942,1.7508649826049805,-3.476478099822998,3
514,13.042285919189453,-58.976356506347656,-12.574954986572266,2.4096779823303223,1.9532660245895386,-3.652834177017212,3
515,17.74364471435547,-43.98613739013672,-12.699335098266602,2.6983530521392822,2.1035044193267822,-3.800881862640381,3
516,13.583818435668945,-12.026951789855957,-14.582971572875977,3.108006238937378,2.387216329574585,-3.980863332748413,3
517,-3.9032397270202637,23.216312408447266,-15.21176528930664,3.1436216831207275,2.3687260150909424,-4.096992492675781,3
518,-28.406490325927734,59.385887145996094,-15.634655952453613,2.5317952632904053,2.157392978668213,-4.220456600189209,3
519,-51.03216552734375,84.30677032470703,-16.018497467041016,1.521549940109253,1.6818660497665405,-4.349006175994873,3
520,-56.02988052368164,95.00418853759766,-15.256863594055176,0.36201560497283936,1.0819756984710693,-4.484374523162842,3
521,-52.432586669921875,90.68721771240234,-17.240877151489258,-0.576162576675415,0.4561837613582611,-4.596002101898193,3
522,-47.75612258911133,69.3080825805664,-19.799623489379883,-1.3348937034606934,0.28559404611587524,-4.873434066772461,3
523,-40.94118881225586,50.00538635253906,-26.173614501953125,-2.22039794921875,-0.3712315559387207,-5.0630364418029785,3
524,-35.50756072998047,19.330333709716797,-31.126352310180664,-2.356597661972046,-0.6812670230865479,-5.3537750244140625,3
525,-27.780227661132812,-16.48706817626953,-34.7421760559082,-2.118255138397217,-0.8924383521080017,-5.696656227111816,3
526,-14.478962898254395,-37.45330047607422,-35.17405319213867,-1.603431224822998,-0.958836019039154,-6.055064678192139,3
527,-5.6375322341918945,-51.1292610168457,-32.953338623046875,-0.9968372583389282,-1.1064990758895874,-6.379247188568115,3
528,4.738143444061279,-46.95384216308594,-33.18810272216797,-0.5024680495262146,-1.2126364707946777,-6.691778659820557,3
529,20.919588088989258,-17.306344985961914,-29.21593475341797,-0.13701024651527405,-0.8251939415931702,-7.025205612182617,3
530,23.895349502563477,7.327549457550049,-27.123138427734375,-0.1775723248720169,-0.488342821598053,-7.3128228187561035,3
531,19.489137649536133,25.528146743774414,-20.24509620666504,-0.44836336374282837,-0.228610098361969,-7.552312850952148,3
532,10.524818420410156,32.5250129699707,-16.631179809570312,-0.824508786201477,-0.16083921492099762,-7.727496147155762,3
533,4.174881458282471,18.195058822631836,-11.859246253967285,-0.9643843173980713,-0.14883461594581604,-7.875328063964844,3
534,-4.479913711547852,-10.886130332946777,-5.952890872955322,-1.0148943662643433,-0.15839701890945435,-7.969888687133789,3
535,-7.080902576446533,-40.58228302001953,-5.81895637512207,-0.796920895576477,-0.293765127658844,-8.014951705932617,3
536,-18.23455047607422,-54.455482482910156,-5.051258087158203,0.08112792670726776,-0.3560408353805542,-8.112251281738281,3
537,-27.000783920288086,-47.119991302490234,-7.088601589202881,0.2893596887588501,-0.7555947303771973,-8.130858421325684,3
538,-31.749990463256836,-12.459373474121094,-4.777132511138916,0.8075030446052551,-1.0393056869506836,-8.207666397094727,3
539,-31.521636962890625,12.844579696655273,-2.786630153656006,0.5944219827651978,-1.4439852237701416,-8.221774101257324,3
540,-23.066343307495117,38.2841796875,-3.7898290157318115,0.44268959760665894,-1.8094143867492676,-8.265259742736816,3
541,-5.790551662445068,42.68941116333008,-5.636843681335449,-0.13970376551151276,-1.9525834321975708,-8.304780960083008,3
542,12.66397762298584,38.6917724609375,-7.348541736602783,-0.6418229937553406,-1.8067042827606201,-8.373355865478516,3
543,28.171218872070312,31.43152618408203,-6.8634819984436035,-1.0575504302978516,-1.608418345451355,-8.44737434387207,3
544,40.83403778076172,14.603652000427246,-3.8576927185058594,-1.1275479793548584,-1.1453608274459839,-8.546744346618652,3
545,44.24605178833008,-14.607539176940918,-0.11208993196487427,-1.1140787601470947,-0.44855910539627075,-8.58747386932373,3
546,37.86796188354492,-32.94031524658203,1.6308995485305786,-0.890382707118988,-0.1426081359386444,-8.576419830322266,3
547,24.743898391723633,-44.07402038574219,4.545044898986816,-0.23502449691295624,0.2407301366329193,-8.608552932739258,3
548,17.08022117614746,-44.08230972290039,6.5304670333862305,0.27725592255592346,0.410640686750412,-8.573126792907715,3
549,13.119215965270996,-35.858436584472656,8.335211753845215,0.6063387393951416,0.4863491356372833,-8.492965698242188,3
550,7.152266502380371,-23.78887367248535,8.053836822509766,0.8584704995155334,0.646838366985321,-8.403765678405762,3
551,6.628998756408691,-28.224109649658203,11.24641227722168,1.1269150972366333,0.6507263779640198,-8.31867504119873,3
552,8.983858108520508,-35.72732162475586,11.201687812805176,1.432843565940857,0.6608325839042664,-8.204280853271484,3
553,9.939229011535645,-31.08062171936035,10.427286148071289,1.5860852003097534,0.7859315276145935,-8.078012466430664,3
554,20.075698852539062,-17.559314727783203,10.992152214050293,2.077883720397949,0.9702616333961487,-8.00995922088623,3
555,31.672496795654297,1.1725138425827026,10.568946838378906,2.1331050395965576,1.3309468030929565,-7.911169528961182,3
556,33.354896545410156,21.32868003845215,11.319982528686523,2.0201869010925293,1.7578959465026855,-7.81110954284668,3
557,27.7392635345459,38.77043533325195,11.397040367126465,1.5968512296676636,1.9968758821487427,-7.6691365242004395,3
558,17.855886459350586,51.85165023803711,11.278266906738281,1.053413987159729,2.287810802459717,-7.5383429527282715,3
559,2.9415721893310547,44.685543060302734,14.568922996520996,0.5324987769126892,2.368098497390747,-7.382177352905273,3
560,-11.334864616394043,31.93573760986328,16.05817985534668,-0.023467812687158585,2.2870166301727295,-7.19050407409668,3
561,-31.056190490722656,14.516711235046387,15.629114151000977,-0.10660229623317719,1.9413458108901978,-6.983668327331543,3
562,-48.952754974365234,-5.242501258850098,17.440946578979492,-0.14729981124401093,1.650138258934021,-6.832295894622803,3
563,-60.11491394042969,-21.36981773376465,15.159285545349121,0.14529559016227722,0.8429579138755798,-6.615642070770264,3
564,-54.772605895996094,-34.5055046081543,14.431663513183594,0.5290970802307129,0.26284363865852356,-6.4620890617370605,3
565,-42.48014831542969,-39.03924560546875,15.952221870422363,1.1404149532318115,-0.27302086353302,-6.285942077636719,3
566,-30.829553604125977,-32.65763854980469,15.547208786010742,1.4450948238372803,-0.4366009831428528,-6.161221981048584,3
567,-20.343406677246094,-22.199005126953125,16.837448120117188,1.8515651226043701,-0.8109179139137268,-5.9623003005981445,3
568,-7.088828086853027,-7.349785327911377,14.160927772521973,1.7990875244140625,-0.6697372198104858,-5.866150856018066,3
569,-2.0696499347686768,4.617836952209473,11.896517753601074,1.8255021572113037,-0.739501953125,-5.725470542907715,3
570,-10.908594131469727,8.24409294128418,9.436007499694824,1.7063958644866943,-0.6562178730964661,-5.6470794677734375,3
571,-13.081409454345703,12.063056945800781,8.993412971496582,1.60972261428833,-0.8666592836380005,-5.5400214195251465,3
572,-11.84184741973877,19.928245544433594,11.3068208694458,1.4145777225494385,-1.0016506910324097,-5.438627243041992,3
573,-4.931970596313477,24.854991912841797,14.730835914611816,1.3271507024765015,-0.9100282192230225,-5.456948757171631,3
574,-5.9388227462768555,27.49163055419922,23.222496032714844,1.123613953590393,-1.097100853919983,-5.2936224937438965,3
575,-14.85901165008545,25.807357788085938,31.584402084350586,0.8103318214416504,-0.8689637780189514,-5.151275157928467,3
576,-28.04437828063965,14.487037658691406,34.9045524597168,0.5891824960708618,-1.2019870281219482,-4.821096420288086,3
577,-46.158329010009766,5.8652567863464355,37.63410186767578,0.3453229069709778,-1.8201520442962646,-4.133120536804199,3
578,-43.088218688964844,4.453715801239014,36.68001174926758,0.3633980453014374,-2.1422107219696045,-4.0743842124938965,3
579,-28.830381393432617,12.619365692138672,34.670494079589844,0.3157249093055725,-2.365339517593384,-3.746724843978882,3
580,-14.779623031616211,23.62743377685547,27.7418155670166,0.14123821258544922,-2.699500799179077,-3.3882365226745605,3
581,23.292465209960938,37.875762939453125,23.562036514282227,-0.5518209338188171,-2.5840187072753906,-2.879760265350342,3
582,47.890174865722656,47.64804458618164,15.779763221740723,-0.44907280802726746,-2.7715342044830322,-2.8770651817321777,3
583,49.12259292602539,35.19459915161133,9.530340194702148,-1.1096655130386353,-2.0894155502319336,-2.6873326301574707,3
584,37.679412841796875,-5.588197708129883,7.716763019561768,-1.3646193742752075,-1.6324818134307861,-2.6299521923065186,3
585,18.0622615814209,-49.839046478271484,6.427000045776367,-1.2956840991973877,-1.181955337524414,-2.586745500564575,3
586,1.6977860927581787,-73.03800201416016,7.848341941833496,-0.8174471855163574,-1.125474214553833,-2.5382611751556396,3
587,-17.01815414428711,-72.452880859375,9.40990161895752,0.10317936539649963,-1.1089214086532593,-2.5142691135406494,3
588,-28.724321365356445,-53.065208435058594,8.733199119567871,0.885072648525238,-1.2452406883239746,-2.4254424571990967,3
589,-30.565731048583984,-22.83323860168457,10.382030487060547,1.4613276720046997,-1.58733332157135,-2.3078501224517822,3
590,-26.27107048034668,8.583671569824219,13.139345169067383,1.388229489326477,-1.909891128540039,-2.1035773754119873,3
591,-22.15703773498535,32.88089370727539,14.947151184082031,1.365628957748413,-2.3148484230041504,-1.9642623662948608,3
592,-2.3190841674804688,53.542076110839844,15.82918643951416,0.9059434533119202,-2.3318030834198,-1.7958970069885254,3
593,6.21077299118042,64.01980590820312,15.107004165649414,0.5738582015037537,-2.460186719894409,-1.6955385208129883,3
594,-0.10264039039611816,62.149009704589844,12.845773696899414,-0.2872810363769531,-2.326667308807373,-1.510058045387268,3
595,-1.8895797729492188,47.67878341674805,10.492738723754883,-0.9694112539291382,-2.3399174213409424,-1.381310224533081,3
596,5.147855281829834,26.749832153320312,11.61152458190918,-1.3655036687850952,-2.3130507469177246,-1.3341010808944702,3
597,22.270967483520508,-1.4458749294281006,15.976255416870117,-1.6615333557128906,-2.271730899810791,-1.2537956237792969,3
598,26.942148208618164,-22.27911949157715,20.432849884033203,-1.6511354446411133,-1.964941382408142,-1.1330931186676025,3
599,17.511669158935547,-42.098445892333984,21.84079933166504,-1.3511254787445068,-1.8389627933502197,-0.9901300072669983,3
600,5.641109943389893,-43.13469696044922,22.962926864624023,-0.7431255578994751,-1.5335478782653809,-0.835312008857727,3
601,-4.441545009613037,-38.40310287475586,23.28374671936035,-0.38191524147987366,-1.5143183469772339,-0.5851153135299683,3
602,-14.98115062713623,-26.32282257080078,21.751632690429688,-0.08555520325899124,-1.5784060955047607,-0.31497105956077576,3
603,-9.13145923614502,-1.9591716527938843,22.31656265258789,0.2629908621311188,-1.8143457174301147,-0.10857517272233963,3
604,3.360311269760132,25.4006404876709,20.356643676757812,0.23245207965373993,-1.9844601154327393,0.14780659973621368,3
605,9.107430458068848,54.06314468383789,18.195755004882812,-0.5348899364471436,-1.962577223777771,0.5658644437789917,3
606,20.671979904174805,57.2635383605957,18.573516845703125,-0.5544341206550598,-1.9563370943069458,0.5718225240707397,3
607,24.525413513183594,44.61590576171875,19.882080078125,-1.389207363128662,-1.7747445106506348,0.808329164981842,3
608,45.913631439208984,30.900131225585938,21.87675666809082,-1.7192668914794922,-1.7244197130203247,0.9199547171592712,3
609,54.9099235534668,16.08344078063965,21.749540328979492,-1.9091660976409912,-1.2080028057098389,1.098291039466858,3
610,52.57421875,-7.863461017608643,22.201082229614258,-2.0910160541534424,-0.6562683582305908,1.3065561056137085,3
611,54.88362503051758,-21.434284210205078,22.540538787841797,-1.9763597249984741,0.042545486241579056,1.5233861207962036,3
612,50.0436897277832,-28.707834243774414,24.602535247802734,-1.9008729457855225,0.37276118993759155,1.7265294790267944,3
613,42.753997802734375,-36.12725830078125,28.965654373168945,-1.2478965520858765,1.358734130859375,2.217545747756958,3
614,40.70088195800781,-32.829593658447266,32.6319580078125,-1.0987696647644043,1.451317310333252,2.2120158672332764,3
615,48.190860748291016,-18.79144287109375,35.116390228271484,-0.8578436374664307,1.5658091306686401,2.4683024883270264,3
616,55.09099197387695,1.981913447380066,37.06068801879883,-0.4548492133617401,2.70387601852417,3.1900949478149414,3
617,55.155303955078125,11.313801765441895,36.201351165771484,-0.5747972726821899,2.5073821544647217,3.1571972370147705,3
618,44.468624114990234,10.03435230255127,33.18608856201172,-0.729477047920227,3.1789302825927734,3.5496134757995605,3
619,21.118642807006836,8.716635704040527,27.975364685058594,-0.8902626037597656,4.149908542633057,4.235500335693359,3
620,1.0702621936798096,4.826570510864258,25.771284103393555,-0.8783330917358398,3.987961530685425,4.206434726715088,3
621,-14.32282543182373,-12.123180389404297,24.817018508911133,-0.8255330920219421,3.998124361038208,4.72802734375,3
622,-23.014400482177734,-26.055469512939453,23.29309844970703,-0.5136148929595947,3.9693305492401123,5.003966331481934,3
623,-27.82996940612793,-36.473941802978516,20.396575927734375,-0.23714831471443176,3.469698429107666,5.147702217102051,3
624,-26.9133243560791,-35.513790130615234,16.395570755004883,0.22179608047008514,3.083301305770874,5.3178911209106445,3
625,-23.38593292236328,-26.084867477416992,14.001165390014648,0.6101786494255066,2.6920008659362793,5.457211971282959,3
626,-19.37111473083496,-20.567781448364258,12.515207290649414,0.6253762245178223,2.5052249431610107,5.504985809326172,3
627,-14.46097469329834,-14.833597183227539,10.271946907043457,0.8437507748603821,2.4080615043640137,5.571871757507324,3
628,-1.0400416851043701,-8.311717987060547,8.34081745147705,0.872113823890686,2.49871826171875,5.639866828918457,3
629,9.530762672424316,1.6520192623138428,7.0274658203125,1.0928343534469604,2.437828302383423,5.767447471618652,3
630,14.73422622680664,13.042021751403809,7.550594329833984,0.8383442163467407,2.714700698852539,5.847001075744629,3
631,16.752906799316406,16.483259201049805,7.079730033874512,0.4947222173213959,2.9412693977355957,5.8588409423828125,3
632,7.194827079772949,11.87668228149414,5.809381008148193,0.40809711813926697,3.1618404388427734,5.955944061279297,3
633,-7.305510520935059,9.38331413269043,5.129545211791992,0.32325634360313416,3.1788456439971924,6.01432466506958,3
634,-22.2001895904541,5.586879253387451,4.334918022155762,0.4100600779056549,3.0790648460388184,6.050671577453613,3
635,-32.787757873535156,-3.021592855453491,3.021019458770752,0.4571186602115631,2.771188735961914,6.1602373123168945,3
636,-37.2759895324707,-8.505661010742188,2.465423583984375,0.464752733707428,2.47870135307312,6.195900917053223,3
637,-36.264530181884766,-7.026813983917236,2.871271848678589,0.26467907428741455,2.581641912460327,6.091925144195557,3
638,-38.4506950378418,-6.648799896240234,2.898860454559326,0.39334428310394287,1.9170103073120117,6.148460865020752,3
639,-40.632423400878906,-7.317990779876709,2.2644593715667725,0.42974337935447693,1.602864146232605,6.1598219871521,3
640,-32.35258483886719,-6.184097766876221,2.0818326473236084,0.5516102313995361,1.016801357269287,6.21174955368042,3
641,-24.35509490966797,2.196108341217041,-0.41531693935394287,0.6397699117660522,1.1069718599319458,6.21907377243042,3
642,-23.935291290283203,9.676511764526367,-6.0556511878967285,0.6723551154136658,0.6878392696380615,6.245828151702881,3
643,-28.10915184020996,8.937239646911621,-13.096575736999512,0.5848177671432495,0.29584044218063354,6.217899322509766,3
644,-23.690919876098633,12.345686912536621,-17.2049560546875,0.32561957836151123,0.47207319736480713,6.0213303565979,3
645,-14.289827346801758,19.095712661743164,-22.49888038635254,0.21811580657958984,0.10189489275217056,5.866998195648193,3
646,-2.46341609954834,26.664684295654297,-27.823347091674805,0.06457263231277466,0.024279341101646423,5.65391731262207,3
647,11.366643905639648,31.02422523498535,-31.270368576049805,-0.2927083969116211,-0.039526063948869705,5.359128952026367,3
648,17.42298126220703,31.406097412109375,-32.268409729003906,-0.5602467656135559,0.03778103366494179,5.06292200088501,3
649,12.736762046813965,28.70777130126953,-29.33818817138672,-1.007479190826416,0.241724893450737,4.713976860046387,3
650,-5.173892498016357,15.689458847045898,-25.554170608520508,-1.2472211122512817,0.43785712122917175,4.424257755279541,3
651,-41.95700454711914,-9.160284996032715,-20.314254760742188,-1.3403886556625366,0.27166295051574707,4.184829235076904,3
652,-61.38748550415039,-14.418461799621582,-15.328228950500488,-1.130942940711975,-0.07128940522670746,3.9995336532592773,3
653,-77.01237487792969,-12.785364151000977,-9.99055004119873,-0.9574844837188721,-0.4791206121444702,3.8444361686706543,3
654,-73.25093078613281,-9.676356315612793,-7.6654229164123535,-0.7982967495918274,-1.4716970920562744,3.7335920333862305,3
655,-41.495479583740234,-12.706897735595703,-8.832391738891602,-0.5344495177268982,-2.0089712142944336,3.6834499835968018,3
656,-21.278024673461914,-10.14104175567627,-10.656220436096191,-0.2496233582496643,-2.7994089126586914,3.6087772846221924,3
657,-3.518202066421509,3.7618160247802734,-12.316488265991211,-0.32560020685195923,-2.777287721633911,3.509880542755127,3
658,6.612887859344482,11.543612480163574,-9.128368377685547,-0.21278347074985504,-2.9457473754882812,3.3848485946655273,3
659,-1.5553470849990845,14.472936630249023,-4.424456596374512,-0.31670576333999634,-2.8254623413085938,3.2842931747436523,3
660,-5.7803263664245605,16.089998245239258,-0.626116156578064,-0.5564250946044922,-2.8946104049682617,3.229583501815796,3
661,-5.64288854598999,10.773005485534668,2.48996901512146,-0.6798200011253357,-2.964576482772827,3.1913135051727295,3
662,5.668034076690674,5.244889736175537,7.070260047912598,-0.8075798153877258,-3.03847074508667,3.2019119262695312,3
663,24.62881088256836,7.295120716094971,9.172314643859863,-0.8340018391609192,-2.866687774658203,3.2561252117156982,3
664,24.746721267700195,19.53206443786621,11.130409240722656,-0.8885509371757507,-2.689159631729126,3.3361451625823975,3
665,6.7660064697265625,31.848051071166992,11.07841682434082,-1.2117279767990112,-2.390284299850464,3.480766773223877,3
666,-15.065794944763184,39.32069396972656,9.627546310424805,-1.5006473064422607,-2.4468514919281006,3.564107894897461,3
667,-22.364524841308594,50.06363296508789,7.7235798835754395,-2.068556785583496,-2.618704319000244,3.7021472454071045,3
668,-18.949491500854492,58.01253890991211,4.497410774230957,-2.633063554763794,-2.850600004196167,3.7876944541931152,3
669,-8.81692123413086,56.9067497253418,2.4234344959259033,-3.411642551422119,-3.0553700923919678,3.8845255374908447,3
670,12.0242338180542,41.79186248779297,1.5507500171661377,-3.942976236343384,-3.1698343753814697,3.865062952041626,3
671,34.8764762878418,14.795004844665527,1.2151225805282593,-4.313586711883545,-3.028937816619873,3.839958667755127,3
672,59.280818939208984,-24.826318740844727,1.5791553258895874,-4.444517135620117,-2.4630393981933594,3.882648468017578,3
673,74.44828033447266,-56.84321212768555,1.9918614625930786,-3.944019079208374,-2.135890007019043,3.703885078430176,3
674,81.47449493408203,-77.34501647949219,0.7217071652412415,-3.08789324760437,-1.2180949449539185,3.660102128982544,3
675,78.20755004882812,-86.48865509033203,-0.44766733050346375,-2.580763101577759,-0.5638800859451294,3.723550796508789,3
676,67.80245971679688,-75.86832427978516,-2.4583401679992676,-1.4161819219589233,0.4535488188266754,3.673614025115967,3
677,37.559757232666016,-58.720767974853516,-6.316640377044678,-0.8574715852737427,0.9225943684577942,3.6518969535827637,3
678,-2.3350725173950195,-49.41145706176758,-10.78095817565918,-0.035660821944475174,1.536886215209961,3.569340229034424,3
679,-42.33624267578125,-33.43461990356445,-14.026601791381836,0.4432838261127472,1.2642345428466797,3.3657312393188477,3
680,-75.4639663696289,-8.305027961730957,-16.830453872680664,1.0298572778701782,0.6228548288345337,3.0840930938720703,3
681,-88.24606323242188,10.948795318603516,-18.901704788208008,0.7632566094398499,-0.02295723743736744,3.026479482650757,3
682,-64.83570861816406,14.635334968566895,-18.92056655883789,0.6454628109931946,-1.3634530305862427,2.7573182582855225,3
683,-19.834468841552734,11.361808776855469,-20.51502799987793,0.3689878582954407,-1.533897876739502,2.671389579772949,3
684,27.883535385131836,5.895713806152344,-22.96492576599121,0.3021838665008545,-1.8095805644989014,2.462280511856079,3
685,65.61587524414062,3.8082692623138428,-23.411239624023438,0.24574343860149384,-1.365520715713501,2.2619998455047607,3
686,93.62401580810547,5.615649223327637,-19.917964935302734,0.14864002168178558,-0.7037658095359802,2.0439870357513428,3
687,91.71751403808594,10.396653175354004,-19.309492111206055,0.11198548227548599,0.46847566962242126,1.8584766387939453,3
688,60.48301696777344,10.516789436340332,-21.220993041992188,-0.08858685195446014,1.2496562004089355,1.6819539070129395,3
689,26.134592056274414,1.7348366975784302,-23.609235763549805,-0.1437320113182068,2.2449381351470947,1.4817525148391724,3
690,-1.5720304250717163,-12.282052040100098,-23.996135711669922,-0.08775440603494644,2.6382246017456055,1.239493489265442,3
691,-18.120542526245117,-20.293210983276367,-23.88152503967285,0.10802307724952698,2.6267733573913574,0.986825168132782,3
692,-28.693069458007812,-18.743024826049805,-22.668930053710938,0.21043556928634644,2.0187087059020996,0.7455001473426819,3
693,-35.068790435791016,-7.976433277130127,-21.309520721435547,0.6165745854377747,1.5600181818008423,0.5141412615776062,3
694,-31.49589729309082,2.527130603790283,-18.6640682220459,0.3082982003688812,1.3171626329421997,0.28318262100219727,3
695,-22.691162109375,2.3531999588012695,-15.359872817993164,0.3168317973613739,0.9460197687149048,0.09150591492652893,3
696,-10.588113784790039,-10.126198768615723,-10.940217971801758,0.3936406075954437,0.796647846698761,-0.0663885548710823,3
697,-3.2837612628936768,-22.83002281188965,-6.682497978210449,0.42391136288642883,0.6845071315765381,-0.1905224323272705,3
698,-1.2147550582885742,-28.43754768371582,-3.401700496673584,0.8388406038284302,0.699390709400177,-0.2498587965965271,3
699,3.837578058242798,-29.625316619873047,-0.4928585886955261,1.1869698762893677,0.6781337261199951,-0.283650666475296,3
700,13.384607315063477,-23.678010940551758,1.6473181247711182,1.2393544912338257,0.9756454825401306,-0.34798917174339294,3
701,23.819196701049805,-9.055177688598633,2.4218103885650635,1.4444235563278198,1.171590805053711,-0.3518643379211426,3
702,30.17659568786621,10.249137878417969,2.4400062561035156,1.6409484148025513,1.4517775774002075,-0.33159059286117554,3
703,31.7607479095459,25.663650512695312,2.5180463790893555,1.583846092224121,1.68522310256958,-0.29503825306892395,3
704,33.41325759887695,32.898929595947266,2.7679080963134766,1.2640496492385864,2.112964153289795,-0.2933918237686157,3
705,24.547779083251953,28.02815818786621,3.4806268215179443,0.8972911834716797,2.631948232650757,-0.29518944025039673,3
706,9.071968078613281,20.88347816467285,5.369878768920898,0.6013415455818176,2.9237987995147705,-0.2540980875492096,3
707,-9.69692611694336,10.805729866027832,6.012900352478027,0.42479944229125977,3.031407594680786,-0.18300215899944305,3
708,-29.01809310913086,2.6710636615753174,5.611883640289307,0.3241330683231354,2.823498010635376,-0.0845649242401123,3
709,-42.62680435180664,-5.507596969604492,5.793673992156982,0.36072248220443726,2.298048734664917,0.040501583367586136,3
710,-50.118431091308594,-18.19759750366211,4.489258289337158,0.45167842507362366,1.6299935579299927,0.15675999224185944,3
711,-55.95600891113281,-26.021831512451172,3.0196471214294434,0.7631390690803528,1.1520769596099854,0.2377798706293106,3
712,-63.36554718017578,-21.753015518188477,3.2967870235443115,1.206133246421814,0.5698472857475281,0.3230655789375305,3
713,-66.51051330566406,-10.02259635925293,2.1261513233184814,1.584580898284912,-0.43234679102897644,0.469856858253479,3
714,-64.4983901977539,6.473222255706787,-0.8479507565498352,2.2860004901885986,-1.949721336364746,0.8305326700210571,3
715,-57.1756706237793,22.92894172668457,-2.756817102432251,2.5181822776794434,-2.754757881164551,0.9249774813652039,3
716,-23.588756561279297,39.581974029541016,-3.128645181655884,1.7970637083053589,-4.273703575134277,1.01756751537323,3
717,25.236459732055664,46.44388198852539,-2.449315309524536,1.4814573526382446,-4.325688362121582,0.8952479958534241,3
718,60.367183685302734,42.47089767456055,-2.7086358070373535,0.719120979309082,-3.4156675338745117,0.6074033975601196,3
719,71.4666976928711,36.98857116699219,-0.213816836476326,0.025277212262153625,-2.669530153274536,0.4993162453174591,3
720,74.60047912597656,27.917850494384766,3.869142532348633,-0.5488563776016235,-1.2278449535369873,0.30484437942504883,3
721,65.80216979980469,12.326459884643555,6.838392734527588,-1.6624293327331543,1.5686990022659302,-0.03186876326799393,3
722,38.344905853271484,-3.0618677139282227,6.327371120452881,-1.7452795505523682,2.233985424041748,0.03304086998105049,3
723,-3.8092727661132812,-17.632125854492188,4.382570266723633,-1.5718209743499756,2.6275670528411865,0.09928201138973236,3
724,-45.97367858886719,-26.241310119628906,3.1335740089416504,-1.3151028156280518,2.4802844524383545,0.16206999123096466,3
725,-66.43253326416016,-28.177114486694336,3.7356953620910645,-0.9136545062065125,1.806814193725586,0.2128956913948059,3
726,-70.29208374023438,-24.598297119140625,5.298554420471191,-0.48432403802871704,0.9917824864387512,0.25858578085899353,3
727,-58.14078903198242,-31.534494400024414,9.439544677734375,0.03267093747854233,0.24958118796348572,0.31974828243255615,3
728,-36.18601989746094,-36.3572883605957,13.821393013000488,-0.06323706358671188,0.006119740195572376,0.3530334234237671,3
729,-27.305538177490234,-32.88011932373047,18.656234741210938,0.4299980700016022,-0.6749079823493958,0.5086468458175659,3
730,-22.241464614868164,-20.665159225463867,20.46139144897461,0.7744392156600952,-0.9366222023963928,0.6894286274909973,3
731,-17.528121948242188,-6.523219108581543,22.876344680786133,1.1609262228012085,-1.5302761793136597,0.9451621770858765,3
732,-5.199182510375977,8.166096687316895,24.269163131713867,1.0982753038406372,-1.3375228643417358,1.1386370658874512,3
733,7.12446928024292,20.17071533203125,27.270353317260742,1.0439964532852173,-1.5022783279418945,1.3888179063796997,3
734,4.318684101104736,26.68339729309082,30.685914993286133,0.8656232357025146,-1.4597599506378174,1.6602299213409424,3
735,-1.8893086910247803,31.40134048461914,32.6917610168457,0.5750806331634521,-1.4957098960876465,1.9690768718719482,3
736,-4.9968743324279785,26.336509704589844,36.619140625,0.28044214844703674,-1.5925012826919556,2.298646926879883,3
737,-4.444007873535156,18.80681037902832,38.858150482177734,-0.01727536879479885,-1.5299339294433594,2.6430482864379883,3
738,-2.791041135787964,10.056523323059082,38.46272277832031,-0.2725318670272827,-1.6001715660095215,3.0289182662963867,3
739,-13.86032485961914,-3.2384824752807617,34.758819580078125,-0.3535178303718567,-1.7313306331634521,3.4119110107421875,3
740,-23.273880004882812,-12.359457969665527,30.52128791809082,-0.20903393626213074,-2.035161256790161,3.754971504211426,3
741,-28.267820358276367,-12.77039909362793,24.6877384185791,0.06786447763442993,-2.4761462211608887,4.057080268859863,3
742,-22.19066619873047,-2.767519474029541,18.361780166625977,0.2518673539161682,-2.8920350074768066,4.309602737426758,3
743,-2.75461745262146,20.21872901916504,9.828997611999512,0.23556403815746307,-2.8018996715545654,4.479735851287842,3
744,25.571456909179688,40.03839111328125,1.2928063869476318,-0.23401278257369995,-2.71309494972229,4.618654727935791,3
745,50.590293884277344,59.48168182373047,-6.134235858917236,-0.6902037858963013,-2.321870803833008,4.624099254608154,3
746,66.61940002441406,71.77310180664062,-10.591304779052734,-1.3801426887512207,-1.7522391080856323,4.5683979988098145,3
747,73.78063201904297,76.2999267578125,-14.120408058166504,-2.2603816986083984,-1.066009521484375,4.494888782501221,3
748,73.01791381835938,70.75399780273438,-14.60496997833252,-2.658823013305664,-0.5020138025283813,4.237495422363281,3
749,63.85291290283203,55.28891372680664,-14.50046443939209,-3.530287981033325,0.5166540145874023,4.162744998931885,3
750,36.63645553588867,23.260862350463867,-14.22824478149414,-3.866187334060669,0.7336052060127258,3.927715539932251,3
751,-0.5412132143974304,-19.857051849365234,-13.299897193908691,-4.07077693939209,1.2869303226470947,3.816256523132324,3
752,-39.62178039550781,-64.28140258789062,-10.190105438232422,-3.675710439682007,1.1989409923553467,3.6140573024749756,3
753,-75.54656219482422,-95.05613708496094,-8.317644119262695,-2.651550531387329,0.4554535746574402,3.350029945373535,3
754,-93.53668212890625,-111.71942138671875,-2.9202663898468018,-1.6971489191055298,-0.4595724642276764,3.2226805686950684,3
755,-91.26979064941406,-111.68694305419922,2.1054699420928955,-0.7657084465026855,-1.265551209449768,3.262334108352661,3
756,-75.92308044433594,-96.73890686035156,7.655439853668213,0.4834003150463104,-2.417313575744629,3.2373359203338623,3
757,-46.561370849609375,-72.38606262207031,13.155281066894531,1.3881163597106934,-3.2001633644104004,3.3581857681274414,3
758,-2.5467429161071777,-42.02426528930664,16.415742874145508,2.114429473876953,-3.4873673915863037,3.570739984512329,3
759,46.968589782714844,-8.175727844238281,17.619089126586914,2.381601095199585,-3.338388681411743,3.8097972869873047,3
760,88.13458251953125,1.8656697273254395,18.495603561401367,2.582819700241089,-2.6951563358306885,3.994934320449829,3
761,102.44806671142578,12.244269371032715,18.5477237701416,2.44274640083313,-1.6078379154205322,4.221785545349121,3
762,81.18290710449219,23.822933197021484,16.304319381713867,2.286919593811035,-0.6425781846046448,4.411201000213623,3
763,40.962650299072266,38.07328414916992,12.516997337341309,1.9734991788864136,0.2628822326660156,4.596502780914307,3
764,-6.282325267791748,42.00061798095703,8.270705223083496,1.5415853261947632,0.12340322136878967,4.749568462371826,3
765,-46.45354461669922,37.279273986816406,6.0240702629089355,1.0561000108718872,-0.13942955434322357,4.857840538024902,3
766,-65.82923126220703,27.38905906677246,3.5353057384490967,0.6638129353523254,-0.707514762878418,4.927644729614258,3
767,-64.47694396972656,16.054244995117188,1.3587918281555176,0.364521861076355,-1.490239143371582,4.97215461730957,3
768,-49.65755844116211,0.21067969501018524,0.6886992454528809,0.3572479486465454,-1.8862642049789429,4.938052654266357,3
769,-25.56393814086914,-12.16199779510498,-0.9379534125328064,0.44121602177619934,-2.3466320037841797,4.932480812072754,3
770,-0.7791560292243958,-20.03887176513672,-2.7029812335968018,0.6366101503372192,-2.6314005851745605,4.919240951538086,3
771,26.532739639282227,-17.450834274291992,-3.020810842514038,0.9533166885375977,-2.537093162536621,4.873216152191162,3
772,45.879844665527344,-5.8283538818359375,-4.373069763183594,1.121185541152954,-2.00587797164917,4.8208489418029785,3
773,57.02421188354492,9.849781036376953,-5.800333023071289,1.230772852897644,-1.3340762853622437,4.739410400390625,3
774,53.77583312988281,28.880474090576172,-6.635374069213867,1.0611693859100342,-0.6720302700996399,4.679388046264648,3
775,41.003963470458984,37.61385726928711,-7.869101047515869,0.5884808897972107,-0.17990697920322418,4.653622150421143,3
776,27.437463760375977,33.518375396728516,-10.68364143371582,-0.0011933913920074701,0.2618052065372467,4.612695217132568,3
777,20.9189395904541,22.063432693481445,-12.907549858093262,-0.32449400424957275,0.23439772427082062,4.543328285217285,3
778,16.406429290771484,8.5200777053833,-15.584285736083984,-0.4470168948173523,0.5197002291679382,4.389514446258545,3
779,13.947678565979004,-5.052793502807617,-17.107112884521484,-0.509576678276062,0.5734779834747314,4.243287086486816,3
780,12.319355964660645,-12.938811302185059,-18.973264694213867,-0.3512782156467438,0.7472026348114014,4.055766582489014,3
781,10.07391357421875,-10.262639999389648,-18.807092666625977,-0.24533160030841827,0.9675894379615784,3.859036684036255,3
782,11.912007331848145,-3.070396661758423,-18.201875686645508,-0.03954862058162689,1.0747206211090088,3.662344217300415,3
783,13.289846420288086,7.543557643890381,-18.3637638092041,0.02798689901828766,1.2809902429580688,3.472209930419922,3
784,11.889755249023438,14.73314094543457,-20.106826782226562,-0.08166708797216415,1.510510802268982,3.2841453552246094,3
785,4.322795867919922,12.18071460723877,-20.79630470275879,-0.29687681794166565,1.6814154386520386,3.08202862739563,3
786,-1.29347562789917,11.903940200805664,-22.270774841308594,-0.462209552526474,1.7050632238388062,2.87325382232666,3
787,-8.808250427246094,17.272645950317383,-21.8768253326416,-0.6304788589477539,1.6506654024124146,2.6546807289123535,3
788,-20.491695404052734,22.783172607421875,-20.848529815673828,-0.8863247632980347,1.4611279964447021,2.4355380535125732,3
789,-27.880672454833984,29.593372344970703,-18.009092330932617,-1.1514908075332642,1.0827908515930176,2.2303647994995117,3
790,-33.19459533691406,31.015596389770508,-13.777521133422852,-1.4401829242706299,0.8137483596801758,2.0634162425994873,3
791,-31.336198806762695,29.92652130126953,-7.041971206665039,-1.821133017539978,0.40280914306640625,1.9173091650009155,3
792,-31.425395965576172,30.359291076660156,0.31716668605804443,-2.179466962814331,-0.049625273793935776,1.8311458826065063,3
793,-33.02003479003906,22.617206573486328,6.342609882354736,-2.5233819484710693,-0.27612167596817017,1.8401881456375122,3
794,-28.188100814819336,7.44354248046875,13.785937309265137,-2.7932934761047363,-0.740704357624054,1.8774601221084595,3
795,-16.357681274414062,-17.38097381591797,21.890138626098633,-2.1818201541900635,-0.7898054718971252,2.1682443618774414,3
796,-5.742794990539551,-34.756980895996094,28.754430770874023,-1.977752447128296,-1.0538288354873657,2.382718563079834,3
797,7.471670150756836,-29.31006622314453,33.79206848144531,-1.591938853263855,-1.0341976881027222,2.704815626144409,3
798,21.768484115600586,-15.029930114746094,34.51464080810547,-1.250489592552185,-0.7114892601966858,3.1054022312164307,3
799,37.45146942138672,-8.797592163085938,31.4552001953125,-0.9854298830032349,-0.3995886743068695,3.472935438156128,3
800,48.961669921875,-6.265847682952881,27.306739807128906,-1.0532492399215698,0.2359096258878708,3.823310375213623,3
801,48.4891242980957,1.8803353309631348,24.54848861694336,-1.1538608074188232,0.5105592012405396,4.0319132804870605,3
802,31.956504821777344,10.500570297241211,18.532272338867188,-1.0806610584259033,1.2057678699493408,4.329707622528076,3
803,8.573409080505371,16.05725860595703,14.01206111907959,-1.4419465065002441,1.5052968263626099,4.495347023010254,3
804,-18.74231719970703,13.124115943908691,13.112224578857422,-1.7054548263549805,1.5047434568405151,4.613008499145508,3
805,-39.97181701660156,-5.6185431480407715,15.057796478271484,-1.806504487991333,1.053078532218933,4.683562278747559,3
806,-51.84975051879883,-26.87331771850586,17.986682891845703,-1.6000635623931885,0.7177776098251343,4.871871471405029,3
807,-48.47333908081055,-38.071388244628906,18.87261199951172,-1.226945400238037,-0.09706132113933563,4.99276065826416,3
808,-32.580535888671875,-40.01781463623047,18.173982620239258,-0.814590334892273,-0.5665767788887024,5.179720401763916,3
809,-9.841014862060547,-36.451683044433594,17.021814346313477,-0.30196601152420044,-1.0026236772537231,5.352212905883789,3
810,20.650554656982422,-20.615272521972656,17.019865036010742,-0.43578583002090454,-0.7272767424583435,5.542386531829834,3
811,44.774147033691406,0.09367866814136505,14.7618989944458,-0.01962467096745968,-0.33877113461494446,5.775198936462402,3
812,54.16485595703125,20.3785400390625,11.162008285522461,-0.04685532674193382,0.3408118188381195,5.9624409675598145,3
813,51.57131576538086,40.78919219970703,8.911284446716309,-0.4232582747936249,1.0473473072052002,6.0949835777282715,3
814,37.84400939941406,56.06789016723633,8.63735580444336,-1.0528600215911865,1.5375882387161255,6.172106742858887,3
815,21.61577606201172,57.082183837890625,8.430290222167969,-1.7404260635375977,2.018369197845459,6.281017303466797,3
816,4.870436668395996,38.656131744384766,8.739404678344727,-2.38782000541687,1.8290746212005615,6.299744606018066,3
817,-15.574371337890625,10.97577953338623,8.56040096282959,-2.7125988006591797,1.8546483516693115,6.399715423583984,3
818,-33.59955978393555,-16.736421585083008,9.911075592041016,-2.7539682388305664,1.542568325996399,6.465674877166748,3
819,-39.32698059082031,-30.51696014404297,9.98309326171875,-2.5821890830993652,1.1677004098892212,6.553861141204834,3
820,-30.06595802307129,-34.1001091003418,8.438788414001465,-1.9171148538589478,0.6519235968589783,6.682733535766602,3
821,-18.114826202392578,-31.39322853088379,8.690287590026855,-1.6128883361816406,0.45882683992385864,6.7810773849487305,3
822,-17.092979431152344,-23.829795837402344,9.663272857666016,-1.5731395483016968,0.2482660710811615,6.812719345092773,3
823,-14.693832397460938,-16.13792610168457,10.208986282348633,-1.3784470558166504,0.1025579422712326,6.9104719161987305,3
824,-12.33788013458252,-10.942140579223633,8.452144622802734,-1.036417007446289,-0.08262311667203903,7.032107830047607,3
825,-3.375574827194214,-4.637792110443115,4.940788745880127,-0.9610254764556885,-0.1313071846961975,7.119714736938477,3
826,-3.0887815952301025,2.0691070556640625,3.4574735164642334,-1.387763500213623,-0.0712985023856163,7.112566947937012,3
827,-4.5101776123046875,13.062365531921387,3.9900243282318115,-1.2693114280700684,-0.07054965198040009,7.176888942718506,3
828,-9.404927253723145,14.002199172973633,5.024752616882324,-1.625088095664978,-0.1940305531024933,7.162097454071045,3
829,-7.290255069732666,7.873300075531006,7.7165069580078125,-1.5965683460235596,-0.3011823296546936,7.232212066650391,3
830,-2.0699613094329834,-2.1328532695770264,10.919769287109375,-1.6916694641113281,-0.20991307497024536,7.34712553024292,3
831,8.412667274475098,-6.25888729095459,13.644402503967285,-1.5129884481430054,-0.14063023030757904,7.491969108581543,3
832,7.372162342071533,-1.0521057844161987,11.322662353515625,-1.4194984436035156,-0.03944357857108116,7.635255336761475,3
833,1.7848703861236572,-7.71172571182251,7.786566734313965,-1.2329972982406616,0.0009308262378908694,7.753568649291992,3
834,0.6751558184623718,-16.848752975463867,4.019888401031494,-1.3753873109817505,-0.012465281412005424,7.795199871063232,3
835,-9.724438667297363,-28.683067321777344,2.191317558288574,-1.2688980102539062,-0.07258820533752441,7.811276435852051,3
836,-14.170365333557129,-44.740291595458984,1.2940915822982788,-0.5413692593574524,-0.16763535141944885,7.864740371704102,3
837,-4.757748603820801,-64.27570343017578,-0.03237927705049515,-0.33950841426849365,-0.09979759901762009,7.8870463371276855,3
838,-1.6075081825256348,-72.494384765625,-1.4978508949279785,0.7439082860946655,-0.2192198783159256,7.896974563598633,3
839,2.253162384033203,-66.54913330078125,-4.248771667480469,1.0951324701309204,-0.0408979132771492,7.882106304168701,3
840,-5.1147637367248535,-50.85222244262695,-7.549927711486816,2.04506516456604,-0.01624073088169098,7.853504657745361,3
841,-17.652830123901367,-42.7008171081543,-7.503077030181885,2.172914505004883,-0.11678764969110489,7.7569122314453125,3
842,-35.44550323486328,-29.997364044189453,-3.8977110385894775,2.8832414150238037,-0.3700830638408661,7.702605247497559,3
843,-56.8742790222168,-20.94298553466797,-0.1652006357908249,3.2011051177978516,-1.0236471891403198,7.688359260559082,3
844,-63.088409423828125,-11.520293235778809,5.154743194580078,3.4270706176757812,-1.7416021823883057,7.719574928283691,3
845,-61.833946228027344,2.857595205307007,12.14620590209961,3.1625277996063232,-2.227811098098755,7.758917808532715,3
846,-49.323612213134766,10.0276517868042,17.92142677307129,2.92431640625,-2.762864589691162,7.8757781982421875,3
847,-32.89321517944336,15.838863372802734,20.764564514160156,2.8891117572784424,-3.437770366668701,8.113619804382324,3
848,-25.895048141479492,21.192312240600586,20.161468505859375,2.7492966651916504,-3.5357842445373535,8.236838340759277,3
849,-28.57640266418457,14.418100357055664,19.824098587036133,2.538778305053711,-3.8634932041168213,8.447785377502441,3
850,-29.92916488647461,-3.938143253326416,18.579914093017578,2.3838632106781006,-4.246359348297119,8.666205406188965,3
851,-19.30811882019043,-20.020965576171875,20.24223518371582,2.6392414569854736,-4.5759406089782715,8.839120864868164,3
852,-9.071228981018066,-23.815732955932617,21.804866790771484,2.7943620681762695,-4.727511882781982,9.06598949432373,3
853,-0.5349113345146179,-18.12270736694336,24.6074161529541,3.122864246368408,-4.804541110992432,9.258339881896973,3
854,13.684379577636719,-14.999403953552246,27.188140869140625,3.3598482608795166,-4.710921287536621,9.457197189331055,3
855,27.646766662597656,-2.9747555255889893,28.905258178710938,3.030636787414551,-4.536108493804932,9.90662956237793,3
856,52.1493034362793,7.825326442718506,31.14796257019043,3.1672189235687256,-4.008602142333984,10.026078224182129,3
857,65.5853500366211,29.970003128051758,34.02724838256836,2.9078304767608643,-3.5012118816375732,10.406970024108887,3
858,73.0726089477539,53.63699722290039,34.323307037353516,2.4387595653533936,-2.4648594856262207,10.582220077514648,3
859,72.11349487304688,67.82048034667969,32.13481140136719,1.5974085330963135,-2.355351209640503,11.367069244384766,3
860,68.49950408935547,74.03469848632812,29.506389617919922,0.9160892367362976,-1.4389758110046387,11.5205659866333,3
861,63.49168395996094,64.51847076416016,27.6037654876709,0.14132177829742432,-0.8982425332069397,11.903067588806152,3
862,52.36442947387695,54.38555908203125,25.04240608215332,-0.6346520185470581,-0.2289741337299347,12.209486961364746,3
863,40.70669937133789,40.380924224853516,23.68690299987793,-1.2111402750015259,-0.044933632016181946,12.622032165527344,3
864,26.887943267822266,24.327682495117188,21.072486877441406,-1.612518310546875,0.560002863407135,12.778999328613281,3
865,14.846436500549316,4.580931186676025,19.674074172973633,-1.6585688591003418,0.695153534412384,12.959447860717773,3
866,4.313444137573242,-14.56555461883545,15.757928848266602,-1.5945936441421509,0.5087875127792358,13.213515281677246,3
867,-9.091429710388184,-33.89677047729492,11.355405807495117,-1.234203815460205,0.44003137946128845,13.316642761230469,3
868,-23.95623207092285,-47.889892578125,10.6360502243042,-0.8719208240509033,0.3893953859806061,13.416597366333008,3
869,-34.7143440246582,-51.49516296386719,14.453544616699219,0.010558509267866611,0.02227936126291752,13.450882911682129,3
870,-37.21261215209961,-48.13719940185547,16.37775230407715,0.2237120419740677,-0.5288859009742737,13.686924934387207,3
871,-25.10743522644043,-37.560081481933594,12.95809555053711,0.8237912654876709,-0.8847332000732422,13.825786590576172,3
872,-19.322978973388672,-24.545970916748047,4.324461460113525,0.5190545916557312,-0.9988958835601807,14.03048324584961,3
873,-17.7363338470459,-16.737884521484375,-6.1368536949157715,1.008673906326294,-1.2344056367874146,14.025955200195312,3
874,-19.830867767333984,-4.380506992340088,-16.68999481201172,1.0268052816390991,-1.388566017150879,13.958739280700684,3
875,-17.131847381591797,3.503863573074341,-25.503355026245117,1.2489736080169678,-1.4695581197738647,13.738382339477539,3
876,-7.785728454589844,18.08737564086914,-32.600215911865234,1.2894046306610107,-1.6608800888061523,13.454488754272461,3
877,7.896251678466797,27.98134994506836,-41.96028137207031,0.8571701645851135,-1.6695451736450195,13.13196849822998,3
878,19.737510681152344,30.38091278076172,-50.17499923706055,0.5369802713394165,-1.418397068977356,12.669795989990234,3
879,28.846590042114258,29.39790916442871,-57.483543395996094,0.33144527673721313,-1.2091755867004395,12.136454582214355,3
880,40.917991638183594,23.059743881225586,-67.29447937011719,0.012139417231082916,-0.6127185821533203,11.500885963439941,3
881,51.07667541503906,7.901090145111084,-71.8147964477539,-0.2697087228298187,-0.13911092281341553,10.821319580078125,3
882,33.27500915527344,0.43429088592529297,-73.0157470703125,-0.1616232842206955,0.43177932500839233,10.068016052246094,3
883,13.964249610900879,-9.998650550842285,-74.10903930664062,0.06324728578329086,1.058684229850769,9.283805847167969,3
884,1.9954180717468262,-24.62223243713379,-76.26768493652344,0.3439676761627197,-0.067753367125988,8.635591506958008,3
885,-4.710617542266846,-32.752864837646484,-77.927490234375,0.7947194576263428,0.08337832987308502,7.852158546447754,3
886,-0.7125768065452576,-36.07010269165039,-79.99378204345703,1.1324037313461304,0.06540603190660477,7.068652153015137,3
887,7.852736473083496,-32.77771759033203,-79.91332244873047,1.734761118888855,0.11739453673362732,6.259490489959717,3
888,19.556867599487305,-23.407411575317383,-80.62920379638672,2.024332046508789,0.26322585344314575,5.456480026245117,3
889,17.53322982788086,-0.8029581308364868,-78.4996109008789,2.4329593181610107,0.7176976203918457,4.619778633117676,3
890,19.08573341369629,19.665626525878906,-74.35809326171875,1.97589910030365,0.9990289807319641,3.8131446838378906,3
891,20.947633743286133,30.527286529541016,-70.4747085571289,1.6793113946914673,1.3557826280593872,3.051206588745117,3
892,17.208845138549805,40.733402252197266,-66.29124450683594,1.1990255117416382,1.4930658340454102,2.3623924255371094,3
893,8.550570487976074,49.89329147338867,-60.52840042114258,0.6910797357559204,1.8487937450408936,1.6809494495391846,3
894,5.737232685089111,42.38302993774414,-56.146183013916016,0.07466522604227066,1.752677083015442,1.116944670677185,3
895,6.588377952575684,23.096057891845703,-52.76748275756836,-0.45370617508888245,1.7768505811691284,0.5578377842903137,3
896,14.779672622680664,-5.6527509689331055,-47.79172134399414,-0.6470228433609009,2.1454615592956543,0.006396436598151922,3
897,21.54486083984375,-27.079484939575195,-44.983890533447266,-0.37190473079681396,2.4638187885284424,-0.4443250596523285,3
898,22.925521850585938,-31.662952423095703,-42.65854263305664,0.2458440065383911,2.3949100971221924,-0.7824491262435913,3
899,24.22480010986328,-20.563762664794922,-39.1181640625,0.4750363230705261,2.5468430519104004,-1.2258256673812866,3
900,14.304645538330078,-11.182659149169922,-33.607688903808594,0.8431798815727234,2.923567295074463,-1.5680568218231201,3
901,-8.833670616149902,-4.036725997924805,-25.189315795898438,0.8738654255867004,3.077380657196045,-1.9101711511611938,3
902,-31.388427734375,-2.748044490814209,-16.79442024230957,0.8743341565132141,2.659095048904419,-2.1368556022644043,3
903,-41.62740707397461,-5.937790870666504,-11.281893730163574,0.9425711631774902,2.282773971557617,-2.2731411457061768,3
904,-38.50578308105469,-14.363778114318848,-6.655313014984131,1.0790756940841675,1.640099287033081,-2.331897020339966,3
905,-28.414899826049805,-22.416946411132812,-1.2608250379562378,1.2274103164672852,1.2470407485961914,-2.395935535430908,3
906,-12.675527572631836,-14.44321060180664,4.319634437561035,1.1608967781066895,0.966398298740387,-2.5271973609924316,3
907,5.128294944763184,3.2553160190582275,10.881543159484863,1.254636526107788,0.8758974075317383,-2.4765238761901855,3
908,27.51089096069336,21.079235076904297,14.99600887298584,1.2046115398406982,1.1609876155853271,-2.3659141063690186,3
909,43.846126556396484,40.42506790161133,17.869916915893555,0.8416468501091003,1.6668097972869873,-2.2622733116149902,3
910,42.991905212402344,59.376285552978516,18.370141983032227,0.38012436032295227,2.0704729557037354,-2.0655550956726074,3
911,30.292707443237305,64.22921752929688,16.22344398498535,-0.3574628531932831,2.5749382972717285,-1.9220930337905884,3
912,16.746082305908203,47.15896224975586,15.562256813049316,-1.0283147096633911,2.617776393890381,-1.747023344039917,3
913,11.819162368774414,16.224660873413086,15.02287769317627,-1.4253826141357422,2.7793190479278564,-1.5707985162734985,3
914,10.47797679901123,-14.78477954864502,13.670722007751465,-1.3000731468200684,2.867708206176758,-1.3255704641342163,3
915,15.738302230834961,-39.127803802490234,12.416396141052246,-0.9925442337989807,2.9464550018310547,-1.1577866077423096,3
916,25.991018295288086,-51.19180679321289,11.009666442871094,-0.38811126351356506,3.271697998046875,-0.9709051251411438,3
917,31.77616310119629,-48.13420486450195,10.520865440368652,0.2152145802974701,3.749459981918335,-0.8377336859703064,3
918,27.754362106323242,-33.60909652709961,10.159996032714844,0.8015012741088867,3.7532083988189697,-0.725248396396637,3
919,5.706793308258057,1.0117415189743042,6.736092567443848,0.9981799125671387,3.961925745010376,-0.6914713382720947,3
920,-11.50052261352539,34.76453399658203,4.41246223449707,0.9090019464492798,3.947852849960327,-0.6308135986328125,3
921,-32.33069610595703,56.21654510498047,4.908246994018555,0.2630951702594757,3.7092032432556152,-0.6920613050460815,3
922,-52.223777770996094,57.534698486328125,6.353273868560791,-0.4996325373649597,3.1272056102752686,-0.730427622795105,3
923,-67.60665893554688,49.845672607421875,9.2503023147583,-1.0817315578460693,2.4524927139282227,-0.6525930166244507,3
924,-69.69343566894531,33.15263366699219,11.03922176361084,-1.5782808065414429,1.566429615020752,-0.5787225365638733,3
925,-51.98044204711914,13.23735237121582,11.360554695129395,-1.63921058177948,1.087472915649414,-0.3006719648838043,3
926,-33.941627502441406,-17.500198364257812,9.566048622131348,-1.577998399734497,0.44663137197494507,-0.1356564611196518,3
927,-11.092853546142578,-41.761444091796875,7.253978729248047,-1.1731961965560913,0.2193889021873474,0.0577000193297863,3
928,3.7140984535217285,-45.037322998046875,5.8054518699646,-0.7172727584838867,0.47702065110206604,0.19418451189994812,3
929,17.916748046875,-24.50518226623535,5.398557186126709,-0.20606629550457,0.6088358163833618,0.303074449300766,3
930,12.30259895324707,5.802104949951172,1.7881301641464233,-0.007992561906576157,0.8922552466392517,0.37450721859931946,3
931,12.16495132446289,35.846832275390625,-0.9683776497840881,-0.17438183724880219,1.0294873714447021,0.3721550405025482,3
932,2.4631943702697754,57.419464111328125,-5.57513952255249,-0.8225753307342529,1.0397698879241943,0.253429651260376,3
933,-2.083747148513794,60.253700256347656,-7.357954502105713,-1.6987656354904175,1.0696476697921753,0.10958780348300934,3
934,-7.520289421081543,47.244178771972656,-7.66416072845459,-2.1581151485443115,0.9965670108795166,0.07743855565786362,3
935,-9.746438026428223,29.977622985839844,-7.736690998077393,-2.697202682495117,0.7699047923088074,-0.05971798300743103,3
936,1.4832216501235962,14.957829475402832,-7.326803684234619,-2.9307196140289307,0.6428790092468262,-0.13712908327579498,3
937,13.63022232055664,-0.29689621925354004,-7.492578506469727,-3.003981590270996,0.7685379385948181,-0.16964532434940338,3
938,24.924654006958008,-18.097341537475586,-4.004286766052246,-2.8114748001098633,0.8833447694778442,-0.2169060856103897,3
939,27.041854858398438,-26.551372528076172,1.6415143013000488,-2.6394882202148438,1.3058544397354126,-0.19070863723754883,3
940,29.930315017700195,-21.230737686157227,6.5811309814453125,-2.1338982582092285,1.7662090063095093,-0.049247317016124725,3
941,25.73727035522461,-4.993026256561279,11.69250202178955,-2.147284746170044,2.159062623977661,0.021575048565864563,3
942,6.906667232513428,20.147598266601562,13.906190872192383,-2.063105344772339,2.5133707523345947,0.2147306650876999,3
943,-16.9036922454834,31.872026443481445,17.690574645996094,-2.527867078781128,1.8428477048873901,0.015995213761925697,3
944,-35.891780853271484,27.078428268432617,22.98002052307129,-3.0360329151153564,1.5239284038543701,0.11706753820180893,3
945,-43.20624542236328,12.194090843200684,24.5357723236084,-3.348985433578491,1.0719197988510132,0.2993606626987457,3
946,-39.330039978027344,-3.734940528869629,22.979846954345703,-3.2648744583129883,0.6839709281921387,0.599539577960968,3
947,-27.980693817138672,-20.12617301940918,20.48572540283203,-3.0600974559783936,0.06833270192146301,0.728507936000824,3
948,-11.076103210449219,-36.71238327026367,17.392372131347656,-2.7577450275421143,0.3472452163696289,1.2227944135665894,3
949,6.945851802825928,-43.33682632446289,13.128203392028809,-2.3438141345977783,0.18665660917758942,1.35193932056427,3
950,23.753440856933594,-47.27714538574219,8.283821105957031,-1.664854884147644,0.48973557353019714,1.619140625,3
951,29.10253143310547,-40.0240478515625,4.043097496032715,-1.1136101484298706,0.88660728931427,1.7812174558639526,3
952,13.58375072479248,-30.573707580566406,-0.036160632967948914,-1.1571358442306519,1.0706586837768555,1.710371971130371,3
953,-4.341281890869141,-18.425189971923828,-4.082294940948486,-0.6453008651733398,1.0841529369354248,1.6761428117752075,3
954,-24.303565979003906,-6.750513076782227,-7.377837657928467,-0.3544663190841675,0.9575506448745728,1.6115601062774658,3
955,-46.36406326293945,0.8719431161880493,-9.748136520385742,-0.6294078230857849,0.5516082048416138,1.4412626028060913,3
956,-60.85603713989258,6.4485626220703125,-8.09170150756836,-0.7738915681838989,0.0450257733464241,1.3201651573181152,3
957,-63.42826843261719,7.852180480957031,-5.593572616577148,-0.7704073190689087,-0.5599847435951233,1.256312370300293,3
958,-53.209468841552734,9.967191696166992,-0.6312167644500732,-0.8744499683380127,-1.3744075298309326,1.1312319040298462,3
959,-35.515560150146484,12.024125099182129,6.759783744812012,-1.0796738862991333,-1.668001413345337,1.2052534818649292,3
960,-19.499446868896484,11.86194896697998,6.440390586853027,-1.226436972618103,-2.014996290206909,1.261887788772583,3
961,-2.3991506099700928,7.233458042144775,2.4284799098968506,-1.2892619371414185,-2.2835676670074463,1.2740342617034912,3
962,12.83903980255127,0.6748794913291931,-1.4185365438461304,-1.3378853797912598,-2.1090176105499268,1.3373641967773438,3
963,26.111583709716797,-7.356099605560303,-4.449391841888428,-1.354207158088684,-1.859465479850769,1.3477190732955933,3
964,46.517578125,-15.330278396606445,-5.702269554138184,-1.1394224166870117,-1.4319517612457275,1.3177144527435303,3
965,58.423885345458984,-22.82602310180664,-7.043233394622803,-0.7419060468673706,-0.7837822437286377,1.266613483428955,3
966,68.95947265625,-24.226829528808594,-9.503936767578125,-0.5406355857849121,-0.13802018761634827,1.204744815826416,3
967,68.91284942626953,-21.02815818786621,-11.058196067810059,-0.4987308979034424,0.6911405324935913,1.182539463043213,3
968,61.77910614013672,-14.408536911010742,-11.684154510498047,-0.2757045030593872,1.4023677110671997,1.068575382232666,3
969,39.365840911865234,-8.2110013961792,-12.534821510314941,-0.09397558122873306,2.030973196029663,0.9448819160461426,3
970,10.895968437194824,-10.251638412475586,-13.12728214263916,-0.1451549381017685,2.176016330718994,0.803005576133728,3
971,-13.471991539001465,-9.932622909545898,-12.200525283813477,0.0023735244758427143,2.178049325942993,0.6516987681388855,3
972,-29.191316604614258,-8.536439895629883,-10.398357391357422,-0.018119916319847107,1.8533998727798462,0.5241819620132446,3
973,-32.87368392944336,-10.256254196166992,-9.722197532653809,0.2624662518501282,1.4729968309402466,0.3916972279548645,3
974,-27.10385513305664,-7.837459564208984,-8.682692527770996,0.3202486038208008,1.2215676307678223,0.30428946018218994,3
975,-22.416616439819336,-10.291104316711426,-7.419242858886719,0.42448362708091736,0.8789185285568237,0.20403479039669037,3
976,-15.465387344360352,-17.160888671875,-8.402838706970215,0.35310688614845276,0.7293007969856262,0.12920156121253967,3
977,-3.097226858139038,-28.11272430419922,-7.1926188468933105,0.598435640335083,0.726100742816925,0.05094516649842262,3
978,7.16184663772583,-34.66869354248047,-7.185847282409668,1.1574242115020752,0.6914946436882019,-0.028665952384471893,3
979,11.545207023620605,-32.13541030883789,-6.950973987579346,1.4687951803207397,0.8028272390365601,-0.10592106729745865,3
980,6.563570499420166,-22.675540924072266,-6.826265335083008,1.6309529542922974,0.9464481472969055,-0.17818917334079742,3
981,-1.41859769821167,-14.172090530395508,-8.611414909362793,1.7780731916427612,1.142961859703064,-0.2643755078315735,3
982,-0.03657975792884827,-14.392481803894043,-11.046213150024414,2.1288838386535645,1.0639283657073975,-0.35759004950523376,3
