,gyro.x,gyro.y,gyro.z,stabilizer.pitch,stabilizer.roll,stabilizer.yaw,label
0,0.014736142009496689,-0.038445308804512024,0.05416012555360794,-0.13406994938850403,0.22844961285591125,-0.012273942120373249,3
1,0.13186125457286835,-0.03967149555683136,0.03330986201763153,0.2070539891719818,0.24375863373279572,-0.007544100284576416,3
2,-0.013350693508982658,-0.019596844911575317,0.006198052782565355,0.03966434299945831,0.12335424870252609,-0.009909828193485737,3
3,-0.0016211289912462234,-0.09692570567131042,-0.04510647431015968,-0.0783863514661789,0.17103715240955353,-0.010751036927103996,3
4,-0.03950032219290733,-0.060864392668008804,0.02277246117591858,0.2214096337556839,0.2065097838640213,-0.00810534879565239,3
5,0.10311968624591827,0.14185936748981476,0.008171338587999344,-0.06831460446119308,0.23481377959251404,-0.009576080366969109,3
6,0.04158997908234596,-0.08109508454799652,-0.0136128980666399,0.20825578272342682,0.2583317160606384,-0.0073980665765702724,3
7,0.12514370679855347,-0.07136254757642746,-0.09135154634714127,0.048799507319927216,0.2747056782245636,-0.008698659017682076,3
8,-0.08541422337293625,-0.0033862299751490355,-0.02650114707648754,0.1649354100227356,0.2877170741558075,-0.007992656901478767,3
9,-0.07633356004953384,-0.11273723095655441,0.03213869035243988,0.021945737302303314,0.2966035306453705,-0.009828547947108746,3
10,0.057753585278987885,-0.03137477487325668,0.018929848447442055,0.13726584613323212,0.4117310643196106,-0.007500115316361189,3
11,-0.01497674360871315,-0.061004601418972015,0.06481022387742996,0.10927265882492065,0.38841480016708374,-0.007677831687033176,3
12,0.016405455768108368,0.04198072850704193,-0.004275664687156677,-0.016306815668940544,0.3712175488471985,-0.009911304339766502,3
13,0.046292196959257126,-0.04902580752968788,-0.03621072694659233,-0.1065380647778511,0.2583128809928894,-0.012545580044388771,3
14,0.091194748878479,-0.052311528474092484,0.03303610533475876,-0.06896019726991653,0.38202229142189026,-0.009718053974211216,3
15,-0.03623843938112259,0.007997236214578152,-0.07217978686094284,-0.041954368352890015,0.3707098364830017,-0.009449965320527554,3
16,-0.08723022788763046,-0.04467722773551941,0.0428377166390419,-0.02471708320081234,0.26466765999794006,-0.011277792043983936,3
17,0.04816177859902382,0.04669823870062828,0.032122671604156494,-0.013156594708561897,0.2856016159057617,-0.010906127281486988,3
18,-0.12263602018356323,0.13339802622795105,0.04503899812698364,-0.005932959262281656,0.3022192716598511,-0.009981631301343441,3
19,0.0554574653506279,0.04293908178806305,-0.009016511961817741,-0.0025958437472581863,0.31352436542510986,-0.008936608210206032,3
20,-0.04295079782605171,0.08928487449884415,0.10943104326725006,0.1854931265115738,0.3223494589328766,-0.006389259826391935,3
21,-0.06106632575392723,-0.05407663807272911,0.007547205314040184,-0.05299335718154907,0.4223148822784424,-0.007590003311634064,3
22,0.040558379143476486,0.05209580808877945,-0.09591877460479736,0.14727972447872162,0.40110236406326294,-0.0048956540413200855,3
23,-0.13375714421272278,0.12498728930950165,-0.022440800443291664,0.010749537497758865,0.2931114435195923,-0.008241799660027027,3
24,0.17200009524822235,-0.21138082444667816,-0.01564139313995838,0.09634799510240555,0.30684494972229004,-0.0071423789486289024,3
25,-0.07170066237449646,0.0440475232899189,0.12133942544460297,0.06680678576231003,0.3201773762702942,-0.007655693683773279,3
26,0.06727207452058792,-0.08633485436439514,0.012088945135474205,-0.05198342725634575,0.32968631386756897,-0.008067270740866661,3
27,0.09011851251125336,-0.08133155107498169,-0.06312131881713867,-0.04675650969147682,0.3371925950050354,-0.008136176504194736,3
28,-0.14920152723789215,0.062422458082437515,0.07983944565057755,-0.2265268862247467,0.344287246465683,-0.01039124932140112,3
29,0.06389334797859192,-0.0438896007835865,0.007772248703986406,-0.08552438765764236,0.3482118248939514,-0.00816531665623188,3
30,-0.09620353579521179,0.10317962616682053,0.031129153445363045,0.1074163168668747,0.352370947599411,-0.005820135120302439,3
31,0.21514767408370972,-0.15211184322834015,-0.07361506670713425,-0.11404052376747131,0.35404303669929504,-0.007821673527359962,3
32,-0.08626744151115417,-0.08463462442159653,0.17190034687519073,0.17248022556304932,0.4486340284347534,-0.0031618804205209017,3
33,-0.0015422824071720243,-0.006118515972048044,-0.088121697306633,-0.06317215412855148,0.4272157847881317,-0.0052930014207959175,3
34,0.07933538407087326,-0.03778250142931938,0.04422544687986374,-0.06128159537911415,0.4115035831928253,-0.00621832674369216,3
35,-0.037573572248220444,-0.019995637238025665,0.07733841985464096,-0.14774741232395172,0.40081143379211426,-0.007433994207531214,3
36,-0.07321333885192871,0.08760879188776016,-0.0508505217730999,0.052475254982709885,0.39224451780319214,-0.0041769216768443584,3
37,-0.09754666686058044,-0.03800012543797493,0.09717220067977905,-0.06165273115038872,0.38613972067832947,-0.00601569376885891,3
38,0.09629873186349869,-0.08889935910701752,-0.07955553382635117,0.11170082539319992,0.3805816173553467,-0.002951237838715315,3
39,0.006771566346287727,0.07130017876625061,-0.12651529908180237,0.0700753778219223,0.37857064604759216,-0.004787988029420376,3
40,0.028566379100084305,-0.015371298417448997,-0.04187638685107231,-0.2097083330154419,0.3777633607387543,-0.00933134090155363,3
41,0.07767827063798904,-0.09268703311681747,-0.12494334578514099,-0.00393739202991128,0.3770667612552643,-0.006443655118346214,3
42,-0.07982761412858963,0.10344786942005157,0.12549275159835815,-0.014335592277348042,0.3781384229660034,-0.007715042680501938,3
43,0.17357856035232544,-0.18832987546920776,-0.040160614997148514,-0.0247635617852211,0.2974672019481659,-0.008337383158504963,3
44,0.1470499187707901,-0.028416356071829796,-0.018625786527991295,-0.19044415652751923,0.32042935490608215,-0.011045888997614384,3
45,-0.18164905905723572,0.060992270708084106,0.062326014041900635,0.0876787081360817,0.4191522002220154,-0.005668580066412687,3
46,0.005963656585663557,0.007401837036013603,-0.12725330889225006,0.05226313695311546,0.4097764492034912,-0.006845328025519848,3
47,0.038676001131534576,-0.08138354122638702,-0.020414551720023155,-0.13524885475635529,0.40348246693611145,-0.009857041761279106,3
48,-0.15042489767074585,0.16395063698291779,0.14028188586235046,-0.11349880695343018,0.3999245762825012,-0.009233674965798855,3
49,0.24876323342323303,-0.18186074495315552,-0.1370687037706375,-0.022273505106568336,0.31767529249191284,-0.00938431452959776,3
50,-0.1630145013332367,0.25183841586112976,0.09585041552782059,-0.18826258182525635,0.4168446660041809,-0.010018365457654,3
51,0.15052402019500732,-0.18097223341464996,0.03919702768325806,0.07504039257764816,0.40969187021255493,-0.007057630456984043,3
52,0.24098606407642365,-0.0834609866142273,-0.015235585160553455,-0.1100127100944519,0.4061405658721924,-0.010020029731094837,3
53,-0.029198991134762764,0.018693463876843452,0.07291412353515625,-0.1690220832824707,0.4049631357192993,-0.009663271717727184,3
54,0.13410340249538422,0.03437548875808716,-0.16536957025527954,-0.13912074267864227,0.4021989107131958,-0.00914846546947956,3
55,-0.1045885980129242,0.0765228196978569,0.0654045045375824,0.0288326945155859,0.40096309781074524,-0.007601937744766474,3
56,0.0868590772151947,-0.0339650921523571,-0.01258876733481884,-0.06794214248657227,0.3987809121608734,-0.00852914247661829,3
57,-0.07248403131961823,-0.040663961321115494,-0.04051146283745766,-0.0684560090303421,0.3991878628730774,-0.009475862607359886,3
58,0.07000909000635147,0.019710607826709747,0.1142195537686348,-0.13908199965953827,0.32491418719291687,-0.011164874769747257,3
59,0.13257627189159393,-0.06135127320885658,-0.01010190136730671,-0.11917827278375626,0.4157068133354187,-0.009127628058195114,3
60,0.04248955845832825,0.009342213161289692,-0.05638520419597626,0.11047463864088058,0.4118800461292267,-0.006646644789725542,3
61,-0.019925324246287346,0.1913144737482071,0.053296901285648346,0.06362485140562057,0.4083300232887268,-0.006978973280638456,3
62,0.02401961199939251,-0.15982986986637115,-0.07306111603975296,-0.11708827316761017,0.40545758605003357,-0.009508012793958187,3
63,0.033391326665878296,-0.0739351212978363,-0.01177779771387577,-0.10512246191501617,0.4027654528617859,-0.00921481940895319,3
64,-0.0035010415595024824,-0.014659903943538666,-0.08129406720399857,-0.02467367984354496,0.40126413106918335,-0.00878982339054346,3
65,0.04621034488081932,-0.041013140231370926,0.014043726027011871,-0.10958452522754669,0.400642454624176,-0.010750479996204376,3
66,-0.030789155513048172,-0.05568458139896393,-0.03540131449699402,-0.1722307801246643,0.39975234866142273,-0.010899352841079235,3
67,0.04802687466144562,-0.06956897675991058,0.07980570942163467,0.06557571887969971,0.39857906103134155,-0.009161511436104774,3
68,-0.000170804574736394,0.024130605161190033,0.07969070225954056,0.02671702578663826,0.39880019426345825,-0.008681071922183037,3
69,-0.06925094127655029,0.025002731010317802,0.02226700447499752,-0.003477690741419792,0.39911043643951416,-0.008443639613687992,3
70,0.05604568123817444,-0.09283150732517242,0.004386029671877623,-0.16637809574604034,0.3290390968322754,-0.010235391557216644,3
71,-0.18269003927707672,0.15207110345363617,0.1330975741147995,-0.1449122279882431,0.3486812114715576,-0.00892200693488121,3
72,0.16299906373023987,0.009741699323058128,0.006480707321316004,-0.061973150819540024,0.36190634965896606,-0.007897607050836086,3
73,-0.048595160245895386,-0.02595173753798008,0.027112189680337906,-0.07023032009601593,0.37440481781959534,-0.007801960688084364,3
74,-0.17298763990402222,0.029044562950730324,-0.18459035456180573,-0.14458167552947998,0.3813275992870331,-0.007515891455113888,3
75,0.1277507245540619,-0.15681631863117218,0.05913230776786804,-0.12957710027694702,0.3858022093772888,-0.008165908046066761,3
76,-0.13777711987495422,0.13607729971408844,-0.11571567505598068,-0.25287628173828125,0.39136743545532227,-0.009394289925694466,3
77,0.15680401027202606,-0.23782216012477875,0.1672704964876175,-0.005288881249725819,0.3933869004249573,-0.008587951771914959,3
78,-0.0968472883105278,0.04525010660290718,0.020330218598246574,-0.026533450931310654,0.4642123878002167,-0.006074218545109034,3
79,-0.013822647742927074,0.0036823938135057688,-0.04389240965247154,-0.043545570224523544,0.4460708200931549,-0.00692860409617424,3
80,0.03767549246549606,-0.09703651070594788,0.009614316746592522,-0.19021330773830414,0.433419793844223,-0.008148012682795525,3
81,-0.08439537137746811,0.2574493885040283,0.06998875737190247,-0.025262413546442986,0.35632577538490295,-0.008594239130616188,3
82,-0.05857570841908455,0.08847733587026596,0.014767352491617203,-0.0447496697306633,0.4353363811969757,-0.007409871090203524,3
83,0.1987549513578415,-0.017580201849341393,-0.037113089114427567,-0.05784614384174347,0.4246463179588318,-0.007167460862547159,3
84,-0.06071091815829277,0.040047790855169296,0.00816836766898632,-0.06656577438116074,0.4193122982978821,-0.007774523925036192,3
85,0.0228036530315876,0.0025076824240386486,0.06847973167896271,-0.1419757455587387,0.4144882559776306,-0.008479591459035873,3
86,0.03701028227806091,0.030427111312747,-0.1840696930885315,-0.1276579201221466,0.41066494584083557,-0.008350254036486149,3
87,-0.044785864651203156,0.11001402884721756,0.041229989379644394,0.0,0.0,0.0,3
88,0.06274959444999695,-0.08327037841081619,-0.03866518661379814,0.28355398774147034,0.0025330239441245794,-1.2461763617466204e-05,3
89,-0.18734268844127655,-0.07754719257354736,0.0015487544005736709,4.567770481109619,-0.062319837510585785,0.0025792818050831556,3
90,-0.004145507235080004,0.01249977108091116,0.06970527768135071,1.8828094005584717,0.06952497363090515,-0.003229960799217224,3
91,0.06627409905195236,-0.060171760618686676,-0.019440162926912308,-1.8545794486999512,0.18141964077949524,-0.0019001037580892444,3
92,0.08990015834569931,-0.0099135497584939,-0.059433095157146454,-5.516744136810303,0.3214823603630066,0.007655506953597069,3
93,0.11747603863477707,-0.024394603446125984,0.007316763512790203,-6.893948078155518,0.39635711908340454,0.014813855290412903,3
94,0.045769307762384415,0.0050198170356452465,-0.07557445019483566,-7.482090950012207,0.4255698025226593,0.017962930724024773,3
95,-0.005600294563919306,-0.06257158517837524,-0.03923475742340088,-6.824832916259766,0.44525399804115295,0.019085286185145378,3
96,-0.1690397411584854,0.056317251175642014,-0.11452308297157288,-7.411031246185303,0.46268463134765625,0.021338174119591713,3
97,0.10286823660135269,-0.20649497210979462,0.030643299221992493,-7.131735801696777,0.46305137872695923,0.0208688173443079,3
98,-0.012213347479701042,-0.03832266479730606,-0.0843086764216423,-6.735520839691162,0.46453857421875,0.02168601006269455,3
99,-0.02245435118675232,-0.07060536742210388,0.045659903436899185,-5.772715091705322,0.46616891026496887,0.02279333770275116,3
100,0.08144983649253845,-0.09256237000226974,-0.03833980858325958,-5.447350025177002,0.46454137563705444,0.023278091102838516,3
101,-0.04095718637108803,0.04136693850159645,-0.05661983788013458,-5.460880279541016,0.4671884775161743,0.022985132411122322,3
102,-0.027973314747214317,0.04434482380747795,0.0002269352407893166,-4.615588665008545,0.4608900845050812,0.02341894432902336,3
103,-0.0945834219455719,0.024723833426833153,0.022934189066290855,-4.34541654586792,0.45922133326530457,0.024119731038808823,3
104,0.0714498832821846,-0.13099907338619232,0.033177055418491364,-3.802873134613037,0.4582754075527191,0.02564212679862976,3
105,-0.18352292478084564,0.07752413302659988,-0.024840261787176132,-3.629547357559204,0.45881035923957825,0.026145711541175842,3
106,0.1612563282251358,-0.10998079180717468,0.040506068617105484,-4.4591569900512695,0.7012243866920471,0.04181870445609093,3
107,0.055409982800483704,-0.05556286871433258,-0.06598877161741257,-3.7808544635772705,0.39814525842666626,0.02370794303715229,3
108,-0.04098876193165779,0.06931933760643005,0.14173315465450287,-3.479379177093506,0.41543081402778625,0.025282438844442368,3
109,0.03600931540131569,-0.07621770352125168,-0.07096002250909805,-3.2103629112243652,0.42264485359191895,0.02711367979645729,3
110,0.02004004456102848,0.023160358890891075,-0.02073225937783718,-2.5988566875457764,0.42887213826179504,0.028110696002840996,3
111,-0.04667861387133598,-0.004760008305311203,0.1699291169643402,-2.7219743728637695,0.43495967984199524,0.027996886521577835,3
112,0.03503817692399025,0.04184926301240921,-0.09021332859992981,-2.592357873916626,0.2610161304473877,0.029626723378896713,3
113,-0.027908554300665855,0.05401730164885521,0.005831529386341572,-2.130688428878784,0.3139887750148773,0.028725579380989075,3
114,-0.011489174328744411,0.062381912022829056,0.03588331118226051,-2.4510159492492676,0.3523412346839905,0.02812880277633667,3
115,-0.034842126071453094,-0.04568290710449219,-0.17423677444458008,-2.1686253547668457,0.3784155249595642,0.026601312682032585,3
116,0.06616685539484024,-0.17192532122135162,0.12338694930076599,-2.098667621612549,0.3974144160747528,0.024074681103229523,3
117,0.1767445057630539,0.07346922159194946,-0.15649759769439697,-2.3253331184387207,0.4145995080471039,0.02403280884027481,3
118,-0.04849351570010185,-0.02840605564415455,0.14817826449871063,-2.1776840686798096,0.42651891708374023,0.022186771035194397,3
119,-0.04493585228919983,0.16225025057792664,-0.11994244903326035,-2.0508840084075928,0.43304720520973206,0.022186454385519028,3
120,0.10448028892278671,-0.30489611625671387,0.07585357874631882,-1.676092267036438,0.4349122941493988,0.020779846236109734,3
121,-0.04584718495607376,0.09636807441711426,-0.05861273780465126,-1.6518474817276,0.44029879570007324,0.020720502361655235,3
122,0.1044880598783493,-0.011306584812700748,0.0565355159342289,-1.6243778467178345,0.5702101588249207,0.00821751169860363,3
123,0.061515264213085175,-0.07221128791570663,-0.07547276467084885,-1.7157644033432007,0.5377600193023682,0.011506556533277035,3
124,-0.13607171177864075,0.1617790013551712,-0.02050403133034706,-1.8823654651641846,0.5153580904006958,0.012653443962335587,3
125,0.12877845764160156,-0.08455042541027069,0.06026642397046089,-1.403172254562378,0.37712717056274414,0.02882169932126999,3
126,0.0025306211318820715,0.11576449126005173,0.054189685732126236,-1.5105968713760376,0.3962650001049042,0.026790687814354897,3
127,-0.08850818127393723,0.02684810385107994,0.11073464900255203,-1.3477632999420166,0.5251940488815308,0.01290255319327116,3
128,0.19937542080879211,-0.1145954579114914,-0.019521106034517288,-1.557276725769043,0.5022637248039246,0.015845440328121185,3
129,0.00496535561978817,0.18271607160568237,0.1002277135848999,-1.2555028200149536,0.4903962314128876,0.018622612580657005,3
130,0.181691974401474,-0.20343367755413055,-0.11651313304901123,-1.1419425010681152,0.48036494851112366,0.020994288846850395,3
131,0.10507958382368088,-0.036118581891059875,-0.06672319769859314,-1.1550147533416748,0.3675389289855957,0.03555237501859665,3
132,-0.10433755815029144,0.03534699231386185,0.12547975778579712,-1.571805715560913,0.4956569969654083,0.01628582738339901,3
133,0.18657825887203217,-0.1512705236673355,-0.017327016219496727,-1.453198790550232,0.48243895173072815,0.019001374021172523,3
134,-0.09818343818187714,-0.021569788455963135,0.106521375477314,-1.3539109230041504,0.4731168746948242,0.0204173494130373,3
135,0.044121112674474716,0.07143441587686539,-0.014905725605785847,-0.9795436263084412,0.46447792649269104,0.02282906323671341,3
136,0.0031059307511895895,-0.11820048093795776,0.04941216856241226,-1.0016305446624756,0.4591311514377594,0.023372076451778412,3
137,-0.03348946571350098,0.17429719865322113,-0.08178185671567917,-1.006350040435791,0.4552024006843567,0.024028977379202843,3
138,0.13243885338306427,-0.08977951109409332,-0.030607854947447777,-1.099194049835205,0.4522891342639923,0.023763932287693024,3
139,-0.0014687366783618927,-0.06720253080129623,0.012445413507521152,-1.0662016868591309,0.4507680833339691,0.023649374023079872,3
140,-0.04553300142288208,-0.02810175158083439,0.044669415801763535,-0.944288969039917,0.44899195432662964,0.023922618478536606,3
141,0.044804465025663376,-0.1069578006863594,0.016619233414530754,-1.032594084739685,0.4449198842048645,0.024053694680333138,3
142,0.026019200682640076,0.07202204316854477,0.04321328550577164,-1.0896356105804443,0.35386601090431213,0.03724770247936249,3
143,0.003258571494370699,-0.03585144504904747,-0.08768603950738907,-0.8585031628608704,0.37718966603279114,0.03387770056724548,3
144,0.01988825388252735,-0.02070503868162632,0.022198110818862915,-0.7727903127670288,0.48153242468833923,0.016836948692798615,3
145,-0.05884050950407982,0.013988629914820194,0.018943175673484802,-1.0589271783828735,0.47096601128578186,0.019323967397212982,3
146,-0.012267092242836952,-0.0542224682867527,-0.009384115226566792,-0.823540449142456,0.4617784321308136,0.020779725164175034,3
147,-0.13725706934928894,-0.016487352550029755,-0.07970341295003891,-0.8200932741165161,0.4537602961063385,0.021796489134430885,3
148,0.04815450683236122,-0.13352620601654053,-0.0017668473301455379,-0.8137201070785522,0.3607175350189209,0.03526937589049339,3
149,0.01391261164098978,0.02740110270678997,0.01186823844909668,-0.802590548992157,0.38236209750175476,0.03174338489770889,3
150,-0.06867770105600357,0.07110082358121872,0.10630662739276886,-0.7929916977882385,0.48448342084884644,0.016203930601477623,3
151,0.1480589658021927,-0.09891544282436371,-0.14019300043582916,-0.9544533491134644,0.38480597734451294,0.032049939036369324,3
152,-0.026091065257787704,0.08197793364524841,0.02700740471482277,-0.7243692278862,0.40018561482429504,0.028277112171053886,3
153,0.02340363711118698,-0.0034383737947791815,0.018115215003490448,-0.8076031804084778,0.4944385290145874,0.014111288823187351,3
154,-0.08692990243434906,0.025876246392726898,0.0069551351480185986,-0.6968232989311218,0.4800330400466919,0.01641928404569626,3
155,-0.02113449014723301,-0.02623620070517063,-0.016523852944374084,-0.6102430820465088,0.4696175158023834,0.018076198175549507,3
156,0.059845928102731705,-0.07594513893127441,-0.05144296586513519,-0.627001166343689,0.460048109292984,0.019374236464500427,3
157,-0.05709294602274895,-0.002830801298841834,0.05307311937212944,-0.6353935599327087,0.4555901885032654,0.019542062655091286,3
158,-0.07650845497846603,0.05737828463315964,-0.004008228424936533,-0.8798631429672241,0.37016165256500244,0.03257188946008682,3
159,0.036184363067150116,0.029323412105441093,0.003965717274695635,-0.8156472444534302,0.3856119215488434,0.029964474961161613,3
160,-0.04571180045604706,-0.07472408562898636,0.03901755437254906,-0.6059353947639465,0.4003751575946808,0.02714645303785801,3
161,0.07338880002498627,-0.10842161625623703,-0.034225378185510635,-0.6849116683006287,0.4094896614551544,0.026542987674474716,3
162,-0.055413421243429184,0.003885835176333785,0.038935206830501556,-0.6592671871185303,0.4172084629535675,0.024873260408639908,3
163,-0.18912982940673828,0.08337139338254929,0.005570411682128906,-0.4805034101009369,0.5014978647232056,0.012479678727686405,3
164,0.036777738481760025,-0.0005650727543979883,-0.06089133396744728,-0.5046003460884094,0.48390328884124756,0.014644776470959187,3
165,0.03487982228398323,-0.04405837878584862,0.07597377896308899,-0.5189931988716125,0.47189533710479736,0.01582980342209339,3
166,0.10061484575271606,-0.023488949984312057,-0.03660724312067032,-0.5272819399833679,0.4622761309146881,0.017842009663581848,3
167,-0.04943034052848816,-0.006841898895800114,0.01860886812210083,-0.7606192231178284,0.45697057247161865,0.01889944076538086,3
168,0.038740698248147964,0.01327485777437687,-0.07078920304775238,-0.4665713608264923,0.45085227489471436,0.01913287676870823,3
169,0.004537488799542189,-0.03307950496673584,0.018229898065328598,-0.4813818335533142,0.4461991786956787,0.01987416297197342,3
170,-0.017364636063575745,0.010138028301298618,0.07923070341348648,-0.488010972738266,0.44241753220558167,0.02039339393377304,3
171,0.05043836310505867,-0.0023353334981948137,-0.08621654659509659,-0.6405614018440247,0.4403388798236847,0.020619357004761696,3
172,0.04109044000506401,0.052493978291749954,-0.0073218136094510555,-0.7494728565216064,0.36384886503219604,0.030661500990390778,3
173,-0.08796749264001846,-0.07664590328931808,-0.15564711391925812,-0.4575463533401489,0.38380131125450134,0.025902755558490753,3
174,0.017148103564977646,-0.04894355684518814,-0.06007546931505203,-0.5348382592201233,0.3953496515750885,0.02351209707558155,3
175,-0.09624365717172623,-0.05264518782496452,0.13357357680797577,-0.5144808888435364,0.4795742928981781,0.012156153097748756,3
176,-0.06256193667650223,-0.12099318206310272,-0.0671684667468071,-0.42568111419677734,0.3941182792186737,0.024116497486829758,3
177,-0.04352540150284767,-0.1487051397562027,-0.03271164372563362,-0.4301077425479889,0.4040605127811432,0.021925196051597595,3
178,-0.06911280006170273,-0.15053726732730865,-0.09524689614772797,-0.4305276870727539,0.4098849892616272,0.020764125511050224,3
179,0.046629007905721664,-0.02724565379321575,0.016911549493670464,-0.4291181266307831,0.4089150130748749,0.019880663603544235,3
180,-0.03273708373308182,-0.12676061689853668,-0.07690709829330444,-0.6380314230918884,0.41480329632759094,0.020153408870100975,3
181,-0.07485347241163254,-0.11909261345863342,0.02629213221371174,-0.5771723985671997,0.4157657027244568,0.019065367057919502,3
182,-0.10737460106611252,0.10980507731437683,-0.02236935868859291,-0.2432815283536911,0.4186769723892212,0.01704748347401619,3
183,0.017919261008501053,0.05239252373576164,0.04480390250682831,-0.42716655135154724,0.4917985200881958,0.008893473073840141,3
184,0.0023720627650618553,-0.021063299849629402,0.07949135452508926,-0.34599804878234863,0.4747166335582733,0.011009318754076958,3
185,-0.053541090339422226,-0.004185062367469072,0.019532300531864166,-0.3561153709888458,0.38975536823272705,0.02223629504442215,3
186,0.0057898093946278095,-0.06418547034263611,0.04034040495753288,-0.36325764656066895,0.3971468508243561,0.021056029945611954,3
187,-0.18821778893470764,0.1207987368106842,-0.03409696742892265,-0.3658650815486908,0.4054325222969055,0.020088259130716324,3
188,0.11843252182006836,-0.10580667853355408,-0.08106398582458496,-0.4410305321216583,0.40924108028411865,0.018919365480542183,3
189,-0.015593782998621464,0.03547018766403198,-0.00823829136788845,-0.34926050901412964,0.4134688675403595,0.017457328736782074,3
190,-0.01999066397547722,0.007305462379008532,-0.10666129738092422,-0.4234621822834015,0.41810041666030884,0.01689952425658703,3
191,0.15515877306461334,-0.10609375685453415,-0.018125711008906364,-0.40678954124450684,0.4902641773223877,0.0073504070751369,3
192,-0.09500859677791595,0.03869010880589485,-0.025956492871046066,-0.31866732239723206,0.403643399477005,0.017052728682756424,3
193,0.0021654001902788877,-0.01619001105427742,-0.06740690767765045,-0.3982805907726288,0.4788469672203064,0.00766212260350585,3
194,0.05247398093342781,-0.09748980402946472,-0.11904290318489075,-0.3116917908191681,0.4634005129337311,0.008323919959366322,3
195,-0.09468499571084976,0.028360748663544655,0.08858994394540787,-0.3881130516529083,0.45429033041000366,0.009209674783051014,3
196,0.11214607208967209,-0.2237464040517807,-0.04158996790647507,-0.30277225375175476,0.44519296288490295,0.01034020446240902,3
197,0.00033864183933474123,0.11577095836400986,-0.023080844432115555,-0.3802899420261383,0.3690384030342102,0.01922852359712124,3
198,-0.05005945265293121,0.017981460317969322,0.034417442977428436,-0.43588536977767944,0.3848930895328522,0.01737435720860958,3
199,0.3198120892047882,-0.05501506105065346,-0.16374611854553223,-0.26746276021003723,0.3922472298145294,0.015801934525370598,3
200,-0.17884056270122528,0.19514764845371246,0.10281872749328613,-0.4200292229652405,0.4041810631752014,0.014693725854158401,3
201,0.08139460533857346,-0.07657490670681,-0.004537970293313265,-0.3929416835308075,0.40933263301849365,0.014334541745483875,3
202,-0.12337826937437057,0.10519822686910629,0.032607682049274445,-0.371369332075119,0.41263023018836975,0.014183714054524899,3
203,-0.1426038295030594,-0.0170147567987442,0.025584006682038307,-0.14190195500850677,0.41641369462013245,0.012638751417398453,3
204,0.13832682371139526,-0.19504044950008392,-0.08281072229146957,-0.46581438183784485,0.41621169447898865,0.014009924605488777,3
205,-0.22783039510250092,0.24775028228759766,0.03629679977893829,-0.20990288257598877,0.4892735779285431,0.004987598396837711,3
206,0.12271007895469666,-0.08118509501218796,0.06084996834397316,-0.23313163220882416,0.47112882137298584,0.007344628218561411,3
207,-0.0971173644065857,0.034414298832416534,-0.08792974799871445,-0.24846284091472626,0.4579175114631653,0.008789542131125927,3
208,-0.07146060466766357,-0.00505903922021389,-0.0462995246052742,-0.2579878568649292,0.44695863127708435,0.00887951347976923,3
209,0.01565910317003727,-0.01888936385512352,0.048417262732982635,-0.26315781474113464,0.3708326816558838,0.015927953645586967,3
210,-0.020498832687735558,-0.18840104341506958,0.02340071275830269,-0.2684471905231476,0.45316392183303833,0.007818873040378094,3
211,-0.16488690674304962,0.20651310682296753,0.21189220249652863,-0.3364322781562805,0.4410465359687805,0.010995167307555676,3
212,-0.1711672991514206,0.04640151560306549,0.49080538749694824,-0.2555195987224579,0.4258924126625061,0.012704914435744286,3
213,-2.0312304496765137,2.483342409133911,-0.9228906631469727,-0.4582330584526062,0.4180174171924591,0.015072240494191647,3
214,0.16361671686172485,-1.3536280393600464,-0.560815691947937,-0.4267669916152954,0.3264104127883911,0.021519072353839874,3
215,-1.75838041305542,0.5590721368789673,-1.7151962518692017,-0.19161748886108398,0.39662232995033264,0.015110103413462639,3
216,0.29042527079582214,-1.7746696472167969,0.2712630033493042,-0.3449757993221283,0.3855185806751251,0.01474914699792862,3
217,-0.442302405834198,3.3999247550964355,0.9178456664085388,-0.3384416699409485,0.3562236726284027,0.010214310139417648,3
218,-1.3551996946334839,2.1822316646575928,0.25671204924583435,-0.3255564272403717,0.27827760577201843,0.022618789225816727,3
219,1.479854702949524,-1.0354090929031372,-0.9091793894767761,-0.10978876054286957,0.26509639620780945,0.01664547435939312,3
220,-2.5875797271728516,0.017511282116174698,-4.173720836639404,-0.2586255669593811,0.11137187480926514,0.020896440371870995,3
221,-2.307922124862671,2.905228853225708,-0.786003828048706,-0.45987510681152344,0.10169953852891922,-0.011448564939200878,3
222,2.9954118728637695,-1.9889553785324097,-4.2898430824279785,-0.4082976281642914,0.1481088399887085,-0.03593679144978523,3
223,-1.8382166624069214,2.9357211589813232,-3.1474928855895996,-0.7117975354194641,0.11804455518722534,-0.07026563584804535,3
224,1.8876173496246338,-0.12215912342071533,-3.6367745399475098,-0.6428390145301819,-0.165305957198143,-0.09057671576738358,3
225,-5.79734992980957,5.490275859832764,-1.1528979539871216,-1.0630837678909302,-0.5023031234741211,-0.091744564473629,3
226,0.3739214539527893,1.906409502029419,5.551101207733154,-0.9848036170005798,-0.44131430983543396,-0.07308151572942734,3
227,6.058590412139893,-14.578084945678711,8.416956901550293,-1.673921823501587,-0.4047868549823761,0.04977928474545479,3
228,16.55914878845215,-13.07459831237793,9.063858985900879,-1.3486042022705078,-0.2440326064825058,0.12868542969226837,3
229,2.1576199531555176,4.801012992858887,8.34477424621582,-1.5520914793014526,-0.4025849997997284,0.2332553267478943,3
230,-5.639133453369141,3.7735230922698975,9.68466854095459,-2.0660223960876465,-1.1659905910491943,0.29914721846580505,3
231,-8.114309310913086,8.632465362548828,12.580572128295898,-2.071467399597168,-1.3166884183883667,0.38871240615844727,3
232,12.334257125854492,-12.071310043334961,13.170634269714355,-1.9543095827102661,-1.858390212059021,0.4226507246494293,3
233,-4.640219211578369,-9.48513126373291,11.23416519165039,-1.8322197198867798,-1.7939260005950928,0.5466768145561218,3
234,9.681549072265625,-20.181676864624023,8.361525535583496,-2.090543508529663,-2.3327653408050537,0.6547539830207825,3
235,5.676580429077148,-24.911802291870117,1.269971251487732,-1.9134082794189453,-2.238842487335205,0.7223572134971619,3
236,1.2600709199905396,-27.308610916137695,-1.5736356973648071,-1.6001980304718018,-2.992675304412842,0.5896207094192505,3
237,18.78019905090332,-46.07534408569336,-4.358161926269531,-0.9987255930900574,-3.0038936138153076,0.45808181166648865,3
238,34.04137420654297,-53.40406799316406,-1.9653292894363403,-0.9044458866119385,-3.530895709991455,0.5285329818725586,3
239,46.572792053222656,-49.41714096069336,1.4838171005249023,0.061913661658763885,-2.940535545349121,0.35739320516586304,3
240,74.71205139160156,-63.215614318847656,3.557572841644287,0.9244437217712402,-3.1494531631469727,0.3260815739631653,3
241,92.56330871582031,-71.23506164550781,4.173293113708496,1.42451810836792,-3.359901189804077,0.5675392746925354,3
242,116.23094177246094,-70.77031707763672,2.8428287506103516,2.588247537612915,-2.0164794921875,0.32375016808509827,3
243,140.2254638671875,-56.00922775268555,1.7467613220214844,2.8828375339508057,-1.7579874992370605,0.9116020202636719,3
244,154.404052734375,-36.91118240356445,-6.270940780639648,2.9281580448150635,-0.41696813702583313,0.7516188025474548,3
245,153.24267578125,-13.742124557495117,-7.809826374053955,1.2935374975204468,1.603933334350586,1.2486310005187988,3
246,133.3898162841797,-4.611800193786621,-12.515641212463379,2.1316375732421875,2.555027961730957,0.8787918090820312,3
247,106.275390625,-3.427421808242798,-9.098037719726562,2.7978851795196533,4.574099540710449,0.11053362488746643,3
248,68.33687591552734,-10.930744171142578,-6.810600757598877,4.0084547996521,5.788982391357422,-0.1560526043176651,3
249,57.7332763671875,-14.909643173217773,-4.21032190322876,4.90433406829834,7.881694793701172,-0.7889395356178284,3
250,41.73638153076172,-10.729217529296875,-0.9750530123710632,5.906345367431641,10.012970924377441,-1.3096816539764404,3
251,12.892657279968262,3.6859607696533203,7.439193248748779,6.204185962677002,12.100062370300293,-2.1186275482177734,3
252,-22.40717887878418,17.75121307373047,17.4156494140625,7.083651542663574,12.926017761230469,-1.6107549667358398,3
253,-63.23532485961914,33.497535705566406,20.578031539916992,6.616733074188232,12.269057273864746,-1.5330729484558105,3
254,-99.82400512695312,42.4776611328125,20.938243865966797,4.847208023071289,11.87570858001709,-3.3047876358032227,3
255,-124.62811279296875,42.48276138305664,25.26784896850586,4.751831531524658,11.051614761352539,-2.816004991531372,3
256,-152.13931274414062,36.88792037963867,21.43936538696289,4.228404521942139,9.75527286529541,-2.803192615509033,3
257,-156.8402862548828,33.12623977661133,17.24143409729004,4.222039699554443,9.107693672180176,-2.6810202598571777,3
258,-137.66526794433594,36.526824951171875,17.588306427001953,3.77407169342041,7.1105194091796875,-2.377439260482788,3
259,-108.5764389038086,44.82379150390625,18.251943588256836,3.4722330570220947,6.454703330993652,-2.4155776500701904,3
260,-79.96159362792969,59.78752899169922,21.45547866821289,2.7572591304779053,5.12274694442749,-2.2392964363098145,3
261,-59.01065444946289,70.50438690185547,19.578859329223633,2.4312241077423096,4.604659557342529,-1.7263858318328857,3
262,-42.67597579956055,73.37431335449219,13.878087997436523,1.6884777545928955,4.234447479248047,-1.615998387336731,3
263,-34.705257415771484,66.86141967773438,8.742466926574707,0.6985970139503479,3.304497718811035,-1.4460755586624146,3
264,-34.71907424926758,65.72713470458984,2.3278329372406006,0.20492853224277496,2.918832540512085,-1.2494004964828491,3
265,-37.095802307128906,61.123165130615234,-1.4787200689315796,-0.7855668067932129,2.158470392227173,-1.2938034534454346,3
266,-45.25831604003906,43.60224533081055,-1.55170738697052,-1.1357003450393677,1.868700623512268,-1.226012110710144,3
267,-51.43519592285156,22.282194137573242,-1.2523444890975952,-1.690795660018921,0.8416093587875366,-1.314536213874817,3
268,-51.048954010009766,-13.006834983825684,2.056861162185669,-1.6925104856491089,0.5247661471366882,-1.2848443984985352,3
269,-45.73076629638672,-35.635093688964844,2.259718656539917,-1.6306610107421875,-0.35953569412231445,-1.3395923376083374,3
270,-41.97969436645508,-47.34635925292969,3.108825206756592,-1.2553991079330444,-0.7736634612083435,-1.369112491607666,3
271,-27.267087936401367,-50.489078521728516,2.6700682640075684,-0.7749412655830383,-1.7061439752578735,-1.4938154220581055,3
272,-13.632240295410156,-38.872283935546875,2.419621229171753,-0.23265159130096436,-1.3015375137329102,-1.2662038803100586,3
273,7.876212120056152,-12.633035659790039,-0.014552267268300056,-0.0015062252059578896,-1.7698193788528442,-1.3283463716506958,3
274,27.056339263916016,21.067161560058594,-0.5862659215927124,-0.08197090029716492,-1.8208262920379639,-1.4466320276260376,3
275,41.83171463012695,51.05845642089844,-2.875014543533325,-0.2588236927986145,-1.4440032243728638,-1.511459469795227,3
276,54.02552795410156,72.19306945800781,-6.230644702911377,-1.1042240858078003,-1.0470937490463257,-1.4536798000335693,3
277,55.53130340576172,83.28924560546875,-10.768922805786133,-2.66991925239563,0.264687180519104,-1.1008872985839844,3
278,41.618438720703125,69.45458984375,-12.507928848266602,-3.2003142833709717,0.1772133857011795,-1.4411797523498535,3
279,14.135213851928711,38.301639556884766,-11.087947845458984,-3.8778879642486572,0.3937189280986786,-1.5573619604110718,3
280,-5.606823921203613,14.583252906799316,-10.270829200744629,-4.963686943054199,0.0397869236767292,-1.6258409023284912,3
281,-27.90921401977539,-14.052581787109375,-8.856894493103027,-5.182048797607422,-0.18187208473682404,-1.7070130109786987,3
282,-41.86293411254883,-56.027523040771484,-9.317253112792969,-4.228944778442383,-1.1879932880401611,-2.3470771312713623,3
283,-35.956459045410156,-84.26988983154297,-6.856103897094727,-4.147462368011475,-1.7485707998275757,-2.345702886581421,3
284,-11.736466407775879,-97.3034439086914,-5.128675937652588,-1.6089509725570679,-1.2811607122421265,-2.3669044971466064,3
285,11.785782814025879,-95.01144409179688,-0.7192347049713135,-0.05473988503217697,-1.942949652671814,-2.971592903137207,3
286,21.673513412475586,-61.34467697143555,5.159638404846191,1.8859082460403442,-3.1586520671844482,-4.025461196899414,3
287,29.214303970336914,-17.84638023376465,11.309887886047363,2.4118435382843018,-2.644867420196533,-3.8851470947265625,3
288,46.017215728759766,6.628605365753174,12.000977516174316,3.446537971496582,-2.3866302967071533,-4.2219953536987305,3
289,51.66704559326172,39.20518112182617,14.961925506591797,3.2391629219055176,-2.0466842651367188,-4.087195873260498,3
290,50.06855773925781,64.79495239257812,12.765440940856934,3.3709146976470947,-3.0865299701690674,-3.9518327713012695,3
291,48.32513427734375,85.35774230957031,9.135475158691406,4.217610836029053,-3.2785723209381104,-4.28246545791626,3
292,-117.9957275390625,-58.366065979003906,6.31982421875,4.1785383224487305,-3.1300151348114014,-4.460626602172852,3
293,-128.77537536621094,-69.5655288696289,7.93133020401001,4.78433084487915,-3.970695734024048,-4.619405746459961,3
294,-78.72949981689453,-2.4670956134796143,11.481444358825684,5.571751117706299,-5.351949691772461,-4.786355018615723,3
295,-60.14261245727539,42.85954666137695,14.344600677490234,4.704237937927246,-5.814741134643555,-4.479249477386475,3
296,-47.9435920715332,77.2342758178711,17.683889389038086,3.1842849254608154,-6.054717540740967,-3.9199657440185547,3
297,-28.501283645629883,105.21891021728516,15.562381744384766,0.9433783292770386,-5.899428367614746,-3.0936226844787598,3
298,-0.5707601308822632,118.97453308105469,7.476672172546387,-3.4900968074798584,-4.591989517211914,-0.989606499671936,3
299,41.01279067993164,119.39698028564453,1.0162302255630493,-10.476120948791504,0.7943851351737976,2.2872121334075928,3
300,73.01976776123047,102.67180633544922,-5.7488627433776855,-12.122868537902832,1.7907943725585938,2.5323917865753174,3
301,79.203125,64.60504913330078,-8.920622825622559,-12.660654067993164,1.9280602931976318,2.1001508235931396,3
302,79.08026123046875,36.227317810058594,-4.63060188293457,-13.034421920776367,2.738682985305786,2.060685157775879,3
303,60.536163330078125,-5.143107891082764,0.5170931220054626,-12.630573272705078,3.0756473541259766,1.6296195983886719,3
304,32.50387191772461,-60.160465240478516,6.125246524810791,-10.213407516479492,4.277867317199707,2.8365983963012695,3
305,-4.076956748962402,-122.85445404052734,5.076588153839111,-7.837284088134766,3.945936679840088,2.437274932861328,3
306,-39.3553581237793,-180.87379455566406,2.5345003604888916,-4.64555025100708,2.983600616455078,1.7091493606567383,3
307,-67.03872680664062,-222.7068634033203,-0.541208803653717,-1.5821744203567505,3.3192923069000244,2.7471423149108887,3
308,-73.67250061035156,-237.39883422851562,-9.649270057678223,-0.17836861312389374,1.1060194969177246,0.8410626649856567,3
309,-74.8331298828125,-244.5487060546875,-12.97858715057373,2.970492124557495,-0.5996351838111877,-0.06872092932462692,3
310,-78.19791412353516,-242.37667846679688,-23.72827911376953,5.1079936027526855,-2.2879793643951416,-1.2804865837097168,3
311,-76.03346252441406,-229.42625427246094,-29.386648178100586,7.930051326751709,-3.717676877975464,-1.7737053632736206,3
312,-71.8975601196289,-205.7191619873047,-35.392208099365234,9.19216251373291,-5.038705348968506,-2.058086633682251,3
313,-45.358638763427734,-177.85940551757812,-40.500518798828125,10.451894760131836,-6.130236625671387,-2.3336164951324463,3
314,-8.199159622192383,-145.17247009277344,-41.52943420410156,12.683491706848145,-6.422374725341797,-2.693129062652588,3
315,32.517303466796875,-95.75904846191406,-40.303138732910156,13.21796703338623,-6.76944637298584,-2.398660659790039,3
316,81.17517852783203,-38.50715255737305,-38.053382873535156,14.372857093811035,-5.785885334014893,-3.229463815689087,3
317,118.65924835205078,18.248151779174805,-26.43094253540039,14.27953815460205,-5.242675304412842,-2.750337839126587,3
318,138.3568115234375,75.48328399658203,-24.262372970581055,14.000306129455566,-3.3743772506713867,-3.8249423503875732,3
319,141.86766052246094,133.8227081298828,-17.294702529907227,13.059554100036621,-2.759326696395874,-2.8926632404327393,3
320,141.03604125976562,172.1963348388672,-18.35135841369629,11.279026985168457,-0.4571247398853302,-4.197144985198975,3
321,131.93075561523438,193.6643524169922,-13.172361373901367,9.967438697814941,0.041004907339811325,-3.1506524085998535,3
322,124.95635223388672,186.50045776367188,-18.070510864257812,8.754043579101562,0.7598221302032471,-2.512014627456665,3
323,120.7999038696289,170.6046905517578,-20.39150619506836,6.487783908843994,2.898068428039551,-4.037207126617432,3
324,112.90821838378906,149.43118286132812,-9.727798461914062,5.6658525466918945,3.3126909732818604,-3.079843044281006,3
325,102.60655975341797,115.5406723022461,-10.704401969909668,3.917468786239624,4.998054504394531,-3.9717235565185547,3
326,87.25912475585938,87.27791595458984,-7.153660774230957,3.2160842418670654,5.523565769195557,-3.335836887359619,3
327,55.11095428466797,69.72093200683594,-10.6426420211792,2.032677173614502,6.711538791656494,-3.89302659034729,3
328,17.31009864807129,47.715721130371094,-4.498073101043701,1.786353588104248,6.341241359710693,-3.144582509994507,3
329,-13.895441055297852,34.918155670166016,-7.250302791595459,0.961860716342926,6.902521133422852,-3.6886489391326904,3
330,-37.935585021972656,35.67098617553711,-2.390886068344116,0.708666205406189,6.479221820831299,-3.589057207107544,3
331,-46.419063568115234,36.38968276977539,-0.727249801158905,0.0012940597953274846,6.405202388763428,-3.9026076793670654,3
332,-38.23565673828125,47.918338775634766,6.646868705749512,-0.3838083744049072,5.676306247711182,-3.7688863277435303,3
333,-10.411608695983887,51.926841735839844,9.444972038269043,-0.439300537109375,5.438438892364502,-3.3511483669281006,3
334,21.43124008178711,53.404052734375,13.241525650024414,-1.525675892829895,5.826503753662109,-3.572225570678711,3
335,62.22856903076172,61.41932678222656,20.568517684936523,-1.9784098863601685,6.102904319763184,-3.294719934463501,3
336,85.79023742675781,66.86576843261719,24.1666316986084,-3.005288600921631,7.522066593170166,-3.223165512084961,3
337,99.50640106201172,63.407936096191406,27.6793212890625,-3.3482251167297363,8.1016263961792,-2.763997793197632,3
338,89.1053237915039,50.11589431762695,28.978660583496094,-4.1687703132629395,9.850727081298828,-2.3128418922424316,3
339,37.61332321166992,25.018075942993164,28.889530181884766,-4.22469425201416,9.832108497619629,-1.9688743352890015,3
340,-8.600838661193848,1.5840504169464111,26.954654693603516,-4.360412120819092,10.256074905395508,-1.6684110164642334,3
341,-42.250831604003906,-5.6241865158081055,28.734132766723633,-4.155963897705078,9.596442222595215,-1.551240086555481,3
342,-48.446170806884766,0.5147183537483215,29.606584548950195,-4.260735034942627,9.263982772827148,-1.3592376708984375,3
343,-35.577613830566406,-6.606844902038574,26.42868423461914,-4.113682270050049,8.882340431213379,-0.9989815950393677,3
344,-11.946517944335938,-16.786041259765625,20.466737747192383,-3.8611578941345215,8.627519607543945,-0.6978247165679932,3
345,11.109102249145508,-31.0380859375,18.147598266601562,-3.682931661605835,8.749922752380371,-0.5311887860298157,3
346,3.406374454498291,-45.58755111694336,16.013851165771484,-3.371988534927368,8.742429733276367,-0.5856805443763733,3
347,5.575737953186035,-45.591617584228516,17.746538162231445,-2.8636980056762695,8.960679054260254,-0.33650681376457214,3
348,-14.755638122558594,-45.35227966308594,17.355653762817383,-2.342261552810669,8.582589149475098,-0.4102823734283447,3
349,-20.331796646118164,-30.060592651367188,24.335540771484375,-1.9487954378128052,8.555768966674805,-0.184964120388031,3
350,-28.193510055541992,-14.085197448730469,26.523189544677734,-1.7925243377685547,8.336204528808594,-0.08123528212308884,3
351,-25.67763328552246,1.9903558492660522,24.926748275756836,-1.8289527893066406,7.890401363372803,-0.06468338519334793,3
352,-49.10081481933594,8.70876693725586,21.76543426513672,-1.923502802848816,7.6313886642456055,0.14950378239154816,3
353,-57.20045852661133,7.056280136108398,16.884496688842773,-2.0783534049987793,7.230496883392334,0.3432478606700897,3
354,-52.62297058105469,8.111798286437988,17.28623390197754,-2.053546190261841,6.477436065673828,0.5099907517433167,3
355,-50.27540969848633,-5.3288702964782715,16.83916664123535,-2.151123285293579,6.0478315353393555,0.6438794732093811,3
356,-45.36802673339844,-7.188592433929443,13.20959758758545,-1.9970521926879883,5.392382621765137,0.7728857398033142,3
357,-23.03994369506836,0.8372071981430054,13.047945976257324,-1.9109036922454834,4.911220550537109,0.8840633034706116,3
358,-5.430955410003662,3.569780111312866,11.35802936553955,-1.7996412515640259,4.615294456481934,1.030190348625183,3
359,4.630977630615234,9.308310508728027,6.641450881958008,-1.9643802642822266,5.324018955230713,1.3366529941558838,3
360,-1.262585163116455,8.438384056091309,7.763646602630615,-2.228877305984497,5.5580735206604,1.403626799583435,3
361,-32.380516052246094,4.7058305740356445,6.878185272216797,-1.6462124586105347,4.7711100578308105,1.5582730770111084,3
362,-49.53406524658203,0.3021029531955719,6.646579265594482,-1.7732042074203491,4.197693347930908,1.5362924337387085,3
363,-44.072750091552734,-16.25449562072754,7.364380359649658,-0.778792679309845,3.9754559993743896,2.063669204711914,3
364,-1.8067970275878906,-15.239723205566406,9.512186050415039,-0.9047461152076721,3.521230697631836,1.9641491174697876,3
365,18.849130630493164,-1.1083824634552002,17.30489730834961,-0.8685378432273865,3.566307544708252,2.0626351833343506,3
366,23.163434982299805,9.876368522644043,23.90178108215332,-1.0148537158966064,3.793020725250244,2.2321109771728516,3
367,22.98575210571289,15.081964492797852,28.274044036865234,-1.2824779748916626,4.04457426071167,2.47297739982605,3
368,-8.673659324645996,7.341361045837402,29.443767547607422,-1.50247061252594,3.73579478263855,2.6493518352508545,3
369,-28.065872192382812,10.280241012573242,35.19636535644531,-1.1285512447357178,4.803677082061768,3.3290481567382812,3
370,-45.24338912963867,9.461539268493652,31.02817153930664,-1.4199265241622925,2.6434264183044434,3.245469808578491,3
371,-53.419010162353516,5.720785617828369,29.029258728027344,-1.7260291576385498,3.279899835586548,3.7580952644348145,3
372,-65.0675048828125,-2.6464486122131348,23.69600486755371,-1.4882211685180664,0.8653309345245361,3.6577467918395996,3
373,-39.983211517333984,5.325073719024658,27.43214988708496,-1.5207014083862305,0.41853177547454834,3.9371488094329834,3
374,-5.737329483032227,4.704026222229004,26.267406463623047,-1.6718086004257202,0.10344301909208298,4.190752029418945,3
375,26.55158805847168,-0.6901593208312988,24.87469482421875,-1.751777172088623,0.55962073802948,4.527512073516846,3
376,35.43556594848633,-3.527937412261963,22.097980499267578,-1.6448715925216675,1.5571998357772827,4.908872127532959,3
377,35.9409065246582,3.048737049102783,17.561140060424805,-1.625362753868103,2.489966869354248,5.232142448425293,3
378,4.940401554107666,11.10422134399414,12.272682189941406,-1.7124210596084595,2.8892219066619873,5.427735328674316,3
379,-24.247041702270508,6.811625003814697,10.901724815368652,-2.481084108352661,2.6720833778381348,5.623805046081543,3
380,-36.6469841003418,7.772799491882324,6.085409641265869,-2.5228774547576904,2.0413153171539307,5.628964424133301,3
381,-33.29552459716797,-0.11585372686386108,1.3411144018173218,-3.3077232837677,1.4273854494094849,5.696286201477051,3
382,-23.506040573120117,-9.828746795654297,0.005510164424777031,-3.1207571029663086,1.0059975385665894,5.637645244598389,3
383,-15.291546821594238,-17.212297439575195,-1.9832096099853516,-2.9859769344329834,0.8100128173828125,5.634866714477539,3
384,-11.126296043395996,-19.05826187133789,-3.4950342178344727,-2.6364660263061523,0.7385925650596619,5.594285488128662,3
385,8.363029479980469,-25.77655792236328,-0.06266243010759354,-2.1386570930480957,0.6664288640022278,5.506622791290283,3
386,21.565622329711914,-9.34262752532959,-0.8558019399642944,-2.2258808612823486,0.8604329824447632,5.582029342651367,3
387,24.00587272644043,5.952908992767334,-0.6251640915870667,-2.142895221710205,1.2441197633743286,5.6028056144714355,3
388,13.347963333129883,8.052586555480957,0.39735981822013855,-2.2521867752075195,1.317246675491333,5.567427635192871,3
389,-13.002372741699219,-19.766693115234375,3.012951135635376,-2.046173572540283,1.2157042026519775,5.489624977111816,3
390,-28.56334686279297,-56.186187744140625,6.205513954162598,-1.4650925397872925,0.8761347532272339,5.432751178741455,3
391,-41.694461822509766,-75.29224395751953,7.32686185836792,-0.6770292520523071,0.3363998532295227,5.403029441833496,3
392,-40.0146484375,-78.7550277709961,7.852003574371338,-0.03395805507898331,-0.08659043908119202,5.517624855041504,3
393,-53.4011344909668,-70.49683380126953,2.853591203689575,0.4857542812824249,-0.5411697030067444,5.639754772186279,3
394,-34.77577590942383,-51.752628326416016,1.120924949645996,1.341444969177246,-1.1087713241577148,5.577073097229004,3
395,-4.8970537185668945,-41.36198425292969,3.537062168121338,1.5711406469345093,-1.3657004833221436,5.680732727050781,3
396,27.64154052734375,-29.72586441040039,5.89178466796875,2.071047782897949,-1.1522599458694458,5.689901828765869,3
397,50.284698486328125,-5.715908050537109,10.133931159973145,2.265738010406494,-0.8294489979743958,5.769443988800049,3
398,50.544647216796875,7.159172058105469,9.604655265808105,2.3301429748535156,-0.024066247045993805,5.820913791656494,3
399,43.962154388427734,10.591415405273438,8.998046875,2.0075652599334717,0.04680895432829857,6.048989772796631,3
400,15.923538208007812,-2.485964059829712,7.984373092651367,2.0706984996795654,0.5689108967781067,6.056496620178223,3
401,0.7629108428955078,-9.813591957092285,7.274818420410156,2.0907695293426514,0.3511057496070862,6.201378345489502,3
402,-25.682756423950195,-14.025200843811035,2.9410293102264404,2.2830164432525635,0.17371195554733276,6.238922595977783,3
403,-23.7153263092041,-18.76669692993164,-0.7941490411758423,2.3953070640563965,-0.24072624742984772,6.304244518280029,3
404,-8.620641708374023,-25.95344352722168,-0.607162356376648,2.607302665710449,-0.44043001532554626,6.299770832061768,3
405,12.888121604919434,-25.87863540649414,2.316838264465332,2.8731963634490967,-0.3986183702945709,6.282054424285889,3
406,28.085617065429688,-20.01974868774414,4.1202850341796875,3.1596949100494385,-0.39362114667892456,6.34824275970459,3
407,24.028038024902344,-24.527936935424805,1.8366913795471191,3.483628988265991,0.15834571421146393,6.246286869049072,3
408,11.622733116149902,-17.83893394470215,-1.1767195463180542,3.794827699661255,0.09708165377378464,6.312735557556152,3
409,9.561945915222168,-4.312354564666748,-3.4492859840393066,3.7958943843841553,0.3278633952140808,6.274937629699707,3
410,-0.7612311840057373,7.786552429199219,-3.0673556327819824,3.706080913543701,0.07502228021621704,6.4049859046936035,3
411,0.05098031088709831,25.417057037353516,-5.964293956756592,3.5237786769866943,-0.06653720885515213,6.426549911499023,3
412,8.740368843078613,39.0858154296875,-6.189714431762695,3.090099811553955,0.0879189595580101,6.341769695281982,3
413,14.038569450378418,43.75876998901367,-6.016323566436768,2.693363904953003,0.23229840397834778,6.259705066680908,3
414,13.542692184448242,43.98418045043945,-4.065756797790527,2.1738433837890625,0.35630372166633606,6.242637634277344,3
415,13.026732444763184,39.472900390625,-2.5121920108795166,1.7704366445541382,0.18680855631828308,6.351416110992432,3
416,11.679884910583496,33.318214416503906,-0.7453569173812866,1.3156758546829224,0.40871280431747437,6.3276286125183105,3
417,22.521251678466797,39.22043991088867,5.052268981933594,1.0330843925476074,0.4058521091938019,6.391149997711182,3
418,17.27296257019043,43.22509765625,8.326565742492676,0.3772152066230774,0.9264197945594788,6.408445358276367,3
419,17.781614303588867,39.52163314819336,11.651599884033203,0.18371139466762543,0.4941994845867157,6.664180755615234,3
420,14.064902305603027,35.006675720214844,13.544569969177246,-0.2696895897388458,0.9392942786216736,6.721670627593994,3
421,23.543834686279297,38.61852264404297,11.268016815185547,-0.5076054930686951,0.9090202450752258,6.883641242980957,3
422,27.051084518432617,28.47052574157715,10.405250549316406,-0.9845118522644043,1.2180461883544922,7.015821933746338,3
423,25.517871856689453,21.4954776763916,10.547111511230469,-1.2202337980270386,1.4454392194747925,7.130122184753418,3
424,22.7281494140625,7.329094886779785,10.881726264953613,-1.1750657558441162,1.610170602798462,7.2059454917907715,3
425,20.45852279663086,-1.89213228225708,9.298521041870117,-1.1521676778793335,1.7280709743499756,7.317077159881592,3
426,23.335268020629883,-14.989607810974121,4.773212432861328,-1.0120497941970825,1.9654327630996704,7.373422622680664,3
427,31.352283477783203,-4.248912811279297,2.1411352157592773,-0.7602273225784302,2.406116247177124,7.374157905578613,3
428,29.5850887298584,10.130633354187012,-3.119452714920044,-0.875247061252594,2.784723997116089,7.381828784942627,3
429,21.807981491088867,35.52907180786133,-7.636268615722656,-1.1997590065002441,2.9980177879333496,7.35607385635376,3
430,2.160541534423828,36.46685028076172,-12.684427261352539,-1.6345831155776978,3.01108717918396,7.2827372550964355,3
431,-16.3337345123291,30.868690490722656,-11.302681922912598,-2.003791570663452,3.047646999359131,7.181229114532471,3
432,-16.741064071655273,25.32353401184082,-9.986032485961914,-2.288708209991455,2.795212984085083,7.08806037902832,3
433,-14.291854858398438,6.750477313995361,-10.462990760803223,-2.4947359561920166,2.6436429023742676,6.991336822509766,3
434,-1.792319893836975,-14.884322166442871,-6.131083011627197,-2.199392318725586,2.567948341369629,6.905013561248779,3
435,27.978574752807617,-29.59065818786621,-1.21738600730896,-2.1707980632781982,2.7657923698425293,6.858672618865967,3
436,41.258949279785156,-32.0242919921875,2.8636608123779297,-1.5934832096099854,3.148038387298584,6.860594272613525,3
437,49.01152801513672,-27.64242935180664,7.112560749053955,-1.062615156173706,3.6263978481292725,6.904623508453369,3
438,51.09199905395508,-4.946083068847656,9.505560874938965,-0.8878768682479858,4.225178241729736,6.987897872924805,3
439,47.514617919921875,20.89060401916504,8.750152587890625,-0.9527944922447205,4.679542541503906,7.082062244415283,3
440,36.11425018310547,32.81879425048828,10.688121795654297,-1.3923618793487549,5.04372501373291,7.171420097351074,3
441,13.609040260314941,33.7304801940918,12.214714050292969,-1.781604290008545,5.181661128997803,7.28768253326416,3
442,-11.661728858947754,23.284160614013672,13.701614379882812,-2.1688039302825928,5.3260416984558105,7.45361328125,3
443,-27.69593048095703,12.004997253417969,15.899503707885742,-2.254471778869629,4.844781875610352,7.566665172576904,3
444,-35.809513092041016,-0.9423010349273682,16.455745697021484,-2.318694829940796,4.407383441925049,7.707456588745117,3
445,-39.13340377807617,-8.744494438171387,17.362531661987305,-2.036726474761963,4.011841773986816,7.9152913093566895,3
446,-39.37178421020508,-22.15565299987793,13.27874755859375,-1.8157997131347656,3.8304710388183594,8.125693321228027,3
447,-51.13275909423828,-31.694801330566406,9.566431999206543,-1.3898941278457642,3.315831184387207,8.240632057189941,3
448,-51.85052490234375,-26.64965057373047,4.489642143249512,-1.0841410160064697,2.6974544525146484,8.279989242553711,3
449,-53.55184555053711,-9.059919357299805,0.45796677470207214,-0.9651491045951843,2.015982151031494,8.248295783996582,3
450,-40.094970703125,2.6208972930908203,-1.8105119466781616,-0.8600088953971863,1.750773549079895,8.312710762023926,3
451,-16.649681091308594,12.098995208740234,-5.872067928314209,-0.9252978563308716,1.6762561798095703,8.333998680114746,3
452,-1.9092390537261963,19.199493408203125,-8.31943416595459,-1.2179449796676636,1.594436764717102,8.236285209655762,3
453,21.5703182220459,24.872163772583008,-13.462066650390625,-1.499501347541809,1.725567102432251,8.13583755493164,3
454,36.42839050292969,34.77780532836914,-13.069953918457031,-1.7873010635375977,2.1979598999023438,8.048563003540039,3
455,42.92848587036133,29.720590591430664,-11.787140846252441,-2.170480489730835,2.538891553878784,7.92432975769043,3
456,42.1908073425293,20.5738525390625,-8.807625770568848,-2.5070207118988037,3.187941789627075,7.865617275238037,3
457,28.835933685302734,8.789631843566895,-6.149775505065918,-2.6339433193206787,3.4287827014923096,7.774321556091309,3
458,-3.8314428329467773,-9.808992385864258,-2.8050150871276855,-2.4286532402038574,3.670283555984497,7.774158477783203,3
459,-19.131141662597656,-8.622554779052734,-0.8256819844245911,-2.2941694259643555,3.3172245025634766,7.698048114776611,3
460,-33.215538024902344,-5.389989852905273,-1.5050228834152222,-2.1308507919311523,2.8938872814178467,7.656397342681885,3
461,-33.72241973876953,-13.54516315460205,-1.1913013458251953,-2.1257479190826416,2.5144288539886475,7.623229026794434,3
462,-38.43394470214844,-13.000073432922363,-3.3889031410217285,-1.826796054840088,2.113145351409912,7.605265140533447,3
463,-38.2844352722168,-1.4536466598510742,-3.350062847137451,-1.857805848121643,1.7356550693511963,7.554354667663574,3
464,-32.025428771972656,6.983989715576172,-5.901747703552246,-2.0660898685455322,1.2036510705947876,7.446778774261475,3
465,-34.05031204223633,19.063873291015625,-6.812084197998047,-2.1083502769470215,0.9410070776939392,7.410420894622803,3
466,-38.19164276123047,22.68846893310547,-10.995140075683594,-2.3845393657684326,1.047326683998108,7.435538291931152,3
467,-37.60115051269531,21.178314208984375,-9.335314750671387,-2.5395798683166504,0.4102195203304291,7.276913166046143,3
468,-39.863380432128906,17.197315216064453,-8.226519584655762,-2.720197916030884,-0.15516699850559235,7.145229339599609,3
469,-30.98153305053711,15.887227058410645,-5.082645416259766,-2.8370556831359863,-0.23898881673812866,7.1619744300842285,3
470,-22.701234817504883,4.288654804229736,-6.388662815093994,-2.9422876834869385,-0.41694697737693787,7.128617286682129,3
471,1.3761646747589111,-10.337078094482422,-6.582363605499268,-2.748243808746338,-0.677970826625824,7.018740653991699,3
472,11.335777282714844,-24.918071746826172,-8.424897193908691,-2.503993034362793,-0.5501369833946228,6.949665069580078,3
473,24.936748504638672,-30.770423889160156,-5.039064884185791,-2.2450919151306152,-0.25378772616386414,6.925398826599121,3
474,24.37690544128418,-34.527347564697266,-6.597612380981445,-1.60737943649292,0.1774199903011322,6.878643989562988,3
475,21.14383316040039,-40.32721710205078,-9.886054992675781,-1.5689992904663086,0.016194846481084824,6.7429704666137695,3
476,5.930221080780029,-39.17378616333008,-13.984223365783691,-1.368080735206604,0.07276435196399689,6.727782726287842,3
477,1.7661705017089844,-29.192790985107422,-18.5175724029541,-0.9350608587265015,0.1819106936454773,6.583993911743164,3
478,8.991283416748047,-16.794523239135742,-19.008298873901367,-0.526103138923645,0.2151658684015274,6.398427963256836,3
479,17.0609130859375,5.509140968322754,-15.946636199951172,-0.6463924050331116,0.2536989152431488,6.258915424346924,3
480,22.36109733581543,22.03407859802246,-14.632948875427246,-0.7792714238166809,0.1110343486070633,6.070265293121338,3
481,28.835580825805664,21.354921340942383,-7.204384803771973,-1.0029064416885376,0.48265784978866577,5.953928470611572,3
482,28.783870697021484,17.584165573120117,-1.6448347568511963,-1.1691226959228516,0.9266282320022583,5.874431133270264,3
483,14.820385932922363,8.62481689453125,1.9656352996826172,-1.266754388809204,0.9556674361228943,5.788822174072266,3
484,-19.492637634277344,1.293434977531433,-0.22493483126163483,-1.3840956687927246,0.8307210206985474,5.758453845977783,3
485,-55.474090576171875,-3.449495792388916,-4.272227764129639,-1.3729461431503296,0.5098634362220764,5.727081775665283,3
486,-64.18022918701172,-5.8635172843933105,-8.22299861907959,-1.2118862867355347,-0.03581896424293518,5.660314083099365,3
487,-72.1512222290039,1.2008349895477295,-15.6922607421875,-1.036980152130127,-0.322701096534729,5.608661651611328,3
488,-67.98875427246094,7.200092792510986,-18.58005142211914,-1.0271315574645996,-1.0406432151794434,5.477363586425781,3
489,-60.26624298095703,15.468463897705078,-21.10910987854004,-1.1301296949386597,-2.1678452491760254,5.267117500305176,3
490,-32.800872802734375,8.628423690795898,-23.822050094604492,-1.2383038997650146,-2.0688271522521973,5.129565715789795,3
491,5.879820823669434,15.262786865234375,-25.88823890686035,-1.452065110206604,-2.6374831199645996,4.909379482269287,3
492,45.97745895385742,20.362506866455078,-27.97945785522461,-1.492680549621582,-2.5566296577453613,4.650455474853516,3
493,77.82931518554688,25.741777420043945,-30.934228897094727,-1.6575082540512085,-2.4565746784210205,4.34346866607666,3
494,93.8750991821289,22.18792724609375,-32.8311882019043,-1.9434421062469482,-1.235403060913086,4.105506896972656,3
495,93.0256576538086,19.17194366455078,-31.919490814208984,-2.1195602416992188,-0.5575835704803467,3.742013692855835,3
496,61.386131286621094,12.559103965759277,-30.715879440307617,-2.1811838150024414,0.5682440996170044,3.389295816421509,3
497,9.07075023651123,1.9713013172149658,-27.313533782958984,-2.3061296939849854,0.8727480173110962,3.01875901222229,3
498,-37.12357711791992,-4.490212917327881,-29.16638946533203,-2.253004312515259,1.0759282112121582,2.6991794109344482,3
499,-70.36512756347656,-12.79395866394043,-32.91423416137695,-2.1749556064605713,0.7271807193756104,2.3860864639282227,3
500,-76.1253433227539,-26.389631271362305,-34.94650650024414,-2.037400007247925,-0.23241011798381805,2.014531135559082,3
501,-61.476783752441406,-38.74569320678711,-36.86941146850586,-1.6667213439941406,-0.7572070956230164,1.6628024578094482,3
502,-30.29319953918457,-42.75579071044922,-36.70383834838867,-1.1805773973464966,-1.3823705911636353,1.2781717777252197,3
503,15.085596084594727,-37.01190948486328,-33.32464599609375,-0.7788858413696289,-1.8041666746139526,0.9279342889785767,3
504,44.172691345214844,-23.74051856994629,-30.479869842529297,-0.37380120158195496,-1.5980682373046875,0.6106464266777039,3
505,54.56568145751953,-5.524661064147949,-28.87605094909668,-0.2603475749492645,-0.9495669007301331,0.3790437877178192,3
506,51.083770751953125,10.639848709106445,-27.551950454711914,-0.19674833118915558,-0.4295916259288788,0.1047171801328659,3
507,42.38978576660156,19.928525924682617,-28.326948165893555,-0.24368852376937866,0.353695809841156,-0.16700518131256104,3
508,26.925085067749023,30.098859786987305,-27.884323120117188,-0.4948880076408386,0.3534793555736542,-0.4311855137348175,3
509,11.002758979797363,36.46177673339844,-31.66988754272461,-0.7396476864814758,0.7529011964797974,-0.7147767543792725,3
510,-0.9662850499153137,28.863340377807617,-36.81487274169922,-1.099122405052185,0.7349289059638977,-1.010147213935852,3
511,-4.615899562835693,9.021137237548828,-42.3970947265625,-1.4985297918319702,0.6796827912330627,-1.3411120176315308,3
512,4.202044486999512,-15.596762657165527,-43.333885192871094,-1.570224404335022,0.6346522569656372,-1.7695962190628052,3
513,19.850889205932617,-37.3492431640625,-41.75199508666992,-1.323374629020691,0.7150079607963562,-2.241161346435547,3
514,35.46018600463867,-50.23690414428711,-41.465309143066406,-1.028679609298706,1.0428889989852905,-2.6678597927093506,3
515,41.843963623046875,-57.98578643798828,-37.46562194824219,-0.2661736011505127,1.5319820642471313,-3.150815486907959,3
516,28.132503509521484,-50.583370208740234,-30.708486557006836,0.7401366233825684,2.1830828189849854,-3.640056848526001,3
517,8.257299423217773,-24.260879516601562,-25.107311248779297,1.5878839492797852,2.6313228607177734,-4.04755973815918,3
518,-13.347827911376953,15.5111665725708,-21.2150821685791,1.5536115169525146,2.609144449234009,-4.273416042327881,3
519,-25.6298828125,61.53978729248047,-19.26610565185547,1.9707434177398682,3.2766242027282715,-4.622593879699707,3
520,-34.450653076171875,93.14947509765625,-15.615711212158203,0.8854978084564209,2.103330135345459,-4.621114253997803,3
521,-35.12823486328125,92.5256118774414,-13.310760498046875,-0.6452831029891968,1.5460392236709595,-4.7100982666015625,3
522,-25.70903205871582,73.28216552734375,-12.967137336730957,-2.9402945041656494,0.6729958057403564,-4.9185872077941895,3
523,-12.88958740234375,39.25688552856445,-11.22408676147461,-3.5774316787719727,0.5502896904945374,-5.044976711273193,3
524,5.724706172943115,5.31721305847168,-8.530991554260254,-3.3845131397247314,0.7717229723930359,-5.155003070831299,3
525,21.147539138793945,-15.952230453491211,-5.036532878875732,-3.327159881591797,0.9013299345970154,-5.158257484436035,3
526,31.298084259033203,-30.43999671936035,-1.17899751663208,-3.375223398208618,0.6013067960739136,-5.226705074310303,3
527,30.817626953125,-32.50291442871094,6.197422504425049,-2.4129581451416016,1.1759084463119507,-5.250483989715576,3
528,22.980592727661133,-23.335098266601562,14.575339317321777,-2.341732978820801,1.6042087078094482,-5.217052936553955,3
529,5.532103538513184,-12.124417304992676,21.80579376220703,-1.8446192741394043,1.9565056562423706,-5.1025166511535645,3
530,-11.644388198852539,-3.0231807231903076,23.645675659179688,-1.3822132349014282,2.7001430988311768,-4.868896484375,3
531,-30.819122314453125,2.92073392868042,23.71170997619629,-1.3383257389068604,1.8450506925582886,-4.433437824249268,3
532,-52.11769485473633,-2.1662120819091797,22.17310333251953,-0.7612303495407104,1.475246787071228,-4.173118591308594,3
533,-62.52560043334961,-11.233537673950195,19.22249984741211,1.3041677474975586,0.8801752924919128,-3.8506031036376953,3
534,-57.519752502441406,-24.82191276550293,14.937771797180176,1.235359787940979,0.4667220711708069,-3.851534843444824,3
535,-38.31900405883789,-29.075241088867188,11.667637825012207,1.287121057510376,-0.20211263000965118,-3.6001484394073486,3
536,-6.743032455444336,-30.972612380981445,10.19494915008545,1.2309231758117676,-0.12360412627458572,-3.607882499694824,3
537,27.94602394104004,-22.475866317749023,11.422471046447754,1.3179116249084473,-0.13504508137702942,-3.5252020359039307,3
538,53.464595794677734,-5.867830753326416,12.616241455078125,1.437027096748352,0.23327474296092987,-3.4359211921691895,3
539,65.8608169555664,32.226009368896484,14.383563041687012,1.2596807479858398,0.7154458165168762,-3.3210268020629883,3
540,62.71939468383789,81.59227752685547,16.68662452697754,0.6300272345542908,1.5441805124282837,-3.202066421508789,3
541,46.47512435913086,120.29597473144531,18.370908737182617,-0.4416188597679138,2.072888135910034,-3.0048348903656006,3
542,28.1085205078125,136.255615234375,19.308170318603516,-2.022850513458252,2.7493896484375,-2.8049871921539307,3
543,3.163990020751953,128.52601623535156,19.462600708007812,-3.054551839828491,2.7908170223236084,-2.510265350341797,3
544,-19.838424682617188,100.2239761352539,18.499771118164062,-4.362930774688721,2.9950106143951416,-2.2515475749969482,3
545,-43.527652740478516,57.23458480834961,18.05169105529785,-5.502155780792236,2.6419801712036133,-2.012265682220459,3
546,-59.99787139892578,-1.342060923576355,15.316950798034668,-6.1391520500183105,2.239849328994751,-1.7969471216201782,3
547,-64.84111785888672,-51.024436950683594,12.80631160736084,-6.11577033996582,1.9515784978866577,-1.5728428363800049,3
548,-58.351444244384766,-85.03146362304688,9.530275344848633,-5.8231201171875,1.465260624885559,-1.4189077615737915,3
549,-46.86969757080078,-101.58631134033203,7.202023983001709,-4.891371726989746,0.8479915261268616,-1.3147938251495361,3
550,-37.618228912353516,-104.14575958251953,6.475912094116211,-4.327541828155518,0.6165761947631836,-1.2152258157730103,3
551,-36.774269104003906,-90.93738555908203,5.697354316711426,-3.0054264068603516,0.18710939586162567,-1.1403757333755493,3
552,-42.79434585571289,-71.69735717773438,1.3648948669433594,-2.5152621269226074,-0.045955803245306015,-1.0767953395843506,3
553,-43.87581253051758,-49.66230773925781,-3.210702657699585,-1.893875002861023,-0.5945191383361816,-1.089657187461853,3
554,-45.02448272705078,-11.537474632263184,-7.581967353820801,-1.059938669204712,-1.0832656621932983,-1.1029026508331299,3
555,-35.29682540893555,17.436119079589844,-12.41664981842041,-1.2832595109939575,-0.9677827954292297,-1.039366364479065,3
556,-26.540939331054688,36.1274528503418,-18.185962677001953,-1.3310449123382568,-1.6123733520507812,-1.2008157968521118,3
557,-11.804122924804688,36.73288345336914,-22.654508590698242,-1.6213735342025757,-1.5278974771499634,-1.2981154918670654,3
558,4.775302886962891,31.331741333007812,-24.1832275390625,-2.1137373447418213,-1.636982798576355,-1.5008738040924072,3
559,8.063592910766602,16.465097427368164,-24.508296966552734,-2.4089243412017822,-1.7261784076690674,-1.7673743963241577,3
560,6.303682327270508,-4.386834144592285,-24.17278480529785,-2.6253175735473633,-1.8058254718780518,-2.044517755508423,3
561,1.6646146774291992,-24.270465850830078,-24.75782585144043,-2.7293617725372314,-1.580055594444275,-2.2465386390686035,3
562,-6.989683151245117,-36.59491729736328,-27.931129455566406,-2.17071270942688,-1.7573274374008179,-2.5819602012634277,3
563,-13.327736854553223,-39.07065200805664,-30.200916290283203,-1.789078950881958,-1.5583559274673462,-2.8019275665283203,3
564,-10.299394607543945,-28.558652877807617,-31.30486297607422,-1.284043312072754,-1.611328125,-3.084458827972412,3
565,-7.189762115478516,-14.470884323120117,-29.422548294067383,-0.9803271889686584,-1.8980176448822021,-3.403658628463745,3
566,-6.509824275970459,-14.410224914550781,-26.99156379699707,-1.0510437488555908,-1.6773035526275635,-3.6049253940582275,3
567,-9.696840286254883,-21.117807388305664,-23.895936965942383,-0.7901191115379333,-2.001384973526001,-3.9423961639404297,3
568,-11.64367961883545,-27.731054306030273,-21.057018280029297,-0.5775929093360901,-2.021167039871216,-4.179131984710693,3
569,-9.937979698181152,-32.556434631347656,-18.891952514648438,-0.42288410663604736,-2.071274995803833,-4.355900764465332,3
570,-7.522565841674805,-33.37162780761719,-14.943137168884277,-0.24678531289100647,-2.026236057281494,-4.49442195892334,3
571,-8.871454238891602,-26.439435958862305,-13.165792465209961,0.41855475306510925,-2.3520925045013428,-4.740492343902588,3
572,-8.67549991607666,-14.573277473449707,-10.2293062210083,0.3356487452983856,-2.2519683837890625,-4.754280090332031,3
573,-9.014607429504395,-2.2841265201568604,-8.96390151977539,0.625178873538971,-2.493043899536133,-4.8820061683654785,3
574,-9.1467924118042,4.446336269378662,-5.937352180480957,0.6815925240516663,-2.4696295261383057,-5.056163787841797,3
575,-15.839577674865723,3.6698977947235107,-3.1805901527404785,0.6682762503623962,-2.4003071784973145,-5.057198524475098,3
576,-20.378507614135742,-4.970192909240723,0.309122771024704,0.7730094194412231,-2.8276662826538086,-5.122721195220947,3
577,-18.659286499023438,-19.755443572998047,3.9912655353546143,0.5360151529312134,-2.540266275405884,-5.110198020935059,3
578,-7.855578422546387,-32.56714630126953,8.291471481323242,0.7905193567276001,-2.945871591567993,-5.091836452484131,3
579,4.718755722045898,-44.291419982910156,14.371715545654297,1.15770423412323,-3.178765058517456,-5.024252891540527,3
580,16.08913230895996,-50.309669494628906,22.2031307220459,1.4863466024398804,-2.9527671337127686,-4.904735088348389,3
581,14.464744567871094,-49.18979263305664,29.203227996826172,2.016948938369751,-2.786350965499878,-4.712137699127197,3
582,-0.5581039786338806,-38.930606842041016,37.100074768066406,2.750079870223999,-2.7159900665283203,-4.491043567657471,3
583,-26.701793670654297,-24.994237899780273,42.67392349243164,2.9180164337158203,-2.7225639820098877,-4.016228199005127,3
584,-36.02643585205078,-14.4888916015625,43.637386322021484,3.0133450031280518,-2.8343920707702637,-3.544161796569824,3
585,-35.35796356201172,-2.2867047786712646,43.51363754272461,3.3166298866271973,-3.5107929706573486,-3.0532827377319336,3
586,-23.755369186401367,10.040159225463867,43.167816162109375,3.4077513217926025,-3.5286340713500977,-2.7664623260498047,3
587,-2.9324769973754883,20.84633445739746,43.52421951293945,3.1957173347473145,-3.779635190963745,-2.3134803771972656,3
588,11.9321870803833,28.396831512451172,43.29682922363281,3.034696340560913,-3.8641319274902344,-1.9178085327148438,3
589,19.0660343170166,35.22207260131836,43.60697937011719,2.638381242752075,-3.837613821029663,-1.4464988708496094,3
590,12.403162956237793,35.90392303466797,41.69575881958008,2.2230896949768066,-3.6924548149108887,-0.9979109764099121,3
591,1.7733603715896606,29.886613845825195,40.89181900024414,1.8903745412826538,-3.609046459197998,-0.5995384454727173,3
592,-9.379616737365723,19.379661560058594,39.27717590332031,1.495676875114441,-3.6947689056396484,-0.12674783170223236,3
593,-9.01935863494873,12.558835983276367,36.15359115600586,1.2549209594726562,-3.937990188598633,0.33334124088287354,3
594,-3.76077938079834,13.385857582092285,31.72572135925293,1.194211721420288,-3.9354522228240967,0.5990617871284485,3
595,22.40736961364746,8.200737953186035,30.08334732055664,0.47239649295806885,-3.5914950370788574,1.0333755016326904,3
596,50.27378463745117,-0.1347038745880127,31.218650817871094,0.4839709997177124,-3.333958625793457,1.2328156232833862,3
597,64.16006469726562,-5.93409538269043,35.27849197387695,0.5101293325424194,-2.9695324897766113,1.5230858325958252,3
598,62.401824951171875,-7.877598285675049,39.69710159301758,0.5543267130851746,-2.1323330402374268,1.7587676048278809,3
599,47.0875129699707,-5.557111740112305,43.56634521484375,0.6658444404602051,-1.3799464702606201,2.148698568344116,3
600,11.612898826599121,-1.383441686630249,44.58653259277344,0.8726969957351685,-1.0702561140060425,2.5842299461364746,3
601,-23.7262020111084,-6.046350955963135,45.45543670654297,0.866280198097229,-1.1612871885299683,3.12666916847229,3
602,-52.080650329589844,-9.901748657226562,45.707645416259766,0.9979373216629028,-1.47809898853302,3.5949647426605225,3
603,-63.197349548339844,-13.732592582702637,45.016658782958984,1.18345308303833,-2.2516839504241943,4.106385707855225,3
604,-63.17992401123047,-15.667044639587402,42.67539978027344,1.2439981698989868,-2.7757766246795654,4.553247928619385,3
605,-49.11082458496094,-10.900035858154297,39.696659088134766,1.4075347185134888,-3.5179967880249023,5.00166654586792,3
606,-23.069704055786133,-3.6188504695892334,35.43448257446289,1.3996762037277222,-3.7876474857330322,5.368335247039795,3
607,-4.186639785766602,3.4420242309570312,35.86772918701172,1.4453314542770386,-4.266521453857422,5.773180961608887,3
608,13.375107765197754,8.368626594543457,35.80985641479492,1.437044620513916,-4.0214996337890625,6.015368461608887,3
609,27.7541561126709,17.726167678833008,38.2665901184082,1.1720207929611206,-3.887407064437866,6.408992767333984,3
610,28.680843353271484,23.41299819946289,39.37299728393555,1.107041358947754,-3.7445130348205566,6.7547078132629395,3
611,15.398200035095215,17.503847122192383,38.90999221801758,0.7126836776733398,-3.511718273162842,7.207583427429199,3
612,10.461002349853516,5.908999443054199,40.20750045776367,0.6537081599235535,-3.29606556892395,7.508093357086182,3
613,11.564336776733398,-9.00621509552002,44.85201644897461,0.6248967051506042,-3.3968029022216797,7.915139675140381,3
614,14.842554092407227,-13.375334739685059,48.67736053466797,0.787848711013794,-3.076361656188965,8.250934600830078,3
615,10.68826961517334,-16.13669776916504,47.58982467651367,0.8120424747467041,-3.1424903869628906,8.804747581481934,3
616,1.081596851348877,-19.863475799560547,43.17523193359375,0.9438682794570923,-2.912966728210449,9.268692970275879,3
617,0.0992211177945137,-25.292179107666016,41.679012298583984,1.324673056602478,-2.9039957523345947,9.642843246459961,3
618,4.85903787612915,-19.818628311157227,41.02515411376953,1.742438793182373,-2.782313823699951,9.969152450561523,3
619,18.71143341064453,-2.067157506942749,44.040382385253906,2.0825369358062744,-2.8864357471466064,10.362668991088867,3
620,39.67704391479492,25.688331604003906,46.2527961730957,2.093439817428589,-2.2988455295562744,10.710624694824219,3
621,59.279052734375,58.97710418701172,49.6244010925293,1.665733814239502,-2.2619354724884033,11.304795265197754,3
622,72.79241943359375,87.72138214111328,50.443321228027344,0.9188284873962402,-1.2234293222427368,11.738743782043457,3
623,75.07202911376953,105.57819366455078,52.19736099243164,-0.5178282260894775,-0.09942954033613205,12.348198890686035,3
624,60.76494216918945,111.89423370361328,55.299015045166016,-1.726636290550232,0.27761825919151306,12.995261192321777,3
625,36.099449157714844,104.38837432861328,57.644554138183594,-2.875124931335449,0.861852765083313,13.573583602905273,3
626,15.005070686340332,85.19239044189453,56.2440299987793,-3.5272254943847656,1.134788155555725,14.084911346435547,3
627,0.5839897990226746,58.63650894165039,51.13198471069336,-4.877719879150391,1.3109138011932373,14.753144264221191,3
628,-5.064939498901367,26.108091354370117,42.590782165527344,-5.108598232269287,1.366889238357544,15.240434646606445,3
629,-8.606911659240723,-5.283447265625,31.49385643005371,-5.44281530380249,1.2861682176589966,15.685747146606445,3
630,-10.4732666015625,-32.07803726196289,22.206607818603516,-5.244778156280518,1.1460683345794678,15.999109268188477,3
631,-7.074397087097168,-47.05009460449219,10.84779167175293,-4.825974464416504,1.1320552825927734,16.245065689086914,3
632,-6.107370853424072,-50.733455657958984,2.207990884780884,-4.259269714355469,1.182939887046814,16.41383171081543,3
633,2.9278507232666016,-48.010902404785156,-2.8811533451080322,-3.48189115524292,1.0450242757797241,16.43157958984375,3
634,7.807422161102295,-40.64125061035156,-3.971959114074707,-3.1501147747039795,1.1225566864013672,16.408796310424805,3
635,9.110057830810547,-29.265941619873047,-6.254173755645752,-2.7916712760925293,1.1994779109954834,16.357254028320312,3
636,3.9403066635131836,-18.538349151611328,-10.445533752441406,-2.2182326316833496,1.364670991897583,16.352405548095703,3
637,-10.131353378295898,-10.939115524291992,-16.14891242980957,-1.9005452394485474,1.3194702863693237,16.23163604736328,3
638,-26.80714225769043,-9.94046688079834,-23.136606216430664,-1.9752470254898071,1.368129014968872,16.096288681030273,3
639,-46.79966735839844,-9.644987106323242,-29.736587524414062,-2.242765188217163,0.9660364985466003,15.742341995239258,3
640,-59.81253433227539,-11.467387199401855,-34.66909408569336,-2.105140447616577,0.309585839509964,15.383243560791016,3
641,-59.696170806884766,-13.335631370544434,-37.77266311645508,-1.9511966705322266,-0.037226900458335876,15.146563529968262,3
642,-52.29389572143555,-14.616716384887695,-41.523136138916016,-1.8358042240142822,-0.7665649056434631,14.728317260742188,3
643,-39.289894104003906,-12.495295524597168,-44.03370666503906,-1.613740086555481,-1.2383394241333008,14.367708206176758,3
644,-24.26068115234375,-11.053874015808105,-45.403038024902344,-1.4174280166625977,-1.6400697231292725,13.948121070861816,3
645,-10.941197395324707,-3.0609500408172607,-46.43487548828125,-1.26023530960083,-1.7106629610061646,13.570686340332031,3
646,4.202701568603516,3.8553218841552734,-46.00291442871094,-1.2101619243621826,-1.9373258352279663,13.075100898742676,3
647,12.490228652954102,2.938037395477295,-42.5082893371582,-1.2224687337875366,-1.7632304430007935,12.664400100708008,3
648,13.779410362243652,-9.116422653198242,-38.189945220947266,-1.0974912643432617,-1.6195101737976074,12.266382217407227,3
649,14.925804138183594,-17.538013458251953,-32.790592193603516,-0.9374777674674988,-1.5170966386795044,11.883785247802734,3
650,2.4701294898986816,-14.005501747131348,-27.687358856201172,-0.5991798639297485,-1.3630332946777344,11.574881553649902,3
651,-15.79626178741455,-2.754537582397461,-21.2008113861084,-0.25792449712753296,-1.4044163227081299,11.291999816894531,3
652,-37.303951263427734,16.92756462097168,-14.971672058105469,-0.07999312877655029,-1.7339321374893188,11.040507316589355,3
653,-60.342864990234375,28.646516799926758,-7.61577033996582,-0.9735084176063538,-1.8267500400543213,10.887012481689453,3
654,-78.79923248291016,19.33513832092285,-1.3136060237884521,-1.3119357824325562,-2.443967819213867,10.782686233520508,3
655,-74.49732208251953,-6.512275695800781,4.215837478637695,-1.446046233177185,-3.03369140625,10.788766860961914,3
656,-56.62237548828125,-44.315101623535156,7.032571792602539,-1.1894539594650269,-3.9264466762542725,10.803094863891602,3
657,-35.72516632080078,-69.36177062988281,12.731390953063965,-0.7395602464675903,-4.563530921936035,10.890235900878906,3
658,-22.591062545776367,-88.6853256225586,18.474369049072266,-0.052895791828632355,-4.80387544631958,11.084492683410645,3
659,-6.529118537902832,-93.7007064819336,24.715652465820312,0.8465721607208252,-4.904743671417236,11.346553802490234,3
660,29.014495849609375,-92.78530883789062,29.017404556274414,1.8672504425048828,-4.95385217666626,11.69984245300293,3
661,71.97879028320312,-74.16717529296875,30.06954574584961,2.7492427825927734,-4.713653564453125,12.07017707824707,3
662,97.15119934082031,-31.675561904907227,28.586753845214844,3.4096930027008057,-3.7266290187835693,12.43875503540039,3
663,100.92059326171875,11.101884841918945,24.510028839111328,3.5843617916107178,-2.8056559562683105,12.790024757385254,3
664,88.60377502441406,41.12893295288086,12.999354362487793,3.3918192386627197,-1.7376986742019653,13.047325134277344,3
665,74.99308776855469,71.36115264892578,-1.9305051565170288,2.7644190788269043,-0.9384773373603821,13.255020141601562,3
666,51.79518508911133,94.62796783447266,-16.959590911865234,2.040844440460205,-0.6930456757545471,13.353914260864258,3
667,18.095182418823242,106.1092529296875,-30.564430236816406,0.7150845527648926,-0.06519931554794312,13.24102783203125,3
668,2.044764757156372,108.56925964355469,-40.82276916503906,-0.05637746676802635,0.06154605746269226,12.924912452697754,3
669,-0.2866339087486267,98.53026580810547,-52.107154846191406,-1.4402799606323242,0.06864913552999496,12.57209587097168,3
670,3.1183135509490967,76.1536865234375,-63.87172317504883,-2.425565004348755,0.04993226379156113,12.060256004333496,3
671,0.79468834400177,32.06757736206055,-71.55355072021484,-3.049643039703369,0.10914481431245804,11.43045425415039,3
672,-4.568233966827393,-14.11560344696045,-77.88031005859375,-3.3177595138549805,0.052009984850883484,10.724364280700684,3
673,5.534849643707275,-61.449527740478516,-83.22196960449219,-2.8160994052886963,-0.050545934587717056,9.946682929992676,3
674,7.885356426239014,-97.6889877319336,-85.46504974365234,-1.9419711828231812,-0.06692535430192947,9.126338005065918,3
675,-5.559365272521973,-111.93170166015625,-84.76374053955078,-0.7944246530532837,0.3133074641227722,8.282557487487793,3
676,-38.19292449951172,-104.1856689453125,-81.92851257324219,0.24541901051998138,-0.4365360736846924,7.419485569000244,3
677,-66.82372283935547,-91.49295043945312,-79.3570785522461,1.0179047584533691,-0.9074722528457642,6.5917840003967285,3
678,-72.99262237548828,-71.99701690673828,-75.9747314453125,2.4100825786590576,-1.6719741821289062,5.846236705780029,3
679,-55.560855865478516,-49.11332702636719,-68.899658203125,2.658371686935425,-2.2283623218536377,5.079225063323975,3
680,-33.3394775390625,-26.172779083251953,-58.607418060302734,3.350573778152466,-2.801060914993286,4.429322719573975,3
681,-8.866495132446289,6.6033477783203125,-50.76130294799805,3.250781297683716,-2.9382200241088867,3.8170228004455566,3
682,13.995279312133789,47.881290435791016,-47.14439010620117,3.233264207839966,-2.892954111099243,3.284252166748047,3
683,29.274677276611328,77.31465911865234,-44.70894241333008,2.508342981338501,-2.6685988903045654,2.7809884548187256,3
684,22.003202438354492,87.33695983886719,-40.1060676574707,1.5223158597946167,-2.3317410945892334,2.29944109916687,3
685,7.79628324508667,63.04448699951172,-30.15743064880371,0.7392348051071167,-2.003932237625122,1.8440096378326416,3
686,-3.216644287109375,32.46027374267578,-15.110897064208984,0.36299651861190796,-2.2832956314086914,1.580519199371338,3
687,-9.61888599395752,-1.3646559715270996,-0.9045073390007019,0.036514122039079666,-2.264188289642334,1.3800530433654785,3
688,-0.676449716091156,-35.647708892822266,15.348381996154785,0.23352989554405212,-2.5694055557250977,1.3970844745635986,3
689,17.368627548217773,-62.384979248046875,28.335046768188477,0.7532257437705994,-2.439850091934204,1.513838291168213,3
690,34.66914749145508,-86.66486358642578,39.99073028564453,1.2082548141479492,-2.1436734199523926,1.7892898321151733,3
691,51.38490295410156,-95.57643127441406,50.4891357421875,2.386371612548828,-1.7029497623443604,2.1499500274658203,3
692,57.939083099365234,-90.51300811767578,59.180320739746094,3.2290585041046143,-1.1615018844604492,2.670644760131836,3
693,63.29539489746094,-67.93781280517578,62.13105773925781,4.183757781982422,-0.9053642749786377,3.3365893363952637,3
694,67.71224975585938,-37.97891616821289,63.47711944580078,4.700535774230957,-0.23036204278469086,3.951970338821411,3
695,64.79850006103516,7.175466060638428,60.65883255004883,5.095698833465576,0.3317684829235077,4.608733654022217,3
696,58.6657600402832,45.793827056884766,58.63130187988281,4.752983093261719,0.9905700087547302,5.219315052032471,3
697,51.735694885253906,77.93550109863281,56.77894592285156,4.175390720367432,1.0213751792907715,6.035181045532227,3
698,40.68556213378906,112.47148132324219,53.285400390625,3.1854686737060547,1.674534559249878,6.548947811126709,3
699,30.578874588012695,133.13558959960938,52.460174560546875,2.1474123001098633,1.9936586618423462,7.154916286468506,3
700,22.47393226623535,141.0623016357422,52.684356689453125,0.29487845301628113,2.384429693222046,7.660968780517578,3
701,9.698783874511719,133.45396423339844,51.19664764404297,-0.9225577712059021,2.6713714599609375,8.318325996398926,3
702,-1.1065768003463745,110.32730102539062,47.0209846496582,-2.4648749828338623,2.651987314224243,8.913298606872559,3
703,-14.798542976379395,80.5379638671875,44.241634368896484,-3.4210546016693115,2.7529335021972656,9.43557357788086,3
704,-28.486539840698242,36.509437561035156,35.72808074951172,-4.082338809967041,2.513339042663574,9.967150688171387,3
705,-23.653520584106445,-3.3021204471588135,26.586620330810547,-4.32931661605835,2.322429895401001,10.356531143188477,3
706,-3.035876989364624,-33.56574249267578,16.677749633789062,-4.278104782104492,2.1571526527404785,10.61884880065918,3
707,21.055892944335938,-54.870506286621094,7.944214820861816,-3.6707427501678467,2.1827335357666016,10.852583885192871,3
708,49.0276985168457,-71.11811828613281,-0.16724416613578796,-2.957740306854248,2.531200647354126,10.966981887817383,3
709,63.6919059753418,-76.3666000366211,-5.674097061157227,-2.3863637447357178,3.0457544326782227,10.892128944396973,3
710,66.10956573486328,-68.64704895019531,-11.004718780517578,-1.650185465812683,3.6956934928894043,10.790172576904297,3
711,57.14175033569336,-50.175384521484375,-18.847087860107422,-0.9257582426071167,4.445773601531982,10.665830612182617,3
712,38.37437438964844,-32.002891540527344,-26.66996192932129,-0.5604895353317261,4.967185974121094,10.378133773803711,3
713,7.915027141571045,-16.588031768798828,-35.25703048706055,-0.13440494239330292,5.317312717437744,10.13578987121582,3
714,-19.637237548828125,-3.7345118522644043,-42.714271545410156,-0.056841038167476654,5.369895935058594,9.73934268951416,3
715,-43.466861724853516,11.680161476135254,-47.165199279785156,-0.04967653006315231,5.055691242218018,9.298070907592773,3
716,-58.18195343017578,18.785701751708984,-50.711578369140625,-0.27180421352386475,4.73225736618042,8.804187774658203,3
717,-51.8832893371582,16.852018356323242,-53.355621337890625,-0.4528609812259674,4.558182716369629,8.39224910736084,3
718,-36.81984329223633,10.060517311096191,-54.14942169189453,-0.6033482551574707,4.075475215911865,7.921704292297363,3
719,-25.98287582397461,-1.8526743650436401,-52.091556549072266,-0.7220328450202942,3.518691301345825,7.38386869430542,3
720,-18.728479385375977,-18.96109962463379,-48.419158935546875,-0.6975705027580261,3.1365296840667725,6.88041877746582,3
721,-13.686126708984375,-40.03290557861328,-45.29041290283203,-0.44132986664772034,3.1164422035217285,6.472226619720459,3
722,-21.585695266723633,-53.091758728027344,-42.720298767089844,0.06792568415403366,3.1484036445617676,6.121500492095947,3
723,-27.531879425048828,-55.93387222290039,-40.16244888305664,0.694420337677002,2.9706223011016846,5.7539262771606445,3
724,-36.625186920166016,-51.53255081176758,-36.061038970947266,1.5079935789108276,2.60649037361145,5.492817401885986,3
725,-37.254390716552734,-32.777462005615234,-31.28736686706543,1.5317405462265015,2.450507640838623,4.817510604858398,3
726,-27.681737899780273,-8.952279090881348,-24.16730308532715,1.9478987455368042,2.0991005897521973,4.5467610359191895,3
727,-17.083154678344727,13.829170227050781,-18.783967971801758,2.038991689682007,1.5964688062667847,4.287196159362793,3
728,-8.617175102233887,29.379066467285156,-15.42339038848877,1.5293560028076172,1.8263137340545654,3.8826072216033936,3
729,-5.475341796875,41.771060943603516,-12.252120971679688,1.158082365989685,1.6257350444793701,3.699242115020752,3
730,-17.210752487182617,42.95280456542969,-11.296893119812012,0.7588772773742676,1.5259854793548584,3.5999398231506348,3
731,-31.004655838012695,35.609901428222656,-10.781498908996582,0.1977027952671051,1.4343122243881226,3.42785906791687,3
732,-42.59596252441406,21.41412353515625,-11.804662704467773,-0.053349241614341736,0.9513595104217529,3.381211519241333,3
733,-62.99802780151367,1.3434994220733643,-12.09661865234375,-0.21924802660942078,0.19945405423641205,3.2971205711364746,3
734,-81.17739868164062,-23.584712982177734,-11.019268989562988,-0.10471396893262863,-0.3234436810016632,3.2321176528930664,3
735,-86.1119155883789,-46.20404052734375,-8.250106811523438,0.33487236499786377,-1.388927936553955,3.214733362197876,3
736,-78.29130554199219,-62.15681457519531,-7.852234363555908,0.8331301212310791,-2.007413864135742,3.1508114337921143,3
737,-60.668609619140625,-65.60385131835938,-4.169683456420898,1.5641345977783203,-2.8678793907165527,3.144334316253662,3
738,-40.50947570800781,-60.5424690246582,-2.12843656539917,2.410460948944092,-3.8731207847595215,3.2193331718444824,3
739,-16.55870819091797,-40.34568405151367,-0.5038841962814331,2.584442615509033,-3.548246145248413,3.0897746086120605,3
740,9.299915313720703,-7.146304130554199,-0.03317248076200485,3.1662330627441406,-3.7440738677978516,3.1455323696136475,3
741,31.085968017578125,35.58875274658203,-4.253836154937744,3.1375937461853027,-3.4978692531585693,3.1182334423065186,3
742,31.76361846923828,75.7484359741211,-7.484712600708008,2.5562539100646973,-3.1574065685272217,3.0525856018066406,3
743,12.726558685302734,97.64685821533203,-9.295234680175781,1.7126471996307373,-3.0975277423858643,2.9834017753601074,3
744,-14.246865272521973,78.3213882446289,-10.620429039001465,0.4792395532131195,-2.9546151161193848,2.8589940071105957,3
745,-38.190731048583984,59.4249153137207,-11.600698471069336,-0.25149574875831604,-3.1576647758483887,2.7097244262695312,3
746,-42.939640045166016,36.98931884765625,-14.599717140197754,-0.6815512180328369,-3.763150930404663,2.5676286220550537,3
747,-34.07848358154297,3.227532386779785,-15.431256294250488,-1.0800737142562866,-4.153303146362305,2.3991589546203613,3
748,-17.355527877807617,-24.513734817504883,-13.98779010772705,-1.086998701095581,-4.60233211517334,2.253833770751953,3
749,12.526174545288086,-40.48579788208008,-13.556389808654785,-0.3965834081172943,-4.645679473876953,2.0067451000213623,3
750,45.99618911743164,-53.5064697265625,-15.933144569396973,-0.008566184900701046,-4.387340545654297,1.9104663133621216,3
751,73.7701187133789,-48.278541564941406,-19.33950424194336,0.8179411292076111,-3.972743511199951,1.7010681629180908,3
752,82.56761169433594,-14.517125129699707,-18.919694900512695,1.1997113227844238,-3.049741506576538,1.5673669576644897,3
753,79.60486602783203,25.751928329467773,-17.21993064880371,1.3825711011886597,-2.26009464263916,1.3767386674880981,3
754,65.5948486328125,54.1036262512207,-17.295658111572266,0.9857984781265259,-1.5105863809585571,1.2688827514648438,3
755,42.143760681152344,57.25333023071289,-14.930806159973145,0.15490147471427917,-0.9517039060592651,1.228515863418579,3
756,28.149784088134766,28.167789459228516,-9.648358345031738,-0.3362277150154114,-0.6894181370735168,1.052640438079834,3
757,18.7738094329834,-22.886667251586914,-3.6491782665252686,-0.44634926319122314,-0.48057228326797485,0.8824741840362549,3
758,11.761837005615234,-67.09144592285156,-2.2612979412078857,0.07124821096658707,-0.27197399735450745,0.7318665981292725,3
759,11.123370170593262,-82.52952575683594,-2.4101850986480713,0.7046348452568054,-0.30390918254852295,0.7311219573020935,3
760,-2.4997220039367676,-76.03687286376953,-2.4611103534698486,2.0108642578125,-0.06262020021677017,0.5355818867683411,3
761,-23.310152053833008,-48.51945114135742,-1.6349083185195923,2.36452054977417,-0.23051969707012177,0.6489450931549072,3
762,-38.015045166015625,-4.816713333129883,-1.309583306312561,2.933182716369629,-0.569689154624939,0.623454749584198,3
763,-20.130550384521484,29.734119415283203,-1.7021573781967163,2.8578906059265137,-0.9997600317001343,0.6537506580352783,3
764,10.320923805236816,53.96482467651367,-0.9568427801132202,2.3930561542510986,-1.2636345624923706,0.6866687536239624,3
765,42.432865142822266,70.38835144042969,1.3418054580688477,1.766796588897705,-0.9292615056037903,0.6502265930175781,3
766,72.08757781982422,70.779296875,5.092479228973389,0.9177947640419006,-0.2173449695110321,0.6445677876472473,3
767,86.81905364990234,58.033302307128906,9.20384407043457,0.28500211238861084,0.18078245222568512,0.733698308467865,3
768,83.38958740234375,36.378929138183594,9.289935111999512,-0.17918755114078522,0.8956915140151978,0.831468939781189,3
769,77.24238586425781,8.739110946655273,11.700499534606934,-0.6086632013320923,1.9624850749969482,0.920298159122467,3
770,49.57061767578125,2.2406976222991943,12.304326057434082,-0.5841350555419922,2.8157811164855957,1.0085123777389526,3
771,21.255592346191406,-3.7533321380615234,13.834439277648926,-0.5306724309921265,2.923267126083374,1.1680221557617188,3
772,-10.180840492248535,-11.394024848937988,13.967594146728516,-0.3837919235229492,2.942810535430908,1.3125853538513184,3
773,-36.39957809448242,-16.544652938842773,14.997389793395996,-0.18950167298316956,2.772063970565796,1.4497220516204834,3
774,-58.82648849487305,-10.194788932800293,15.93751049041748,-0.005125875119119883,2.2321267127990723,1.6013528108596802,3
775,-70.508544921875,-13.689390182495117,14.773021697998047,0.23921138048171997,1.7396180629730225,1.7599722146987915,3
776,-65.8422622680664,-16.00572967529297,12.344209671020508,0.3581770062446594,0.9076321125030518,1.9157050848007202,3
777,-52.26106643676758,-9.374076843261719,10.338533401489258,0.518685519695282,0.09951064735651016,2.042818784713745,3
778,-35.18194580078125,3.599409580230713,6.151975154876709,0.6863810420036316,-0.22817833721637726,2.145378351211548,3
779,-11.108823776245117,16.536914825439453,0.8151968121528625,0.5504923462867737,-0.4070340692996979,2.1849918365478516,3
780,7.497824192047119,31.023948669433594,-4.0088887214660645,0.30060651898384094,-0.3596331775188446,2.1762523651123047,3
781,23.972387313842773,40.91643524169922,-7.578466415405273,-0.19645477831363678,-0.19205941259860992,2.1084392070770264,3
782,36.18547821044922,47.512569427490234,-9.092857360839844,-0.6803073287010193,0.08472436666488647,2.0246784687042236,3
783,40.456600189208984,47.595741271972656,-12.293285369873047,-1.2522644996643066,0.5608527660369873,1.924583077430725,3
784,48.55156326293945,49.66279983520508,-16.741729736328125,-1.765852689743042,0.7796269655227661,1.7991485595703125,3
785,61.276771545410156,50.44583511352539,-22.083669662475586,-2.2172696590423584,1.2573330402374268,1.6377898454666138,3
786,76.51731872558594,47.81370544433594,-25.37767791748047,-2.8485047817230225,2.2122137546539307,1.4453685283660889,3
787,94.55705261230469,28.582447052001953,-29.520559310913086,-3.1697609424591064,2.602895975112915,1.1783729791641235,3
788,96.12890625,-1.5358285903930664,-31.76984977722168,-3.3694565296173096,3.4467101097106934,0.8936446905136108,3
789,80.53041076660156,-26.254873275756836,-32.5528564453125,-3.158066749572754,4.727213382720947,0.6705865263938904,3
790,53.00912094116211,-49.652061462402344,-33.192405700683594,-3.033871650695801,5.175172805786133,0.2290586531162262,3
791,10.902435302734375,-57.65033721923828,-33.781795501708984,-2.4482250213623047,5.999353885650635,-0.039866458624601364,3
792,-35.220088958740234,-54.43855285644531,-36.781410217285156,-1.7023450136184692,5.744269371032715,-0.4642268121242523,3
793,-81.67108917236328,-54.34844207763672,-38.54729461669922,-1.0934510231018066,5.035709381103516,-0.927444577217102,3
794,-109.28331756591797,-50.344425201416016,-38.913787841796875,-0.9375457763671875,4.239830493927002,-1.4672080278396606,3
795,-116.39250183105469,-36.668277740478516,-38.55195617675781,-0.09352627396583557,2.7318124771118164,-1.8454687595367432,3
796,-106.89840698242188,-19.58165740966797,-37.26781463623047,0.04791546240448952,1.8810032606124878,-2.242699146270752,3
797,-75.54348754882812,-3.473351240158081,-35.675254821777344,-0.011370976455509663,1.1622862815856934,-2.636326789855957,3
798,-34.74052429199219,2.811464309692383,-33.89293670654297,0.10343156009912491,0.4756004512310028,-2.9555532932281494,3
799,22.740915298461914,4.22733211517334,-28.520076751708984,-0.03154110163450241,0.2591521739959717,-3.3250722885131836,3
800,68.91439819335938,7.806939125061035,-23.723054885864258,-0.030527763068675995,0.8504137992858887,-3.509047269821167,3
801,93.114013671875,13.95039176940918,-22.78522300720215,-0.1041082888841629,1.5893936157226562,-3.732466697692871,3
802,94.39041137695312,29.633787155151367,-24.6993350982666,-0.3024010956287384,2.9808449745178223,-3.8741109371185303,3
803,81.23958587646484,31.22862434387207,-27.43509292602539,-0.7976887822151184,3.4493627548217773,-4.29338264465332,3
804,53.94145584106445,36.016441345214844,-29.61819839477539,-1.1946239471435547,4.737570285797119,-4.4569091796875,3
805,24.312084197998047,35.611846923828125,-32.816436767578125,-1.5073546171188354,4.630915641784668,-4.825434684753418,3
806,-0.5720407962799072,32.981266021728516,-33.80009078979492,-2.0381627082824707,4.931690216064453,-5.153696537017822,3
807,-23.530858993530273,24.02910804748535,-32.892574310302734,-2.2204208374023438,4.69428014755249,-5.44899320602417,3
808,-39.565975189208984,3.28005051612854,-28.598346710205078,-2.391315221786499,4.34584903717041,-5.748082637786865,3
809,-55.644309997558594,-15.357754707336426,-24.941011428833008,-2.498995542526245,3.825078248977661,-6.102016925811768,3
810,-75.79370880126953,-16.208351135253906,-22.000648498535156,-2.2233142852783203,2.8298017978668213,-6.389361381530762,3
811,-83.36495208740234,-10.927716255187988,-20.977134704589844,-1.861595869064331,2.20756459236145,-6.457230091094971,3
812,-81.71874237060547,-9.725171089172363,-18.330520629882812,-1.8645997047424316,1.262474536895752,-6.737916469573975,3
813,-67.39051055908203,-17.834989547729492,-14.144750595092773,-1.7216830253601074,0.6566995978355408,-6.843862056732178,3
814,-46.93389129638672,-38.76933670043945,-9.425299644470215,-1.50872802734375,0.008267654106020927,-7.000990867614746,3
815,-14.243764877319336,-51.987186431884766,-2.270388603210449,-0.7513828873634338,-0.3365550935268402,-6.9287543296813965,3
816,15.232931137084961,-58.426612854003906,3.5788724422454834,-0.04338321462273598,0.16218344867229462,-6.715051174163818,3
817,26.61518669128418,-59.23175811767578,3.8246304988861084,0.709923267364502,0.45665010809898376,-6.596368312835693,3
818,36.696598052978516,-51.93650817871094,1.4314237833023071,0.9647480249404907,0.913213312625885,-6.627530574798584,3
819,42.11061096191406,-30.011980056762695,3.0299761295318604,1.3673794269561768,1.2842165231704712,-6.640239238739014,3
820,27.00870132446289,8.008729934692383,2.5090136528015137,1.688167929649353,1.8006716966629028,-6.555383682250977,3
821,-7.614774703979492,45.43275451660156,-3.317124366760254,1.3737396001815796,1.9128299951553345,-6.567192077636719,3
822,-38.90818405151367,65.69330596923828,-7.36599588394165,0.5554533004760742,1.529165506362915,-6.685558795928955,3
823,-50.250701904296875,76.3667984008789,-6.663253307342529,-0.22419238090515137,0.8750799894332886,-6.7795329093933105,3
824,-38.482322692871094,73.33756256103516,-5.15887975692749,-1.271767020225525,0.1948191076517105,-6.906058311462402,3
825,-11.985809326171875,53.50977325439453,0.08859124779701233,-1.9104701280593872,0.034631092101335526,-6.918619632720947,3
826,17.818870544433594,21.979469299316406,8.36622142791748,-2.386714220046997,-0.0033847338054329157,-6.898247241973877,3
827,41.286136627197266,-29.020732879638672,16.430757522583008,-2.2696845531463623,0.39452147483825684,-6.746816635131836,3
828,59.7224006652832,-58.01994323730469,22.150360107421875,-1.6449929475784302,0.9101970195770264,-6.5434794425964355,3
829,64.33930969238281,-67.26557922363281,29.0203914642334,-0.7846220135688782,1.7048583030700684,-6.272451877593994,3
830,45.508384704589844,-67.97404479980469,33.71070098876953,-0.08628515899181366,2.333554983139038,-5.978959083557129,3
831,17.037567138671875,-66.49594116210938,37.23986053466797,1.1617655754089355,2.8765480518341064,-5.599864959716797,3
832,-23.408523559570312,-57.153202056884766,41.00536346435547,1.1488240957260132,2.336867332458496,-5.363414764404297,3
833,-57.763641357421875,-43.02219009399414,43.3087272644043,2.0521795749664307,1.6653271913528442,-4.9540300369262695,3
834,-71.59058380126953,-23.22861099243164,45.02620315551758,2.2102606296539307,0.8587774634361267,-4.5521697998046875,3
835,-63.50666427612305,-7.409911632537842,49.13096237182617,2.5159854888916016,0.021780572831630707,-4.076406002044678,3
836,-52.02102279663086,11.52644157409668,49.75367736816406,2.3611931800842285,-0.6230591535568237,-3.596832513809204,3
837,-43.36771774291992,30.630918502807617,50.82045364379883,2.0411252975463867,-1.0901963710784912,-3.1100621223449707,3
838,-31.46294403076172,36.28411865234375,53.3069953918457,1.5370864868164062,-1.5041018724441528,-2.6098575592041016,3
839,-20.219030380249023,37.35343551635742,55.406063079833984,1.0641330480575562,-1.8391153812408447,-2.080035924911499,3
840,-1.5677196979522705,39.517459869384766,57.05877685546875,0.6679880619049072,-1.94962739944458,-1.5327311754226685,3
841,26.747358322143555,39.01778793334961,58.16300582885742,0.17019742727279663,-1.6551682949066162,-0.9865022897720337,3
842,43.99184036254883,45.4735107421875,55.07731628417969,-0.36368781328201294,-1.3162997961044312,-0.4092910885810852,3
843,44.06703567504883,40.73454666137695,49.569427490234375,-0.6987375020980835,-0.6619597673416138,0.07961909472942352,3
844,49.350154876708984,31.129961013793945,46.25581741333008,-0.9389151334762573,-0.10893663763999939,0.5335657000541687,3
845,41.14171600341797,13.802943229675293,41.58863067626953,-1.1163250207901,0.33505672216415405,0.9734172821044922,3
846,43.53316116333008,1.9817835092544556,39.99330520629883,-1.2638081312179565,0.9530948996543884,1.392011284828186,3
847,34.38971710205078,-1.2718415260314941,35.84074783325195,-1.169089674949646,1.0644961595535278,1.7690062522888184,3
848,21.949865341186523,-0.8662704229354858,31.4090576171875,-1.2386869192123413,1.2211297750473022,2.1330130100250244,3
849,9.804984092712402,-7.051862716674805,27.916088104248047,-1.1849864721298218,1.4990290403366089,2.4258172512054443,3
850,-2.4217629432678223,-16.419145584106445,25.610395431518555,-1.1445263624191284,1.5851024389266968,2.7119452953338623,3
851,-1.1357531547546387,-27.163835525512695,24.05301284790039,-0.7749510407447815,1.546891689300537,2.9331507682800293,3
852,-3.149074077606201,-30.064226150512695,23.580276489257812,-0.49331122636795044,1.2579466104507446,3.156463623046875,3
853,-8.904769897460938,-20.419878005981445,20.225284576416016,-0.4126923382282257,1.3749182224273682,3.4076483249664307,3
854,-18.085115432739258,0.18894504010677338,16.643423080444336,-0.35484933853149414,1.1440980434417725,3.599924087524414,3
855,-29.06806182861328,11.08305549621582,13.899618148803711,-0.31805065274238586,0.9189676642417908,3.75064754486084,3
856,-30.922143936157227,16.519699096679688,13.67967700958252,-0.4218399226665497,0.7188286781311035,3.8984296321868896,3
857,-32.02920913696289,18.033544540405273,12.677474975585938,-0.7303752303123474,0.2462102174758911,4.035691261291504,3
858,-19.897390365600586,27.892148971557617,8.920248985290527,-0.9824123978614807,0.22244206070899963,4.175903797149658,3
859,-7.221370220184326,28.50764274597168,5.17543363571167,-1.2338426113128662,0.09010502696037292,4.25602388381958,3
860,5.389926910400391,31.841224670410156,3.017427444458008,-1.609745740890503,0.00974647980183363,4.300995349884033,3
861,8.345352172851562,26.9742431640625,1.706685185432434,-1.9199507236480713,0.23804505169391632,4.347212791442871,3
862,18.707056045532227,21.69931411743164,-0.856448769569397,-2.2548866271972656,0.6404390931129456,4.395134925842285,3
863,15.34293270111084,1.1137396097183228,-3.9897313117980957,-2.347480535507202,0.8743380308151245,4.379807472229004,3
864,13.527323722839355,-19.89244270324707,-6.3759050369262695,-2.063627243041992,0.9091039896011353,4.290040969848633,3
865,12.383780479431152,-37.14741134643555,-6.747415542602539,-1.8489832878112793,1.0551035404205322,4.227701187133789,3
866,5.546228408813477,-50.67414474487305,-5.952792644500732,-1.0745038986206055,1.1263720989227295,4.120285511016846,3
867,1.178748607635498,-55.059505462646484,-4.1670308113098145,-0.7507973313331604,1.252784013748169,4.092522144317627,3
868,2.044409990310669,-45.171409606933594,-1.628722906112671,-0.20143862068653107,1.2844085693359375,4.052114009857178,3
869,1.7096296548843384,-27.166793823242188,-0.9749873876571655,0.33127307891845703,1.5268603563308716,4.063854694366455,3
870,4.273472309112549,-2.8397438526153564,-1.3682003021240234,0.19311009347438812,1.5009771585464478,4.051163196563721,3
871,-5.374695777893066,19.55156707763672,-4.641756057739258,0.11734753847122192,1.4723564386367798,4.018721103668213,3
872,-16.711994171142578,31.391525268554688,-6.019441604614258,-0.16395175457000732,1.4515256881713867,3.9868528842926025,3
873,-26.605253219604492,29.564067840576172,-7.400169849395752,-0.5703663229942322,1.141078233718872,3.913525342941284,3
874,-40.463165283203125,24.014841079711914,-9.623835563659668,-0.9740111827850342,0.48531627655029297,3.7954347133636475,3
875,-40.56892395019531,9.52511978149414,-10.338323593139648,-1.0346146821975708,0.4311734437942505,3.740003824234009,3
876,-34.09505844116211,-5.127708911895752,-13.136672973632812,-1.0031955242156982,0.1380797028541565,3.632450580596924,3
877,-26.702463150024414,-9.46737289428711,-14.862654685974121,-0.8742163777351379,-0.3252207338809967,3.474581241607666,3
878,-18.690505981445312,-11.35091781616211,-15.648199081420898,-0.7171531915664673,-0.20360419154167175,3.3652117252349854,3
879,-17.274736404418945,-12.294004440307617,-19.515363693237305,-0.6133045554161072,-0.3115557134151459,3.1984498500823975,3
880,-37.28584289550781,-11.50590991973877,-22.653175354003906,-0.40751856565475464,-0.7676231861114502,2.9644644260406494,3
881,-55.963497161865234,-9.769679069519043,-24.238136291503906,-0.4098544120788574,-0.8900708556175232,2.774198293685913,3
882,-56.67031478881836,-3.958806037902832,-25.307723999023438,-0.20148922502994537,-1.703194499015808,2.49418568611145,3
883,-46.88018035888672,-3.4943089485168457,-25.821733474731445,-0.2168445885181427,-2.192548990249634,2.247037410736084,3
884,-24.8177490234375,-0.553386390209198,-25.672449111938477,-0.19741947948932648,-2.5092129707336426,1.9934831857681274,3
885,-6.845829963684082,-5.079219341278076,-25.410734176635742,-0.25190767645835876,-2.5451362133026123,1.7585184574127197,3
886,6.8926239013671875,-18.591495513916016,-21.778945922851562,0.08876287192106247,-2.3782219886779785,1.4933617115020752,3
887,15.122322082519531,-32.87569808959961,-17.731473922729492,0.3120976686477661,-2.262749433517456,1.307991623878479,3
888,4.604332447052002,-37.8254508972168,-13.466816902160645,0.4460420310497284,-2.1109442710876465,1.2230671644210815,3
889,-22.3431396484375,-39.02302551269531,-10.768129348754883,1.090599775314331,-2.3347511291503906,1.0389742851257324,3
890,-47.976402282714844,-38.7649040222168,-6.844918727874756,1.3647953271865845,-2.5320756435394287,1.0069838762283325,3
891,-70.37907409667969,-38.683326721191406,-7.692577838897705,1.9032799005508423,-3.406348943710327,0.9132168292999268,3
892,-79.699951171875,-54.86764907836914,-7.206559658050537,2.1614785194396973,-3.790485382080078,0.9045760035514832,3
893,-67.74242401123047,-64.85042572021484,-3.6726033687591553,2.93784236907959,-4.88167667388916,0.8654798865318298,3
894,-54.979522705078125,-54.97718048095703,0.43102121353149414,3.4591636657714844,-5.115635395050049,0.8966060280799866,3
895,-38.19441223144531,-24.86920166015625,3.364607572555542,4.080198287963867,-5.742514610290527,0.8921756744384766,3
896,-31.147647857666016,14.525390625,4.537266254425049,3.9665207862854004,-5.923515796661377,0.9899178147315979,3
897,-15.39036750793457,45.26982879638672,2.216886043548584,3.582599639892578,-6.295074462890625,1.0661821365356445,3
898,1.7039433717727661,50.18495178222656,-2.2167458534240723,2.866919755935669,-6.305321216583252,1.12473726272583,3
899,23.242935180664062,30.540613174438477,-7.866818904876709,2.602303981781006,-6.22745418548584,0.9573798775672913,3
900,48.23783493041992,17.177959442138672,-11.626739501953125,2.397732973098755,-5.703105449676514,0.7600541114807129,3
901,51.896785736083984,11.93725299835205,-15.173315048217773,2.3028647899627686,-5.152091026306152,0.584259569644928,3
902,53.32157897949219,17.649885177612305,-22.0800838470459,2.183220386505127,-4.433045864105225,0.30379998683929443,3
903,47.775882720947266,22.371315002441406,-27.533607482910156,1.9250496625900269,-4.035139083862305,0.16241076588630676,3
904,46.311134338378906,32.138465881347656,-33.25279235839844,1.6195294857025146,-3.3544981479644775,-0.18576273322105408,3
905,40.253326416015625,33.90049362182617,-36.22382354736328,1.2594176530838013,-2.9282803535461426,-0.5162633061408997,3
906,34.58214569091797,32.6575927734375,-35.28419494628906,0.9787383079528809,-2.66800594329834,-0.8816110491752625,3
907,37.96138000488281,31.241050720214844,-29.373943328857422,0.5918534994125366,-2.3595385551452637,-1.1290313005447388,3
908,26.350860595703125,31.271928787231445,-22.314496994018555,0.334911584854126,-2.1101794242858887,-1.40790855884552,3
909,-4.5168938636779785,22.514177322387695,-17.036649703979492,0.13526369631290436,-2.044926404953003,-1.6379153728485107,3
910,-27.793304443359375,1.1924569606781006,-11.652626037597656,0.052697159349918365,-2.356801748275757,-1.7837855815887451,3
911,-13.58433723449707,-35.05278396606445,-4.703333854675293,0.35977840423583984,-2.8289945125579834,-1.9023685455322266,3
912,22.407424926757812,-65.96884155273438,2.7674200534820557,0.9446823596954346,-2.6793925762176514,-1.9955819845199585,3
913,50.606693267822266,-76.06935119628906,11.649175643920898,1.9395676851272583,-2.1871445178985596,-2.1080029010772705,3
914,67.74848175048828,-60.585472106933594,21.138439178466797,2.5946664810180664,-1.4385892152786255,-1.9359357357025146,3
915,74.198486328125,-30.50872802734375,25.478641510009766,3.3530921936035156,-0.6523237824440002,-1.8727033138275146,3
916,52.3756103515625,22.04094886779785,27.7847900390625,3.1459286212921143,0.08459483832120895,-1.4569153785705566,3
917,13.93743896484375,63.615631103515625,29.416988372802734,2.593864679336548,0.20557333528995514,-0.9757615327835083,3
918,-21.30074119567871,81.67053985595703,31.063413619995117,1.6927965879440308,0.22726546227931976,-0.5861924290657043,3
919,-48.12013626098633,89.77739715576172,32.701881408691406,0.8665072917938232,-0.4031817615032196,-0.1718495935201645,3
920,-55.90648651123047,76.44698333740234,35.90155029296875,-0.13423962891101837,-1.0411080121994019,0.24454842507839203,3
921,-46.029258728027344,57.51786804199219,36.815250396728516,-0.6643856763839722,-1.5176390409469604,0.528019905090332,3
922,-30.30957794189453,30.55074119567871,32.030147552490234,-1.293507695198059,-1.8680059909820557,0.9001072645187378,3
923,-5.2304768562316895,3.847043037414551,27.66251564025879,-1.468167781829834,-2.031233310699463,1.1821410655975342,3
924,30.825782775878906,-9.325919151306152,24.72681427001953,-1.237120509147644,-1.7898750305175781,1.3747223615646362,3
925,59.54840087890625,-15.036543846130371,24.20029640197754,-1.1237934827804565,-1.334915041923523,1.6255441904067993,3
926,84.0159683227539,-7.515328884124756,24.319250106811523,-0.946042001247406,-0.21409785747528076,1.8001374006271362,3
927,77.9756088256836,-2.8659706115722656,23.39971160888672,-0.7717992663383484,0.5784178376197815,2.0090692043304443,3
928,60.42897033691406,-1.6927849054336548,25.874378204345703,-0.6539590954780579,1.4263784885406494,2.231825351715088,3
929,25.275230407714844,-7.764006614685059,26.415409088134766,-0.5384983420372009,1.7606755495071411,2.4840750694274902,3
930,-20.71164894104004,-9.662561416625977,25.682594299316406,-0.41408905386924744,1.538222312927246,2.7473528385162354,3
931,-62.496150970458984,-9.250629425048828,24.06322479248047,-0.2534821927547455,0.9151503443717957,2.9887306690216064,3
932,-96.79422760009766,-4.288583278656006,25.04265785217285,-0.30707067251205444,0.0841207206249237,3.241011619567871,3
933,-105.71575164794922,-6.932931423187256,27.275388717651367,-0.24336165189743042,-1.2379851341247559,3.4965178966522217,3
934,-88.21684265136719,-12.054743766784668,27.521360397338867,-0.21317702531814575,-1.9024566411972046,3.7825069427490234,3
935,-50.48194885253906,-13.897027015686035,26.21124267578125,0.015896758064627647,-2.8807899951934814,4.054934501647949,3
936,-10.39193058013916,-15.039898872375488,22.00946807861328,0.08125954866409302,-2.867831230163574,4.3180251121521,3
937,37.171791076660156,-6.795742511749268,16.73711585998535,0.15076260268688202,-2.6326191425323486,4.5234503746032715,3
938,53.32670974731445,-1.6447501182556152,14.688100814819336,0.28173112869262695,-1.9275521039962769,4.6875762939453125,3
939,62.312255859375,-2.045518636703491,13.086946487426758,0.10663862526416779,-1.2581878900527954,4.8415303230285645,3
940,61.01133346557617,0.6870784163475037,14.691434860229492,0.17411360144615173,-0.4493720531463623,4.978893280029297,3
941,45.01288986206055,-11.822929382324219,16.32120132446289,0.23685987293720245,-0.22898554801940918,5.119296073913574,3
942,22.12273597717285,-10.71976375579834,18.466716766357422,0.30084940791130066,0.29449933767318726,5.29884147644043,3
943,-6.081480503082275,-12.938333511352539,18.56770896911621,0.4342644214630127,0.16490080952644348,5.476381778717041,3
944,-21.929182052612305,-14.955163955688477,23.283245086669922,0.6020134091377258,-0.020026331767439842,5.684004306793213,3
945,-47.173587799072266,0.7002562880516052,26.238021850585938,0.8194923996925354,-0.3936339318752289,5.929255962371826,3
946,-57.39988708496094,8.618310928344727,25.772979736328125,0.7099685072898865,-1.2534595727920532,6.185970306396484,3
947,-61.76496505737305,8.501627922058105,26.335960388183594,0.5238566994667053,-1.7173138856887817,6.442251682281494,3
948,-39.12006759643555,4.397047519683838,27.041059494018555,0.45352843403816223,-2.500030279159546,6.711118221282959,3
949,-22.875938415527344,-0.9481179118156433,26.510618209838867,0.36211255192756653,-2.4050614833831787,6.974839210510254,3
950,-5.871719837188721,-8.4017333984375,22.71285057067871,0.45859572291374207,-2.5294992923736572,7.226565361022949,3
951,26.044631958007812,-12.48194694519043,20.28573989868164,0.6868453025817871,-2.356614112854004,7.442145347595215,3
952,55.85779571533203,-12.403228759765625,21.407384872436523,0.6541983485221863,-1.7878247499465942,7.661855697631836,3
953,55.169151306152344,-1.719840168952942,19.333114624023438,0.83235102891922,-0.9565760493278503,7.859642505645752,3
954,34.332679748535156,1.2107528448104858,13.790907859802246,0.8095612525939941,-0.591488778591156,8.036089897155762,3
955,3.810434103012085,1.5834920406341553,6.768989562988281,0.7348172068595886,-0.1255955696105957,8.139022827148438,3
956,-37.58205795288086,2.308326244354248,0.2801136374473572,0.5561453700065613,-0.9284147620201111,8.211488723754883,3
957,-47.77469253540039,1.2444579601287842,-4.756529331207275,0.5897091627120972,-1.6310369968414307,8.198938369750977,3
958,-42.862979888916016,5.350094318389893,-8.483426094055176,0.6822755932807922,-2.149003267288208,8.133584022521973,3
959,-19.325849533081055,-10.355622291564941,-11.192010879516602,0.7562768459320068,-2.387037754058838,8.033225059509277,3
960,12.537721633911133,-32.761966705322266,-15.861906051635742,0.9527498483657837,-2.446913003921509,7.904451370239258,3
961,41.97720718383789,-43.00199890136719,-17.988544464111328,1.303561806678772,-2.1147756576538086,7.748702526092529,3
962,67.43193817138672,-48.01395034790039,-19.01947021484375,2.1305923461914062,-1.160691738128662,7.51912260055542,3
963,74.34418487548828,-30.14814567565918,-22.111543655395508,2.1277034282684326,-0.6166706085205078,7.380971908569336,3
964,72.08306884765625,-1.8493225574493408,-28.935626983642578,2.351405620574951,0.3771405816078186,7.095088481903076,3
965,61.32558822631836,33.852630615234375,-32.49472427368164,2.1490538120269775,1.0400066375732422,6.798722743988037,3
966,33.80710983276367,66.56784057617188,-36.04774475097656,1.375267744064331,1.5491440296173096,6.484486103057861,3
967,-2.360992908477783,80.44715118408203,-40.89044189453125,0.49363577365875244,1.538636326789856,6.159547328948975,3
968,-24.281707763671875,90.04766082763672,-46.03892517089844,-0.6451819539070129,1.3661001920700073,5.745182991027832,3
969,-38.742366790771484,91.22312927246094,-51.18417739868164,-1.4243634939193726,0.7333452701568604,5.328357696533203,3
970,-31.924951553344727,66.09993743896484,-51.40911102294922,-2.28290057182312,0.22223030030727386,4.8273515701293945,3
971,-3.910998582839966,39.07074737548828,-46.37544631958008,-2.9089388847351074,0.102134570479393,4.314721584320068,3
972,31.24948501586914,3.176377534866333,-41.965576171875,-2.8791229724884033,0.3863038718700409,3.903648853302002,3
973,58.372947692871094,-29.913227081298828,-36.03862762451172,-2.628523349761963,1.0674161911010742,3.534273624420166,3
974,69.82903289794922,-47.20069885253906,-28.634601593017578,-1.9959356784820557,1.8630768060684204,3.249746084213257,3
975,65.85016632080078,-50.84183883666992,-24.264680862426758,-1.341902494430542,2.747687578201294,3.0138144493103027,3
976,51.25254440307617,-33.878692626953125,-21.710187911987305,-1.0155631303787231,2.9964802265167236,2.682931900024414,3
977,19.89137077331543,4.12266731262207,-20.102554321289062,-0.7829971313476562,3.454448938369751,2.4880032539367676,3
978,-12.509354591369629,31.923206329345703,-17.691953659057617,-1.0945159196853638,3.437014579772949,2.2586252689361572,3
979,-35.260765075683594,44.79948043823242,-13.590052604675293,-1.692505121231079,3.064113140106201,2.027745246887207,3
980,-46.72785568237305,44.19321823120117,-7.965162754058838,-2.273784875869751,2.398050546646118,1.8442636728286743,3
981,-41.03191375732422,31.00641632080078,-3.0551092624664307,-2.716099977493286,1.804113507270813,1.7485072612762451,3
982,-21.77657699584961,10.360818862915039,2.293208122253418,-2.8962998390197754,1.5444724559783936,1.7968326807022095,3
983,-2.028475522994995,-8.371847152709961,8.529229164123535,-2.8032748699188232,1.4097367525100708,1.9011335372924805,3
