,gyro.x,gyro.y,gyro.z,stabilizer.pitch,stabilizer.roll,stabilizer.yaw,label
0,-0.04159530997276306,-0.10422928631305695,-0.12441624701023102,-0.10213611274957657,0.3957110345363617,9.252094268798828,3
1,-0.048746854066848755,0.05018605664372444,0.05561496317386627,-0.10423221439123154,0.4061161279678345,9.243024826049805,3
2,-0.0310794860124588,-0.03459453582763672,0.10990070551633835,-0.10446476936340332,0.41463619470596313,9.23397159576416,3
3,0.04488535225391388,0.0042696488089859486,0.050779715180397034,-0.10579906404018402,0.42052268981933594,9.225367546081543,3
4,0.037557452917099,0.04748920351266861,-0.07849430292844772,-0.10606782138347626,0.4202437996864319,9.216136932373047,3
5,0.05197225883603096,-0.05176360532641411,-0.0538007877767086,-0.1060078889131546,0.4201904237270355,9.20632553100586,3
6,0.15595842897891998,-5.171065276954323e-05,0.005942410323768854,-0.10583744198083878,0.42083945870399475,9.196737289428711,3
7,0.024364914745092392,0.014942372217774391,-0.032599255442619324,-0.1741969734430313,0.5618560910224915,9.189227104187012,3
8,0.03533127158880234,-0.07213228940963745,-0.048510223627090454,-0.08763732761144638,0.664762556552887,9.180758476257324,3
9,-0.06352133303880692,-0.06041568145155907,0.02942918799817562,-0.1602797508239746,0.32900527119636536,9.166731834411621,3
10,-0.07931359112262726,0.019229641184210777,0.057730887085199356,-0.14611351490020752,0.49018269777297974,9.160541534423828,3
11,0.05108027160167694,0.031666841357946396,0.00847093015909195,-0.13691116869449615,0.3353986144065857,9.14980411529541,3
12,-0.04995516315102577,-0.054169923067092896,0.052445366978645325,-0.05983715504407883,0.49581119418144226,9.143202781677246,3
13,0.03690556436777115,-0.054579880088567734,0.010758943855762482,-0.1405641883611679,0.4079631567001343,9.133955955505371,3
14,0.0347810722887516,0.0727485790848732,0.03478129953145981,0.005664035212248564,0.34393876791000366,9.123946189880371,3
15,0.022375140339136124,-0.09409522265195847,-0.08007816970348358,-0.16082604229450226,0.5707727670669556,9.1157808303833,3
16,0.026003943756222725,0.0812179371714592,-0.0725497305393219,-0.07856989651918411,0.32911646366119385,9.105710983276367,3
17,0.03257719427347183,0.024031704291701317,-0.14453990757465363,-0.08756010979413986,0.35615968704223633,9.095926284790039,3
18,0.0035612008068710566,-0.0624515563249588,-0.02816690318286419,-0.09425102174282074,0.37680768966674805,9.08592414855957,3
19,-0.055300988256931305,0.009773829020559788,-0.009663818404078484,-0.09870395064353943,0.6626414656639099,9.075887680053711,3
20,-0.05180967226624489,-0.06583432108163834,0.08230164647102356,-0.10130643844604492,0.5332428812980652,9.067452430725098,3
21,-0.0016158452490344644,-0.013022937811911106,-0.05415450409054756,-0.10320226848125458,0.3677963614463806,9.058734893798828,3
22,-0.014936828054487705,-0.11152045428752899,-0.1837480515241623,-0.10442633181810379,0.3152182698249817,9.048246383666992,3
23,0.03601561486721039,-0.02014843560755253,-0.03980623185634613,-0.10583199560642242,0.5527005791664124,9.038129806518555,3
24,-0.1315508484840393,-0.04879548028111458,-0.029890920966863632,-0.10498397052288055,0.5221923589706421,9.028454780578613,3
25,0.018350988626480103,-0.08299581706523895,-0.010925406590104103,-0.10583828389644623,0.3607403039932251,9.028324127197266,3
26,0.015515707433223724,0.138321653008461,0.1251499205827713,-0.10646545141935349,0.5221046209335327,9.019279479980469,3
27,0.042880669236183167,0.021863559260964394,-0.055369310081005096,-0.10756438970565796,0.3594265580177307,9.010458946228027,3
28,0.0008193597313947976,-0.05371692404150963,-0.11009178310632706,-0.10923990607261658,0.37998947501182556,9.001941680908203,3
29,-0.019693490117788315,-0.062052395194768906,-0.04139823094010353,-0.10919429361820221,0.3240199685096741,8.991903305053711,3
30,0.058494921773672104,-0.0758678987622261,0.0051376959308981895,-0.1089683249592781,0.3533814251422882,8.982523918151855,3
31,-0.07638184726238251,-0.03408047929406166,0.04758680239319801,-0.10916364938020706,0.3751744031906128,8.973719596862793,3
32,-0.08937085419893265,-0.08499862253665924,0.06308448314666748,-0.10924945026636124,0.3900943994522095,8.96470832824707,3
33,-0.017941977828741074,0.07167211174964905,0.04205953702330589,-0.11006584763526917,0.40164321660995483,8.956568717956543,3
34,0.00837117899209261,0.00016362484893761575,0.0034761657007038593,-0.11076214164495468,0.5485260486602783,8.9487886428833,3
35,0.02012178674340248,-0.0632675513625145,-0.08367661386728287,-0.11080610007047653,0.45041969418525696,8.939428329467773,3
36,-0.012373833917081356,-0.02698434703052044,0.08696213364601135,-0.11125781387090683,0.651776909828186,8.930444717407227,3
37,0.035734545439481735,-0.09242455661296844,0.02582438290119171,-0.11060363799333572,0.5268328785896301,8.921323776245117,3
38,-0.05145145580172539,-0.03240743651986122,-0.018473343923687935,-0.1098095029592514,0.5018211007118225,8.912727355957031,3
39,0.020636344328522682,-0.031151272356510162,0.030376771464943886,-0.11049823462963104,0.2775128483772278,8.90283489227295,3
40,0.09309210628271103,-0.08000625669956207,0.002126056235283613,-0.1794893741607666,0.3186514675617218,8.89515209197998,3
41,-0.07281652092933655,-0.07778727263212204,-0.10038875788450241,-0.09225709736347198,0.34983691573143005,8.885069847106934,3
42,0.07032840698957443,-0.052151042968034744,-0.025586873292922974,-0.09693235158920288,0.37296053767204285,8.875658988952637,3
43,0.07222530990839005,-0.0653061494231224,-0.1058056578040123,-0.09993080794811249,0.3906956613063812,8.866820335388184,3
44,0.012417664751410484,-0.06839987635612488,-0.055996574461460114,-0.1025613322854042,0.4044542908668518,8.857711791992188,3
45,0.05445335805416107,-0.026453625410795212,0.12222165614366531,-0.10473626106977463,0.4144458472728729,8.848267555236816,3
46,-0.031216703355312347,-0.040570925921201706,-0.03726362809538841,-0.1743980199098587,0.4218958020210266,8.84119701385498,3
47,0.07661563158035278,-0.022499646991491318,-0.013715464621782303,-0.1568230241537094,0.42793360352516174,8.832015991210938,3
48,0.09211189299821854,-0.11086113750934601,0.025651508942246437,-0.07618094980716705,0.43399783968925476,8.821439743041992,3
49,-0.04056981950998306,0.04504431411623955,0.14738430082798004,-0.08388812839984894,0.4383295774459839,8.81269645690918,3
50,0.041214875876903534,-0.007263546343892813,0.03303050994873047,-0.08982021361589432,0.44123825430870056,8.805133819580078,3
51,-0.0028336304239928722,0.011742714792490005,0.02942637912929058,-0.08989319950342178,0.4411212205886841,8.797100067138672,3
52,0.0737079307436943,-0.013883746229112148,0.08352610468864441,-0.09286665171384811,0.5779565572738647,8.788084983825684,3
53,0.008506539277732372,-0.042375773191452026,-0.020925423130393028,-0.09468381106853485,0.6787627935409546,8.77978515625,3
54,-0.026334669440984726,-0.08229045569896698,0.11053496599197388,-0.16403119266033173,0.5489360094070435,8.769074440002441,3
55,-0.038423389196395874,0.01673160120844841,-0.016695281490683556,-0.14736048877239227,0.38384655117988586,8.760366439819336,3
56,0.010038325563073158,-0.025371942669153214,-0.008836393244564533,-0.06720855087041855,0.3288617730140686,8.752811431884766,3
57,-0.028080828487873077,-0.02292213961482048,0.061322491616010666,-0.07622429728507996,0.35658544301986694,8.743902206420898,3
58,-0.08835738152265549,0.01215033233165741,0.06382032483816147,-0.08229003101587296,0.37775740027427673,8.736173629760742,3
59,-0.06966052204370499,0.00952343363314867,0.04925871640443802,-0.08713033050298691,0.39327168464660645,8.728227615356445,3
60,0.004852829966694117,-0.09735557436943054,-0.027234680950641632,-0.09071753174066544,0.608295738697052,8.718249320983887,3
61,-0.10260767489671707,-0.13333316147327423,-0.00018583063501864672,-0.09209082275629044,0.42665785551071167,8.710789680480957,3
62,-0.01311727799475193,0.014796185307204723,-0.04300515726208687,-0.09305015206336975,0.3600028157234192,8.702530860900879,3
63,-0.0887068435549736,-0.07915845513343811,0.04404260218143463,-0.09428563714027405,0.37962275743484497,8.693198204040527,3
64,0.059585098177194595,0.016248794272542,0.08830597996711731,-0.09499136358499527,0.39453125,8.684412002563477,3
65,-0.022756746038794518,-0.033272214233875275,-0.008693910203874111,-0.09647450596094131,0.4056232273578644,8.676762580871582,3
66,0.00035085566923953593,-0.08260378986597061,-0.14875978231430054,-0.09709963202476501,0.4138886630535126,8.668704986572266,3
67,0.03588022291660309,-0.024430911988019943,0.0371527336537838,-0.16504234075546265,0.4203307032585144,8.660333633422852,3
68,-0.09790018945932388,-0.03571856766939163,0.04310697689652443,-0.14756572246551514,0.6288228631019592,8.652305603027344,3
69,-0.018108051270246506,0.00029610228375531733,0.0018729839939624071,-0.0666014701128006,0.5781716704368591,8.64380168914795,3
70,0.07061547040939331,-0.04374026134610176,0.004963244777172804,-0.07470973581075668,0.6079823970794678,8.63526725769043,3
71,0.012148329056799412,0.03186427056789398,0.10096156597137451,-0.08042480051517487,0.35824745893478394,8.627265930175781,3
72,-0.027370406314730644,0.13548634946346283,-0.03631662204861641,-0.08516758680343628,0.3773442208766937,8.619109153747559,3
73,-0.025261662900447845,-0.08368689566850662,0.13914744555950165,-0.1580561250448227,0.32288458943367004,8.610411643981934,3
74,-0.11297901719808578,0.05679677054286003,0.06586773693561554,-0.1425989270210266,0.3509707450866699,8.60221004486084,3
75,0.03449394926428795,-0.09141906350851059,-0.0658564418554306,-0.13114938139915466,0.3728136122226715,8.594705581665039,3
76,-0.08850309252738953,-0.018451236188411713,-0.05960794538259506,-0.12301536649465561,0.5939521789550781,8.587296485900879,3
77,0.03535819053649902,0.022341815754771233,-0.04608645290136337,-0.11746571958065033,0.3479144275188446,8.575836181640625,3
78,0.07172435522079468,-0.05403677746653557,0.05637471750378609,-0.04441137984395027,0.5754791498184204,8.567179679870605,3
79,0.02514476142823696,-0.07419790327548981,0.030584922060370445,-0.05798614025115967,0.3359397351741791,8.559469223022461,3
80,-0.03526211902499199,-0.05312808230519295,0.037035681307315826,-0.06866460293531418,0.5005578398704529,8.55010986328125,3
81,-0.0896836519241333,-0.04131940007209778,0.024797802790999413,-0.0765102356672287,0.34586888551712036,8.543294906616211,3
82,0.026174508035182953,-0.02245631068944931,-0.038327861577272415,-0.15037965774536133,0.5725127458572388,8.533805847167969,3
83,-0.08274567127227783,0.029810559004545212,0.004981193691492081,-0.13690976798534393,0.535607635974884,8.525500297546387,3
84,0.04786927253007889,0.02633143588900566,-0.0067917355336248875,-0.12711943686008453,0.37177035212516785,8.516637802124023,3
85,-0.037473950535058975,-0.07914602011442184,0.028239011764526367,-0.11967137455940247,0.3185887336730957,8.507832527160645,3
86,-0.07704122364521027,0.09530850499868393,0.07792384922504425,-0.11422500759363174,0.8917474150657654,8.503022193908691,3
87,-0.06644736230373383,-0.01848505064845085,0.03975621610879898,-0.04320518672466278,0.2968539297580719,8.49511432647705,3
88,-0.04586510360240936,-0.051120806485414505,-0.0808020681142807,-0.057884328067302704,0.26138314604759216,8.487089157104492,3
89,-0.09002247452735901,-0.013740934431552887,-0.12556101381778717,-0.06805263459682465,0.3045836389064789,8.478280067443848,3
90,0.024579504504799843,0.026507243514060974,-0.06500612199306488,0.0,0.0,0.0,3
91,0.002011492382735014,0.032999437302351,0.03668453171849251,-0.000419044605223462,-7.635728252353147e-06,-0.000291994190774858,3
92,-0.004908034112304449,0.0006620963104069233,-0.02837580442428589,-0.00043766392627730966,0.564103364944458,-2.966324473163695e-06,3
93,-0.006885413080453873,0.03358008340001106,0.04084503650665283,-0.00403777789324522,1.154867172241211,0.00034903149935416877,3
94,0.02917969599366188,-0.01589365303516388,-0.050201643258333206,-0.012735539115965366,3.0289361476898193,-0.0003582526696845889,3
95,-0.031007204204797745,-0.04753870144486427,0.10235919803380966,-0.022281616926193237,1.6776127815246582,-0.0007782257744111121,3
96,0.02077053114771843,0.004862530622631311,0.010063957422971725,-0.030548829585313797,2.3400967121124268,-0.00016322567535098642,3
97,-0.01021343283355236,-0.037331074476242065,-0.08433094620704651,-0.5864996910095215,2.697786808013916,0.002856714650988579,3
98,-0.08477534353733063,-0.0375995859503746,-0.0043036360293626785,-0.40527239441871643,2.326150894165039,-0.00022880877077113837,3
99,0.06043299287557602,-0.05873771011829376,-0.0013786287745460868,0.2070569097995758,2.0194778442382812,0.0006009042845107615,3
100,-0.023132022470235825,-0.03847430273890495,0.07511579245328903,0.12632401287555695,1.7847208976745605,0.00047527081915177405,3
101,0.03195037692785263,0.04642506688833237,-0.00026413711020722985,0.06360671669244766,0.3601660132408142,0.0011511733755469322,3
102,-0.13004107773303986,-0.12205443531274796,0.003951973281800747,0.028965560719370842,2.1401026248931885,-0.000778976536821574,3
103,-0.0577072873711586,-0.009759488515555859,-0.02737445756793022,-0.0001747501373756677,1.8145500421524048,0.00033439917024224997,3
104,0.03448646888136864,0.04344590753316879,0.015576647594571114,-0.025898238644003868,1.2571632862091064,0.0009520862950012088,3
105,0.026703080162405968,0.08028129488229752,-0.008992079645395279,-0.04574462026357651,0.283322811126709,0.001755628501996398,3
106,-0.02992006205022335,0.09968021512031555,0.07867854088544846,-0.059250786900520325,1.3370271921157837,0.001737606362439692,3
107,0.013946388848125935,0.07943275570869446,-0.010379500687122345,-0.07150494307279587,1.47972571849823,0.0022052472922950983,3
108,-0.059880804270505905,-0.07082854211330414,-0.029878869652748108,-0.07701852172613144,0.3313615024089813,0.001765190507285297,3
109,0.08102096617221832,-0.08939772099256516,0.04997207596898079,-0.08007889986038208,1.4173747301101685,0.002722444711253047,3
110,0.061980683356523514,-0.07056065648794174,-0.049891043454408646,-0.08415086567401886,1.2580852508544922,0.002114876639097929,3
111,-0.06805539131164551,-0.005357632413506508,-0.018624262884259224,-0.08834382891654968,0.5018026828765869,0.001119475462473929,3
112,-0.12261725217103958,-0.00601344695314765,0.004211563151329756,-0.08746800571680069,0.3916088342666626,0.0009355434449389577,3
113,0.032257720828056335,-0.11250646412372589,-0.11280430853366852,-0.08728966116905212,0.508000910282135,0.0007512149750255048,3
114,-0.11038296669721603,-0.07163908332586288,0.02233656868338585,-0.08849439024925232,0.5866618752479553,-0.00012312839680816978,3
115,-0.06724108010530472,-0.04506831243634224,0.015511542558670044,-0.08855485916137695,0.6378832459449768,0.00014716036093886942,3
116,0.0715966448187828,-0.0719793364405632,0.006298969499766827,-0.0881323590874672,0.6713263988494873,0.00016337026318069547,3
117,-0.07664036005735397,-0.016238369047641754,0.045054156333208084,-0.08639619499444962,1.1601085662841797,0.0019402632024139166,3
118,0.004519348498433828,-0.09801054000854492,-0.015243303962051868,-0.08496534824371338,0.5886436104774475,0.00029589005862362683,3
119,0.026250218972563744,0.03518281877040863,0.002932875184342265,-0.08707033097743988,1.0610495805740356,0.0017370973946526647,3
120,-0.04768833890557289,0.09316287934780121,-0.025535523891448975,-0.08754751831293106,0.9635062217712402,0.001126714050769806,3
121,0.03116125427186489,-0.05661798641085625,0.05598657950758934,-0.08642052114009857,0.4787120223045349,0.00034213668550364673,3
122,-0.09182118624448776,0.022188512608408928,-0.06299319118261337,-0.08888831734657288,0.8004626035690308,0.0013613273622468114,3
123,-0.08197608590126038,0.01768130250275135,0.042922575026750565,-0.09018342196941376,0.8938522934913635,0.001478140358813107,3
124,-0.005226355977356434,-0.15830457210540771,0.009906833060085773,-0.08973264694213867,0.8304864764213562,0.002225687028840184,3
125,-0.015045076608657837,-0.045889973640441895,0.0019144178368151188,-0.08809258043766022,0.7831956148147583,0.0019483042415231466,3
126,0.016975220292806625,-0.029710492119193077,-0.08299727737903595,-0.09086374938488007,0.3884601891040802,0.0007893653237260878,3
127,0.08548185974359512,-0.037821680307388306,-0.02186676114797592,-0.09194501489400864,0.46048662066459656,0.0005936923553235829,3
128,0.021939294412732124,-0.055407386273145676,0.045809756964445114,-0.20725807547569275,0.8546669483184814,0.006233337800949812,3
129,-0.008837256580591202,0.09121064841747284,-0.05486797168850899,-0.06374472379684448,0.7972978353500366,0.001291140797547996,3
130,-0.03467569500207901,-0.10941388458013535,0.040536146610975266,-0.07085324823856354,0.42400163412094116,-0.0003693101753015071,3
131,0.029678933322429657,-0.06539109349250793,-0.08557933568954468,-0.183880016207695,0.4816981554031372,0.004630838055163622,3
132,-0.13308846950531006,0.0614372082054615,0.11119212955236435,-0.05293002352118492,0.5215779542922974,-0.0010344074107706547,3
133,0.03680241107940674,-0.13184159994125366,0.13029631972312927,-0.06366735696792603,0.7581788897514343,0.0017184155294671655,3
134,-0.12556083500385284,0.005696104373782873,-0.04412459582090378,-0.07229822874069214,0.926156222820282,0.0032419273629784584,3
135,0.030478794127702713,0.04419645294547081,0.018384383991360664,-0.0774141177535057,0.5396901369094849,0.0026443300303071737,3
136,-0.039490606635808945,-0.12726102769374847,0.11715268343687057,-0.08149874955415726,0.558922529220581,0.003417203901335597,3
137,-0.0672241747379303,-0.05978309363126755,0.030872218310832977,-0.1815551370382309,0.472044438123703,0.007429910358041525,3
138,-0.04290897399187088,-0.04603278636932373,-0.008380131796002388,-0.061211518943309784,0.5063718557357788,0.0027852379716932774,3
139,0.07338947802782059,-0.03904597461223602,0.08653223514556885,-0.06920146197080612,0.5289934873580933,0.003722768509760499,3
140,-0.09011805057525635,0.025424402207136154,-0.04508984088897705,-0.07470319420099258,0.5462476015090942,0.004387624096125364,3
141,-0.040372930467128754,-0.03896037116646767,0.06138109043240547,-0.17189885675907135,0.5573500990867615,0.008381196297705173,3
142,-0.11578703671693802,0.153904527425766,0.13924196362495422,-0.1507110595703125,0.5628817081451416,0.007699218578636646,3
143,0.025509407743811607,-0.04238809645175934,0.057202957570552826,-0.04412660002708435,0.7473021149635315,0.005276472307741642,3
144,0.08381926268339157,-0.06418406963348389,-0.04353072866797447,-0.05586349964141846,0.5250445604324341,0.005226694978773594,3
145,-0.026605036109685898,0.016597559675574303,-0.02822086587548256,-0.06436131149530411,0.5421750545501709,0.00501910550519824,3
146,0.0273907370865345,-0.03871462866663933,-0.00960744358599186,-0.07052448391914368,0.5516114830970764,0.004379210527986288,3
147,-0.14961788058280945,-0.041352055966854095,0.16740840673446655,-0.07580514997243881,0.8142861723899841,0.005639676470309496,3
148,-0.04675193503499031,0.013804350048303604,0.0985160768032074,-0.07906371355056763,0.49309271574020386,0.006969692651182413,3
149,-0.07264397293329239,-0.08081117272377014,-0.08074433356523514,-0.08121723681688309,0.5109624266624451,0.007212369237095118,3
150,0.03607616573572159,-0.1027560755610466,-0.12201950699090958,-0.0810820609331131,0.69339519739151,0.007203473709523678,3
151,0.017564531415700912,-0.0618603453040123,0.05470050871372223,-0.08317194879055023,0.491199791431427,0.006565704010426998,3
152,0.04570784419775009,-0.11180134117603302,0.08663922548294067,-0.0836830884218216,0.7582883834838867,0.007859720848500729,3
153,-0.1321510374546051,0.007788163609802723,0.01834082417190075,-0.08540631830692291,0.4557894766330719,0.00794494990259409,3
154,-0.08371346443891525,-0.07098524272441864,0.0531291738152504,-0.08578222990036011,0.48017263412475586,0.00852932222187519,3
155,-0.07475003600120544,-0.050989147275686264,-0.07019280642271042,-0.08597429096698761,0.49852538108825684,0.008826375007629395,3
156,-0.1593601554632187,0.07284928858280182,-0.003168760798871517,-0.08700956404209137,0.5119121670722961,0.008746263571083546,3
157,-0.07122761756181717,0.044354986399412155,0.06663334369659424,-0.08977030962705612,0.5194975137710571,0.008597367443144321,3
158,-0.11892089247703552,-0.09818701446056366,0.03329288214445114,-0.169955313205719,0.5243148803710938,0.012383151799440384,3
159,0.014315222389996052,0.003153546480461955,0.08617540448904037,-0.14858359098434448,0.5288174152374268,0.012139652855694294,3
160,0.0482097826898098,0.0929083600640297,0.0729433000087738,-0.13251803815364838,0.5319780707359314,0.012126529589295387,3
161,-0.1687621921300888,0.05907697603106499,-0.011723770759999752,-0.12067713588476181,0.6928441524505615,0.013112199492752552,3
162,0.09652779996395111,-0.0461975634098053,0.033598460257053375,-0.11277283728122711,0.49295419454574585,0.011474295519292355,3
163,-0.06429114192724228,0.05533429607748985,0.06285560131072998,-0.027421509847044945,0.5039075016975403,0.009153456427156925,3
164,0.07138816267251968,-0.09109552949666977,-0.040879230946302414,-0.04416521266102791,0.5115751624107361,0.009896918199956417,3
165,0.01011371798813343,0.09756189584732056,0.055507466197013855,-0.056839004158973694,0.5160360932350159,0.01068146713078022,3
166,-0.08121161162853241,-0.08075558394193649,0.03666062653064728,-0.0644710436463356,0.5190790891647339,0.01147599145770073,3
167,-0.013322335667908192,-0.11352510750293732,-0.005988364573568106,-0.0718822330236435,0.5202810168266296,0.011378426104784012,3
168,-0.05009089410305023,-0.15028247237205505,0.012790040113031864,-0.07073985040187836,0.5196974873542786,0.01158564817160368,3
169,0.11535042524337769,-0.16849325597286224,-0.008480102755129337,-0.07303015142679214,0.7504187822341919,0.011317419819533825,3
170,-0.027908261865377426,-0.03963196650147438,-0.10338922590017319,-0.07727137953042984,0.46131715178489685,0.01131177693605423,3
171,-0.08197224140167236,-0.06535030901432037,0.08973053097724915,-0.07906220853328705,0.6261239051818848,0.011153407394886017,3
172,0.029475662857294083,-0.023392826318740845,0.13100260496139526,-0.08217911422252655,0.6705304384231567,0.01222149282693863,3
173,-0.00385661912150681,-0.008798203431069851,-0.12398193031549454,-0.08438894152641296,0.6292673349380493,0.012239138595759869,3
174,0.06428447365760803,-0.052533332258462906,0.04984132945537567,-0.1599014848470688,0.3762533962726593,0.013173247687518597,3
175,0.029817882925271988,-0.03114534169435501,-0.0016115932958200574,-0.06548628211021423,0.4123244881629944,0.010849310085177422,3
176,-0.04033251106739044,-0.05459852144122124,0.05726000666618347,-0.07233139872550964,0.4376823306083679,0.011233757250010967,3
177,0.03154187649488449,0.015531029552221298,-0.002571895718574524,-0.07781152427196503,0.4579102694988251,0.011451679281890392,3
178,0.048558637499809265,-0.0026221477892249823,0.037260666489601135,-0.08232355117797852,0.47279831767082214,0.011740416288375854,3
179,0.061970341950654984,0.002826944226399064,-0.05189141631126404,-0.08393315225839615,0.7029401063919067,0.012157093733549118,3
180,0.07221999019384384,-0.074259452521801,-0.046129729598760605,-0.0863116979598999,0.4369157552719116,0.011799883097410202,3
181,0.0031834361143410206,0.03761211037635803,-0.00566147780045867,-0.08820024132728577,0.4569523334503174,0.011840347200632095,3
182,-0.014341155998408794,-0.05069347098469734,-0.11750765889883041,-0.08999044448137283,0.4718007445335388,0.011411748826503754,3
183,-0.024888895452022552,-0.08009658008813858,-0.06734319776296616,-0.09041513502597809,0.48170343041419983,0.01122340839356184,3
184,-0.038131438195705414,-0.10546750575304031,-0.005702869966626167,-0.09047088027000427,0.48915576934814453,0.010652989149093628,3
185,0.03614438697695732,0.02500143088400364,-0.06742338836193085,-0.08948792517185211,0.6381290555000305,0.011059009470045567,3
186,-0.09760383516550064,-0.14367373287677765,-0.022934308275580406,-0.08964839577674866,0.5313910841941833,0.010112470015883446,3
187,0.023932691663503647,-0.12364214658737183,0.021390726789832115,-0.08878181129693985,0.4528806805610657,0.01004758384078741,3
188,0.029358820989727974,-0.03489893674850464,-0.008710615336894989,-0.08865310996770859,0.4675394892692566,0.010043037123978138,3
189,-0.03873246908187866,-0.08989930897951126,0.08244381099939346,-0.0884382501244545,0.47782790660858154,0.010317755863070488,3
190,0.005660435650497675,-0.012872758321464062,0.01848185621201992,-0.08770453929901123,0.4842488169670105,0.01061322633177042,3
191,-0.0361742302775383,0.04612565413117409,0.049311332404613495,-0.0890071764588356,0.4909573197364807,0.010616449639201164,3
192,0.03055780753493309,0.009892289526760578,-0.0513460747897625,-0.08933877944946289,0.4904843866825104,0.011238311417400837,3
193,-0.018086789175868034,0.001956117572262883,-0.03881937637925148,-0.08901160955429077,0.48999786376953125,0.01069223415106535,3
194,0.16214261949062347,0.008056153543293476,0.11421605199575424,-0.08953571319580078,0.48998498916625977,0.010767171159386635,3
195,-0.06757029891014099,-0.0845666155219078,-0.07803034782409668,-0.09030855447053909,0.773494303226471,0.011700193397700787,3
196,-0.005022624507546425,0.003253282280638814,-0.06851654499769211,-0.09039388597011566,0.7000093460083008,0.010914530605077744,3
197,0.026310687884688377,0.02024815045297146,0.046890269964933395,-0.08987045288085938,0.6456977725028992,0.010273902676999569,3
198,-0.0027981745079159737,-0.07528074830770493,0.04104103520512581,-0.09003318846225739,0.33464178442955017,0.009998971596360207,3
199,0.04286935552954674,-0.1118878498673439,0.06001869589090347,-0.021980149671435356,0.38053107261657715,0.009102482348680496,3
200,-0.017659367993474007,-0.10516579449176788,-0.0764446035027504,-0.10694479197263718,0.41377168893814087,0.011422744020819664,3
201,0.057001981884241104,-0.05285373330116272,0.06307784467935562,-0.1689111739397049,0.5716335773468018,0.013558355160057545,3
202,0.010274073109030724,-0.050713974982500076,-0.013527198694646358,-0.14704833924770355,0.419009268283844,0.012151946313679218,3
203,-0.017826054245233536,0.000757649599108845,0.007915575988590717,-0.1311827152967453,0.5739864706993103,0.012915601022541523,3
204,0.0010368103394284844,-0.0005799662321805954,-0.027282224968075752,-0.05383463203907013,0.41997700929641724,0.009983137249946594,3
205,0.0713934451341629,-0.011459841392934322,0.05879632756114006,-0.06402497738599777,0.6441452503204346,0.011194099672138691,3
206,0.010337214916944504,-0.04895724728703499,0.10369177907705307,-0.07210813462734222,0.46838173270225525,0.011558657512068748,3
207,-0.07903237640857697,-0.15842780470848083,-0.02993525192141533,-0.07694125175476074,0.4757562577724457,0.0123108746483922,3
208,-0.0023638447746634483,-0.05845659226179123,0.15514442324638367,-0.08015431463718414,0.6868124008178711,0.01267264038324356,3
209,0.050918661057949066,-0.028149008750915527,-0.042958445847034454,-0.15195611119270325,0.35689735412597656,0.014164783991873264,3
210,0.012309280224144459,-0.25949954986572266,0.15899227559566498,-0.06471649557352066,0.5998116731643677,0.014089949429035187,3
211,-0.26139408349990845,0.1699276715517044,-0.30068519711494446,-0.07652629166841507,0.41942253708839417,0.01308139506727457,3
212,-0.5258637070655823,0.054275527596473694,0.21970491111278534,-0.14117683470249176,0.43972280621528625,0.015154748223721981,3
213,-0.6327996850013733,1.0773273706436157,-0.4753095209598541,-0.14061613380908966,0.5757066607475281,0.011484387330710888,3
214,0.43596383929252625,0.37872612476348877,-0.6969642639160156,-0.11161448061466217,0.3315979242324829,0.014189730398356915,3
215,0.1953125149011612,0.267819344997406,1.318764090538025,-0.04226912558078766,0.342210590839386,0.005868553649634123,3
216,-0.5053983926773071,0.5197146534919739,-0.690109133720398,-0.053456954658031464,0.6519933938980103,0.00754920020699501,3
217,-0.5669712424278259,-0.7476188540458679,0.8115671277046204,-0.06600776314735413,0.5889835953712463,0.010517165064811707,3
218,-0.6419060230255127,-0.7452074289321899,0.297247976064682,-0.08242983371019363,0.2386113703250885,0.011564553715288639,3
219,1.4701448678970337,0.2480774074792862,1.631838083267212,-0.06537263840436935,0.5123282074928284,0.0241945069283247,3
220,-1.243818998336792,1.2541049718856812,3.4408044815063477,-0.09245482832193375,0.23676712810993195,0.048891328275203705,3
221,0.5123278498649597,-1.821212649345398,1.8498749732971191,-0.16460901498794556,0.26855021715164185,0.08451492339372635,3
222,2.9961555004119873,-2.0888657569885254,-0.0646253228187561,-0.2771930396556854,0.23214304447174072,0.10072063654661179,3
223,-5.2950825691223145,5.495378017425537,-2.4700825214385986,-0.31951653957366943,-0.26102328300476074,0.08576551824808121,3
224,-1.071508765220642,-1.4721912145614624,-3.996884346008301,-0.3287607729434967,-0.5124090313911438,0.05145673453807831,3
225,-0.15084007382392883,-0.9806160926818848,-7.430520534515381,-0.4504944980144501,-0.7305041551589966,-0.00994497537612915,3
226,1.6167163848876953,1.4605273008346558,-9.584856986999512,-0.422171026468277,-0.8437812328338623,-0.10376910120248795,3
227,-2.667357921600342,3.5325088500976562,-3.102210760116577,-0.8733737468719482,-1.5664042234420776,-0.13939687609672546,3
228,-0.8861405849456787,-1.5584124326705933,-3.974867820739746,-0.8759981989860535,-1.4512982368469238,-0.16494785249233246,3
229,0.6362142562866211,-11.90201473236084,-6.0640363693237305,-1.1312323808670044,-1.9874929189682007,-0.20750927925109863,3
230,18.03512954711914,-9.002662658691406,-3.964116334915161,-1.0855228900909424,-2.03913950920105,-0.2669232487678528,3
231,-0.6276824474334717,-11.531002044677734,0.21592499315738678,-1.0938270092010498,-2.817998170852661,-0.3272499740123749,3
232,0.7075883150100708,-10.46418571472168,2.5589983463287354,-1.087579607963562,-2.758280038833618,-0.2674459218978882,3
233,27.54031753540039,-18.270938873291016,4.675293922424316,-1.2890862226486206,-3.112748384475708,-0.16931670904159546,3
234,30.343748092651367,-5.1925835609436035,9.222760200500488,-1.4663429260253906,-3.064936637878418,-0.027439868077635765,3
235,87.91191101074219,-27.87543487548828,8.036334037780762,-1.5018616914749146,-3.3408634662628174,0.006612416822463274,3
236,58.45619583129883,7.952894687652588,10.402020454406738,-1.6954649686813354,-2.5754101276397705,0.23423713445663452,3
237,76.10260009765625,-1.9143517017364502,3.1402463912963867,-1.8860996961593628,-3.3378841876983643,0.06951767951250076,3
238,99.99465942382812,-23.300058364868164,1.3538601398468018,-1.5133246183395386,-2.191875457763672,0.021890074014663696,3
239,117.40616607666016,-39.9540901184082,1.639789342880249,-0.9110706448554993,-1.2804113626480103,-0.1436854898929596,3
240,122.94084930419922,-40.73320770263672,-0.25085005164146423,-0.7191210389137268,-0.8581793308258057,-0.17138661444187164,3
241,122.18872833251953,-35.89981460571289,-3.9757230281829834,-0.13173416256904602,1.1547654867172241,-0.1441650390625,3
242,103.76840209960938,-36.950294494628906,-4.088586807250977,0.25222352147102356,2.3720757961273193,-0.1912292093038559,3
243,84.27485656738281,-44.33880615234375,-3.2689733505249023,1.1676135063171387,4.33329963684082,-0.2553864121437073,3
244,69.27149963378906,-35.917335510253906,0.9851802587509155,1.8785496950149536,6.063843727111816,-0.2990681529045105,3
245,48.517784118652344,-31.425552368164062,3.105142831802368,3.3600056171417236,8.549957275390625,-0.2726612091064453,3
246,19.49197006225586,-27.23488998413086,4.63287353515625,4.418867588043213,11.11962890625,-0.4451550543308258,3
247,-12.593690872192383,-19.163860321044922,6.757621765136719,4.959056854248047,13.54709243774414,-0.983430027961731,3
248,-49.1248893737793,3.6295504570007324,9.392369270324707,4.698292255401611,11.993545532226562,-0.7867944240570068,3
249,-85.6756591796875,24.04134750366211,5.642861366271973,2.3516626358032227,11.994635581970215,-3.41378116607666,3
250,-108.79658508300781,41.5266227722168,4.494617938995361,2.476121664047241,10.534919738769531,-2.5970587730407715,3
251,-136.87747192382812,44.28143310546875,-0.3511372208595276,2.3243236541748047,9.364809036254883,-2.1547977924346924,3
252,-162.501220703125,28.496522903442383,-3.06209135055542,2.5951273441314697,8.229909896850586,-1.44706392288208,3
253,-173.39599609375,7.223970413208008,-8.57259464263916,2.608894109725952,6.042714595794678,-1.0234252214431763,3
254,-176.1409912109375,-14.899055480957031,-13.705350875854492,2.833420515060425,4.661657333374023,-1.0638022422790527,3
255,-168.14305114746094,-31.407745361328125,-17.372638702392578,3.210174798965454,2.3803117275238037,-0.8470441102981567,3
256,-147.0476531982422,-34.36166763305664,-23.735387802124023,3.3679330348968506,1.249019742012024,-1.4556397199630737,3
257,-125.05082702636719,-22.237844467163086,-25.441022872924805,3.73163104057312,-0.7508310079574585,-1.3320163488388062,3
258,-99.27467346191406,-1.6671768426895142,-27.57514762878418,3.6607348918914795,-1.4506869316101074,-1.9019505977630615,3
259,-71.45769500732422,21.51799201965332,-22.48655128479004,3.3950600624084473,-2.988922357559204,-1.8623640537261963,3
260,-28.992595672607422,46.19293212890625,-18.417070388793945,3.017566680908203,-3.4393067359924316,-2.105430841445923,3
261,13.096334457397461,65.0951156616211,-15.600330352783203,2.585300922393799,-3.5719165802001953,-2.264254570007324,3
262,45.684818267822266,78.67339324951172,-17.089088439941406,1.766601324081421,-3.694610118865967,-2.235883951187134,3
263,66.13146209716797,73.63444519042969,-19.55191993713379,1.4007354974746704,-3.370414972305298,-2.5329160690307617,3
264,74.30470275878906,63.41315841674805,-19.114593505859375,0.3741928040981293,-2.852193593978882,-2.5132408142089844,3
265,67.61973571777344,53.21974182128906,-17.074888229370117,0.07209736108779907,-2.3548038005828857,-2.811828851699829,3
266,51.171573638916016,41.233177185058594,-13.754254341125488,-0.5208932757377625,-1.9554201364517212,-2.8622474670410156,3
267,28.47167205810547,27.601049423217773,-8.686882019042969,-0.6584089398384094,-1.721211314201355,-3.0961079597473145,3
268,5.131516933441162,6.88879919052124,-5.472376823425293,-0.9232175946235657,-1.666238784790039,-3.105205774307251,3
269,-14.206262588500977,-5.2639079093933105,-5.915594100952148,-1.0783966779708862,-1.7635953426361084,-3.0710244178771973,3
270,-25.96063804626465,-22.184682846069336,-5.864012718200684,-0.8247293829917908,-1.960964322090149,-3.190402030944824,3
271,-31.986099243164062,-32.87353515625,-4.366811752319336,-0.27986940741539,-2.281041383743286,-3.3379037380218506,3
272,-33.15876770019531,-35.14286422729492,-2.7871410846710205,0.06775834411382675,-2.5161657333374023,-3.345982789993286,3
273,-22.35077476501465,-21.10597038269043,-3.2373011112213135,0.22039327025413513,-2.9018819332122803,-3.3191380500793457,3
274,-5.645328521728516,-1.277047038078308,-2.9096555709838867,-0.05661102756857872,-3.1305811405181885,-3.185237407684326,3
275,13.041446685791016,18.58473014831543,-1.90987229347229,-2.2830352783203125,-4.42997932434082,-2.4361748695373535,3
276,34.6307487487793,36.9729118347168,-3.253906488418579,-2.2139716148376465,-3.9863133430480957,-2.6127448081970215,3
277,61.28001022338867,43.37110137939453,-2.0606656074523926,-2.5037930011749268,-2.889695644378662,-2.569951295852661,3
278,89.50191497802734,29.592247009277344,-3.107558488845825,-3.3461501598358154,-1.3941266536712646,-2.1253182888031006,3
279,94.60662078857422,3.754394769668579,-5.734621524810791,-2.219160318374634,0.8135929703712463,-2.3780603408813477,3
280,77.26171112060547,-26.178348541259766,-3.825458288192749,-1.4470343589782715,1.8703492879867554,-2.6809182167053223,3
281,37.29903793334961,-41.746028900146484,-1.2801936864852905,-1.0825772285461426,2.127866744995117,-2.8014025688171387,3
282,-13.7718505859375,-43.96444320678711,0.2401561141014099,0.2653447985649109,2.115291118621826,-3.0402214527130127,3
283,-67.15055847167969,-28.21726417541504,1.5688766241073608,0.18011218309402466,0.2805165648460388,-3.3742783069610596,3
284,-98.02578735351562,-11.949302673339844,1.8178930282592773,0.5567845702171326,-0.6740552186965942,-3.383540630340576,3
285,-102.030029296875,-1.2183332443237305,-0.01035575196146965,0.7397861480712891,-2.1025407314300537,-3.454080581665039,3
286,-81.50607299804688,7.820226669311523,-1.3033651113510132,0.45920971035957336,-2.867248058319092,-3.430469036102295,3
287,-36.93663024902344,16.54984474182129,-1.6401407718658447,1.9705461263656616,-3.8503003120422363,-3.71919322013855,3
288,19.601713180541992,16.751035690307617,-0.9284384250640869,1.9866034984588623,-3.244249105453491,-3.7895796298980713,3
289,77.6307601928711,19.62036895751953,-0.08081590384244919,1.5191763639450073,-3.1464672088623047,-3.663982629776001,3
290,120.56819915771484,30.555744171142578,1.507287621498108,2.0851731300354004,-3.16243577003479,-3.8803646564483643,3
291,138.10745239257812,34.10240936279297,3.960606336593628,1.408249020576477,-1.7594969272613525,-3.6909332275390625,3
292,-79.11124420166016,-169.49310302734375,2.0992648601531982,1.7601090669631958,-2.8286190032958984,-3.327518939971924,3
293,-102.77155303955078,157.81423950195312,-0.5654035210609436,1.2190500497817993,-5.791060447692871,-2.502501964569092,3
294,94.86511993408203,63.905643463134766,-19.00172996520996,-0.6658939123153687,-6.660845756530762,-2.529064416885376,3
295,64.55238342285156,23.870101928710938,-21.250768661499023,-0.8512090444564819,-5.153115272521973,-2.7433619499206543,3
296,55.1102180480957,38.55322265625,-22.4456787109375,-2.4509003162384033,-6.91482400894165,-2.2966511249542236,3
297,40.445560455322266,41.015567779541016,-29.151281356811523,-3.3267629146575928,-6.585302829742432,-2.481799840927124,3
298,26.75139808654785,45.77081298828125,-29.25762939453125,-3.863208532333374,-6.8305158615112305,-3.1154634952545166,3
299,18.223926544189453,49.71039962768555,-31.76424789428711,-4.721522808074951,-5.975315093994141,-2.802642583847046,3
300,4.071417808532715,56.07244110107422,-31.91575050354004,-6.114578723907471,-5.656857013702393,-1.70055091381073,3
301,-5.562441825866699,55.16683578491211,-35.98054122924805,-6.889097690582275,-4.4705657958984375,-1.0548588037490845,3
302,-18.396902084350586,60.83698654174805,-40.891395568847656,-7.576009750366211,-3.2827186584472656,-0.4286186397075653,3
303,-18.711889266967773,59.73683166503906,-47.37773132324219,-8.051423072814941,-2.7391514778137207,-0.18767167627811432,3
304,-10.640503883361816,48.33552169799805,-50.293025970458984,-7.822707653045654,-1.838592529296875,0.03379705548286438,3
305,4.604648590087891,32.64653396606445,-50.371368408203125,-7.9110612869262695,-0.8999077677726746,0.19843754172325134,3
306,34.7482795715332,14.965468406677246,-47.743778228759766,-7.147589206695557,0.4121934771537781,0.38810667395591736,3
307,69.39569091796875,-22.95709800720215,-44.397705078125,-7.137367248535156,2.7742528915405273,1.9014159440994263,3
308,89.77783203125,-76.19004821777344,-44.933311462402344,-6.8386921882629395,5.073897838592529,2.0425310134887695,3
309,108.54630279541016,-135.41751098632812,-43.6872673034668,-6.883712291717529,5.680758953094482,1.3712856769561768,3
310,95.91151428222656,-185.8720245361328,-42.542179107666016,-5.461948394775391,5.5149359703063965,0.9801622033119202,3
311,56.77599334716797,-215.37203979492188,-40.017539978027344,-1.9894356727600098,6.891335964202881,1.852448582649231,3
312,1.88155198097229,-215.76690673828125,-41.298030853271484,-0.899603009223938,6.657710075378418,0.347754567861557,3
313,-65.73983001708984,-197.9207763671875,-35.117950439453125,1.7072895765304565,6.29845666885376,-0.23637117445468903,3
314,-126.76953887939453,-169.3887939453125,-37.63900375366211,3.3042829036712646,5.217279434204102,-1.419867753982544,3
315,-150.44956970214844,-126.81581115722656,-38.09170913696289,5.819616317749023,3.655581474304199,-1.2877414226531982,3
316,-159.480712890625,-86.52473449707031,-41.026390075683594,7.116982936859131,2.37815523147583,-1.8806143999099731,3
317,-160.71998596191406,-48.98954772949219,-38.72941589355469,8.656282424926758,0.46207448840141296,-1.728933572769165,3
318,-149.12539672851562,-20.06056785583496,-40.14796447753906,9.108148574829102,-1.010838508605957,-2.2764456272125244,3
319,-117.27296447753906,0.9312775731086731,-41.33192825317383,9.649940490722656,-2.7839860916137695,-2.28891921043396,3
320,-72.27326965332031,25.210636138916016,-45.44640350341797,9.512913703918457,-4.222971439361572,-2.4657185077667236,3
321,-26.580814361572266,42.07431411743164,-48.06415939331055,9.498536109924316,-4.7752766609191895,-3.2558937072753906,3
322,23.488962173461914,48.12612533569336,-48.30849075317383,9.200743675231934,-4.961760520935059,-3.982327938079834,3
323,79.92985534667969,45.64944076538086,-45.92118835449219,8.316374778747559,-4.5285964012146,-4.788847923278809,3
324,127.0435562133789,36.45770263671875,-42.38693618774414,7.247315406799316,-4.3091630935668945,-4.473104000091553,3
325,153.7045135498047,27.59825325012207,-43.44023513793945,7.095038414001465,-3.456286668777466,-4.620083332061768,3
326,167.6669921875,28.02975082397461,-42.26303482055664,6.930306911468506,-1.559188961982727,-5.567440032958984,3
327,167.9451446533203,27.161102294921875,-35.030860900878906,6.781278133392334,-0.5086525082588196,-5.285523891448975,3
328,156.0828857421875,33.161930084228516,-31.22361183166504,6.652021408081055,1.5742735862731934,-6.118487358093262,3
329,133.38494873046875,48.215240478515625,-24.616456985473633,6.427879810333252,2.660820245742798,-5.8178019523620605,3
330,97.3041763305664,61.83064270019531,-21.890390396118164,6.075374603271484,3.6072821617126465,-5.51364803314209,3
331,61.54551696777344,70.31532287597656,-16.377897262573242,5.351315021514893,4.996293544769287,-5.984022617340088,3
332,39.65315628051758,75.33848571777344,-6.723696708679199,4.861080169677734,5.643174171447754,-5.994975566864014,3
333,16.49820899963379,59.35292053222656,-1.1144906282424927,3.8602020740509033,6.321959972381592,-6.267032146453857,3
334,-3.7898831367492676,32.48601531982422,1.3191322088241577,3.555999994277954,6.325287818908691,-5.881784439086914,3
335,-17.256505966186523,4.11468505859375,-0.6440219879150391,3.1850597858428955,6.597951412200928,-5.997534275054932,3
336,-23.15814971923828,-20.811222076416016,0.3179483413696289,3.0042202472686768,6.19323205947876,-5.816404819488525,3
337,-22.049766540527344,-28.681758880615234,-1.1877381801605225,3.2348952293395996,6.1938676834106445,-5.89937162399292,3
338,-10.391851425170898,-20.732677459716797,-1.4087400436401367,3.450911521911621,5.793385982513428,-5.870132923126221,3
339,3.906128168106079,-0.7397640943527222,-1.7459595203399658,3.6673290729522705,5.7463154792785645,-5.985927581787109,3
340,21.462398529052734,27.374475479125977,0.22205565869808197,3.624645471572876,5.483558654785156,-5.961695194244385,3
341,37.18526840209961,54.564781188964844,3.104774236679077,3.5800766944885254,5.4373064041137695,-5.749607086181641,3
342,44.52604675292969,77.12507629394531,5.138136863708496,2.591733932495117,6.087306022644043,-6.199813365936279,3
343,48.00922775268555,84.66320037841797,6.531290054321289,2.0985755920410156,6.1934733390808105,-5.796444416046143,3
344,56.22022247314453,73.67027282714844,4.17903995513916,0.9989669919013977,6.924381732940674,-5.921848297119141,3
345,63.77497863769531,52.27005386352539,5.813979625701904,0.4146292209625244,7.0412983894348145,-5.525276184082031,3
346,62.362518310546875,38.099918365478516,5.3792595863342285,-0.2631346881389618,7.99855899810791,-5.562562465667725,3
347,48.947750091552734,18.367820739746094,4.738824367523193,-0.48138728737831116,8.2589750289917,-5.268805503845215,3
348,30.716327667236328,1.0650997161865234,-0.47108107805252075,-0.7730323076248169,8.858391761779785,-5.229679107666016,3
349,6.949464321136475,-12.342342376708984,-4.706047534942627,-0.6505830883979797,9.194022178649902,-5.05643892288208,3
350,-27.337566375732422,-19.021682739257812,-7.24930477142334,-0.6032707095146179,9.081413269042969,-5.1609721183776855,3
351,-52.441932678222656,-22.2899112701416,-8.889511108398438,-0.5429044961929321,8.771672248840332,-5.3453168869018555,3
352,-62.1001091003418,-23.12725830078125,-10.868658065795898,-0.32696208357810974,8.28536605834961,-5.44783878326416,3
353,-58.209556579589844,-21.046655654907227,-14.957435607910156,-0.10528184473514557,7.623167037963867,-5.581685543060303,3
354,-37.954402923583984,-13.362921714782715,-16.951120376586914,0.06219694763422012,6.951956272125244,-5.787102222442627,3
355,6.81653356552124,2.9946751594543457,-15.622981071472168,-0.08362404257059097,6.9644551277160645,-6.156342506408691,3
356,49.377098083496094,18.23135757446289,-12.035550117492676,-0.040060095489025116,6.655345439910889,-6.330090045928955,3
357,62.667022705078125,32.825904846191406,-8.558530807495117,-0.3521755337715149,7.54154109954834,-6.484012126922607,3
358,51.24679183959961,37.77854537963867,-5.77600622177124,-0.5337687134742737,7.787765979766846,-6.511990070343018,3
359,29.5789852142334,30.50406265258789,-4.331461429595947,-1.1780108213424683,8.358015060424805,-6.745660305023193,3
360,16.050119400024414,17.33544158935547,-1.7272582054138184,-1.3618056774139404,8.507649421691895,-6.678542137145996,3
361,-5.380457401275635,9.372124671936035,2.4982287883758545,-1.5990155935287476,8.4155912399292,-6.761073112487793,3
362,-38.49150848388672,7.654503345489502,4.520203113555908,-1.7612569332122803,8.437132835388184,-6.783017635345459,3
363,-56.505714416503906,8.925564765930176,4.94270133972168,-1.7411457300186157,8.146440505981445,-6.662691593170166,3
364,-56.53681182861328,7.761157035827637,7.11881685256958,-1.879367470741272,7.385035037994385,-6.721469402313232,3
365,-47.212894439697266,5.078500747680664,10.936728477478027,-1.9547276496887207,6.787259578704834,-6.666218280792236,3
366,-36.63511657714844,-4.833376884460449,13.95867919921875,-1.9727787971496582,6.104837894439697,-6.61639404296875,3
367,-26.039064407348633,-19.954790115356445,19.04924964904785,-1.920264482498169,5.980983257293701,-6.370631217956543,3
368,-7.357141494750977,-38.59379196166992,25.81378173828125,-1.6066428422927856,5.631307601928711,-6.106013298034668,3
369,4.792742729187012,-27.885618209838867,30.889650344848633,-1.382088541984558,5.513657093048096,-5.976678848266602,3
370,11.675690650939941,-2.4532876014709473,30.889963150024414,-0.9518710374832153,5.563681602478027,-5.657224178314209,3
371,10.025775909423828,4.791517734527588,27.09809112548828,-1.051977515220642,5.539853096008301,-5.543453693389893,3
372,-2.3208093643188477,-7.211174964904785,23.527267456054688,-1.0806739330291748,5.551427364349365,-5.304836750030518,3
373,-17.28860855102539,-6.5309739112854,20.892885208129883,-0.8989158272743225,5.442634582519531,-5.049841403961182,3
374,-32.09233093261719,-1.0475270748138428,17.816743850708008,-0.8784939050674438,5.2246809005737305,-4.91323184967041,3
375,-35.04782485961914,4.871872901916504,15.932129859924316,-0.8351360559463501,4.739921569824219,-4.793769359588623,3
376,-35.24995803833008,2.605184555053711,13.767454147338867,-0.8897623419761658,4.201679706573486,-4.7126240730285645,3
377,-21.275606155395508,-11.125651359558105,9.905508041381836,-0.9023494720458984,3.743893623352051,-4.5895676612854,3
378,-7.983569145202637,-29.201675415039062,4.471864700317383,-0.7918635606765747,4.028604030609131,-4.3018035888671875,3
379,1.4104256629943848,-45.22509002685547,-4.564683437347412,-0.47756296396255493,3.9855730533599854,-4.210813522338867,3
380,6.297987461090088,-51.647132873535156,-10.071908950805664,-0.003554442198947072,3.860539197921753,-4.265719413757324,3
381,6.269399642944336,-40.41856002807617,-14.132296562194824,0.13203345239162445,3.9744155406951904,-4.436836242675781,3
382,4.031747341156006,-18.63678741455078,-15.85177230834961,0.6719363331794739,4.003268718719482,-4.592583656311035,3
383,-9.319576263427734,1.363777995109558,-15.62280559539795,0.8406648635864258,3.8993585109710693,-4.806459426879883,3
384,-24.165645599365234,7.6439208984375,-16.467792510986328,0.7838375568389893,3.744582176208496,-4.989484786987305,3
385,-29.820592880249023,2.0261480808258057,-17.75156593322754,0.7058979272842407,3.6037135124206543,-5.141228199005127,3
386,-33.02016067504883,-3.179798126220703,-21.4620304107666,0.6824621558189392,3.0497682094573975,-5.331995964050293,3
387,-27.881088256835938,-7.562789440155029,-23.815425872802734,0.7417520880699158,2.5458180904388428,-5.538271903991699,3
388,-15.790353775024414,-15.118518829345703,-21.470834732055664,0.8852954506874084,2.8547797203063965,-5.736597061157227,3
389,-8.215859413146973,-24.881542205810547,-17.75593376159668,0.9124730825424194,2.6316921710968018,-5.970700263977051,3
390,-18.3525447845459,-20.330997467041016,-12.62924575805664,1.2997593879699707,2.515070915222168,-6.169611930847168,3
391,-29.23050308227539,-9.11821460723877,-12.217286109924316,1.4634826183319092,2.1795899868011475,-6.314888954162598,3
392,-37.420326232910156,-3.9973764419555664,-12.953742027282715,1.620072603225708,1.8248746395111084,-6.438361644744873,3
393,-29.997032165527344,-4.596847057342529,-12.8117094039917,1.7021719217300415,1.231285810470581,-6.553633213043213,3
394,-7.595286846160889,3.68481183052063,-11.307881355285645,1.740569829940796,0.9860715866088867,-6.691067695617676,3
395,15.069814682006836,3.5875635147094727,-5.740477561950684,1.675362467765808,0.9290996789932251,-6.805102825164795,3
396,36.88645935058594,11.130001068115234,1.9024560451507568,1.5730352401733398,1.0011754035949707,-6.873054504394531,3
397,48.17527389526367,19.21126937866211,4.70976448059082,1.3503084182739258,1.175304651260376,-6.834202766418457,3
398,53.39731216430664,16.659517288208008,5.488012313842773,1.18829345703125,1.724241018295288,-6.816432476043701,3
399,43.81790542602539,12.202778816223145,4.651308059692383,1.1187900304794312,2.4182472229003906,-6.8005266189575195,3
400,15.711999893188477,22.95440101623535,7.3518853187561035,0.8162779211997986,2.489314317703247,-6.662601947784424,3
401,-9.322928428649902,30.291934967041016,10.296109199523926,0.5683754682540894,2.5034914016723633,-6.561092376708984,3
402,-24.03172492980957,19.623790740966797,15.442728996276855,0.25245019793510437,2.351466178894043,-6.435294151306152,3
403,-32.02742004394531,-5.012882709503174,22.33734893798828,0.03097333200275898,2.287031412124634,-6.303611755371094,3
404,-27.261442184448242,-28.773834228515625,25.2177734375,0.12156905233860016,1.882664442062378,-6.115630626678467,3
405,-15.266827583312988,-40.324134826660156,27.942920684814453,0.5852797031402588,1.5736063718795776,-5.923460483551025,3
406,-10.672553062438965,-30.36851692199707,30.364688873291016,1.0424882173538208,1.2952969074249268,-5.668663024902344,3
407,-15.985193252563477,-11.64095687866211,33.62287139892578,1.2529473304748535,1.0740667581558228,-5.3404974937438965,3
408,-22.052539825439453,2.847256660461426,34.823116302490234,1.4028496742248535,0.6287875175476074,-4.994243621826172,3
409,-19.655677795410156,5.5232014656066895,38.67616271972656,1.3373973369598389,0.1924707144498825,-4.622514247894287,3
410,1.4160757064819336,9.42291259765625,41.10175323486328,1.2750229835510254,-0.12203815579414368,-4.238288879394531,3
411,23.24475860595703,26.862234115600586,43.395347595214844,0.9657320380210876,-0.19043081998825073,-3.767939329147339,3
412,35.085838317871094,50.35818099975586,39.6749382019043,0.761876106262207,-0.04611480236053467,-3.3497846126556396,3
413,34.62803649902344,74.89662170410156,32.99664306640625,-0.12874574959278107,0.27875664830207825,-2.788654327392578,3
414,32.779510498046875,85.96479034423828,23.976640701293945,-1.2846108675003052,1.7327134609222412,-2.2978692054748535,3
415,21.187833786010742,84.50762939453125,14.863457679748535,-2.613739252090454,2.2091431617736816,-1.834484338760376,3
416,6.168416976928711,64.44328308105469,8.087614059448242,-4.480041027069092,1.8668670654296875,-1.355802297592163,3
417,-1.3574875593185425,35.950172424316406,2.6192731857299805,-4.82349157333374,1.955653190612793,-1.346200942993164,3
418,-9.726886749267578,-10.08658218383789,0.6781384944915771,-4.9737868309021,1.9659150838851929,-1.372421145439148,3
419,-9.86619758605957,-60.49363327026367,1.5346323251724243,-4.639516830444336,1.782121181488037,-1.4936840534210205,3
420,-0.25454068183898926,-83.28047180175781,-1.5314702987670898,-3.558100938796997,1.6217195987701416,-1.669874906539917,3
421,1.4076259136199951,-77.40507507324219,-5.245288848876953,-2.4802255630493164,1.5798358917236328,-1.7754114866256714,3
422,4.741854667663574,-58.359519958496094,-5.911971092224121,-1.3060038089752197,1.5929348468780518,-1.9315694570541382,3
423,10.051362037658691,-28.149147033691406,-4.529469013214111,-0.2759801745414734,1.660667061805725,-2.0922064781188965,3
424,2.342621326446533,2.9074862003326416,-1.8937429189682007,0.766193687915802,2.5250396728515625,-2.0550036430358887,3
425,-16.164003372192383,37.67618942260742,-1.7192120552062988,-0.049393314868211746,1.9189554452896118,-2.090080976486206,3
426,-40.06399154663086,70.10559844970703,-2.7443737983703613,-0.13781993091106415,1.4462441205978394,-2.2387514114379883,3
427,-59.206356048583984,88.5150375366211,0.9489455819129944,-1.1447622776031494,1.1444430351257324,-2.164485216140747,3
428,-67.75212860107422,82.8231201171875,3.348970890045166,-2.328883647918701,0.44221222400665283,-2.128711223602295,3
429,-55.9423942565918,50.900753021240234,4.525350093841553,-3.2390005588531494,1.2956361770629883,-1.6457645893096924,3
430,-27.395227432250977,10.819236755371094,6.271892547607422,-3.6864476203918457,0.7019889950752258,-1.6253236532211304,3
431,-6.3944220542907715,-22.31168556213379,13.90187931060791,-3.7916572093963623,0.17498324811458588,-1.6553611755371094,3
432,2.5216076374053955,-48.97432327270508,19.694650650024414,-3.3622076511383057,-0.010724348947405815,-1.6110968589782715,3
433,5.524353504180908,-79.41889953613281,28.6591854095459,-2.635977268218994,-0.09566405415534973,-1.540602445602417,3
434,-5.612176895141602,-98.2412109375,30.539636611938477,-1.8295416831970215,-0.0681305006146431,-1.3123410940170288,3
435,-18.74500274658203,-110.87975311279297,28.47161293029785,-0.8376337289810181,0.021953968331217766,-0.9825595617294312,3
436,-26.376636505126953,-95.45531463623047,26.389015197753906,0.32997962832450867,-0.33702000975608826,-0.7853633761405945,3
437,-28.571149826049805,-67.04605102539062,24.654491424560547,1.3772321939468384,-0.584752082824707,-0.5193818807601929,3
438,-29.048898696899414,-41.798370361328125,20.050447463989258,2.1271324157714844,-1.022731900215149,-0.3033137917518616,3
439,-33.5751953125,-9.474262237548828,13.189614295959473,2.722489595413208,-1.4529633522033691,-0.14213526248931885,3
440,-25.054664611816406,30.919876098632812,5.237440586090088,2.848877429962158,-1.7076094150543213,0.028188716620206833,3
441,3.048614740371704,66.86149597167969,-0.5012955069541931,2.4683573246002197,-2.310131311416626,0.12975162267684937,3
442,31.051862716674805,91.51277923583984,-3.9640064239501953,1.7355934381484985,-2.075202703475952,0.16908344626426697,3
443,44.257171630859375,110.7449951171875,-1.3696283102035522,0.8837136626243591,-1.865505576133728,0.10809463262557983,3
444,42.727195739746094,113.88896942138672,0.7578280568122864,-0.4338313937187195,-1.2933448553085327,0.15754295885562897,3
445,39.88865661621094,91.67304229736328,9.849660873413086,-1.5104631185531616,-1.0276257991790771,0.10304062813520432,3
446,21.278488159179688,65.07553100585938,20.371543884277344,-2.3332841396331787,-0.5185392498970032,0.10288478434085846,3
447,-5.421756267547607,28.463083267211914,28.00504493713379,-2.9324822425842285,-0.39155885577201843,0.21623559296131134,3
448,-22.934192657470703,-8.619539260864258,33.4648551940918,-3.1477651596069336,-0.7486105561256409,0.3636196553707123,3
449,-30.799707412719727,-36.98585891723633,38.713844299316406,-3.0854344367980957,-0.904123067855835,0.6590254306793213,3
450,-27.98974609375,-53.28352737426758,41.10548782348633,-2.568244695663452,-1.1705055236816406,0.9499873518943787,3
451,-25.192588806152344,-49.80787658691406,37.1053581237793,-1.8118377923965454,-1.6315605640411377,1.2256044149398804,3
452,-14.59284496307373,-25.01357650756836,34.922767639160156,-1.3215484619140625,-1.7839924097061157,1.6429603099822998,3
453,3.7444493770599365,6.558027744293213,33.79374313354492,-1.1435465812683105,-1.9927141666412354,2.053866147994995,3
454,27.848003387451172,29.887731552124023,29.874719619750977,-1.2218027114868164,-1.9192346334457397,2.442263126373291,3
455,47.78398132324219,48.579864501953125,21.49252700805664,-1.5455445051193237,-1.6551860570907593,2.7742538452148438,3
456,60.37944030761719,64.12411499023438,13.714020729064941,-2.371955156326294,-1.1516621112823486,3.166295289993286,3
457,68.29972076416016,65.9483871459961,9.845436096191406,-3.399521827697754,-0.36708295345306396,3.5493202209472656,3
458,67.0561752319336,44.858314514160156,6.386656284332275,-3.2120203971862793,-0.28999945521354675,3.132347583770752,3
459,43.701690673828125,9.547036170959473,10.147598266601562,-3.634838104248047,0.670918345451355,3.2422850131988525,3
460,1.4358091354370117,-13.325871467590332,10.847079277038574,-3.64974045753479,0.7040406465530396,3.1304562091827393,3
461,-46.9754524230957,-21.175018310546875,10.262371063232422,-3.4430580139160156,0.6321319341659546,3.133753538131714,3
462,-71.29972839355469,-21.696311950683594,9.8737211227417,-3.1987531185150146,0.25298404693603516,3.2178399562835693,3
463,-58.630435943603516,-10.427553176879883,10.291154861450195,-3.1138720512390137,-0.4425247311592102,3.3416972160339355,3
464,-17.431346893310547,5.071497440338135,8.70775318145752,-2.9799482822418213,-1.129863977432251,3.4262642860412598,3
465,27.30800437927246,13.839447975158691,8.473849296569824,-2.7611308097839355,-1.4185371398925781,3.4458651542663574,3
466,71.18534088134766,12.246208190917969,7.4673237800598145,-3.097501039505005,-0.9818286299705505,3.6928768157958984,3
467,92.45457458496094,-3.8015623092651367,6.953727722167969,-3.198513984680176,0.02556423470377922,3.895005702972412,3
468,90.36096954345703,-3.9107062816619873,4.61367130279541,-3.1479690074920654,0.9787496328353882,3.976090669631958,3
469,64.01521301269531,1.5224815607070923,-0.6294835209846497,-3.0157766342163086,1.639151930809021,3.902035713195801,3
470,22.259754180908203,-3.229973316192627,-8.377677917480469,-2.943596124649048,2.184471845626831,3.8321986198425293,3
471,-25.839529037475586,-9.963668823242188,-15.27286148071289,-2.874875068664551,2.5090458393096924,3.7658050060272217,3
472,-65.73596954345703,-11.89500617980957,-25.402645111083984,-2.7050962448120117,2.011141300201416,3.4908177852630615,3
473,-79.44879150390625,-3.2692787647247314,-33.94151306152344,-2.6198112964630127,1.3212405443191528,3.227123498916626,3
474,-67.45309448242188,10.39046859741211,-36.126853942871094,-2.602389335632324,0.5450379252433777,2.908066749572754,3
475,-32.81198501586914,19.05742645263672,-34.28630447387695,-2.7874205112457275,-0.12418845295906067,2.571298122406006,3
476,8.0226411819458,18.920007705688477,-30.0615291595459,-3.0201315879821777,-0.23619651794433594,2.333667516708374,3
477,50.21100616455078,9.05370807647705,-22.138530731201172,-3.1323564052581787,0.07484135776758194,2.131321430206299,3
478,80.42913818359375,-5.661593914031982,-12.217960357666016,-3.217221260070801,0.6874601244926453,1.9641791582107544,3
479,84.51005554199219,-15.302292823791504,0.37035220861434937,-3.081494092941284,1.8796658515930176,1.9761172533035278,3
480,66.38853454589844,-21.195344924926758,11.150825500488281,-2.8901968002319336,2.2008402347564697,1.7622231245040894,3
481,33.01528549194336,-29.251455307006836,21.1651611328125,-2.7997658252716064,2.7942757606506348,1.82255220413208,3
482,-3.0040652751922607,-25.635347366333008,26.84211540222168,-2.364128351211548,3.2936110496520996,2.032207727432251,3
483,-25.979766845703125,-10.41997241973877,31.319290161132812,-1.9298526048660278,3.207306146621704,2.2338333129882812,3
484,-43.74882125854492,7.9280595779418945,35.68367385864258,-1.8600891828536987,2.799253463745117,2.471984386444092,3
485,-48.88364791870117,16.72233009338379,39.92527770996094,-2.041846513748169,2.2337465286254883,2.7708683013916016,3
486,-46.36448669433594,19.113828659057617,39.15478515625,-2.2835938930511475,2.073817253112793,3.251697301864624,3
487,-41.37291717529297,7.249294757843018,36.59794998168945,-2.3553054332733154,1.7102820873260498,3.681410312652588,3
488,-45.795448303222656,-7.009817600250244,35.7845573425293,-2.4675092697143555,1.0504579544067383,3.974996566772461,3
489,-41.5986442565918,-27.489938735961914,38.761260986328125,-2.246676445007324,0.8705652952194214,4.414600372314453,3
490,-36.46908950805664,-44.427955627441406,42.2952995300293,-2.005307197570801,0.46933940052986145,4.794301986694336,3
491,-25.682464599609375,-49.96276092529297,45.106815338134766,-1.4535351991653442,0.015123038552701473,5.191628932952881,3
492,-17.649126052856445,-57.41104507446289,47.27994918823242,-0.8539794087409973,-0.42699453234672546,5.602601528167725,3
493,-1.9740864038467407,-46.17790222167969,51.20832061767578,-0.28437650203704834,-0.0784081444144249,6.1804351806640625,3
494,25.465301513671875,-17.540210723876953,51.35330581665039,0.09140162914991379,-0.09774545580148697,6.682252407073975,3
495,44.954673767089844,7.562439441680908,50.46979522705078,0.3969969153404236,0.2447986602783203,7.210794925689697,3
496,51.87354278564453,21.680150985717773,47.41592788696289,0.1896202117204666,0.6167359948158264,7.757472991943359,3
497,63.30860137939453,45.068748474121094,43.360443115234375,-0.19519607722759247,1.2665969133377075,8.244793891906738,3
498,65.42786407470703,60.73217010498047,38.4504280090332,-0.8217810392379761,1.804175853729248,8.694297790527344,3
499,53.85529708862305,63.42242431640625,34.76090621948242,-1.6130826473236084,2.5322067737579346,9.108787536621094,3
500,21.837337493896484,48.40708923339844,30.92413330078125,-2.088496685028076,3.1617343425750732,9.489167213439941,3
501,-18.98736572265625,26.33909034729004,24.120677947998047,-2.4556260108947754,3.1603496074676514,9.815709114074707,3
502,-53.7515754699707,8.388076782226562,19.095073699951172,-2.535667657852173,2.72408390045166,10.067806243896484,3
503,-55.883750915527344,1.7448242902755737,18.420879364013672,-2.5865063667297363,2.2086358070373535,10.271078109741211,3
504,-47.87178421020508,-6.467232704162598,16.10646629333496,-2.528491258621216,1.9442986249923706,10.493070602416992,3
505,-21.556549072265625,-25.172761917114258,12.55419635772705,-2.3019230365753174,1.6232025623321533,10.685676574707031,3
506,-3.563441514968872,-31.378250122070312,6.910282135009766,-2.1206114292144775,1.5215362310409546,10.820194244384766,3
507,7.451642036437988,-25.697864532470703,3.057137966156006,-1.690870761871338,1.412380337715149,10.892728805541992,3
508,7.5031561851501465,-12.479361534118652,-1.0661404132843018,-1.2219616174697876,1.4577215909957886,10.938188552856445,3
509,-4.028745651245117,-3.8899521827697754,-6.659566879272461,-1.5755939483642578,1.5601733922958374,10.885748863220215,3
510,-23.496688842773438,7.887427806854248,-10.895950317382812,-1.6088051795959473,1.777857780456543,10.838027000427246,3
511,-57.504119873046875,13.51966381072998,-12.864117622375488,-1.6606415510177612,1.2576526403427124,10.713666915893555,3
512,-86.31330871582031,10.359686851501465,-11.519071578979492,-1.8125604391098022,1.2151691913604736,10.628233909606934,3
513,-107.1480941772461,8.237648963928223,-6.9428839683532715,-1.8878750801086426,-0.12210830301046371,10.473724365234375,3
514,-109.30567169189453,0.8571178317070007,-1.7871544361114502,-1.9109258651733398,-0.9303616881370544,10.425597190856934,3
515,-76.15677642822266,-25.664108276367188,-0.4025365114212036,-1.7009520530700684,-2.1555261611938477,10.40009880065918,3
516,-40.30012893676758,-48.73601150512695,1.2239019870758057,-1.462912678718567,-2.7902891635894775,10.419394493103027,3
517,-13.300765991210938,-50.75790786743164,0.05603862926363945,-0.6467735767364502,-3.237959384918213,10.442519187927246,3
518,12.024371147155762,-32.83930969238281,-5.425753593444824,-0.18114176392555237,-3.213475227355957,10.485766410827637,3
519,23.247756958007812,-15.594213485717773,-9.352128028869629,0.23669762909412384,-3.115931987762451,10.44971752166748,3
520,15.789567947387695,5.555844306945801,-10.327166557312012,0.2807409465312958,-2.854421377182007,10.391942977905273,3
521,2.6991071701049805,26.170591354370117,-10.185845375061035,0.5171518921852112,-2.7258169651031494,10.233016967773438,3
522,4.327234268188477,38.457603454589844,-4.222334384918213,-0.04217454791069031,-2.7116501331329346,10.205740928649902,3
523,12.979264259338379,41.98564529418945,2.111281394958496,-0.49257394671440125,-2.7890496253967285,10.168749809265137,3
524,18.39349365234375,30.216352462768555,8.93938159942627,-1.0947009325027466,-2.6624855995178223,10.215177536010742,3
525,28.6572322845459,16.269386291503906,14.491840362548828,-1.50014066696167,-2.4937548637390137,10.309926986694336,3
526,38.15366744995117,-7.969222545623779,17.251434326171875,-1.6385899782180786,-2.119586944580078,10.419443130493164,3
527,38.27116012573242,-29.34715461730957,19.826934814453125,-1.3678117990493774,-1.9326378107070923,10.51788330078125,3
528,38.83406066894531,-31.020851135253906,22.005298614501953,-0.8238421678543091,-1.4116894006729126,10.614397048950195,3
529,20.454845428466797,-25.501739501953125,21.002702713012695,-1.8430256843566895,-1.0396552085876465,11.311123847961426,3
530,1.7040029764175415,-6.837419033050537,11.156444549560547,-1.5942506790161133,-0.9212051630020142,11.531962394714355,3
531,-11.45126724243164,15.601518630981445,1.8321760892868042,-1.4092999696731567,-0.9518089890480042,11.6251859664917,3
532,-7.935410976409912,38.8863525390625,-6.713326930999756,-1.5278561115264893,-1.0879024267196655,11.652446746826172,3
533,7.120242595672607,53.915164947509766,-13.310054779052734,-1.8907815217971802,-1.2319132089614868,11.592469215393066,3
534,24.514062881469727,47.63520812988281,-18.67888641357422,-2.382359743118286,-1.1074522733688354,11.435580253601074,3
535,36.82228469848633,24.534055709838867,-20.70249366760254,-2.948866128921509,-0.7966279983520508,11.270872116088867,3
536,31.431547164916992,1.2952675819396973,-23.482824325561523,-3.047726631164551,-0.43581071496009827,11.014366149902344,3
537,14.523320198059082,-27.671688079833984,-27.717561721801758,-2.807482957839966,-0.1022179126739502,10.707794189453125,3
538,-8.791340827941895,-56.94399642944336,-30.8980770111084,-2.321629285812378,0.003689256962388754,10.375033378601074,3
539,-25.125247955322266,-77.98919677734375,-38.18132019042969,-1.3808504343032837,-0.10135158151388168,9.967753410339355,3
540,-32.4995002746582,-83.70960235595703,-43.83003234863281,-0.5447821617126465,-0.682063102722168,9.558246612548828,3
541,-23.401018142700195,-72.79669189453125,-46.844627380371094,0.342926949262619,-0.8851075768470764,9.129363059997559,3
542,-15.452138900756836,-44.01377868652344,-49.06831359863281,0.9735649824142456,-1.1033672094345093,8.698479652404785,3
543,-1.0838332176208496,-5.8577189445495605,-49.244747161865234,1.3945817947387695,-1.1522860527038574,8.222597122192383,3
544,8.96320629119873,34.111087799072266,-47.59994888305664,1.474167823791504,-1.1256147623062134,7.732314109802246,3
545,12.428994178771973,59.78583526611328,-39.58137130737305,0.9307836294174194,-0.9785598516464233,7.300215721130371,3
546,7.483899116516113,69.1202163696289,-31.85993194580078,0.23242007195949554,-0.8847185969352722,6.920928478240967,3
547,-2.954530715942383,56.81013107299805,-24.65300178527832,-0.37647905945777893,-0.8853945732116699,6.586554050445557,3
548,-24.64143943786621,31.73569679260254,-19.139469146728516,-1.1241850852966309,-0.8666879534721375,6.358362674713135,3
549,-45.88893508911133,14.256537437438965,-14.895395278930664,-1.4610575437545776,-1.2334520816802979,6.17414665222168,3
550,-44.7003288269043,-8.105685234069824,-8.69548511505127,-1.3330107927322388,-1.5512900352478027,5.9600090980529785,3
551,-32.91914367675781,-25.867477416992188,-2.6921916007995605,-1.1045483350753784,-1.9791619777679443,5.839947700500488,3
552,-17.050504684448242,-40.27839279174805,3.0450665950775146,-0.8640127778053284,-2.0891757011413574,5.80661153793335,3
553,3.3580873012542725,-46.255897521972656,5.367643356323242,-0.35682249069213867,-2.3340632915496826,5.8372883796691895,3
554,22.249540328979492,-41.731201171875,5.969910144805908,0.054435551166534424,-2.0358524322509766,5.888917922973633,3
555,45.60044860839844,-22.12348747253418,7.53422737121582,0.650953471660614,-1.6213736534118652,5.8950724601745605,3
556,56.40879440307617,-8.745835304260254,10.878559112548828,0.8559122085571289,-1.2296340465545654,5.991320610046387,3
557,43.823768615722656,12.533323287963867,14.68763256072998,0.8700702786445618,-0.5969223976135254,6.105280876159668,3
558,13.880677223205566,25.253568649291992,14.212013244628906,0.7032262682914734,-0.31533083319664,6.285801410675049,3
559,-12.736721992492676,24.770570755004883,15.107126235961914,0.3667101562023163,-0.3902645409107208,6.483509540557861,3
560,-20.21450424194336,22.802648544311523,14.088098526000977,0.10148084163665771,-0.4177728593349457,6.623093128204346,3
561,-20.650293350219727,9.835591316223145,15.24029541015625,-0.03765864670276642,-0.714156448841095,6.763432025909424,3
562,-11.904784202575684,-2.2622456550598145,14.909095764160156,-0.2320627123117447,-1.0572551488876343,6.9505791664123535,3
563,-5.253001689910889,-7.809560775756836,14.497257232666016,-0.08456189185380936,-1.2588015794754028,7.088674068450928,3
564,5.752867221832275,-5.642242431640625,16.61775779724121,0.057302407920360565,-1.232180118560791,7.209874629974365,3
565,6.565860748291016,3.6281020641326904,15.168315887451172,-0.04130580648779869,-1.1403543949127197,7.3901286125183105,3
566,9.239487648010254,2.675806760787964,15.691234588623047,0.02027779631316662,-1.014513373374939,7.521435260772705,3
567,12.640151023864746,0.9615761041641235,14.763861656188965,0.0703933909535408,-0.8376559615135193,7.650017261505127,3
568,16.193607330322266,-6.308030605316162,13.92335033416748,0.17501814663410187,-0.6097464561462402,7.765758037567139,3
569,23.15384864807129,-11.001134872436523,12.660958290100098,0.21095623075962067,-0.31449148058891296,7.8853020668029785,3
570,19.921785354614258,-19.192739486694336,13.921918869018555,0.5982152223587036,0.030509935691952705,7.957486629486084,3
571,20.994585037231445,-22.07278823852539,13.392812728881836,0.9797034859657288,0.3403627872467041,8.0479736328125,3
572,4.381582260131836,-25.195051193237305,13.793390274047852,0.4192732572555542,0.18489202857017517,8.344207763671875,3
573,-9.62402629852295,-23.41370391845703,11.63025188446045,0.8729633092880249,0.19894228875637054,8.466276168823242,3
574,-14.930809020996094,-24.021224975585938,9.135690689086914,1.1652380228042603,0.0077561987563967705,8.59965705871582,3
575,-5.404964447021484,-2.2945117950439453,10.078278541564941,1.4108399152755737,-0.13409119844436646,8.695490837097168,3
576,7.268561840057373,22.835168838500977,11.269205093383789,1.2906980514526367,-0.21432581543922424,8.806050300598145,3
577,32.04640579223633,44.6569938659668,9.215141296386719,0.9055929780006409,0.23942594230175018,8.830854415893555,3
578,30.416841506958008,54.781150817871094,9.362295150756836,0.5066494941711426,0.3451704978942871,8.97504711151123,3
579,22.197982788085938,44.93278121948242,8.77862548828125,-0.22243022918701172,0.7250171899795532,9.056649208068848,3
580,2.188143014907837,28.55658721923828,10.850656509399414,-0.8390302658081055,0.9651854038238525,9.147937774658203,3
581,-13.376916885375977,3.8675308227539062,12.9242525100708,-1.1144022941589355,0.9164303541183472,9.272977828979492,3
582,-27.62611961364746,-20.230226516723633,17.444110870361328,-0.9761644005775452,0.6133096814155579,9.438015937805176,3
583,-27.550029754638672,-52.53847885131836,24.28422737121582,-0.8798525929450989,0.3607802987098694,9.60529899597168,3
584,-24.856033325195312,-63.48825454711914,31.758981704711914,0.15860581398010254,0.1263277381658554,9.859857559204102,3
585,-9.625873565673828,-63.39860534667969,37.29541778564453,2.2344682216644287,-1.111535906791687,10.396742820739746,3
586,13.25985050201416,-56.06075668334961,40.62586212158203,2.8320250511169434,0.5292943120002747,10.427284240722656,3
587,36.29203796386719,-42.04490280151367,43.87581253051758,3.2463161945343018,0.6541588306427002,10.823204040527344,3
588,29.346284866333008,-16.80251121520996,40.84977722167969,3.623188018798828,0.9680254459381104,11.2530517578125,3
589,15.610159873962402,11.150810241699219,33.50970458984375,3.4127001762390137,1.229583740234375,11.642870903015137,3
590,-4.442423343658447,38.829986572265625,25.88910675048828,3.1384167671203613,1.2439805269241333,12.00949478149414,3
591,-38.26567077636719,61.86155700683594,20.02532958984375,2.4999608993530273,0.947513222694397,12.337324142456055,3
592,-59.902244567871094,71.1880874633789,17.12811851501465,1.6800751686096191,0.4633183181285858,12.563544273376465,3
593,-62.78397750854492,75.64234161376953,15.408587455749512,0.7221148014068604,-0.5496429800987244,12.859877586364746,3
594,-57.69278335571289,62.00919723510742,13.996927261352539,0.13944007456302643,-0.5404108166694641,12.801743507385254,3
595,-49.75040054321289,43.84016418457031,11.071027755737305,-0.6729220747947693,-1.2558355331420898,12.95992660522461,3
596,-29.92152976989746,23.677614212036133,8.19645881652832,-1.2219669818878174,-1.7808831930160522,13.064249038696289,3
597,-10.587319374084473,5.487101078033447,6.989255905151367,-1.4056674242019653,-2.2787203788757324,13.1924467086792,3
598,0.8851484060287476,-5.40566349029541,5.9695658683776855,-1.4768675565719604,-2.120154619216919,13.204480171203613,3
599,8.467408180236816,-0.7970818877220154,4.027771472930908,-1.35431706905365,-2.097231864929199,13.26109504699707,3
600,14.365059852600098,-7.797964096069336,3.1762452125549316,-1.378315806388855,-1.9769113063812256,13.301828384399414,3
601,9.232022285461426,-20.64264488220215,2.818345069885254,-1.2718582153320312,-1.9551129341125488,13.350387573242188,3
602,0.28646618127822876,-30.17979621887207,1.246370792388916,-0.9085092544555664,-1.9667022228240967,13.382729530334473,3
603,-12.57996940612793,-43.011573791503906,1.6061939001083374,-0.9618329405784607,-2.0711398124694824,13.448890686035156,3
604,-19.87844467163086,-43.43539047241211,1.5621458292007446,-0.29196372628211975,-2.3528201580047607,13.46946907043457,3
605,-16.78915023803711,-32.7594108581543,2.788226842880249,0.0836712121963501,-2.6312501430511475,13.514566421508789,3
606,-9.405110359191895,-19.739953994750977,8.159245491027832,0.4244726002216339,-2.5568549633026123,13.541549682617188,3
607,-6.507889747619629,-0.3168973922729492,10.938074111938477,0.3378400504589081,-2.7146518230438232,13.676185607910156,3
608,-3.9338529109954834,22.27497100830078,11.792737007141113,0.23447512090206146,-2.733940601348877,13.793998718261719,3
609,-0.644297182559967,36.798095703125,13.800559043884277,-0.04065987840294838,-2.7932729721069336,13.912040710449219,3
610,4.83274507522583,33.05073165893555,19.05486488342285,-0.4929829239845276,-2.769868850708008,14.052762985229492,3
611,6.609589576721191,25.470905303955078,23.5179386138916,-0.9591055512428284,-2.6896400451660156,14.254581451416016,3
612,14.441365242004395,15.728702545166016,27.36619758605957,-1.0727522373199463,-2.544969320297241,14.444896697998047,3
613,27.599628448486328,11.026016235351562,28.4660587310791,-1.1423753499984741,-2.3961398601531982,14.686854362487793,3
614,39.41085433959961,7.886538505554199,30.33733367919922,-1.3184558153152466,-2.1125285625457764,14.979877471923828,3
615,42.4010009765625,20.58818817138672,27.847881317138672,-1.657117247581482,-1.462306261062622,15.338858604431152,3
616,43.76512145996094,24.382986068725586,17.42652702331543,-2.22363543510437,-1.2141772508621216,15.681710243225098,3
617,58.93015670776367,18.160274505615234,9.221779823303223,-2.2110164165496826,-0.7148945331573486,15.789278984069824,3
618,74.74070739746094,14.78176212310791,5.279667854309082,-2.2723605632781982,-0.10568708926439285,15.853187561035156,3
619,77.20413208007812,20.006977081298828,3.8184146881103516,-2.479431629180908,0.4758838415145874,15.898386001586914,3
620,71.48931884765625,20.191308975219727,1.1223998069763184,-2.6329240798950195,1.3273755311965942,15.941510200500488,3
621,54.85330581665039,17.80454444885254,-2.2316622734069824,-2.899763822555542,1.7140719890594482,15.914746284484863,3
622,28.50246238708496,5.013164520263672,-4.7579169273376465,-2.9691479206085205,2.2783145904541016,15.8922700881958,3
623,6.697719097137451,-10.643132209777832,-5.854427814483643,-2.961923360824585,2.542534351348877,15.839166641235352,3
624,2.564197063446045,-22.844512939453125,-6.918390274047852,-2.7006137371063232,2.606919527053833,15.771151542663574,3
625,7.612610816955566,-30.37721824645996,-8.473423957824707,-2.2661285400390625,2.7253143787384033,15.707084655761719,3
626,10.402814865112305,-27.201269149780273,-6.933894634246826,-2.216137409210205,2.660874366760254,15.563237190246582,3
627,8.489032745361328,-22.72581672668457,-8.145164489746094,-1.988442301750183,2.784501075744629,15.478882789611816,3
628,5.07130241394043,-14.343789100646973,-8.641925811767578,-1.7973275184631348,2.9119791984558105,15.398250579833984,3
629,-3.2211644649505615,-16.266292572021484,-7.399291038513184,-1.916560411453247,2.9641921520233154,15.265946388244629,3
630,-7.945307731628418,-17.031740188598633,-9.391281127929688,-1.8410855531692505,2.8802928924560547,15.154052734375,3
631,-5.135476112365723,-9.7387056350708,-11.578333854675293,-1.3676544427871704,2.7599494457244873,15.116047859191895,3
632,1.8813865184783936,6.041569709777832,-15.201664924621582,-1.4235262870788574,2.9928476810455322,15.031211853027344,3
633,9.962884902954102,11.006455421447754,-19.98099708557129,-1.5857813358306885,3.0388219356536865,14.858641624450684,3
634,7.300143241882324,-1.0001776218414307,-22.410446166992188,-1.7786965370178223,3.0576374530792236,14.621539115905762,3
635,4.685431003570557,-12.62280559539795,-26.84712028503418,-1.6760529279708862,3.120452404022217,14.430505752563477,3
636,-7.523157596588135,-5.570504188537598,-32.1901969909668,-1.4601138830184937,3.102806806564331,14.172809600830078,3
637,-18.413860321044922,0.7084885835647583,-34.299251556396484,-1.3855719566345215,2.9827258586883545,13.856910705566406,3
638,-28.347110748291016,-2.800967216491699,-33.880165100097656,-1.4217172861099243,2.829824209213257,13.517888069152832,3
639,-48.74234390258789,-9.297830581665039,-34.39107131958008,-1.7094193696975708,2.5190446376800537,13.065008163452148,3
640,-60.370147705078125,-39.39043045043945,-30.982213973999023,-1.4290368556976318,1.7783061265945435,12.732808113098145,3
641,-69.57709503173828,-75.02401733398438,-27.689271926879883,-1.081040382385254,1.4404072761535645,12.446695327758789,3
642,-58.131797790527344,-89.52723693847656,-24.06270980834961,0.09933783113956451,0.6167178153991699,12.297261238098145,3
643,-43.2918586730957,-98.90473175048828,-23.87230682373047,0.9484644532203674,-0.02442859299480915,12.01177978515625,3
644,-27.69879150390625,-90.32906341552734,-23.40645408630371,2.0088207721710205,-0.4434129297733307,11.803884506225586,3
645,-13.031987190246582,-52.31207275390625,-22.35346221923828,2.6981313228607178,-0.4222370386123657,11.546960830688477,3
646,3.4642598628997803,-1.6277472972869873,-24.077486038208008,3.222170352935791,-0.5159982442855835,11.340919494628906,3
647,12.740936279296875,40.550559997558594,-28.78529930114746,3.144552707672119,-0.35100501775741577,11.075653076171875,3
648,21.220787048339844,68.7674331665039,-32.595489501953125,2.4906671047210693,-0.13352736830711365,10.729801177978516,3
649,18.443172454833984,67.52440643310547,-33.878414154052734,1.522816777229309,0.16328135132789612,10.339876174926758,3
650,21.204294204711914,57.59748077392578,-33.500484466552734,0.8719965815544128,0.3532395362854004,10.00822639465332,3
651,1.8203537464141846,38.32194137573242,-32.725704193115234,0.358716756105423,0.6396616101264954,9.67337703704834,3
652,0.26550766825675964,12.822383880615234,-31.60323715209961,0.062746562063694,0.7566014528274536,9.34846019744873,3
653,-14.588848114013672,-15.078569412231445,-31.71495246887207,-0.05432434007525444,0.6150739192962646,9.04417896270752,3
654,-38.89366149902344,-41.096839904785156,-26.119417190551758,0.3899819850921631,0.32456615567207336,8.788275718688965,3
655,-51.783321380615234,-54.17204666137695,-18.797739028930664,0.6350401639938354,0.016541315242648125,8.49832820892334,3
656,-69.91595458984375,-60.1697883605957,-13.184877395629883,1.0896307229995728,-0.5214641094207764,8.307183265686035,3
657,-87.490966796875,-54.7313117980957,-10.554255485534668,1.8163307905197144,-1.4409315586090088,8.238288879394531,3
658,-98.62963104248047,-44.967430114746094,-9.391047477722168,2.253711700439453,-2.5435400009155273,8.185914039611816,3
659,-98.85501098632812,-35.23715591430664,-8.781778335571289,2.6375975608825684,-3.070161819458008,8.015140533447266,3
660,-86.59043884277344,-20.952665328979492,-11.308234214782715,3.053956985473633,-4.352444648742676,8.02204704284668,3
661,-58.79250717163086,-5.583734512329102,-11.544273376464844,3.224999189376831,-4.852251052856445,7.837987422943115,3
662,-19.48407745361328,5.256693363189697,-11.608105659484863,3.265181303024292,-5.354066371917725,7.716834545135498,3
663,23.73594093322754,24.443910598754883,-12.015646934509277,3.2338974475860596,-5.407168865203857,7.566955089569092,3
664,59.98118591308594,36.264286041259766,-10.94635009765625,2.9523727893829346,-4.849085807800293,7.351578235626221,3
665,69.8643798828125,66.21764373779297,-11.96886157989502,2.393441677093506,-3.9448370933532715,7.13883113861084,3
666,69.96041870117188,78.7299575805664,-19.1823673248291,1.5905280113220215,-3.074268341064453,6.952450752258301,3
667,54.79340362548828,70.51429748535156,-21.393115997314453,0.8403567671775818,-2.5924928188323975,6.775435447692871,3
668,29.331579208374023,47.60114288330078,-21.25018310546875,0.008688785135746002,-2.1714766025543213,6.628587245941162,3
669,6.952532768249512,17.382463455200195,-19.553361892700195,0.025109073147177696,-2.1883530616760254,6.34320592880249,3
670,-14.085184097290039,-15.009774208068848,-16.467912673950195,0.12868578732013702,-2.253336191177368,6.104374408721924,3
671,-27.515567779541016,-46.130374908447266,-15.132094383239746,0.44666796922683716,-2.617051839828491,5.969917297363281,3
672,-25.074914932250977,-70.05585479736328,-13.836785316467285,1.3829758167266846,-2.933076858520508,5.716041564941406,3
673,16.43792152404785,-65.99178314208984,-12.918895721435547,1.8530477285385132,-2.8925535678863525,5.6405534744262695,3
674,30.30413818359375,-53.796363830566406,-10.725302696228027,2.5649139881134033,-2.467726230621338,5.456761837005615,3
675,29.743022918701172,-29.68705940246582,-9.972882270812988,3.2466342449188232,-2.189178466796875,5.3031511306762695,3
676,10.824981689453125,-7.811089038848877,-6.936473846435547,2.8446757793426514,-1.9675127267837524,5.46740198135376,3
677,-2.069060802459717,2.694284677505493,-9.691442489624023,3.047395706176758,-2.1514804363250732,5.441764831542969,3
678,-10.169196128845215,0.5081881284713745,-9.010814666748047,2.997042179107666,-2.2234160900115967,5.364617347717285,3
679,-5.535688877105713,-10.78150463104248,-6.990334987640381,2.9440948963165283,-2.4092392921447754,5.338327407836914,3
680,4.126654624938965,-7.996827602386475,-5.83231258392334,3.1766738891601562,-2.3903205394744873,5.214646816253662,3
681,8.497771263122559,-6.818044185638428,-8.989157676696777,3.227623462677002,-2.26505184173584,5.134644985198975,3
682,25.022581100463867,0.8316496014595032,-12.101587295532227,3.3873257637023926,-2.012690305709839,4.945863246917725,3
683,30.32684326171875,24.308595657348633,-11.524943351745605,3.058114528656006,-2.090507984161377,5.065038681030273,3
684,25.43814468383789,52.032535552978516,-10.136375427246094,2.502718448638916,-1.5941191911697388,4.947513580322266,3
685,29.481143951416016,76.00052642822266,-8.295347213745117,1.8471722602844238,-1.135216236114502,4.7873077392578125,3
686,33.37348937988281,72.24752807617188,-4.282582759857178,0.893156111240387,-0.7869552969932556,4.745499134063721,3
687,42.813777923583984,56.47732162475586,-1.6831679344177246,0.42714381217956543,-0.7412539124488831,4.757370948791504,3
688,37.05991744995117,34.340003967285156,-2.750309467315674,-0.1392795294523239,-0.11289725452661514,4.675192356109619,3
689,34.14750289916992,17.63827133178711,-4.295351505279541,-0.4317525029182434,0.30317455530166626,4.632608413696289,3
690,10.566387176513672,4.388964653015137,-6.099614143371582,-0.4306084215641022,0.16433921456336975,4.686689376831055,3
691,17.535804748535156,-19.38726234436035,-6.441612720489502,-0.3127453029155731,0.3063192665576935,4.602639675140381,3
692,35.50047302246094,-36.42729949951172,-7.858201503753662,-0.18194547295570374,0.5648777484893799,4.526412010192871,3
693,51.714691162109375,-30.601177215576172,-7.070735931396484,0.5309383273124695,1.0932482481002808,4.360953330993652,3
694,63.472286224365234,-7.888327121734619,-3.4428460597991943,0.8257578611373901,1.267327070236206,4.364140510559082,3
695,58.285919189453125,27.831771850585938,-0.6047349572181702,0.7043031454086304,2.336568832397461,4.265838146209717,3
696,43.33125305175781,63.07658004760742,-0.013858024962246418,0.1822553426027298,2.6671864986419678,4.3350982666015625,3
697,14.542186737060547,74.73965454101562,-5.594868183135986,-0.8368390202522278,3.027780771255493,4.364551067352295,3
698,-11.671284675598145,74.9996337890625,-12.451580047607422,-1.4495290517807007,3.0388197898864746,4.351974010467529,3
699,-29.876550674438477,64.38683319091797,-21.698741912841797,-2.1596858501434326,2.8177530765533447,4.2632222175598145,3
700,-34.60289001464844,45.39506149291992,-29.5594482421875,-2.803463935852051,2.3302135467529297,4.065883636474609,3
701,-25.87591552734375,22.848373413085938,-34.086204528808594,-3.165578842163086,2.163378953933716,3.790438413619995,3
702,5.1876540184021,-8.545528411865234,-34.18689727783203,-3.2435388565063477,1.9912055730819702,3.483166217803955,3
703,23.809776306152344,-29.3233585357666,-32.17340087890625,-2.8839173316955566,2.2001333236694336,3.2095067501068115,3
704,44.221824645996094,-47.71554183959961,-31.94317626953125,-2.3604676723480225,2.667203187942505,2.957679271697998,3
705,51.06367874145508,-63.36970901489258,-29.58549690246582,-1.6964031457901,3.114393949508667,2.661818027496338,3
706,40.27094650268555,-65.3993911743164,-25.233274459838867,-1.1571848392486572,3.7894113063812256,2.3433499336242676,3
707,23.105743408203125,-47.34859085083008,-22.29073143005371,-0.7120344638824463,3.994849443435669,1.9786567687988281,3
708,-1.6808297634124756,-17.35485076904297,-22.313919067382812,-0.3145584762096405,4.260069847106934,1.750049352645874,3
709,-28.402820587158203,12.74730396270752,-23.45339012145996,-0.4812213182449341,4.107066631317139,1.407854437828064,3
710,-46.18505859375,24.750410079956055,-21.096826553344727,-0.7519274353981018,3.6164002418518066,1.1169087886810303,3
711,-48.85558319091797,25.972820281982422,-20.979917526245117,-0.9875320792198181,3.05119252204895,0.9132269620895386,3
712,-37.878177642822266,16.921321868896484,-21.251548767089844,-1.2558274269104004,2.6865179538726807,0.7303964495658875,3
713,-20.468265533447266,4.9232306480407715,-22.273990631103516,-1.3459266424179077,2.605513095855713,0.614875078201294,3
714,-3.0008976459503174,-10.772697448730469,-21.290956497192383,-1.3888624906539917,2.357255220413208,0.3698056638240814,3
715,15.477322578430176,-23.25570297241211,-17.887380599975586,-1.0815582275390625,2.706148624420166,0.325052410364151,3
716,25.840099334716797,-35.43717956542969,-13.915431022644043,-0.9161033630371094,2.993870735168457,0.13090339303016663,3
717,22.23150062561035,-44.266204833984375,-10.542773246765137,-0.15477311611175537,3.2041056156158447,0.1536271721124649,3
718,8.569589614868164,-48.66104507446289,-7.9197540283203125,-0.060256097465753555,3.3763887882232666,-0.1456199586391449,3
719,-14.60086441040039,-43.20339584350586,-2.9785828590393066,0.5530608296394348,3.337311267852783,-0.19142866134643555,3
720,-34.914459228515625,-37.54694366455078,-0.858384907245636,0.7433323860168457,3.019688367843628,-0.3817232847213745,3
721,-46.62256622314453,-32.473228454589844,5.328216552734375,1.1721075773239136,2.620832681655884,-0.3685119152069092,3
722,-50.096900939941406,-24.02509117126465,9.766164779663086,1.6463675498962402,1.9664350748062134,-0.26603949069976807,3
723,-45.83956527709961,-11.07388687133789,11.921699523925781,1.6676356792449951,1.7934139966964722,-0.2302320897579193,3
724,-29.090848922729492,2.50284481048584,16.255027770996094,1.8326917886734009,1.4335662126541138,-0.0567968487739563,3
725,-14.863372802734375,14.297032356262207,16.904499053955078,1.710496187210083,1.0930111408233643,0.06185663864016533,3
726,-14.883941650390625,16.154481887817383,14.444563865661621,1.4245868921279907,0.9513168334960938,0.16560354828834534,3
727,-8.478078842163086,17.092334747314453,12.546092987060547,1.4394745826721191,0.5131849646568298,0.380054235458374,3
728,-8.809599876403809,20.68685531616211,8.948453903198242,1.2299634218215942,1.1707346439361572,0.48887544870376587,3
729,-28.459688186645508,8.58768367767334,4.436749458312988,1.0580813884735107,0.7689694166183472,0.5743315815925598,3
730,-46.7108154296875,-8.713393211364746,1.7522748708724976,1.0109885931015015,0.4504806101322174,0.606154203414917,3
731,-68.02198028564453,-22.84076690673828,-4.42055606842041,1.3113840818405151,-0.6289507150650024,0.6791877746582031,3
732,-76.4822006225586,-32.529300689697266,-8.65629768371582,1.4168860912322998,-0.8212372064590454,0.5493360757827759,3
733,-65.0619888305664,-36.79238510131836,-14.346489906311035,1.9028408527374268,-1.9063458442687988,0.5084548592567444,3
734,-50.05384063720703,-27.36208724975586,-17.360639572143555,2.261723041534424,-1.95088529586792,0.32267817854881287,3
735,-19.968130111694336,-16.726716995239258,-22.449804306030273,2.589966297149658,-2.5634357929229736,0.18645571172237396,3
736,5.028696537017822,5.803252220153809,-20.91568946838379,2.66292142868042,-2.7363579273223877,-0.025620387867093086,3
737,7.649056434631348,21.544755935668945,-19.054012298583984,2.5060222148895264,-2.2005057334899902,-0.310064435005188,3
738,6.561619281768799,23.867919921875,-12.595026969909668,2.217181444168091,-2.2807157039642334,-0.47170159220695496,3
739,2.794736862182617,22.5057373046875,-6.946697235107422,1.8986083269119263,-1.9961483478546143,-0.6368162631988525,3
740,6.619352340698242,16.96969985961914,1.6563477516174316,1.6691005229949951,-2.0156137943267822,-0.669725775718689,3
741,16.41590690612793,11.012657165527344,8.026885032653809,1.5891759395599365,-1.9208561182022095,-0.6444032192230225,3
742,1.6787400245666504,2.8262815475463867,15.784750938415527,1.535787582397461,-1.887446641921997,-0.5223116874694824,3
743,-13.777912139892578,-9.060565948486328,20.37253761291504,1.4996848106384277,-1.9750359058380127,-0.3320985734462738,3
744,-17.24106216430664,-17.689847946166992,21.07220458984375,1.8010573387145996,-2.3548362255096436,-0.10558746010065079,3
745,-22.4659423828125,-14.797232627868652,17.12323570251465,1.9759303331375122,-2.5162971019744873,0.09183451533317566,3
746,-8.586577415466309,8.662795066833496,15.295135498046875,2.0728118419647217,-2.7889747619628906,0.27610835433006287,3
747,-10.874691009521484,41.737186431884766,11.459704399108887,1.7531733512878418,-2.830108404159546,0.42388808727264404,3
748,-7.591867446899414,62.965545654296875,12.064974784851074,1.0569547414779663,-3.055795192718506,0.6010327339172363,3
749,-2.5072758197784424,64.90301513671875,12.279876708984375,0.30812978744506836,-3.0584073066711426,0.6922163963317871,3
750,0.5685274004936218,58.1774787902832,10.92204761505127,-0.36957883834838867,-3.0284411907196045,0.785667359828949,3
751,-6.887300491333008,45.05480194091797,11.349723815917969,-1.0801643133163452,-3.015882730484009,0.9214357137680054,3
752,-10.191813468933105,30.98985481262207,11.055788040161133,-1.4233295917510986,-3.186323404312134,0.9994530081748962,3
753,-21.994400024414062,5.703144073486328,10.346668243408203,-1.6344566345214844,-3.420511484146118,1.0921998023986816,3
754,-16.785371780395508,-19.071016311645508,10.440932273864746,-1.4089312553405762,-3.582058906555176,1.1097517013549805,3
755,-7.7808003425598145,-49.091697692871094,11.669498443603516,-0.8716555237770081,-3.6905903816223145,1.1325055360794067,3
756,11.959413528442383,-70.52806854248047,14.128253936767578,-0.14977949857711792,-3.609520435333252,1.2161809206008911,3
757,20.64470863342285,-74.2875747680664,17.557249069213867,0.9096198678016663,-3.323620319366455,1.2619366645812988,3
758,26.022207260131836,-52.36005783081055,19.304115295410156,1.143440842628479,-3.097609043121338,1.6880308389663696,3
759,31.191587448120117,-17.19261932373047,17.50506591796875,1.5613343715667725,-3.1369898319244385,1.9026739597320557,3
760,38.061702728271484,23.104860305786133,13.512909889221191,1.5815330743789673,-2.5432422161102295,2.0641403198242188,3
761,40.658241271972656,54.979557037353516,6.508270263671875,0.9965895414352417,-2.55696702003479,2.284558057785034,3
762,33.77891540527344,70.79280853271484,0.7687938213348389,0.08834432065486908,-2.018433094024658,2.453620672225952,3
763,18.766239166259766,72.13231658935547,-2.683210611343384,-0.5848468542098999,-1.791036605834961,2.3990659713745117,3
764,-2.429051637649536,49.96515655517578,-2.085580825805664,-1.4655874967575073,-1.597872018814087,2.4482626914978027,3
765,-11.75265121459961,21.913604736328125,-1.7350016832351685,-1.4440317153930664,-1.865216612815857,2.1960654258728027,3
766,-7.137094020843506,6.265883922576904,-0.9021636247634888,-1.4448719024658203,-1.9862737655639648,2.1082582473754883,3
767,10.845247268676758,1.2694594860076904,-1.5297216176986694,-1.35085129737854,-2.069061756134033,2.0361647605895996,3
768,15.566473960876465,5.497359275817871,-0.6114091277122498,-1.4267014265060425,-1.9379591941833496,2.041919469833374,3
769,32.555721282958984,20.293315887451172,-1.688907504081726,-1.5796821117401123,-1.5933964252471924,2.0627102851867676,3
770,41.132530212402344,24.313982009887695,-4.149822235107422,-1.8519619703292847,-1.1006617546081543,2.0681235790252686,3
771,52.08171081542969,34.28276062011719,-4.884683609008789,-2.278226375579834,-0.6552335619926453,2.072808265686035,3
772,49.2470817565918,31.49365234375,-10.525249481201172,-2.4782726764678955,-0.43143782019615173,1.8965646028518677,3
773,39.431217193603516,18.04570960998535,-17.348352432250977,-2.8495750427246094,0.31744033098220825,1.8705391883850098,3
774,38.547645568847656,-5.1514739990234375,-22.780635833740234,-2.754063844680786,0.6131657361984253,1.5895850658416748,3
775,32.167564392089844,-31.480613708496094,-25.1707763671875,-2.4298059940338135,0.8667283654212952,1.2662742137908936,3
776,24.667198181152344,-40.57754135131836,-27.678003311157227,-1.9851516485214233,1.2384109497070312,0.9983363747596741,3
777,14.13676929473877,-43.08708953857422,-32.884212493896484,-1.3693082332611084,1.4053022861480713,0.6390885710716248,3
778,9.406594276428223,-38.941429138183594,-38.03453063964844,-1.307552695274353,1.200388789176941,0.24178223311901093,3
779,14.251809120178223,-22.47313690185547,-42.54373550415039,-1.0988110303878784,1.3003299236297607,-0.1479557901620865,3
780,23.737998962402344,-7.078086853027344,-44.353614807128906,-0.7922064065933228,1.5912599563598633,-0.5653867721557617,3
781,34.66648483276367,0.5368874669075012,-42.40443801879883,-0.6909709572792053,1.760021448135376,-1.0484384298324585,3
782,31.691186904907227,-7.805847644805908,-33.78299331665039,-0.6882513165473938,2.3505711555480957,-1.3696762323379517,3
783,16.718109130859375,-20.707664489746094,-25.548479080200195,-0.48445579409599304,2.3050036430358887,-1.7807615995407104,3
784,3.9245193004608154,-11.284339904785156,-15.70195484161377,-0.13584482669830322,2.494022846221924,-1.9968624114990234,3
785,-8.013492584228516,-6.992425918579102,-5.360062122344971,0.018129613250494003,2.3529109954833984,-2.1481359004974365,3
786,-21.79640769958496,-13.393046379089355,-1.035469889640808,0.07004157453775406,2.4183900356292725,-2.143174409866333,3
787,-36.1817512512207,-14.361753463745117,5.041241645812988,0.1873941868543625,2.016033887863159,-2.1766555309295654,3
788,-55.587913513183594,-12.681963920593262,7.732473850250244,0.3781375288963318,1.4800467491149902,-2.1346943378448486,3
789,-56.15961837768555,-17.20172691345215,10.20970344543457,0.5683653950691223,0.8030486106872559,-2.0608673095703125,3
790,-33.2264518737793,-21.46451187133789,13.931988716125488,0.7746259570121765,0.4614441394805908,-1.917081356048584,3
791,-6.873581886291504,-15.805493354797363,17.682296752929688,1.1126861572265625,0.1709715723991394,-1.7407830953598022,3
792,24.051931381225586,-8.06869888305664,21.787696838378906,0.8099775314331055,0.4325907528400421,-1.6154676675796509,3
793,57.5014533996582,1.511792778968811,27.483741760253906,0.94382643699646,1.1941578388214111,-1.305930733680725,3
794,69.0901107788086,9.50256061553955,27.97538185119629,0.8314449787139893,1.7729969024658203,-1.0486785173416138,3
795,62.007938385009766,22.542259216308594,27.490497589111328,0.6219500303268433,2.736107349395752,-0.7562271356582642,3
796,39.85853958129883,36.7609977722168,26.556259155273438,0.1799919754266739,3.1765553951263428,-0.509333074092865,3
797,11.076717376708984,37.90997314453125,26.972877502441406,-0.16300103068351746,3.192838191986084,-0.23393839597702026,3
798,-19.405921936035156,24.973966598510742,27.77589988708496,-0.47616249322891235,2.962888240814209,0.051516342908144,3
799,-45.579410552978516,9.375828742980957,29.606983184814453,-0.5313129425048828,2.559093713760376,0.37568041682243347,3
800,-57.06269836425781,-6.132322311401367,27.69783592224121,-0.4945598840713501,1.768775224685669,0.666850745677948,3
801,-56.158321380615234,-12.604643821716309,25.34147834777832,-0.41529080271720886,1.3281302452087402,0.9349973797798157,3
802,-34.51506042480469,-8.127477645874023,24.255996704101562,-0.14223609864711761,0.7399500012397766,1.2272131443023682,3
803,-6.909224987030029,4.841824531555176,19.90484046936035,-0.32190006971359253,0.5005903840065002,1.388041377067566,3
804,28.945453643798828,15.270517349243164,13.188365936279297,-0.43466833233833313,0.7248585820198059,1.5639969110488892,3
805,52.290740966796875,20.831621170043945,7.359184265136719,-0.696932852268219,1.4621326923370361,1.6740936040878296,3
806,60.49687194824219,26.73259162902832,3.174611806869507,-0.8590894341468811,2.0527467727661133,1.7554936408996582,3
807,55.373680114746094,23.743257522583008,-2.489422082901001,-1.1686609983444214,2.8296380043029785,1.7778064012527466,3
808,48.67899703979492,17.107616424560547,-4.631561279296875,-1.4419009685516357,3.3284521102905273,1.7335810661315918,3
809,36.28852462768555,12.971220016479492,-7.442918300628662,-1.6069658994674683,3.9459664821624756,1.699060320854187,3
810,17.086692810058594,12.11191463470459,-11.426690101623535,-1.7510372400283813,4.0644731521606445,1.5944690704345703,3
811,-5.15946102142334,6.623500347137451,-11.684643745422363,-1.7728990316390991,4.145193576812744,1.512833833694458,3
812,-24.124080657958984,0.636258065700531,-11.957479476928711,-1.7721256017684937,3.798931360244751,1.3843839168548584,3
813,-40.58750915527344,-4.3062286376953125,-12.486947059631348,-1.6674554347991943,3.367732524871826,1.2830702066421509,3
814,-40.252044677734375,-8.704322814941406,-12.536611557006836,-1.726500153541565,2.95512056350708,1.1071949005126953,3
815,-37.91489028930664,-12.695517539978027,-13.67852783203125,-1.6243102550506592,2.2659425735473633,0.9171741604804993,3
816,-18.671653747558594,-19.05485725402832,-14.849564552307129,-1.4388312101364136,2.445526361465454,0.8863375186920166,3
817,1.4202120304107666,-24.004077911376953,-17.901655197143555,-1.2887722253799438,2.4103198051452637,0.6771345734596252,3
818,13.006734848022461,-24.99161148071289,-18.981027603149414,-0.9313132166862488,2.513359308242798,0.5352859497070312,3
819,19.6304988861084,-17.66226577758789,-18.6874942779541,-0.7974103689193726,2.884263038635254,0.3458136320114136,3
820,19.28415870666504,-3.292670726776123,-19.372934341430664,-0.6798698902130127,2.9963436126708984,0.13555139303207397,3
821,11.758495330810547,12.506624221801758,-19.26236343383789,-0.9916272163391113,3.1192424297332764,-0.17939114570617676,3
822,4.289401054382324,26.023744583129883,-17.709556579589844,-1.3012288808822632,3.178128242492676,-0.4093984067440033,3
823,-0.8089690208435059,34.034610748291016,-14.592658996582031,-1.7036237716674805,3.1284701824188232,-0.6139614582061768,3
824,-6.16580057144165,30.58629608154297,-10.631312370300293,-2.051563262939453,3.075108051300049,-0.7366589903831482,3
825,-9.078917503356934,20.042539596557617,-6.897243976593018,-2.2793991565704346,3.102728843688965,-0.7700955867767334,3
826,-13.629828453063965,1.2282177209854126,-2.5091803073883057,-2.330146551132202,2.903113603591919,-0.8022412657737732,3
827,-20.688541412353516,-28.06540870666504,4.1981916427612305,-2.141552448272705,2.5331623554229736,-0.8228943943977356,3
828,-30.985754013061523,-66.70120239257812,13.462803840637207,-1.659354329109192,2.784543752670288,-0.6158968210220337,3
829,-33.54721450805664,-97.0399398803711,21.500999450683594,-0.4145998954772949,2.4412617683410645,-0.30383506417274475,3
830,-33.455352783203125,-101.52970123291016,25.100278854370117,0.5146406292915344,2.2132601737976074,-0.1250401735305786,3
831,-41.63080596923828,-73.90987396240234,24.46199607849121,1.617285132408142,1.6287108659744263,0.12477488815784454,3
832,-49.77725601196289,-21.621566772460938,20.544797897338867,2.004835605621338,1.2102397680282593,0.2952720820903778,3
833,-65.29177856445312,28.93765640258789,15.505718231201172,1.7531542778015137,0.2856542766094208,0.3413926064968109,3
834,-68.72689819335938,66.68927764892578,13.12582015991211,1.1172329187393188,-0.14367032051086426,0.45126834511756897,3
835,-61.94756317138672,85.16961669921875,10.480156898498535,0.010123824700713158,-1.220723032951355,0.4131690561771393,3
836,-45.74365997314453,77.68914794921875,8.703971862792969,-0.9643957614898682,-1.185944676399231,0.4907471537590027,3
837,-30.41597557067871,41.358306884765625,7.773948669433594,-1.5843380689620972,-1.622643232345581,0.5712642669677734,3
838,-31.738739013671875,-5.907095432281494,5.078277587890625,-1.7655869722366333,-1.881508231163025,0.6461756229400635,3
839,-34.46356964111328,-54.61064910888672,3.0984389781951904,-1.1660150289535522,-2.188091278076172,0.7434548735618591,3
840,-26.143333435058594,-75.82132720947266,5.7559967041015625,-0.1935679167509079,-2.6036667823791504,0.8280325531959534,3
841,-21.329532623291016,-81.85808563232422,10.114027976989746,0.2681728005409241,-2.6126763820648193,0.9481359720230103,3
842,-19.2584171295166,-82.46327209472656,13.44083023071289,1.3481062650680542,-2.9455313682556152,1.0942275524139404,3
843,-23.13201332092285,-72.62470245361328,17.205183029174805,2.0074751377105713,-3.0283048152923584,1.296193242073059,3
844,-29.809398651123047,-50.56810760498047,20.48487091064453,2.842130661010742,-3.3916616439819336,1.4939149618148804,3
845,-25.983001708984375,-32.40816879272461,23.14164161682129,2.7911314964294434,-3.718336820602417,1.817134976387024,3
846,-18.75225257873535,-17.10032844543457,24.82197380065918,3.0197830200195312,-3.800373077392578,2.0626349449157715,3
847,-26.537771224975586,-7.1424784660339355,24.44539451599121,3.0824759006500244,-4.137444019317627,2.342698097229004,3
848,-32.145782470703125,-1.3331987857818604,21.909603118896484,2.901111125946045,-4.371910572052002,2.636478900909424,3
849,-23.14641761779785,11.906952857971191,23.064411163330078,2.962094783782959,-4.746213436126709,2.829826593399048,3
850,-16.822158813476562,31.657819747924805,24.703907012939453,2.4811625480651855,-4.872793197631836,3.1339473724365234,3
851,-12.01815128326416,45.417930603027344,24.676136016845703,1.9363656044006348,-5.045421600341797,3.415491819381714,3
852,-6.107367992401123,48.09231185913086,20.666290283203125,1.4242136478424072,-5.180267810821533,3.627723217010498,3
853,-0.18741707503795624,47.734554290771484,19.682268142700195,0.9152180552482605,-5.027289390563965,3.735084056854248,3
854,7.174118995666504,34.491336822509766,19.782604217529297,0.5801588296890259,-5.058407783508301,3.8498127460479736,3
855,16.89002799987793,22.42428207397461,20.235387802124023,0.22216665744781494,-4.855860710144043,4.032314777374268,3
856,38.94107437133789,14.759589195251465,16.90989875793457,0.05794199928641319,-4.543948650360107,4.174288272857666,3
857,63.22490310668945,1.7487026453018188,10.72828197479248,0.06261023879051208,-3.9621894359588623,4.229621887207031,3
858,73.38506317138672,-20.996591567993164,5.299004077911377,0.3235304355621338,-3.014533519744873,4.139018535614014,3
859,73.42977905273438,-49.6112060546875,0.10364454984664917,0.7315469980239868,-2.707488536834717,4.263476371765137,3
860,64.51112365722656,-65.75455474853516,-6.172488212585449,1.6504565477371216,-1.8509647846221924,3.9760501384735107,3
861,51.147220611572266,-62.87914276123047,-11.366456031799316,1.943430781364441,-1.6288334131240845,4.256952285766602,3
862,28.455759048461914,-43.105567932128906,-24.02037811279297,2.638517141342163,-1.139567255973816,3.960495710372925,3
863,-0.497442364692688,-15.518319129943848,-32.34142303466797,2.9460105895996094,-1.1427701711654663,3.7345004081726074,3
864,-22.965118408203125,17.91143226623535,-38.442344665527344,2.869131088256836,-1.3446035385131836,3.4639222621917725,3
865,-26.3085994720459,44.99478530883789,-41.58777618408203,2.51395320892334,-1.772769808769226,3.1414833068847656,3
866,-18.866554260253906,65.7324447631836,-42.69774627685547,1.8403408527374268,-1.732457160949707,2.700932741165161,3
867,2.0143251419067383,80.92310333251953,-42.084346771240234,0.7640175819396973,-1.8827146291732788,2.45326566696167,3
868,22.001976013183594,79.22875213623047,-43.87102127075195,0.00843807589262724,-1.6306109428405762,1.9384398460388184,3
869,47.016929626464844,60.248043060302734,-42.46968078613281,-0.7379888892173767,-0.9837459921836853,1.4503114223480225,3
870,64.23233795166016,34.91799545288086,-39.18735885620117,-1.363448977470398,-0.3947077691555023,1.1120545864105225,3
871,68.58248138427734,3.1199862957000732,-35.7772102355957,-1.4263228178024292,0.5609356760978699,0.6129719018936157,3
872,64.94763946533203,-29.752233505249023,-31.74063491821289,-1.0977277755737305,0.7356757521629333,0.28126171231269836,3
873,52.04062271118164,-52.468318939208984,-27.07935905456543,-0.3019463121891022,1.6102118492126465,-0.21154837310314178,3
874,32.22581481933594,-52.8875617980957,-24.329214096069336,0.41678470373153687,1.870457649230957,-0.5201088190078735,3
875,0.4800441861152649,-38.16290283203125,-23.595359802246094,0.7336092591285706,1.7998287677764893,-0.7031806707382202,3
876,-25.649784088134766,-17.76146697998047,-23.394554138183594,0.9333719611167908,1.587424635887146,-0.9137041568756104,3
877,-44.76194381713867,2.9137444496154785,-23.900230407714844,1.1169770956039429,1.1269490718841553,-1.1705670356750488,3
878,-48.30634307861328,17.784332275390625,-22.544893264770508,0.9043352603912354,0.48639875650405884,-1.3711374998092651,3
879,-34.26432418823242,21.418546676635742,-20.85178565979004,0.6147317886352539,0.3506036698818207,-1.6138365268707275,3
880,-16.18832015991211,10.124337196350098,-18.306364059448242,0.42694616317749023,0.17134520411491394,-1.8185522556304932,3
881,0.12059397250413895,-7.8042402267456055,-17.535982131958008,0.5843652486801147,0.2840803861618042,-2.031989574432373,3
882,9.143391609191895,-21.61606216430664,-16.04581642150879,0.803545355796814,0.383590966463089,-2.2249467372894287,3
883,9.509539604187012,-26.117576599121094,-16.60017967224121,1.0808145999908447,0.5333488583564758,-2.39583420753479,3
884,2.615119457244873,-27.1463623046875,-17.65996551513672,1.6400283575057983,0.6194791197776794,-2.5742111206054688,3
885,-10.20977783203125,-14.90933895111084,-20.2238826751709,1.8251734972000122,0.6109802722930908,-2.76834774017334,3
886,-23.341341018676758,3.402446985244751,-21.652135848999023,1.8302515745162964,0.37707018852233887,-2.9707911014556885,3
887,-30.962974548339844,18.145341873168945,-20.266677856445312,1.7563164234161377,-0.029206741601228714,-3.1621174812316895,3
888,-30.291296005249023,30.06836700439453,-14.757144927978516,1.1726726293563843,0.12806956470012665,-3.422739028930664,3
889,-19.099464416503906,36.828548431396484,-6.067712306976318,0.7455182671546936,-0.3503701090812683,-3.4942667484283447,3
890,-9.179082870483398,31.186111450195312,-1.280959129333496,0.46577906608581543,-0.29853224754333496,-3.558776378631592,3
891,-5.440032482147217,10.697465896606445,4.88643217086792,0.1998051106929779,-0.42940589785575867,-3.527109146118164,3
892,-8.321553230285645,-19.4752140045166,9.770339965820312,0.36128106713294983,-0.37409043312072754,-3.4612951278686523,3
893,-0.7471303939819336,-45.947879791259766,17.214271545410156,1.0244741439819336,-0.5156652927398682,-3.2975428104400635,3
894,9.572361946105957,-48.33157730102539,23.13672637939453,1.608785629272461,-0.4025091826915741,-3.091252088546753,3
895,13.134939193725586,-24.812301635742188,26.435152053833008,2.119440793991089,-0.2575242221355438,-2.8360302448272705,3
896,15.934075355529785,5.87761926651001,28.852148056030273,1.9916003942489624,-0.05323433130979538,-2.570430278778076,3
897,27.492124557495117,26.973400115966797,31.855342864990234,1.7099368572235107,0.1594449132680893,-2.272430658340454,3
898,32.90676498413086,57.612449645996094,34.203819274902344,1.0044670104980469,0.5468271970748901,-1.952162504196167,3
899,21.342294692993164,77.96295928955078,31.9876766204834,0.17703622579574585,0.9774937033653259,-1.6308505535125732,3
900,-4.940060615539551,80.35767364501953,28.73158073425293,-0.8162440061569214,0.765710711479187,-1.2901551723480225,3
901,-35.05386734008789,65.20121002197266,23.87757110595703,-1.5049306154251099,0.48629114031791687,-1.0129833221435547,3
902,-59.53482437133789,39.107173919677734,17.76504898071289,-1.8940730094909668,-0.16914239525794983,-0.7832868099212646,3
903,-64.39918518066406,4.772515296936035,11.062541961669922,-1.9109123945236206,-0.7897928953170776,-0.628609299659729,3
904,-53.90264129638672,-29.644433975219727,3.8242685794830322,-1.4529894590377808,-1.6157944202423096,-0.5300487875938416,3
905,-29.145000457763672,-56.846038818359375,-2.0206727981567383,-0.8606024384498596,-1.482731819152832,-0.4893442392349243,3
906,4.296199321746826,-71.48646545410156,-3.5608294010162354,-0.1558028906583786,-1.515514850616455,-0.49406981468200684,3
907,29.431364059448242,-70.83674621582031,-2.8472328186035156,0.9275689721107483,-1.1970731019973755,-0.49377307295799255,3
908,47.19805145263672,-45.63970947265625,-2.18593692779541,1.0679380893707275,-0.5738157629966736,-0.4965621531009674,3
909,53.026729583740234,-7.373514175415039,-1.5061955451965332,1.259917974472046,0.028930239379405975,-0.5143735408782959,3
910,39.05318832397461,15.230668067932129,0.8595137000083923,1.080857515335083,0.2842576801776886,-0.52239990234375,3
911,1.0526151657104492,31.291179656982422,5.306698799133301,0.7687171697616577,0.5223394632339478,-0.48479005694389343,3
912,-44.291534423828125,43.6463737487793,9.12925910949707,0.32806605100631714,-0.05185357853770256,-0.41230860352516174,3
913,-82.29705810546875,44.079891204833984,9.55134105682373,-0.21891717612743378,-0.9760809540748596,-0.32718369364738464,3
914,-100.64449310302734,33.9732551574707,9.264131546020508,-0.5858441591262817,-1.8633736371994019,-0.24459892511367798,3
915,-100.51997375488281,19.255260467529297,8.778190612792969,-0.8127542734146118,-2.755437135696411,-0.160100519657135,3
916,-92.95308685302734,4.827627658843994,6.451337814331055,-0.9492561221122742,-3.996319532394409,-0.10646935552358627,3
917,-65.63729858398438,-1.4952560663223267,4.508423328399658,-0.830823540687561,-4.4912943840026855,-0.032501690089702606,3
918,-18.331422805786133,-8.349257469177246,5.080495357513428,-0.7222049236297607,-5.010645389556885,0.006638607010245323,3
919,33.5576171875,-6.261950492858887,8.283413887023926,-0.58460533618927,-4.613255977630615,0.1004139855504036,3
920,70.00609588623047,-1.4304423332214355,8.49254322052002,-0.7060275673866272,-3.940436601638794,0.2313634604215622,3
921,84.273193359375,-0.27728530764579773,8.42888069152832,-0.5649974942207336,-3.0286383628845215,0.2889097034931183,3
922,80.69229888916016,0.9102261662483215,10.311568260192871,-0.5170815587043762,-1.7970178127288818,0.42893895506858826,3
923,75.07414245605469,-2.623216152191162,11.636430740356445,-0.46262016892433167,-1.692143201828003,0.42789867520332336,3
924,67.083740234375,-2.986814260482788,16.99745750427246,-0.3587261438369751,-0.5532810688018799,0.616477906703949,3
925,52.53291702270508,-1.266152262687683,19.75088882446289,-0.3095320463180542,-0.4068372845649719,0.7268342971801758,3
926,17.006885528564453,5.297029495239258,19.220121383666992,-0.3778267502784729,-0.4740997850894928,0.8809162974357605,3
927,-21.052547454833984,13.086038589477539,17.0008602142334,-0.4157944619655609,-0.5413324236869812,1.0426105260849,3
928,-45.2256965637207,20.07241439819336,15.378141403198242,-0.7421061396598816,-0.977823793888092,1.2292730808258057,3
929,-56.03387451171875,33.976463317871094,11.460098266601562,-1.169244408607483,-1.6110957860946655,1.370356798171997,3
930,-47.682472229003906,45.8150520324707,9.194016456604004,-1.4313303232192993,-2.060811996459961,1.4410020112991333,3
931,-26.1970157623291,50.03803634643555,5.947784900665283,-2.221578359603882,-2.5716705322265625,1.5290364027023315,3
932,4.6968488693237305,42.381935119628906,2.939225673675537,-2.8087618350982666,-2.4527108669281006,1.6170380115509033,3
933,33.379302978515625,25.960371017456055,-0.9732699394226074,-3.3158445358276367,-2.0822412967681885,1.6867930889129639,3
934,55.87238311767578,7.391507148742676,-5.894346237182617,-2.8592300415039062,-1.482438325881958,1.5425089597702026,3
935,73.51454162597656,-14.185874938964844,-9.578521728515625,-2.7471330165863037,-0.8400378823280334,1.4435259103775024,3
936,83.19682312011719,-29.903955459594727,-12.362232208251953,-2.364239454269409,0.16657505929470062,1.3707575798034668,3
937,78.2315673828125,-37.93647766113281,-15.195331573486328,-1.9269388914108276,0.8261731863021851,1.1566733121871948,3
938,50.91103744506836,-36.38345718383789,-19.552967071533203,-1.4898099899291992,1.7939461469650269,1.076484203338623,3
939,17.563220977783203,-37.45799255371094,-25.692873001098633,-1.01847243309021,2.0875473022460938,0.8079108595848083,3
940,-17.440637588500977,-36.01887512207031,-33.65721130371094,-1.0754082202911377,1.675809621810913,0.4038747251033783,3
941,-45.9675178527832,-30.445627212524414,-40.977115631103516,-0.7280422449111938,1.2858778238296509,0.003220481099560857,3
942,-60.268798828125,-17.478971481323242,-48.136924743652344,-0.22949253022670746,0.40651735663414,-0.5718643665313721,3
943,-65.14762115478516,1.963789939880371,-52.99612808227539,-0.210359588265419,-0.172345370054245,-1.0602718591690063,3
944,-55.69443130493164,23.390987396240234,-55.120296478271484,-0.5372534394264221,-0.6984539031982422,-1.5946877002716064,3
945,-36.6743278503418,36.890235900878906,-54.694984436035156,-0.9787250757217407,-1.0570902824401855,-2.127073049545288,3
946,0.6904544830322266,43.2274284362793,-48.84843444824219,-1.5420382022857666,-1.201813817024231,-2.695084571838379,3
947,41.087181091308594,33.422908782958984,-42.418827056884766,-2.049227476119995,-0.7992014288902283,-3.109788417816162,3
948,58.396507263183594,15.19287395477295,-33.72608947753906,-2.300931215286255,0.00962155032902956,-3.4020228385925293,3
949,52.50900650024414,-7.699256420135498,-25.786773681640625,-2.264307737350464,0.6508067846298218,-3.668957471847534,3
950,32.78021240234375,-22.120960235595703,-19.428611755371094,-2.0743966102600098,0.4823688566684723,-3.7176265716552734,3
951,1.1756491661071777,-32.71480941772461,-16.26183319091797,-1.7159759998321533,0.9950275421142578,-3.894017457962036,3
952,-28.35430335998535,-39.516197204589844,-13.820330619812012,-1.5096073150634766,0.9925727248191833,-4.110887050628662,3
953,-49.04636001586914,-48.43845748901367,-11.58603572845459,-0.857254683971405,0.5006430149078369,-4.33245325088501,3
954,-47.802730560302734,-46.602073669433594,-8.040809631347656,-0.396089643239975,0.4338568150997162,-4.3456830978393555,3
955,-28.613975524902344,-39.617557525634766,-1.6310096979141235,-0.1128154993057251,-0.3425164222717285,-4.542776107788086,3
956,-10.384902954101562,-23.603105545043945,6.321646213531494,0.43209171295166016,-0.7333245277404785,-4.577917098999023,3
957,-7.850491523742676,6.1382951736450195,13.160087585449219,0.6038228273391724,-0.840717613697052,-4.538885593414307,3
958,-12.657402038574219,45.04551696777344,14.872899055480957,0.5058873295783997,-0.9776871800422668,-4.453793048858643,3
959,-21.088342666625977,74.00588989257812,15.89966869354248,-0.0246041938662529,-1.025253176689148,-4.3185296058654785,3
960,-26.830305099487305,81.55583190917969,16.50726318359375,-0.9212636351585388,-1.283958077430725,-4.206061840057373,3
961,-19.031450271606445,57.35107421875,15.022133827209473,-1.6354907751083374,-1.5114725828170776,-4.051902770996094,3
962,-6.752987861633301,20.99481773376465,14.379007339477539,-2.3582730293273926,-1.770939588546753,-3.9244227409362793,3
963,2.196516275405884,-12.534172058105469,14.790228843688965,-2.7530112266540527,-1.8466721773147583,-3.781731605529785,3
964,25.60127067565918,-46.250831604003906,17.230749130249023,-2.398268222808838,-1.7094824314117432,-3.6028645038604736,3
965,51.9168586730957,-73.79478454589844,20.855300903320312,-1.5182551145553589,-1.546402931213379,-3.4475038051605225,3
966,73.26444244384766,-96.5443115234375,30.533937454223633,-0.7578747868537903,-1.1047264337539673,-3.2378671169281006,3
967,81.71562957763672,-97.86184692382812,43.68684005737305,0.5500833988189697,-0.12225063145160675,-2.904695510864258,3
968,76.26976013183594,-87.04744720458984,54.20115280151367,1.264615535736084,0.2873755097389221,-2.573378324508667,3
969,65.47481536865234,-68.33012390136719,63.32442092895508,2.450995683670044,1.2074925899505615,-2.0669288635253906,3
970,52.5543212890625,-29.941495895385742,65.6098403930664,2.718618154525757,1.586268424987793,-1.4981775283813477,3
971,36.60684585571289,16.49468421936035,62.90176010131836,3.1836578845977783,2.317997694015503,-0.8601562976837158,3
972,13.465218544006348,62.618282318115234,56.66154861450195,3.0434319972991943,2.5189950466156006,-0.2092723697423935,3
973,-13.441347122192383,95.72380065917969,48.52302932739258,2.1061339378356934,2.36674165725708,0.3768266439437866,3
974,-47.496421813964844,99.8803482055664,43.98279571533203,1.2158888578414917,1.9731311798095703,0.9618696570396423,3
975,-67.97786712646484,81.05089569091797,41.3960075378418,0.4628131091594696,1.7277315855026245,1.4676026105880737,3
976,-77.49664306640625,51.83623123168945,39.369319915771484,-0.602889895439148,1.0433567762374878,1.8829762935638428,3
977,-63.844913482666016,20.00620460510254,38.72311019897461,-1.112285852432251,0.2744613587856293,2.3098347187042236,3
978,-35.07107925415039,-3.841574192047119,37.962825775146484,-1.3833945989608765,-0.4531020224094391,2.7150650024414062,3
979,5.881842613220215,-25.28496551513672,36.44999313354492,-1.233961582183838,-0.7702235579490662,3.1266889572143555,3
980,48.14420700073242,-35.48063659667969,37.020721435546875,-1.0776629447937012,-0.5647658705711365,3.4804017543792725,3
981,82.30415344238281,-25.996706008911133,37.81595230102539,-0.7000910639762878,-0.0965869203209877,3.8559305667877197,3
982,103.49176788330078,1.1934139728546143,36.962162017822266,-0.3257775604724884,0.8543956279754639,4.234133720397949,3
