,gyro.x,gyro.y,gyro.z,stabilizer.pitch,stabilizer.roll,stabilizer.yaw,label
0,-0.10014667361974716,-0.016922341659665108,0.08489423245191574,-0.1695323884487152,0.3509776294231415,0.0756969302892685,3
1,0.12902875244617462,-0.1736123412847519,-0.07600926607847214,-0.1689080446958542,0.3514283001422882,0.07572481781244278,3
2,-0.023911165073513985,0.01607317104935646,-0.044737208634614944,-0.16852547228336334,0.35090821981430054,0.07522431761026382,3
3,0.03722795844078064,0.04876720532774925,0.024777576327323914,-0.168254092335701,0.3509891629219055,0.07494290173053741,3
4,-0.041520535945892334,-0.03898876905441284,-0.010754941031336784,-0.16826435923576355,0.351115345954895,0.07462816685438156,3
5,0.010864080861210823,0.015844838693737984,0.03154905140399933,-0.1683795154094696,0.35059627890586853,0.07470719516277313,3
6,-0.036870792508125305,-0.031178247183561325,0.016372818499803543,-0.16847209632396698,0.3503837585449219,0.07477346062660217,3
7,0.013594189658761024,-0.05374161899089813,0.07266561686992645,-0.1679113805294037,0.349658340215683,0.07526195794343948,3
8,0.01905861310660839,0.01821737363934517,-0.12319490313529968,-0.1676175892353058,0.3493277132511139,0.0749598890542984,3
9,0.10126569122076035,0.025407278910279274,-0.017725594341754913,-0.16790688037872314,0.35006675124168396,0.07461606711149216,3
10,0.03212684765458107,-0.05392971262335777,0.030154870823025703,-0.16741247475147247,0.3494897186756134,0.074599988758564,3
11,0.010286734439432621,0.055638864636421204,0.10084218531847,-0.1669544130563736,0.3496551215648651,0.07470551878213882,3
12,0.003227617358788848,-0.12607455253601074,-0.05043954402208328,-0.16663506627082825,0.3493359088897705,0.07499531656503677,3
13,-0.0940544530749321,0.03256500884890556,0.1506519913673401,-0.16617971658706665,0.3483467400074005,0.07603336125612259,3
14,0.03248970955610275,-0.03433096036314964,0.07553136348724365,-0.16628380119800568,0.34826016426086426,0.07634783536195755,3
15,-0.0712381973862648,0.054465699940919876,-0.023255225270986557,-0.16608037054538727,0.3476235568523407,0.07664063572883606,3
16,-0.06779942661523819,0.12851311266422272,0.015140197239816189,-0.1661931425333023,0.3472365438938141,0.07674616575241089,3
17,0.03822416067123413,-0.015379926189780235,0.024252140894532204,-0.16670693457126617,0.346698135137558,0.0771431103348732,3
18,-0.04621798172593117,-0.008955773897469044,-0.10527782142162323,-0.16679507493972778,0.3467100262641907,0.07699407637119293,3
19,0.15689939260482788,-0.06142121180891991,-0.13206154108047485,-0.10184259712696075,0.35135310888290405,0.07552996277809143,3
20,0.10609018057584763,-0.03153805434703827,0.02363891713321209,-0.12006372958421707,0.3545478582382202,0.07548398524522781,3
21,0.031150557100772858,-0.07921458035707474,0.13812488317489624,-0.19891919195652008,0.3595333993434906,0.07648831605911255,3
22,0.029858021065592766,0.014069484546780586,0.06165812909603119,-0.1918683499097824,0.3619309067726135,0.07735801488161087,3
23,-0.03484520688652992,0.04120863601565361,0.09794697165489197,-0.1918683499097824,0.3619309067726135,0.07735801488161087,3
24,0.026583358645439148,-0.07300398498773575,-0.006384267471730709,-0.1910436451435089,0.36123719811439514,0.0781908705830574,3
25,0.03991328179836273,0.1265517920255661,-0.07914730161428452,-0.1910436451435089,0.36123719811439514,0.0781908705830574,3
26,-0.053071148693561554,-0.11614271253347397,-0.00018517633725423366,-0.19119121134281158,0.36108827590942383,0.07769450545310974,3
27,-0.06383394449949265,0.021429728716611862,0.10479632019996643,-0.19064590334892273,0.36055120825767517,0.07734759151935577,3
28,-0.030008450150489807,0.059935104101896286,0.07952020317316055,-0.19040700793266296,0.3594456613063812,0.07822015136480331,3
29,0.07257512211799622,-0.0119019765406847,0.11207082122564316,-0.19007845222949982,0.35878413915634155,0.07885370403528214,3
30,0.07294046878814697,0.024254214018583298,0.025738822296261787,-0.18962445855140686,0.35840651392936707,0.080215223133564,3
31,0.009438393637537956,-0.022499363869428635,0.15591658651828766,-0.18895116448402405,0.3591477870941162,0.08071721345186234,3
32,-0.0034019036684185266,-0.1008886843919754,-0.06473732739686966,-0.18938376009464264,0.35881176590919495,0.08116530627012253,3
33,0.0008772939327172935,-0.02160969376564026,0.028130916878581047,-0.18859562277793884,0.3580799400806427,0.08154574781656265,3
34,0.09716364741325378,-0.019820088520646095,-0.009347748011350632,-0.18783840537071228,0.3581330478191376,0.08096476644277573,3
35,0.06371436268091202,-0.017335593700408936,0.03625569865107536,-0.18677757680416107,0.35843729972839355,0.08096369355916977,3
36,0.06509612500667572,-0.054713983088731766,-0.053614284843206406,-0.18675360083580017,0.3580932319164276,0.08091472089290619,3
37,-0.031156789511442184,-0.13347682356834412,0.027405476197600365,-0.1856381893157959,0.3584981858730316,0.08068311959505081,3
38,-0.06279696524143219,0.016738755628466606,-0.0020915719214826822,-0.044900353997945786,0.36099398136138916,0.08030188083648682,3
39,-0.033750418573617935,-0.01736530102789402,0.0020447864662855864,-0.22238066792488098,0.36308524012565613,0.0804864838719368,3
40,-0.019198834896087646,0.0028879705350846052,-0.02875828929245472,-0.2136479914188385,0.3653034567832947,0.0803130641579628,3
41,0.12734374403953552,-0.04115970805287361,-0.01977378875017166,-0.20606885850429535,0.3686539828777313,0.08033501356840134,3
42,-0.06021273881196976,0.07169082015752792,-0.024343719705939293,-0.20474840700626373,0.36943796277046204,0.07962331175804138,3
43,-0.0039199660532176495,-0.07866957038640976,0.03753313422203064,-0.2052014023065567,0.3687877058982849,0.07917959243059158,3
44,-0.10573036968708038,-0.08674211800098419,0.0396064855158329,-0.20451633632183075,0.3685116171836853,0.07910333573818207,3
45,0.056191906332969666,0.0024520058650523424,0.006816218141466379,-0.2040613442659378,0.3673671782016754,0.07974395155906677,3
46,0.07182404398918152,-0.11188900470733643,0.05548769608139992,-0.20373818278312683,0.36747729778289795,0.07986011356115341,3
47,-0.0062769996002316475,0.08679523319005966,-0.0751616582274437,-0.20332953333854675,0.36759153008461,0.07990333437919617,3
48,0.053346242755651474,0.023415403440594673,0.044556181877851486,-0.2037012279033661,0.36741846799850464,0.0794767513871193,3
49,-0.03764258697628975,0.002950164722278714,0.003506978740915656,-0.2035779356956482,0.36752066016197205,0.07919692248106003,3
50,-0.10469575226306915,0.051944952458143234,-0.029725369065999985,-0.20370538532733917,0.366362065076828,0.07918651401996613,3
51,0.1229562908411026,-0.2056337296962738,0.05264965072274208,-0.20403213798999786,0.364989310503006,0.07906237244606018,3
52,0.09806380420923233,-0.031160226091742516,0.18085677921772003,-0.20291142165660858,0.36567598581314087,0.0790686383843422,3
53,-0.1084284856915474,-0.11053787171840668,0.04506829008460045,-0.20211389660835266,0.3658420145511627,0.07971998304128647,3
54,0.08414825797080994,-0.04603647440671921,-0.08663639426231384,-0.20064684748649597,0.36536428332328796,0.08022545278072357,3
55,0.0871366560459137,0.07329154759645462,-0.15868060290813446,-0.19963723421096802,0.36531862616539,0.07940749078989029,3
56,-0.01474802102893591,-0.050827864557504654,0.10904256254434586,-0.2001383751630783,0.3655218780040741,0.07806580513715744,3
57,-0.017564259469509125,-0.030176473781466484,-0.09808409959077835,-0.19969847798347473,0.3652733862400055,0.07821838557720184,3
58,0.027997003868222237,-0.08298491686582565,0.06205401569604874,-0.19940170645713806,0.36533862352371216,0.0779823511838913,3
59,-0.04281383380293846,0.05208270996809006,0.03177744522690773,-0.19892701506614685,0.36485984921455383,0.077908955514431,3
60,-0.010911133140325546,0.07262109220027924,0.059732288122177124,-0.19914834201335907,0.3643331825733185,0.078303262591362,3
61,0.0725071132183075,-0.05800994485616684,0.03530186414718628,-0.19940167665481567,0.36395129561424255,0.0784921646118164,3
62,-0.003277176758274436,0.10012863576412201,-0.04753974825143814,-0.19908656179904938,0.36374372243881226,0.07896701991558075,3
63,-0.018761087208986282,-0.02382691763341427,-0.04855278134346008,-0.1988881677389145,0.3636719882488251,0.07844511419534683,3
64,0.03659888729453087,0.13921333849430084,-0.038607776165008545,-0.1988072693347931,0.36338329315185547,0.07826191186904907,3
65,-0.021367209032177925,0.08829949796199799,-0.08534152060747147,-0.19953779876232147,0.362926185131073,0.07755094766616821,3
66,0.00331112090498209,0.0015742238610982895,0.013058887794613838,-0.20037907361984253,0.3629125952720642,0.0768597275018692,3
67,-0.04849345609545708,-0.13530457019805908,0.015958251431584358,-0.20017507672309875,0.3625413179397583,0.07685118913650513,3
68,-0.04096014425158501,-0.046326909214258194,-0.028372956439852715,-0.19911374151706696,0.36181312799453735,0.07685885578393936,3
69,0.04053058102726936,-0.05579115450382233,0.04172888770699501,-0.19802868366241455,0.3614698350429535,0.07628624886274338,3
70,-0.011709422804415226,-0.10946682095527649,-0.030026495456695557,-0.19754041731357574,0.3614477813243866,0.07617564499378204,3
71,0.04754206910729408,0.13161996006965637,-0.015354358591139317,-0.196244016289711,0.36107444763183594,0.07620388269424438,3
72,-0.004412786569446325,0.06507115811109543,0.037142314016819,-0.19699950516223907,0.3605532646179199,0.07565061748027802,3
73,0.08680817484855652,-0.06443941593170166,-0.03860112652182579,-0.19709177315235138,0.359850138425827,0.07559310644865036,3
74,0.021466003730893135,0.06012960895895958,-0.07420209795236588,-0.12963183224201202,0.36369067430496216,0.07477706670761108,3
75,-0.007567313499748707,-0.011867886409163475,-0.010166922584176064,-0.14811119437217712,0.3665144145488739,0.07487574219703674,3
76,0.04354482516646385,-0.0723317340016365,-0.05971191078424454,-0.22818513214588165,0.3687296211719513,0.07504957169294357,3
77,0.07113436609506607,0.006371600553393364,0.03940059617161751,-0.21946494281291962,0.37169137597084045,0.07501108199357986,3
78,0.040444500744342804,-0.047497108578681946,-0.04669790714979172,-0.21856404840946198,0.3720308244228363,0.07469052076339722,3
79,-0.0018448778428137302,0.004390317015349865,0.005799346137791872,-0.21849045157432556,0.3716295063495636,0.07467055320739746,3
80,-0.024574264883995056,-0.004679135046899319,0.07083778828382492,-0.2181437611579895,0.37109655141830444,0.07506261765956879,3
81,-0.06154346093535423,-0.10362537205219269,0.018711211159825325,-0.2173997461795807,0.37103271484375,0.07486730068922043,3
82,-0.09957960993051529,-0.06418800354003906,-0.1077672466635704,-0.21695278584957123,0.3699082136154175,0.07487897574901581,3
83,0.08734180778265,-0.10562093555927277,0.08486881107091904,-0.21582698822021484,0.3686355948448181,0.07445215433835983,3
84,-0.04551301151514053,0.024455277249217033,0.020054472610354424,-0.21479490399360657,0.36833450198173523,0.07447347044944763,3
85,0.05380092188715935,-0.10534157603979111,0.047808676958084106,-0.2142908275127411,0.36825570464134216,0.07452648133039474,3
86,-0.08353892713785172,-0.054422881454229355,-0.14584149420261383,0.0,0.0,0.0,3
87,-0.009205251932144165,-0.041581008583307266,-0.027720516547560692,0.0007558592478744686,-0.00037925742799416184,-0.0006388027686625719,3
88,0.009390504099428654,-0.05125182494521141,-0.010045003145933151,-0.20722076296806335,0.007545355707406998,-0.00048122310545295477,3
89,-0.02486509270966053,0.049781233072280884,0.025518260896205902,0.310924232006073,0.03178432583808899,-0.000696918519679457,3
90,0.061975471675395966,-0.17856749892234802,0.09828200191259384,0.258389949798584,0.06586503237485886,-0.000948977074585855,3
91,-0.05015162006020546,-0.05358346179127693,-0.03499358519911766,0.1940883845090866,0.10697930306196213,-0.00038398586912080646,3
92,4.782701580552384e-06,0.06189511716365814,0.07552118599414825,0.13821445405483246,0.152472585439682,-0.00017540053522679955,3
93,-0.0005807009874843061,-0.10247834771871567,0.07650084048509598,0.08697093278169632,0.2067299485206604,0.00010964166722260416,3
94,-0.05492713674902916,0.028785595670342445,-0.00021181964257266372,0.04313753917813301,0.2444612830877304,-0.00024612314882688224,3
95,-0.00994383916258812,0.037249647080898285,0.01822284795343876,0.4916154742240906,0.2731176018714905,0.00040666767745278776,3
96,0.0372949093580246,0.08156497776508331,0.04955582320690155,-0.15917322039604187,0.2969689667224884,0.00012948863150086254,3
97,0.13577541708946228,0.04822823405265808,-0.06240494176745415,-0.1513431817293167,0.32573163509368896,-9.351089101983234e-05,3
98,-0.04552331566810608,0.0718955472111702,-0.04419850930571556,-0.1435241550207138,0.3449455201625824,-0.00045006140135228634,3
99,-0.00027074545505456626,0.0703781321644783,-0.0969950333237648,-0.142379030585289,0.3558780252933502,-0.00047963776160031557,3
100,0.19760513305664062,-0.12563775479793549,-0.11794299632310867,-0.14693666994571686,0.3671342134475708,-0.0014161549042910337,3
101,-0.042731959372758865,0.11601437628269196,0.10204742103815079,-0.1413385421037674,0.37821194529533386,-0.001833869842812419,3
102,0.2318091243505478,-0.18341244757175446,-0.058799128979444504,-0.1434551328420639,0.3854491412639618,-0.001388580771163106,3
103,0.0002032063785009086,0.019399642944335938,0.04763783887028694,-0.1432286947965622,0.3853895366191864,-0.0015055742114782333,3
104,-0.04647251218557358,-0.025597264990210533,-0.024155568331480026,-0.14428827166557312,0.3916740417480469,-0.0018381552072241902,3
105,0.1422373503446579,-0.07758329063653946,0.011059731245040894,-0.1443788856267929,0.39121147990226746,-0.0016549244755879045,3
106,-0.01267336867749691,0.10571989417076111,-0.005378575064241886,-0.14573055505752563,0.39849644899368286,-0.0008487419108860195,3
107,0.018940653651952744,-0.16023950278759003,-0.05496055260300636,-0.14995378255844116,0.4048377573490143,-0.001797982375137508,3
108,0.08169348537921906,-0.035224270075559616,0.04900401830673218,-0.14919529855251312,0.4041263163089752,-0.0018969260854646564,3
109,-0.1269347220659256,0.1537272334098816,0.09093374758958817,-0.15010800957679749,0.41238895058631897,-0.0014161005383357406,3
110,0.13180094957351685,-0.08637852221727371,0.0877518430352211,-0.15881943702697754,0.4128762185573578,-0.0007738796412013471,3
111,-0.12308864295482635,0.05815814435482025,0.05316924303770065,-0.15885689854621887,0.4125543534755707,-0.00023373673320747912,3
112,0.018755881115794182,-0.10806857794523239,0.085047148168087,-0.15767189860343933,0.41236135363578796,-0.0005517122917808592,3
113,0.19453246891498566,-0.053021594882011414,-0.011905338615179062,-0.15782637894153595,0.41171795129776,-0.00048001622781157494,3
114,-0.07059217244386673,-0.04328693076968193,0.01940460316836834,-0.3076145350933075,0.42006590962409973,-0.0007250527269206941,3
115,-0.03155803680419922,-0.03305523097515106,0.08248786628246307,-0.2705641984939575,0.4240872263908386,-0.0002624505141284317,3
116,-0.03138716518878937,0.13454195857048035,-0.05896834656596184,-0.10738926380872726,0.4251198172569275,0.0008657525177113712,3
117,-0.04243116080760956,-0.039317455142736435,0.07114624232053757,-0.12668466567993164,0.4289354979991913,0.0009784087305888534,3
118,0.13879525661468506,-0.05995535850524902,0.005243281368166208,-0.1397579163312912,0.43167179822921753,0.0011042316909879446,3
119,-0.11362247914075851,0.056331437081098557,-0.017551105469465256,-0.14796069264411926,0.4361230134963989,0.0012990616960451007,3
120,0.06106351688504219,-0.09818950295448303,-0.05338070169091225,-0.1565752774477005,0.4381793141365051,0.0010733614908531308,3
121,0.06847750395536423,0.0740412026643753,-0.06950409710407257,-0.04411407932639122,0.44031858444213867,0.0018007686594501138,3
122,0.1588468849658966,-0.112818144261837,0.022278357297182083,-0.08026597648859024,0.443593293428421,0.0014075906947255135,3
123,-0.05329754203557968,0.09080460667610168,-0.06748023629188538,-0.21986454725265503,0.44532594084739685,-1.9719036572496407e-05,3
124,0.02135702781379223,0.03285303711891174,0.004038711544126272,-0.21106117963790894,0.44628214836120605,-0.000333594623953104,3
125,-0.10469789057970047,0.05329243838787079,-0.0717184916138649,-0.20541033148765564,0.44800883531570435,-0.00045482907444238663,3
126,0.006192440167069435,-0.09369746595621109,0.043462831526994705,-0.1980336755514145,0.45060062408447266,-8.034992060856894e-05,3
127,0.04237576201558113,-0.11302964389324188,0.05052607133984566,-0.2968958616256714,0.4524376392364502,-0.0006831003120169044,3
128,-0.12923018634319305,-0.0967598482966423,-0.05834820866584778,-0.16174685955047607,0.4544244706630707,2.7826859877677634e-05,3
129,0.09912481904029846,-0.09690205007791519,0.027267107740044594,-0.16119876503944397,0.4534487724304199,-0.0003266498679295182,3
130,-0.05346618592739105,-0.03245042264461517,0.004645449109375477,-0.16080425679683685,0.4530899226665497,0.0002778994385153055,3
131,-0.022668402642011642,0.06897343695163727,-0.06877623498439789,-0.16048401594161987,0.4531242251396179,-0.00030581920873373747,3
132,-0.02745220437645912,-0.03150893747806549,0.04949471354484558,-0.16028811037540436,0.4520033895969391,-0.0004242562281433493,3
133,-0.05575789511203766,0.0715218037366867,0.05433578044176102,-0.1599564552307129,0.451263964176178,0.00023402826627716422,3
134,0.015020602382719517,-0.13351324200630188,0.1124410331249237,-0.1596430242061615,0.45062553882598877,0.0007869391120038927,3
135,0.02934480458498001,-0.037247225642204285,0.0015493318205699325,-0.15875960886478424,0.4504018723964691,0.0005876412615180016,3
136,0.012903248891234398,0.10326988250017166,0.09689075499773026,-0.1586388647556305,0.45076775550842285,0.0011680459138005972,3
137,0.02948221005499363,-0.06826785206794739,-0.030571218580007553,-0.15849101543426514,0.45042935013771057,0.000714202644303441,3
138,0.016716059297323227,-0.003969790413975716,-0.04502572491765022,-0.15811258554458618,0.45052608847618103,0.000666160078253597,3
139,0.04119119793176651,-0.05801066756248474,-0.028898365795612335,-0.1577105075120926,0.45020702481269836,0.0008650256786495447,3
140,0.053370315581560135,-0.1912480592727661,0.012760519050061703,-0.15671807527542114,0.45053771138191223,0.0008203309844247997,3
141,-0.08750058710575104,-0.06333836168050766,0.02858562394976616,-0.15590053796768188,0.4494940936565399,0.0011788593837991357,3
142,0.036627959460020065,0.03763461485505104,-0.03363792970776558,-0.1546465903520584,0.4504677653312683,0.0009451383957639337,3
143,0.19501549005508423,-0.0924830436706543,-0.05805639177560806,-0.15561732649803162,0.44974252581596375,0.0004944954416714609,3
144,-0.23697149753570557,0.17196324467658997,-0.013726605102419853,-0.155194953083992,0.44990095496177673,0.0004561788809951395,3
145,0.15516740083694458,-0.057173751294612885,0.003319591749459505,-0.15482448041439056,0.4502539336681366,0.00026743521448224783,3
146,-0.07400034368038177,-0.03696460649371147,-0.05332667753100395,-0.15589116513729095,0.4486791491508484,-0.00023002843954600394,3
147,-0.042028773576021194,0.06223668158054352,0.11063732951879501,-0.15400290489196777,0.44977816939353943,0.0004983897670172155,3
148,0.15490853786468506,-0.16651782393455505,0.05011150613427162,-0.15424132347106934,0.44859400391578674,0.0010394128039479256,3
149,-0.048104673624038696,0.13171112537384033,0.045650120824575424,-0.15386997163295746,0.4485566318035126,0.0013794305268675089,3
150,0.19110791385173798,-0.12567955255508423,-0.04464275389909744,-0.152779683470726,0.4496995806694031,0.0007128828437998891,3
151,-0.004333769902586937,0.07214146107435226,-0.06552325934171677,-0.15369407832622528,0.44822099804878235,0.00026560522383078933,3
152,-0.08766763657331467,0.07564298808574677,0.28797298669815063,-0.15265123546123505,0.4485255777835846,0.0015469775535166264,3
153,0.18547797203063965,-0.07693174481391907,-0.04663333296775818,-0.1529383510351181,0.4480881989002228,0.002103047678247094,3
154,0.08178557455539703,0.15480756759643555,0.0406791977584362,-0.07424920797348022,0.450218141078949,0.002647348213940859,3
155,-0.05391273647546768,-0.0027231425046920776,0.19307585060596466,-0.09734091907739639,0.4512275755405426,0.003052113577723503,3
156,0.14978043735027313,-0.04201881214976311,-0.08048656582832336,-0.19703368842601776,0.4505961537361145,0.003362225368618965,3
157,-0.058538664132356644,0.000913912954274565,0.05147549510002136,-0.18849946558475494,0.45295512676239014,0.0036493155639618635,3
158,0.05493411049246788,-0.05459996685385704,0.027006853371858597,-0.18765395879745483,0.4524080753326416,0.0034277630038559437,3
159,0.11198195070028305,-0.034776244312524796,-0.03478993847966194,-0.18765239417552948,0.4518895447254181,0.0033075748942792416,3
160,0.07724682986736298,0.04214482381939888,0.1255568116903305,-0.18735410273075104,0.4523583948612213,0.00401603477075696,3
161,0.17481638491153717,-0.10010866075754166,-0.08940885215997696,-0.18727503716945648,0.4525810182094574,0.003976468928158283,3
162,-0.13820910453796387,0.043030720204114914,0.008506999351084232,-0.18656045198440552,0.452046275138855,0.003915111999958754,3
163,0.024555621668696404,0.03449935466051102,0.04059477522969246,-0.1863469034433365,0.4521062672138214,0.004405629355460405,3
164,0.20743881165981293,-0.010080000385642052,0.07423338294029236,-0.18724878132343292,0.4515887498855591,0.0049649570137262344,3
165,-0.0367138497531414,0.05083496868610382,-0.06268370151519775,-0.18642458319664001,0.4532235264778137,0.004705626983195543,3
166,0.15410783886909485,-0.11103999614715576,-0.056148819625377655,-0.18667970597743988,0.4525727331638336,0.004140190314501524,3
167,-0.0822950229048729,-0.01651250384747982,-0.1345253586769104,-0.1078965812921524,0.45634007453918457,0.003860750002786517,3
168,0.19651488959789276,-0.06895143538713455,-0.02519555389881134,-0.1257288008928299,0.45603862404823303,0.003691964317113161,3
169,0.0917406976222992,-0.09268210083246231,-0.0015826344024389982,-0.14255304634571075,0.4559427499771118,0.003215701784938574,3
170,-0.09856706857681274,0.003999300301074982,0.061621442437171936,-0.1518479883670807,0.45613792538642883,0.003322532633319497,3
171,0.02544241026043892,-0.05125381425023079,0.03254464641213417,-0.23488134145736694,0.4549122452735901,0.0036586541682481766,3
172,-0.07332589477300644,0.020316066220402718,0.021878017112612724,-0.22107644379138947,0.4545239210128784,0.004085749387741089,3
173,-0.05721352994441986,-0.09701643884181976,0.15433759987354279,-0.21096177399158478,0.452888160943985,0.004288845229893923,3
174,-0.012331968173384666,-0.04605729132890701,-0.07490026950836182,-0.20343777537345886,0.4519675076007843,0.004860333167016506,3
175,-0.05080275982618332,0.017919819802045822,0.08204606175422668,-0.20315341651439667,0.45108887553215027,0.005475679412484169,3
176,-0.12004146724939346,0.09621035307645798,-0.03300447016954422,-0.20361138880252838,0.4500424861907959,0.005089885555207729,3
177,-0.07262697070837021,-0.08983618766069412,-0.14127640426158905,-0.20300410687923431,0.4492313861846924,0.004637886304408312,3
178,0.08161097019910812,-0.04354993253946304,0.0497981421649456,-0.20300410687923431,0.4492313861846924,0.004637886304408312,3
179,0.11163035035133362,-0.043046675622463226,-0.09599444270133972,-0.20247258245944977,0.4493144154548645,0.004273225087672472,3
180,-0.07246958464384079,-0.0948282852768898,0.029362982138991356,-0.20208847522735596,0.44979429244995117,0.004036359954625368,3
181,-0.021253837272524834,0.07588975876569748,0.01241661049425602,-0.20113986730575562,0.4498051702976227,0.0036296863108873367,3
182,-0.049291737377643585,0.06899688392877579,0.020052244886755943,-0.2012639194726944,0.44902685284614563,0.0032930634915828705,3
183,0.11595693975687027,-0.07384852319955826,-0.0204479843378067,-0.20157761871814728,0.4484108090400696,0.0035254349932074547,3
184,-0.06302835047245026,0.11400120705366135,-0.03644266352057457,-0.20118238031864166,0.44839176535606384,0.0037534518633037806,3
185,-0.025776106864213943,-0.12604698538780212,0.012209320440888405,-0.20152918994426727,0.44772908091545105,0.003389475168660283,3
186,0.10525748133659363,-0.047849006950855255,-0.004263009876012802,-0.20038069784641266,0.4472315311431885,0.003227796871215105,3
187,-0.06809193640947342,-0.0028480326291173697,-0.03744431957602501,-0.19993580877780914,0.44754526019096375,0.003106033429503441,3
188,0.0481376126408577,-0.10464922338724136,0.02835230343043804,-0.19949281215667725,0.4463583528995514,0.002759601455181837,3
189,-0.08352720737457275,0.01680249720811844,0.1109691709280014,-0.19865937530994415,0.44622012972831726,0.0028154917526990175,3
190,0.015341375954449177,-0.0023771694395691156,-0.09112490713596344,-0.19825799763202667,0.44508257508277893,0.0034250414464622736,3
191,0.14151187241077423,-0.12987102568149567,0.028919916599988937,-0.19794175028800964,0.4446895122528076,0.0032196524553000927,3
192,-0.06372721493244171,-0.0020268852822482586,-0.07391664385795593,-0.19716128706932068,0.4447663426399231,0.0031416048295795918,3
193,0.0214559156447649,-0.1035914421081543,0.030901772901415825,-0.19618336856365204,0.44422435760498047,0.0030455428641289473,3
194,0.08978265523910522,0.05144484341144562,-0.030641596764326096,-0.1956031322479248,0.44385191798210144,0.002737222472205758,3
195,-0.01560119166970253,-0.037492819130420685,0.020895937457680702,-0.19568225741386414,0.4438422918319702,0.0026374387089163065,3
196,0.1042754203081131,0.012605641037225723,-0.06684044748544693,-0.19543235003948212,0.44398728013038635,0.002618964295834303,3
197,-0.009354175068438053,0.022994522005319595,0.027865244075655937,-0.1952335089445114,0.44385844469070435,0.002280385000631213,3
198,-0.015321583487093449,0.005819528363645077,-0.012286486104130745,-0.19512420892715454,0.4434798061847687,0.0020818300545215607,3
199,-0.005863577593117952,-0.10792310535907745,-0.043299369513988495,-0.1946900635957718,0.4425966739654541,0.0019164766417816281,3
200,-0.00336554367095232,-0.06235326826572418,0.03187534958124161,-0.19425255060195923,0.44218558073043823,0.0018925165059044957,3
201,-0.019226916134357452,-0.02044639177620411,-0.03091786988079548,-0.1932900995016098,0.4417918920516968,0.0017908497247844934,3
202,0.06186266988515854,0.14688366651535034,-0.05560874566435814,-0.19308359920978546,0.4411905109882355,0.0017995575908571482,3
203,-0.032385002821683884,-0.030990980565547943,0.060947857797145844,-0.19362635910511017,0.441259503364563,0.0018906535115092993,3
204,-0.015883823856711388,-0.07563528418540955,-0.07434313744306564,-0.19382962584495544,0.4410542845726013,0.001919939648360014,3
205,0.06448174268007278,0.039917100220918655,-0.03680482134222984,-0.19303232431411743,0.4404042959213257,0.0015485198237001896,3
206,0.012792940251529217,0.00898638553917408,-0.055869001895189285,-0.19270682334899902,0.4404573440551758,0.0007591085159219801,3
207,-0.02786288782954216,-0.16115671396255493,0.0332418791949749,-0.19275619089603424,0.4400557577610016,6.639222556259483e-05,3
208,-0.06291718780994415,0.030779749155044556,0.009818801656365395,-0.1915750652551651,0.4392677843570709,0.0004190804611425847,3
209,0.11699990928173065,0.008866923861205578,0.021936213597655296,-0.19117124378681183,0.4381784200668335,0.0008932816563174129,3
210,0.026093872264027596,0.026375263929367065,0.005781759042292833,-0.1908068060874939,0.43895113468170166,0.0005980530404485762,3
211,0.04490749537944794,-0.2480577975511551,0.09674222022294998,-0.19112563133239746,0.4384385943412781,0.0009136739536188543,3
212,-0.492727667093277,0.4759444296360016,-0.00694699864834547,-0.18966783583164215,0.43855538964271545,0.0010106568224728107,3
213,-0.28602680563926697,0.33910903334617615,0.13413451611995697,-0.19085144996643066,0.436428427696228,0.0013123878743499517,3
214,0.6005486845970154,-0.4003561735153198,0.7628613710403442,-0.19402259588241577,0.4274580478668213,0.00239726435393095,3
215,-1.3161580562591553,2.321406364440918,-0.4725077450275421,-0.18626832962036133,0.424348920583725,0.0027445105370134115,3
216,0.05489780753850937,-0.2767873704433441,1.1942434310913086,-0.1945827752351761,0.4119807183742523,0.0006325759459286928,3
217,-1.0299502611160278,1.477191686630249,-1.012413740158081,-0.19275473058223724,0.41109851002693176,0.0032435343600809574,3
218,0.1639876514673233,-1.065602421760559,0.2349710911512375,-0.1206655278801918,0.40257465839385986,-0.00022088445257395506,3
219,-1.09286367893219,0.928473711013794,0.8110293745994568,-0.1304589956998825,0.4058946669101715,0.005455679725855589,3
220,2.5590288639068604,-1.7015408277511597,-2.588062047958374,-0.135051891207695,0.4083913564682007,0.005513011943548918,3
221,-0.8888338804244995,2.3597464561462402,-4.372838497161865,-0.11944424360990524,0.41910651326179504,-0.006975972093641758,3
222,-2.574620485305786,7.624980926513672,-2.392129898071289,-0.29372918605804443,0.38300493359565735,-0.04225529357790947,3
223,2.025510311126709,-1.3113644123077393,-0.4420967996120453,-0.5305578708648682,-0.43771490454673767,-0.08320174366235733,3
224,1.1832387447357178,-6.439943790435791,-2.8033649921417236,-0.5598238706588745,-0.6364384889602661,-0.09717147052288055,3
225,2.9769508838653564,-7.975459098815918,-4.018089294433594,-0.5358824133872986,-0.7970287799835205,-0.11837778985500336,3
226,13.575401306152344,-4.255375385284424,-2.690176486968994,-0.6249424815177917,-0.8597572445869446,-0.14807267487049103,3
227,16.70927619934082,-7.579389572143555,-1.8334128856658936,-0.4660594165325165,-0.9643315076828003,-0.20249053835868835,3
228,-7.142289638519287,-6.972281455993652,-4.230000972747803,-0.6195294260978699,-1.4920388460159302,-0.21246090531349182,3
229,0.1583450585603714,2.7434487342834473,-2.602264165878296,-0.5297659039497375,-1.3358793258666992,-0.24599023163318634,3
230,16.77985382080078,-0.8917762041091919,0.8814783096313477,-0.6515544652938843,-1.8965098857879639,-0.2740841507911682,3
231,-2.4760630130767822,7.056906223297119,2.2918055057525635,-0.6133144497871399,-1.7817848920822144,-0.2950035333633423,3
232,15.400300979614258,-15.586508750915527,0.8068712949752808,-0.983913242816925,-2.055206537246704,-0.22424064576625824,3
233,12.946080207824707,-18.57137680053711,0.49943462014198303,-0.7242068648338318,-2.374995470046997,-0.2966955006122589,3
234,21.819660186767578,-17.914335250854492,2.8147106170654297,-1.0381200313568115,-2.784174919128418,-0.16611242294311523,3
235,55.69566345214844,-20.60321044921875,1.7983415126800537,-0.9573531150817871,-2.52651309967041,-0.10254549980163574,3
236,95.38491821289062,-29.54400634765625,0.7437598705291748,-1.0231209993362427,-2.565885066986084,-0.027537409216165543,3
237,117.66432189941406,-31.1724853515625,0.40871062874794006,-0.7509498000144958,-2.345397472381592,-0.070823535323143,3
238,110.33545684814453,-34.44446563720703,2.23097562789917,-0.39901262521743774,-1.2896811962127686,-0.08317229151725769,3
239,91.55236053466797,-39.096527099609375,1.9771009683609009,-0.2578282654285431,-0.5605359077453613,-0.023983890190720558,3
240,54.746978759765625,-46.48638153076172,2.109060287475586,0.41439318656921387,0.8760719299316406,-0.06444908678531647,3
241,28.986286163330078,-55.45101547241211,-0.15698175132274628,-0.04956699535250664,1.4263744354248047,0.1022050604224205,3
242,25.55794334411621,-58.793182373046875,-2.7268614768981934,0.6226374506950378,1.9092973470687866,0.0983034148812294,3
243,47.68397521972656,-57.779422760009766,0.5576162934303284,1.870924711227417,3.0494468212127686,0.03884168714284897,3
244,64.22785949707031,-48.245662689208984,4.351311206817627,1.7147573232650757,6.319518089294434,-0.46530598402023315,3
245,48.8964729309082,-24.981456756591797,9.145059585571289,3.3469038009643555,7.499669551849365,-0.26190197467803955,3
246,21.865951538085938,-15.63215160369873,8.101837158203125,4.957136631011963,9.905182838439941,-0.1770532876253128,3
247,-14.13228988647461,-2.926621198654175,11.825166702270508,3.13553786277771,8.445533752441406,-0.680061936378479,3
248,-58.814937591552734,11.937461853027344,16.874345779418945,4.593312740325928,8.158071517944336,0.6716467142105103,3
249,-99.20056915283203,15.626989364624023,19.93662452697754,3.7041945457458496,8.966026306152344,-0.5618492364883423,3
250,-125.93594360351562,17.29238510131836,26.955347061157227,4.003330707550049,7.585879802703857,0.3305637538433075,3
251,-137.1533203125,25.09950065612793,29.98639488220215,4.250253200531006,6.979211807250977,0.5936965942382812,3
252,-142.5282440185547,41.43372344970703,34.33491516113281,4.343729019165039,5.185809135437012,1.445934772491455,3
253,-127.66697692871094,61.454471588134766,35.334007263183594,4.586206912994385,4.091311454772949,2.0935826301574707,3
254,-98.62432098388672,72.493408203125,36.083030700683594,4.049300670623779,2.4064676761627197,2.6740453243255615,3
255,-70.41334533691406,78.60392761230469,37.1280632019043,3.706441640853882,1.6684578657150269,3.023451089859009,3
256,-38.49174118041992,85.71357727050781,35.051841735839844,2.675092935562134,0.6604400277137756,3.384768009185791,3
257,-10.52822494506836,85.21656799316406,29.89051055908203,2.2096524238586426,0.3217034935951233,3.785715341567993,3
258,9.722977638244629,70.50312805175781,22.248952865600586,1.0988866090774536,-0.019733471795916557,4.129796981811523,3
259,26.143701553344727,45.427860260009766,15.011004447937012,0.6659857630729675,0.04777812957763672,4.4029951095581055,3
260,36.586002349853516,22.453414916992188,7.086483955383301,0.5600270628929138,0.19543957710266113,4.62564754486084,3
261,28.498538970947266,9.180713653564453,-1.15142023563385,-0.172776997089386,0.3763066530227661,4.7724385261535645,3
262,8.178614616394043,-7.348729610443115,-6.959753036499023,0.036565423011779785,0.5870451331138611,4.792124271392822,3
263,-15.073719024658203,-22.676055908203125,-14.395312309265137,-0.2701989412307739,0.7700778841972351,4.749046325683594,3
264,-34.52134323120117,-22.307157516479492,-22.270246505737305,-0.3090507686138153,0.6507039070129395,4.638424396514893,3
265,-50.95259094238281,-17.338748931884766,-25.771459579467773,-0.0944666787981987,0.17601725459098816,4.461872577667236,3
266,-60.87263870239258,-10.335803985595703,-26.710071563720703,0.19094982743263245,-0.29391995072364807,4.211524963378906,3
267,-54.53388977050781,-3.4259729385375977,-25.36688995361328,0.129715234041214,-1.1890521049499512,3.956932306289673,3
268,-41.29806900024414,6.201229572296143,-25.387746810913086,0.27410241961479187,-1.6005138158798218,3.6969096660614014,3
269,-19.97457504272461,9.614155769348145,-21.700870513916016,0.19829101860523224,-2.0119526386260986,3.450152635574341,3
270,2.763076066970825,17.310636520385742,-17.144824981689453,-0.07811766117811203,-2.5152618885040283,3.262310028076172,3
271,24.334075927734375,28.511014938354492,-11.196925163269043,-0.576917290687561,-2.5662643909454346,3.192976951599121,3
272,37.85224914550781,32.313194274902344,-7.567654609680176,-0.9716423749923706,-2.5232791900634766,3.0951852798461914,3
273,41.06233215332031,30.56039047241211,-3.6460235118865967,-1.6790872812271118,-2.7317185401916504,3.08750057220459,3
274,34.40303421020508,14.330421447753906,-1.7063443660736084,-1.9454890489578247,-2.260197162628174,3.0198163986206055,3
275,28.53951644897461,-16.789104461669922,0.575982391834259,-1.9551364183425903,-1.6131796836853027,2.973024845123291,3
276,17.176740646362305,-41.28571701049805,1.8239145278930664,-0.9047232866287231,-1.1055024862289429,2.610445022583008,3
277,2.8084731101989746,-44.47624588012695,3.418351650238037,-0.5511195063591003,-1.1564728021621704,2.575467824935913,3
278,-4.453260898590088,-24.691612243652344,1.6733468770980835,0.13387297093868256,-0.9710202217102051,2.5518157482147217,3
279,-3.4418909549713135,1.6322051286697388,-0.3603557050228119,-0.99447101354599,-1.3520610332489014,3.0058350563049316,3
280,9.805889129638672,17.749313354492188,-2.2462735176086426,-0.5616087913513184,-1.2436100244522095,2.910074234008789,3
281,21.80962562561035,21.03386116027832,-0.7403812408447266,-1.0107805728912354,-0.9780911207199097,3.0150041580200195,3
282,32.74895477294922,10.026965141296387,0.8943787813186646,-2.8828489780426025,-0.09362959861755371,3.635481119155884,3
283,29.228717803955078,-12.723142623901367,3.3680553436279297,-2.5047860145568848,-0.0006567315431311727,3.455756664276123,3
284,12.171623229980469,-44.69655990600586,7.911905288696289,-1.865486741065979,-0.22964796423912048,3.1950912475585938,3
285,-5.682404041290283,-76.20121002197266,10.368218421936035,-0.8485515117645264,-0.34614309668540955,3.0511367321014404,3
286,-16.35881805419922,-86.32479095458984,11.456649780273438,0.2518032193183899,-0.3757613003253937,3.079517126083374,3
287,-17.512475967407227,-69.87638092041016,12.06631088256836,1.6480274200439453,-1.0103979110717773,3.022454023361206,3
288,-13.411523818969727,-33.9696044921875,10.923710823059082,2.2387502193450928,-1.4705049991607666,3.1666035652160645,3
289,-8.044489860534668,1.3050116300582886,9.944140434265137,2.6573054790496826,-1.4602057933807373,3.27984619140625,3
290,11.48001480102539,27.973983764648438,10.935206413269043,2.7742257118225098,-1.9185501337051392,3.4316673278808594,3
291,34.06401062011719,51.94915008544922,13.498799324035645,1.229788064956665,-1.1011258363723755,3.6747052669525146,3
292,51.301387786865234,61.72867965698242,12.95269775390625,1.2860113382339478,-0.09860275685787201,3.5049073696136475,3
293,32.29671096801758,60.2149658203125,8.534826278686523,0.724030613899231,0.36354830861091614,3.631990432739258,3
294,9.574956893920898,49.57760238647461,5.440335273742676,-0.29358333349227905,1.5620713233947754,3.6822991371154785,3
295,-15.04307746887207,22.81122589111328,5.716246128082275,-0.9898432493209839,1.6072829961776733,3.7800941467285156,3
296,-41.601898193359375,-8.240570068359375,5.817147254943848,-2.3219316005706787,0.9523623585700989,3.848759412765503,3
297,-51.818355560302734,-46.40079879760742,8.853759765625,-0.9691633582115173,0.6751042604446411,3.929962635040283,3
298,-50.35905456542969,-71.25548553466797,10.010842323303223,-0.7371512651443481,-0.12992414832115173,3.9772534370422363,3
299,-26.29817771911621,-83.8659439086914,11.795753479003906,0.8109554052352905,-0.8614932894706726,4.091376781463623,3
300,4.890466690063477,-72.42922973632812,14.89732837677002,1.9898117780685425,-1.1513665914535522,4.216701507568359,3
301,33.34684753417969,-43.99577331542969,21.444347381591797,2.8204519748687744,-0.258992075920105,4.324946880340576,3
302,49.328948974609375,-3.8939125537872314,26.351089477539062,3.103813648223877,-0.8753052949905396,4.677236557006836,3
303,37.27339553833008,31.45768165588379,28.246692657470703,3.0471572875976562,-0.3928098678588867,4.949253082275391,3
304,19.475692749023438,56.13264465332031,28.12263298034668,2.783905029296875,-0.802771806716919,5.4976325035095215,3
305,-6.085265159606934,70.37601470947266,25.71111488342285,1.9473503828048706,-0.8395078182220459,5.901951313018799,3
306,-18.59032440185547,75.0572280883789,25.163639068603516,1.6543079614639282,-1.5289918184280396,6.332561492919922,3
307,-7.746779918670654,73.67951965332031,25.51243019104004,0.6981549859046936,-1.583474040031433,6.554649829864502,3
308,17.546829223632812,69.084716796875,24.19938087463379,0.21802766621112823,-2.0454978942871094,6.81636905670166,3
309,46.7412109375,53.28959274291992,22.47175407409668,-0.6712889671325684,-1.8640002012252808,7.064764499664307,3
310,69.22509002685547,30.695098876953125,19.15321922302246,-0.9928270578384399,-1.529976725578308,7.217824935913086,3
311,84.24494171142578,8.84577465057373,18.00872230529785,-1.1054487228393555,-1.0068732500076294,7.328671455383301,3
312,91.5367202758789,-10.432330131530762,18.550851821899414,-1.4447687864303589,0.010657044127583504,7.590400695800781,3
313,90.02641296386719,-17.11332893371582,16.51702880859375,-1.4974229335784912,0.23160676658153534,7.67194128036499,3
314,93.60592651367188,-18.470624923706055,9.474078178405762,-1.4402995109558105,1.4070967435836792,7.929577827453613,3
315,81.43710327148438,-18.560237884521484,0.8179490566253662,-1.4169392585754395,2.0147929191589355,7.957153797149658,3
316,53.15946960449219,-16.503896713256836,-8.045934677124023,-1.3338841199874878,3.3636162281036377,8.120223999023438,3
317,25.327564239501953,-14.643153190612793,-13.816858291625977,-1.2405662536621094,3.516401529312134,7.924692630767822,3
318,8.164031982421875,-14.019357681274414,-15.071558952331543,-1.1624747514724731,4.396075248718262,7.928836822509766,3
319,-1.892683744430542,-17.10387420654297,-20.908559799194336,-1.0227737426757812,4.11225700378418,7.68005895614624,3
320,-8.523454666137695,-15.218779563903809,-28.538969039916992,-0.9743711352348328,4.417703151702881,7.509806156158447,3
321,-3.3550896644592285,-12.861397743225098,-34.95777130126953,-0.860700786113739,4.362690448760986,7.2206244468688965,3
322,-1.4279472827911377,-4.1336188316345215,-39.92533493041992,-0.7804081439971924,4.381180763244629,6.882012367248535,3
323,-4.1577959060668945,4.636064529418945,-40.93467330932617,-0.8184201121330261,4.8186211585998535,6.536441326141357,3
324,-9.192366600036621,6.544924259185791,-43.477256774902344,-0.9375934600830078,4.139041900634766,5.993050575256348,3
325,-23.881328582763672,-5.163951873779297,-45.333709716796875,-1.0568046569824219,4.4267988204956055,5.627556800842285,3
326,-20.066242218017578,-26.936180114746094,-40.58848571777344,-1.071854591369629,3.9419875144958496,5.127087593078613,3
327,-10.889948844909668,-35.38478088378906,-32.04841995239258,-0.7494577169418335,4.0011725425720215,4.828211307525635,3
328,2.7926251888275146,-38.42232131958008,-23.602907180786133,-0.5098411440849304,3.647390842437744,4.386562347412109,3
329,21.352087020874023,-43.48105239868164,-15.346269607543945,-0.03115318901836872,3.8032736778259277,4.198190689086914,3
330,37.88251495361328,-36.788204193115234,-8.546466827392578,0.2746976912021637,3.8633077144622803,3.9356679916381836,3
331,29.887866973876953,-31.40178871154785,-3.386960506439209,0.5931233763694763,4.404443740844727,3.790842294692993,3
332,10.50002384185791,-18.29795265197754,-3.5795400142669678,0.8931174278259277,4.269061088562012,3.698284387588501,3
333,-23.786029815673828,1.0494691133499146,-5.453943729400635,1.0678237676620483,4.3929924964904785,3.6334500312805176,3
334,-49.315887451171875,9.569822311401367,-7.359747409820557,1.0803635120391846,4.162463665008545,3.576122760772705,3
335,-64.88436889648438,24.54607391357422,-9.320693969726562,0.929124116897583,3.646136522293091,3.486361265182495,3
336,-64.78254699707031,33.520816802978516,-10.242488861083984,0.5644240975379944,3.0171964168548584,3.337008476257324,3
337,-46.907291412353516,34.65652084350586,-11.190631866455078,0.3458016514778137,2.358739137649536,3.3039379119873047,3
338,-10.572281837463379,35.176971435546875,-13.133796691894531,0.12745101749897003,1.9658901691436768,3.246819257736206,3
339,16.292844772338867,21.07027816772461,-14.51500129699707,0.3885476589202881,1.8222970962524414,3.333106279373169,3
340,42.350284576416016,-6.701733112335205,-14.677128791809082,0.07573921978473663,2.386570692062378,3.1509969234466553,3
341,61.0594596862793,-25.795568466186523,-12.003390312194824,0.14115875959396362,2.457636833190918,3.025416612625122,3
342,57.521400451660156,-33.70877456665039,-11.897285461425781,0.21409372985363007,3.0580153465270996,2.8548529148101807,3
343,43.48499298095703,-35.68355941772461,-10.962175369262695,0.5223594307899475,3.7373952865600586,2.713998317718506,3
344,24.347396850585938,-28.767337799072266,-12.983784675598145,0.7082688808441162,3.883469820022583,2.5491461753845215,3
345,-0.9336482882499695,-19.434572219848633,-13.707386016845703,0.9616550207138062,4.1645684242248535,2.3924615383148193,3
346,-26.16556167602539,-1.9125884771347046,-14.6633939743042,1.043222188949585,4.150954246520996,2.2104790210723877,3
347,-42.928321838378906,10.024843215942383,-12.847387313842773,1.077843189239502,3.9190175533294678,2.0597548484802246,3
348,-39.74981689453125,18.839366912841797,-9.271575927734375,0.921839714050293,3.507995843887329,1.914289116859436,3
349,-28.38182830810547,32.938926696777344,-6.077816486358643,0.6163758635520935,2.80210280418396,1.8185479640960693,3
350,-21.12645721435547,33.77276611328125,-9.155117988586426,0.8255065679550171,2.2276611328125,1.9560661315917969,3
351,-17.44173240661621,21.191741943359375,-12.409453392028809,0.2451312392950058,2.081186532974243,1.8097659349441528,3
352,-11.534661293029785,11.79794692993164,-10.6236572265625,0.03290939703583717,1.7762616872787476,1.7111907005310059,3
353,2.0615720748901367,-4.6757073402404785,-7.825450897216797,-0.1333325356245041,1.8085904121398926,1.590459942817688,3
354,15.961583137512207,-15.466623306274414,-4.362687110900879,-0.29270681738853455,2.08065128326416,1.4719964265823364,3
355,30.360553741455078,-25.688739776611328,0.6506965756416321,-0.01285778172314167,1.6035205125808716,1.4440196752548218,3
356,37.1161994934082,-37.2206916809082,8.50244140625,0.20016147196292877,2.0720667839050293,1.430166244506836,3
357,35.91531753540039,-48.78007507324219,14.376931190490723,0.5441201329231262,2.269070863723755,1.4903374910354614,3
358,29.04833221435547,-48.425899505615234,15.751173973083496,1.139486312866211,2.812110185623169,1.6130361557006836,3
359,19.229825973510742,-33.96875762939453,12.658042907714844,1.4913278818130493,2.7087349891662598,1.7457401752471924,3
360,-0.4920838177204132,-14.890613555908203,8.007927894592285,1.7636808156967163,3.0607457160949707,1.840273380279541,3
361,-32.55656051635742,2.109433174133301,6.310588836669922,1.962195634841919,3.1245687007904053,1.9159451723098755,3
362,-52.17106628417969,25.09734344482422,5.807765007019043,1.7963618040084839,2.771319627761841,1.9708398580551147,3
363,-47.67098617553711,48.338619232177734,5.257925033569336,1.5532324314117432,2.1513757705688477,2.054253578186035,3
364,-37.89302444458008,58.01390838623047,6.202103614807129,0.9424529075622559,1.5870164632797241,2.1134939193725586,3
365,-6.111422061920166,45.82777404785156,8.218955039978027,0.014243429526686668,1.317838191986084,2.1333506107330322,3
366,14.269847869873047,23.592327117919922,7.46549129486084,0.0489940419793129,1.3182486295700073,2.2463672161102295,3
367,38.246402740478516,6.675645351409912,4.175196170806885,-0.31083524227142334,1.5985219478607178,2.308668613433838,3
368,57.37492370605469,4.753576755523682,0.703900158405304,-0.24151670932769775,1.366010069847107,2.3927416801452637,3
369,59.87299728393555,4.0776495933532715,-1.5901755094528198,-0.314791202545166,2.373352289199829,2.392545223236084,3
370,57.2442626953125,4.203869342803955,-2.1000468730926514,-0.34827691316604614,2.441807270050049,2.388619899749756,3
371,47.96849060058594,3.247682809829712,-3.4146759510040283,-0.46983715891838074,3.246325731277466,2.372197389602661,3
372,25.90970230102539,-8.816121101379395,-3.6805386543273926,-0.4643997848033905,3.7783725261688232,2.344534397125244,3
373,-7.093648433685303,-25.309978485107422,-4.721848964691162,-0.49709653854370117,3.552255868911743,2.2721312046051025,3
374,-30.490230560302734,-40.28425216674805,-7.092297554016113,-0.1752392202615738,3.5146074295043945,2.2227652072906494,3
375,-40.08019256591797,-48.40605545043945,-9.147934913635254,0.23348063230514526,3.1655657291412354,2.1317410469055176,3
376,-40.32163619995117,-40.645973205566406,-9.933173179626465,0.8276181817054749,2.732851505279541,2.0335195064544678,3
377,-18.801218032836914,-13.572108268737793,-4.876402378082275,0.9759314060211182,2.329840898513794,1.8820724487304688,3
378,2.8313145637512207,21.523967742919922,-0.41143739223480225,1.0658586025238037,2.2473301887512207,1.8131741285324097,3
379,21.333620071411133,39.4712028503418,-0.21836493909358978,0.7539281249046326,2.2027337551116943,1.793047547340393,3
380,25.46615982055664,35.686012268066406,-2.507491111755371,0.2598414719104767,2.59887433052063,1.7932075262069702,3
381,31.122514724731445,17.507293701171875,-1.1005617380142212,0.15535703301429749,3.1165452003479004,1.8110251426696777,3
382,22.837770462036133,8.224926948547363,0.518581748008728,-0.09621045738458633,3.080610513687134,1.8048402070999146,3
383,-0.05054660886526108,-5.321977615356445,2.0934441089630127,-0.16907508671283722,3.1354360580444336,1.8131589889526367,3
384,-21.090221405029297,-28.34380531311035,2.5091402530670166,0.003041235264390707,3.2127091884613037,1.8457462787628174,3
385,-31.603355407714844,-41.308956146240234,0.9164714813232422,0.2305251955986023,2.8719942569732666,1.8522943258285522,3
386,-26.2047176361084,-38.83891296386719,-0.05628902092576027,0.7255370616912842,2.672391414642334,1.85736882686615,3
387,-19.194849014282227,-24.278411865234375,1.9002645015716553,1.2338216304779053,2.3952572345733643,1.8555817604064941,3
388,-6.383541584014893,-8.965536117553711,5.538792610168457,1.1223379373550415,1.9388233423233032,1.824841856956482,3
389,3.4443979263305664,6.772402763366699,5.486021518707275,1.0863752365112305,2.069939374923706,1.848989486694336,3
390,4.118076801300049,14.55512809753418,5.283773899078369,1.0427509546279907,1.9653218984603882,1.9132330417633057,3
391,7.939036846160889,19.193803787231445,5.687633514404297,0.8030521869659424,1.9612314701080322,1.9672002792358398,3
392,12.371757507324219,17.75339698791504,7.411219596862793,0.5655724406242371,2.0896596908569336,2.023977756500244,3
393,18.884281158447266,12.138798713684082,8.96916675567627,0.5020071268081665,1.693278193473816,2.1358420848846436,3
394,24.217790603637695,1.6397926807403564,9.572948455810547,0.4627892076969147,2.052492380142212,2.2225658893585205,3
395,28.877119064331055,-5.074873447418213,13.092607498168945,0.49098464846611023,2.6351499557495117,2.3021249771118164,3
396,14.629219055175781,-15.209086418151855,16.564411163330078,0.5627729296684265,2.550281524658203,2.4428889751434326,3
397,-8.29625129699707,-18.97756004333496,15.8636474609375,0.7955282926559448,2.631424903869629,2.603567600250244,3
398,-20.79642677307129,-13.352513313293457,9.664814949035645,0.9143328070640564,2.4950499534606934,2.7553648948669434,3
399,-25.09926986694336,0.6493776440620422,-4.364205837249756,1.1384925842285156,2.2871975898742676,2.8484137058258057,3
400,-12.450072288513184,11.030173301696777,-12.282796859741211,1.0662589073181152,2.077575206756592,2.8067574501037598,3
401,-11.448718070983887,20.962434768676758,-12.962355613708496,0.8862165808677673,1.8888517618179321,2.6961886882781982,3
402,-4.619361400604248,5.534061908721924,-8.3051176071167,0.6180160045623779,1.9365030527114868,2.561167001724243,3
403,22.3875732421875,-13.734078407287598,-3.96635365486145,0.7690820097923279,2.125365972518921,2.4670605659484863,3
404,39.5540657043457,-25.30474281311035,0.81426602602005,0.966229259967804,2.0566792488098145,2.444293737411499,3
405,43.535552978515625,-33.27371597290039,5.7200703620910645,1.2834585905075073,2.5645971298217773,2.4316565990448,3
406,36.972896575927734,-25.785667419433594,9.371548652648926,1.6064695119857788,3.094890832901001,2.4619133472442627,3
407,23.097152709960938,-6.733405590057373,10.316681861877441,1.8395789861679077,3.2427620887756348,2.5628812313079834,3
408,3.2025253772735596,15.535945892333984,9.4409761428833,1.740556240081787,3.3132946491241455,2.6749675273895264,3
409,-21.83566665649414,25.35346221923828,11.724457740783691,1.472792148590088,3.397374391555786,2.764437198638916,3
410,-42.53561782836914,26.68534278869629,12.065914154052734,1.225180983543396,3.06634783744812,2.9055685997009277,3
411,-42.335750579833984,24.946136474609375,10.361228942871094,0.976117730140686,2.4767982959747314,3.064120054244995,3
412,-37.479217529296875,20.622770309448242,8.778477668762207,0.7363235354423523,2.1240978240966797,3.1696979999542236,3
413,-23.185651779174805,6.048135757446289,6.1842522621154785,0.4382607936859131,1.7818859815597534,3.252823829650879,3
414,-5.266120910644531,-14.19090461730957,4.832148551940918,0.41268613934516907,1.5345417261123657,3.318141460418701,3
415,25.036962509155273,-26.689899444580078,4.400167465209961,0.7137219905853271,1.633327603340149,3.355431079864502,3
416,43.93494415283203,-18.17241668701172,5.001375198364258,1.1479527950286865,1.9467908143997192,3.3888306617736816,3
417,47.94308090209961,4.773436546325684,0.24515125155448914,1.06097412109375,2.556562900543213,3.411165475845337,3
418,39.97831726074219,21.540897369384766,-1.7784031629562378,0.9812473058700562,2.8352668285369873,3.4382810592651367,3
419,23.15059471130371,35.50465393066406,-6.076060771942139,0.6157143712043762,3.172926187515259,3.434156894683838,3
420,-1.8648022413253784,36.24850082397461,-10.38459587097168,0.130281001329422,3.5131444931030273,3.384767532348633,3
421,-22.87835693359375,36.8632698059082,-13.107625961303711,-0.21708868443965912,3.3553404808044434,3.315566062927246,3
422,-25.434457778930664,36.52585983276367,-16.039121627807617,-0.6502062678337097,3.103100538253784,3.203794240951538,3
423,1.6375889778137207,31.505334854125977,-16.30838394165039,-0.9156184196472168,2.8790457248687744,3.070669412612915,3
424,25.096668243408203,27.5849666595459,-16.307313919067383,-1.263555884361267,3.0003859996795654,2.923797130584717,3
425,24.133792877197266,26.523828506469727,-19.22126007080078,-1.5860307216644287,3.254216194152832,2.7604286670684814,3
426,14.126788139343262,8.801595687866211,-19.497560501098633,-1.891522765159607,3.3119962215423584,2.5724971294403076,3
427,-5.419419765472412,-10.090871810913086,-17.118242263793945,-1.7456892728805542,3.5499470233917236,2.4130468368530273,3
428,-22.088682174682617,-15.736746788024902,-12.270502090454102,-1.574352502822876,3.45833158493042,2.240537166595459,3
429,-50.48286819458008,-15.555816650390625,-6.6673431396484375,-1.3203792572021484,3.0533499717712402,2.0946691036224365,3
430,-70.36206817626953,-14.334359169006348,-1.996290683746338,-1.2857550382614136,2.659813165664673,2.0223798751831055,3
431,-82.31659698486328,-14.56459903717041,3.222993850708008,-1.1748058795928955,1.713678240776062,1.9489121437072754,3
432,-69.1672592163086,-10.472481727600098,9.736706733703613,-1.0772565603256226,0.7735833525657654,1.9475958347320557,3
433,-43.69849395751953,-4.957246780395508,14.896240234375,-0.9056226015090942,0.011165721341967583,2.0336787700653076,3
434,-11.60323429107666,5.2766876220703125,17.01951026916504,-0.904866099357605,-0.23164206743240356,2.2173032760620117,3
435,16.98137092590332,28.166728973388672,12.277295112609863,-0.9945436716079712,-0.23682966828346252,2.404832601547241,3
436,35.690834045410156,49.76848220825195,8.12238883972168,-1.410232663154602,0.09886686503887177,2.564862012863159,3
437,47.57222366333008,49.157405853271484,3.118762254714966,-1.9663673639297485,0.5080967545509338,2.662315845489502,3
438,49.90890884399414,33.20706558227539,1.3573306798934937,-2.545746088027954,1.0162739753723145,2.7162632942199707,3
439,42.35791778564453,20.097185134887695,0.5763740539550781,-2.794556140899658,1.4561759233474731,2.712888479232788,3
440,32.08248519897461,11.637044906616211,-1.1674647331237793,-3.060408353805542,2.1357028484344482,2.802351713180542,3
441,12.785636901855469,-7.827741622924805,2.111171245574951,-2.782095193862915,2.174647569656372,2.664401054382324,3
442,-9.676833152770996,-31.885671615600586,4.678637981414795,-2.557269811630249,2.1935572624206543,2.630105495452881,3
443,-26.792163848876953,-49.778560638427734,5.530186176300049,-2.1825339794158936,2.0809314250946045,2.651341438293457,3
444,-34.187591552734375,-61.39037322998047,6.656400680541992,-1.375117301940918,1.6421030759811401,2.5940964221954346,3
445,-42.91476821899414,-49.77191925048828,4.129434108734131,-1.0515782833099365,1.3621658086776733,2.6922543048858643,3
446,-29.898406982421875,-25.898988723754883,0.7339529991149902,-0.6800128221511841,0.9854585528373718,2.7484593391418457,3
447,-1.6749649047851562,7.541919708251953,2.025153160095215,-0.28318437933921814,0.6835395693778992,2.7385144233703613,3
448,31.555492401123047,39.861595153808594,4.8465576171875,-0.5247542262077332,0.7177322506904602,2.792332172393799,3
449,58.62629699707031,59.32301712036133,6.906626224517822,-1.1105166673660278,1.0764716863632202,2.8827288150787354,3
450,59.795677185058594,63.610172271728516,7.326462745666504,-1.8088557720184326,1.5521477460861206,2.950761318206787,3
451,37.71891403198242,52.43739318847656,4.175422668457031,-2.4805636405944824,2.432370662689209,3.1319613456726074,3
452,0.8413074016571045,32.368865966796875,-1.824499249458313,-3.02474045753479,2.663706064224243,3.1561553478240967,3
453,-31.614643096923828,2.184992551803589,-5.093478679656982,-3.2150135040283203,2.8329696655273438,3.1807546615600586,3
454,-60.948448181152344,-24.620813369750977,-8.702849388122559,-3.0462241172790527,2.2030484676361084,3.01092791557312,3
455,-71.96227264404297,-45.07862091064453,-9.874865531921387,-2.6813879013061523,1.5187824964523315,2.8812479972839355,3
456,-62.41165542602539,-48.99922180175781,-12.358846664428711,-1.9409323930740356,0.46692371368408203,2.6401612758636475,3
457,-44.90459442138672,-39.345699310302734,-13.697357177734375,-1.5651273727416992,-0.15506285429000854,2.5282301902770996,3
458,-26.370525360107422,-29.757892608642578,-13.539056777954102,-0.9531124830245972,-0.1793137788772583,2.519118547439575,3
459,-6.619789123535156,-18.955764770507812,-13.641767501831055,-0.754368007183075,-0.5838009119033813,2.352027177810669,3
460,6.410572052001953,-12.532278060913086,-14.601523399353027,-0.4829595685005188,-0.5407394170761108,2.241434097290039,3
461,21.146953582763672,2.8925580978393555,-15.489202499389648,-0.3455003798007965,-0.4207969605922699,2.11155366897583,3
462,29.65169906616211,26.324081420898438,-19.929431915283203,-0.42399832606315613,-0.05417480319738388,1.9968855381011963,3
463,45.22137451171875,46.437171936035156,-22.574058532714844,-0.8873269557952881,0.4302155375480652,1.8730964660644531,3
464,46.371551513671875,62.391563415527344,-25.140302658081055,-1.6309620141983032,0.9105184078216553,1.7117576599121094,3
465,34.84305953979492,61.35116195678711,-27.432857513427734,-2.240550994873047,1.356884479522705,1.466112494468689,3
466,10.519421577453613,45.219573974609375,-28.438058853149414,-2.731926202774048,1.576552152633667,1.1649678945541382,3
467,-15.85637378692627,20.416034698486328,-29.017932891845703,-3.0741007328033447,1.5224342346191406,0.8475666046142578,3
468,-39.7894172668457,-4.713154315948486,-28.102310180664062,-3.1734185218811035,1.2563679218292236,0.5336882472038269,3
469,-55.10199737548828,-25.075929641723633,-28.563682556152344,-2.973384380340576,0.6248496770858765,0.1701057404279709,3
470,-64.62674713134766,-37.229610443115234,-29.951080322265625,-2.65937876701355,0.14565497636795044,-0.09882434457540512,3
471,-52.8217887878418,-51.59292984008789,-31.622772216796875,-2.051084041595459,-0.800609290599823,-0.5205950140953064,3
472,-28.36724090576172,-50.727561950683594,-29.901565551757812,-1.5120593309402466,-0.765813946723938,-0.6749520301818848,3
473,-7.700470447540283,-39.78602600097656,-26.243385314941406,-0.821605384349823,-1.1521486043930054,-1.0324434041976929,3
474,6.203195571899414,-26.63825035095215,-19.555946350097656,-0.4758700430393219,-1.1026899814605713,-1.237920880317688,3
475,11.636250495910645,-8.049298286437988,-16.394826889038086,-0.29060545563697815,-0.8553616404533386,-1.367598533630371,3
476,22.48984146118164,9.383916854858398,-13.988839149475098,-0.19910003244876862,-0.6817586421966553,-1.5263837575912476,3
477,30.65886688232422,31.54656219482422,-12.1668062210083,-0.2748367488384247,-0.4205801486968994,-1.6718618869781494,3
478,36.52066421508789,37.59031677246094,-11.460498809814453,-0.8134183883666992,-0.10457062721252441,-1.7319965362548828,3
479,38.00104904174805,35.59693145751953,-11.868778228759766,-1.299825668334961,0.2354428470134735,-1.8158982992172241,3
480,30.97303581237793,27.91352653503418,-11.51560115814209,-1.8043886423110962,0.7229148745536804,-1.862975001335144,3
481,18.261510848999023,15.50328254699707,-10.658576965332031,-1.9848688840866089,0.982454776763916,-2.0000181198120117,3
482,-0.32638081908226013,6.7729387283325195,-7.904596328735352,-2.121704578399658,1.1528258323669434,-2.096747398376465,3
483,-14.656343460083008,-2.9246652126312256,-4.433640480041504,-2.033245086669922,1.0093308687210083,-2.22479248046875,3
484,-18.094682693481445,-7.919676303863525,-2.4199070930480957,-1.892930030822754,0.6889225840568542,-2.3194634914398193,3
485,-29.303001403808594,-13.171320915222168,-1.5442084074020386,-1.8200327157974243,0.540876567363739,-2.3322086334228516,3
486,-44.57008743286133,-13.332334518432617,0.11229424923658371,-1.5250029563903809,0.23245424032211304,-2.3835248947143555,3
487,-50.48643112182617,-11.908403396606445,3.691354990005493,-1.2439322471618652,-0.4874844551086426,-2.4457321166992188,3
488,-50.961753845214844,-4.399852275848389,5.174046993255615,-1.191918969154358,-0.6180965900421143,-2.3373563289642334,3
489,-54.782283782958984,-4.981779098510742,3.817185163497925,-1.056270718574524,-1.2363954782485962,-2.3222949504852295,3
490,-48.314456939697266,-3.2545418739318848,4.838609218597412,-1.0862276554107666,-1.7436234951019287,-2.2599477767944336,3
491,-26.466245651245117,8.354076385498047,5.069410800933838,-1.0234956741333008,-2.177126884460449,-2.2189908027648926,3
492,0.21279580891132355,12.297029495239258,4.335258483886719,-1.2140774726867676,-2.300367593765259,-2.1285555362701416,3
493,32.23733901977539,5.4179229736328125,3.7669055461883545,-1.270316243171692,-2.2139854431152344,-2.100066900253296,3
494,40.54632568359375,0.4639183580875397,3.0326576232910156,-1.2818158864974976,-1.6986185312271118,-2.0558013916015625,3
495,45.24868392944336,6.988897800445557,5.088929653167725,-1.3280190229415894,-1.2810966968536377,-2.013003349304199,3
496,32.09346008300781,15.241232872009277,5.857095718383789,-1.403384804725647,-0.8333449959754944,-1.9642382860183716,3
497,2.914391279220581,17.63564682006836,8.162425994873047,-1.6182805299758911,-0.7623428106307983,-1.9110630750656128,3
498,-18.318262100219727,14.579963684082031,7.897242069244385,-1.7749724388122559,-0.8554011583328247,-1.854207992553711,3
499,-31.323951721191406,12.330856323242188,4.291311740875244,-1.8785812854766846,-0.9614812731742859,-1.7896147966384888,3
500,-32.2969856262207,8.125182151794434,0.3873162567615509,-1.9940012693405151,-1.474150538444519,-1.7779560089111328,3
501,-5.233160018920898,10.827473640441895,-1.6628795862197876,-2.0595643520355225,-1.5872416496276855,-1.7617793083190918,3
502,18.22555160522461,11.619743347167969,-5.227230072021484,-2.1081440448760986,-1.657825231552124,-1.812477946281433,3
503,34.796875,-0.9098585844039917,-6.266968727111816,-2.2064077854156494,-1.32329523563385,-1.8504821062088013,3
504,34.433040618896484,-16.18105125427246,-5.637690544128418,-2.0600571632385254,-0.7760488986968994,-1.9258651733398438,3
505,16.820175170898438,-23.543886184692383,-2.6335604190826416,-1.8594081401824951,-0.5551460385322571,-1.9988315105438232,3
506,-6.222719192504883,-31.285476684570312,2.8620729446411133,-1.6756088733673096,-0.5446896553039551,-2.014991521835327,3
507,-22.833560943603516,-32.96592712402344,6.387089729309082,-1.2428735494613647,-0.8545656800270081,-2.0533599853515625,3
508,-31.479305267333984,-30.401784896850586,5.414944171905518,-0.6411170363426208,-1.0077136754989624,-2.0663199424743652,3
509,-25.81111717224121,-17.79925537109375,4.332831382751465,-0.3337043523788452,-1.392518162727356,-2.017406463623047,3
510,-21.00978660583496,10.02176570892334,2.736788511276245,-0.7080994844436646,-1.5331708192825317,-1.7954752445220947,3
511,-13.391799926757812,26.102487564086914,1.2912639379501343,-0.7815724015235901,-1.6893142461776733,-1.7836381196975708,3
512,5.848422527313232,27.514850616455078,2.364816665649414,-1.1469438076019287,-1.9036619663238525,-1.752777338027954,3
513,27.61463165283203,18.182876586914062,0.774526059627533,-1.4120399951934814,-1.6727499961853027,-1.7271053791046143,3
514,39.07644271850586,-2.110537052154541,3.6997389793395996,-1.5657848119735718,-1.4103984832763672,-1.7245196104049683,3
515,29.134572982788086,-28.175464630126953,8.095014572143555,-1.369304895401001,-0.7891777157783508,-1.7159852981567383,3
516,-0.9746083617210388,-50.398048400878906,13.0816011428833,-1.045404076576233,-0.8089148998260498,-1.6553654670715332,3
517,-22.628421783447266,-57.9809684753418,16.86029815673828,-0.3953527808189392,-0.979648768901825,-1.573835015296936,3
518,-24.667232513427734,-53.29791259765625,16.78775405883789,0.49347957968711853,-1.2420309782028198,-1.4966058731079102,3
519,-11.311644554138184,-27.561172485351562,16.103490829467773,0.6207057237625122,-1.5974661111831665,-1.2006462812423706,3
520,-4.066428184509277,17.860660552978516,12.993016242980957,0.9538103342056274,-1.7660949230194092,-1.0668777227401733,3
521,4.826066017150879,54.484947204589844,11.516256332397461,0.5317182540893555,-1.7743068933486938,-0.8748182058334351,3
522,9.009418487548828,78.65839385986328,7.981258869171143,-0.29358839988708496,-1.6699825525283813,-0.6959596872329712,3
523,7.191391944885254,93.30474853515625,4.3891682624816895,-1.1091328859329224,-1.5847469568252563,-0.6363527178764343,3
524,14.095488548278809,88.21276092529297,3.960148811340332,-2.4237635135650635,-1.4858990907669067,-0.49910590052604675,3
525,17.43456268310547,51.31718826293945,5.48197078704834,-2.9647176265716553,-1.3790888786315918,-0.5729804039001465,3
526,18.447248458862305,6.9645538330078125,9.710380554199219,-3.1275384426116943,-1.1881409883499146,-0.606676459312439,3
527,11.026261329650879,-45.66707992553711,13.72458553314209,-2.883556365966797,-0.970194935798645,-0.5578608512878418,3
528,5.047236442565918,-82.51721954345703,18.58940887451172,-2.246154546737671,-0.9402720928192139,-0.44520875811576843,3
529,6.441246032714844,-102.90943145751953,16.920717239379883,-0.946363091468811,-0.8242032527923584,-0.3705592155456543,3
530,19.141185760498047,-96.51385498046875,13.054916381835938,-0.11103135347366333,-0.9530819058418274,-0.1516919732093811,3
531,31.679899215698242,-66.52664184570312,7.278713226318359,1.078099012374878,-0.6516154408454895,-0.09272156655788422,3
532,39.21105194091797,-15.851696014404297,-0.11222320795059204,1.3553736209869385,-0.2842620313167572,0.061340272426605225,3
533,37.563621520996094,36.440452575683594,-10.309168815612793,1.229774832725525,0.09634716063737869,0.09723217785358429,3
534,38.24517822265625,74.36454010009766,-19.130102157592773,0.6021665930747986,0.6089319586753845,0.02798009105026722,3
535,27.780853271484375,98.71154022216797,-27.426225662231445,-0.3727714419364929,1.1001226902008057,-0.1267012059688568,3
536,18.10005760192871,104.69377136230469,-35.36583709716797,-1.4528828859329224,0.9236800670623779,-0.3601086437702179,3
537,15.78574275970459,85.37393188476562,-40.61905288696289,-2.429417371749878,0.9270511865615845,-0.7057740092277527,3
538,28.891048431396484,54.17019271850586,-41.794700622558594,-3.3279356956481934,1.2659822702407837,-1.094683289527893,3
539,40.8235969543457,14.607525825500488,-40.81879425048828,-3.5858397483825684,1.6037862300872803,-1.5319886207580566,3
540,53.32081985473633,-33.53477096557617,-34.94667053222656,-3.517171859741211,2.3008694648742676,-1.9370903968811035,3
541,53.648502349853516,-73.31099700927734,-26.92823028564453,-2.989086866378784,2.757187843322754,-2.3060290813446045,3
542,38.345550537109375,-90.13792419433594,-20.42727279663086,-1.862699031829834,3.232314348220825,-2.6224074363708496,3
543,7.962615966796875,-90.32649993896484,-12.224743843078613,-1.2758510112762451,3.4625089168548584,-2.8655104637145996,3
544,-35.59284210205078,-71.78055572509766,-8.085509300231934,-0.10338177531957626,3.2905220985412598,-3.031010150909424,3
545,-70.58518981933594,-44.440460205078125,-7.881796360015869,0.30911144614219666,2.8297924995422363,-3.164060354232788,3
546,-83.3572769165039,-20.42502784729004,-5.580007076263428,0.5937784314155579,2.067138671875,-3.2723724842071533,3
547,-67.83489990234375,-9.813725471496582,-2.5184404850006104,0.9851334691047668,1.1941144466400146,-3.3000524044036865,3
548,-37.04616165161133,-2.224015474319458,0.006479823496192694,1.009946584701538,0.870474100112915,-3.3345553874969482,3
549,-2.176717519760132,15.9933443069458,4.735391139984131,0.9164015054702759,0.3837611675262451,-3.339488983154297,3
550,30.629657745361328,25.9292049407959,11.681158065795898,0.6789186000823975,0.6496076583862305,-3.293048858642578,3
551,41.644351959228516,24.556697845458984,19.446887969970703,0.3301783800125122,1.1590595245361328,-3.1859681606292725,3
552,32.800533294677734,11.109733581542969,24.86250114440918,0.2206624299287796,1.5940099954605103,-2.962111473083496,3
553,12.34587574005127,-1.082718014717102,28.123329162597656,0.2726030945777893,1.9869996309280396,-2.6935219764709473,3
554,-9.740378379821777,-6.875237464904785,30.121023178100586,0.3389637768268585,2.003500461578369,-2.3956480026245117,3
555,-18.479354858398438,-7.267134666442871,33.91710662841797,0.580035924911499,1.7681595087051392,-2.0486292839050293,3
556,-33.026363372802734,10.650479316711426,34.554649353027344,0.564789354801178,1.4560039043426514,-1.7091525793075562,3
557,-21.23193359375,22.132265090942383,37.70454025268555,0.4073820114135742,1.2632710933685303,-1.3831232786178589,3
558,12.380711555480957,26.566207885742188,38.8792724609375,0.08836551010608673,0.9930986762046814,-1.0009520053863525,3
559,39.710086822509766,9.4852294921875,39.301456451416016,-0.14980044960975647,1.2951428890228271,-0.6294212341308594,3
560,48.95962905883789,-19.15631103515625,41.72687911987305,-0.09614015370607376,2.004901885986328,-0.2616899609565735,3
561,36.8376350402832,-31.718233108520508,46.10474395751953,0.3764288127422333,2.734442710876465,0.15476100146770477,3
562,8.777604103088379,-24.010658264160156,46.39850616455078,0.750608503818512,2.7309608459472656,0.6681713461875916,3
563,-23.464889526367188,3.7621331214904785,42.26741409301758,1.1084970235824585,2.670107364654541,1.1605125665664673,3
564,-69.53377532958984,20.428136825561523,34.0242805480957,0.9541020393371582,1.9334654808044434,1.6171127557754517,3
565,-106.93329620361328,31.145374298095703,34.78143310546875,0.6843951344490051,1.3875197172164917,1.910168170928955,3
566,-119.4022445678711,28.534887313842773,37.74107360839844,0.1538335680961609,-0.7959842681884766,2.438640832901001,3
567,-113.29244995117188,29.03373908996582,36.547122955322266,-0.2517133355140686,0.020217319950461388,2.365565538406372,3
568,-99.90937042236328,6.220318794250488,34.716041564941406,-0.43977946043014526,-0.8409996032714844,2.6891067028045654,3
569,-69.10697937011719,-7.099637031555176,32.0125617980957,-0.43556976318359375,-1.8348320722579956,3.0509305000305176,3
570,-36.22053146362305,-19.626741409301758,30.517492294311523,-0.22319729626178741,-2.497542381286621,3.4032225608825684,3
571,-8.283224105834961,-8.244441986083984,27.415584564208984,0.08122049272060394,-2.8023550510406494,3.729074001312256,3
572,21.389493942260742,32.27008056640625,17.9951229095459,-0.10161997377872467,-2.63569712638855,3.9400131702423096,3
573,31.383577346801758,63.962623596191406,10.826567649841309,-0.7006732821464539,-2.420201063156128,4.084441661834717,3
574,13.080385208129883,59.18334197998047,3.837625741958618,-1.2922141551971436,-2.311335563659668,4.1824188232421875,3
575,-10.280217170715332,54.769535064697266,-2.0569345951080322,-2.115602493286133,-2.523644208908081,4.245126247406006,3
576,-34.89366149902344,27.154150009155273,-3.3547441959381104,-2.3750672340393066,-2.8344433307647705,4.191824436187744,3
577,-41.9022102355957,3.4612457752227783,-3.739786386489868,-2.3770267963409424,-2.9535183906555176,4.096431255340576,3
578,-39.585330963134766,-32.079837799072266,-8.914947509765625,-2.192678928375244,-3.7304108142852783,4.053074359893799,3
579,-12.21203899383545,-41.272090911865234,-10.820348739624023,-1.9184329509735107,-4.068420886993408,3.993656635284424,3
580,16.176607131958008,-38.52233123779297,-11.45236587524414,-1.3198221921920776,-4.224381923675537,3.8653695583343506,3
581,52.896484375,-13.917291641235352,-9.851279258728027,-0.9683622121810913,-3.968548059463501,3.7702112197875977,3
582,60.983028411865234,3.62178897857666,-10.531791687011719,-0.9900714159011841,-3.0727343559265137,3.724562883377075,3
583,60.80220413208008,25.888959884643555,-15.390201568603516,-1.1868211030960083,-2.8480684757232666,3.631568670272827,3
584,39.97370147705078,31.113954544067383,-22.51381492614746,-1.5895755290985107,-2.0269973278045654,3.511094331741333,3
585,31.223356246948242,32.268585205078125,-27.794601440429688,-2.048032760620117,-1.97189199924469,3.300333023071289,3
586,17.52899169921875,27.08576774597168,-31.909069061279297,-2.389758586883545,-1.771995186805725,3.0066754817962646,3
587,5.691497802734375,16.808504104614258,-34.004390716552734,-2.531663179397583,-1.5679402351379395,2.6441211700439453,3
588,9.065537452697754,-1.9951847791671753,-33.529563903808594,-2.57653546333313,-1.7718037366867065,2.2574222087860107,3
589,20.55145263671875,-14.492745399475098,-32.15592575073242,-2.3629281520843506,-1.5632448196411133,1.8795057535171509,3
590,33.046024322509766,-21.364429473876953,-31.05398178100586,-2.1108946800231934,-1.2268521785736084,1.552106261253357,3
591,45.398136138916016,-22.21626853942871,-30.639785766601562,-1.8890515565872192,-0.6565700173377991,1.270558476448059,3
592,53.82331848144531,-19.815038681030273,-29.6715145111084,-1.816506028175354,-0.4511681795120239,0.9808841347694397,3
593,54.25188064575195,-12.977696418762207,-30.60088539123535,-1.5291447639465332,0.3000478148460388,0.6672948002815247,3
594,52.773475646972656,-13.52401351928711,-31.768686294555664,-1.5117008686065674,0.7405931949615479,0.3814763128757477,3
595,44.277523040771484,-6.955689430236816,-31.998994827270508,-1.28227698802948,1.4141415357589722,0.05344778299331665,3
596,38.22935485839844,0.9813448190689087,-29.736133575439453,-1.3506648540496826,1.649670958518982,-0.2615589499473572,3
597,32.2618408203125,6.851977348327637,-26.848514556884766,-1.3820902109146118,1.8842179775238037,-0.5700200796127319,3
598,30.372888565063477,10.543783187866211,-22.71705436706543,-1.4207888841629028,2.4076550006866455,-0.8026477098464966,3
599,29.21866226196289,7.742688179016113,-20.790163040161133,-1.7100489139556885,2.602520227432251,-1.0058412551879883,3
600,21.624649047851562,9.58993148803711,-18.387516021728516,-1.7217320203781128,3.0447847843170166,-1.1848703622817993,3
601,13.663844108581543,10.479037284851074,-15.680652618408203,-1.777982473373413,3.179382085800171,-1.364854335784912,3
602,-0.5002625584602356,11.537567138671875,-14.695633888244629,-1.923068881034851,3.217562198638916,-1.5184613466262817,3
603,-14.414443016052246,11.278831481933594,-12.976752281188965,-1.9999696016311646,3.0789692401885986,-1.6618224382400513,3
604,-25.209638595581055,9.206827163696289,-10.184330940246582,-2.0519235134124756,2.8820571899414062,-1.7719961404800415,3
605,-25.2076416015625,-1.4546409845352173,-8.288031578063965,-2.026258707046509,2.7412924766540527,-1.8251664638519287,3
606,-19.063634872436523,-10.562901496887207,-8.437140464782715,-1.910926342010498,2.4817707538604736,-1.9034318923950195,3
607,-23.32521629333496,-12.936148643493652,-9.284637451171875,-1.615774393081665,2.411363124847412,-1.939588189125061,3
608,-31.31615447998047,-13.276957511901855,-12.267727851867676,-1.8310598134994507,2.2262399196624756,-2.1083452701568604,3
609,-34.92811584472656,-4.595090389251709,-13.929672241210938,-1.6711057424545288,1.9732048511505127,-2.2174880504608154,3
610,-26.440690994262695,-2.4431350231170654,-12.27034854888916,-1.6434978246688843,1.659142255783081,-2.354124069213867,3
611,-5.341961860656738,-13.461889266967773,-9.60559368133545,-1.512169599533081,1.4703315496444702,-2.4465956687927246,3
612,9.771084785461426,-25.54889488220215,-8.135318756103516,-1.4578897953033447,1.618072271347046,-2.5605545043945312,3
613,17.479677200317383,-43.08436965942383,-5.593564033508301,-0.9160867929458618,1.9040579795837402,-2.565504312515259,3
614,12.099312782287598,-51.43583297729492,-1.5633206367492676,-0.29718366265296936,2.1576015949249268,-2.5745489597320557,3
615,-16.354297637939453,-45.85997009277344,1.1606720685958862,0.14515814185142517,2.118180513381958,-2.6269218921661377,3
616,-44.42911148071289,-32.8558235168457,0.6669130325317383,0.4392029941082001,1.9072604179382324,-2.6612226963043213,3
617,-61.00279235839844,-19.376867294311523,1.0427765846252441,0.9322389960289001,0.9945622682571411,-2.629544973373413,3
618,-63.41069412231445,-16.056196212768555,0.06552691757678986,0.883795976638794,0.6132135391235352,-2.6781790256500244,3
619,-50.41330337524414,-11.514666557312012,-2.4674878120422363,0.8976678252220154,0.26673927903175354,-2.7229552268981934,3
620,-31.016321182250977,0.9459826350212097,-2.3034443855285645,1.097396969795227,-0.351833313703537,-2.712080240249634,3
621,-7.302929878234863,14.423148155212402,-2.7366902828216553,0.9775084257125854,-0.3884335160255432,-2.7605907917022705,3
622,7.501133441925049,32.57984924316406,-1.9601824283599854,0.7609617710113525,-0.5385525226593018,-2.782238245010376,3
623,10.551496505737305,46.99995040893555,-3.5705814361572266,0.3336840867996216,-0.1920466423034668,-2.8416311740875244,3
624,6.33234977722168,57.96255111694336,-5.012223720550537,-0.2313210666179657,0.21101440489292145,-2.9218251705169678,3
625,-4.095966815948486,56.41382598876953,-4.422510147094727,-0.6796290278434753,0.3219083845615387,-2.9626047611236572,3
626,-15.59395980834961,31.68086051940918,2.3409879207611084,-1.2980961799621582,0.032251156866550446,-2.978679656982422,3
627,-32.169029235839844,-12.184778213500977,9.168891906738281,-1.4359246492385864,-0.1643342524766922,-2.92915415763855,3
628,-43.51726531982422,-63.7087516784668,14.934696197509766,-0.899007260799408,-0.2358568012714386,-2.8171143531799316,3
629,-57.247215270996094,-94.25374603271484,20.618606567382812,0.15651649236679077,-0.9820067882537842,-2.5939948558807373,3
630,-73.74685668945312,-109.884033203125,24.28911590576172,0.8824380040168762,-1.454219102859497,-2.385761260986328,3
631,-59.21955108642578,-113.43730926513672,24.65470314025879,2.4888622760772705,-2.4795024394989014,-2.0401949882507324,3
632,-28.12889862060547,-87.24928283691406,24.06890296936035,3.617292642593384,-3.094691038131714,-1.7276452779769897,3
633,-2.5955686569213867,-29.518766403198242,21.729917526245117,4.449500560760498,-3.4256319999694824,-1.4351496696472168,3
634,39.571800231933594,42.481163024902344,17.069726943969727,3.999472141265869,-2.8890929222106934,-1.3053480386734009,3
635,45.650569915771484,83.84545135498047,9.803645133972168,3.040816068649292,-2.422976493835449,-1.1541473865509033,3
636,23.839712142944336,95.64800262451172,5.386876583099365,1.9935963153839111,-1.9064384698867798,-1.1235861778259277,3
637,-27.607973098754883,82.05880737304688,2.3720130920410156,0.841049313545227,-1.8442577123641968,-1.0616071224212646,3
638,-69.3809814453125,47.72216796875,-2.5966649055480957,0.3902808427810669,-2.3728342056274414,-1.1007460355758667,3
639,-78.874267578125,-2.0348360538482666,-1.7462058067321777,0.21646127104759216,-3.0844476222991943,-1.182185411453247,3
640,-66.16867065429688,-49.295711517333984,3.5165703296661377,0.6232842803001404,-4.125788688659668,-1.123602271080017,3
641,-40.894500732421875,-71.82477569580078,4.878357887268066,1.3466130495071411,-4.636465549468994,-1.1133395433425903,3
642,-5.692817687988281,-74.91954040527344,10.164555549621582,2.3607590198516846,-4.92469596862793,-1.0689256191253662,3
643,6.659929275512695,-51.163848876953125,19.19901466369629,2.9336657524108887,-4.899333477020264,-0.864952802658081,3
644,15.896092414855957,-5.050121784210205,27.366226196289062,3.205617904663086,-4.67012882232666,-0.6168395280838013,3
645,-9.476664543151855,47.93012237548828,24.075965881347656,2.928483247756958,-4.643116474151611,-0.2876022160053253,3
646,-21.85879898071289,100.65925598144531,17.21126937866211,1.918886661529541,-4.9261393547058105,0.07539678364992142,3
647,-28.07166290283203,135.67079162597656,11.903100967407227,0.661809504032135,-5.280079364776611,0.21806630492210388,3
648,-11.930204391479492,149.38548278808594,6.924988746643066,-0.7306375503540039,-5.352412223815918,0.1194550022482872,3
649,0.4277842342853546,140.20384216308594,7.66342306137085,-2.691462993621826,-5.555515289306641,0.355405330657959,3
650,14.393247604370117,110.58677673339844,8.476512908935547,-3.601309299468994,-5.367458820343018,0.056332360953092575,3
651,32.262081146240234,54.075531005859375,13.143173217773438,-4.60682487487793,-5.041624069213867,0.13903094828128815,3
652,44.848052978515625,-13.699872016906738,13.021146774291992,-4.358626365661621,-4.818500518798828,-0.024507703259587288,3
653,53.197601318359375,-74.67185974121094,12.814777374267578,-3.5732522010803223,-4.032192707061768,-0.11693703383207321,3
654,38.84756851196289,-104.8740463256836,11.57204532623291,-2.6406545639038086,-3.4081430435180664,0.030481381341814995,3
655,11.283306121826172,-115.03946685791016,10.42660140991211,-1.330333948135376,-3.3065619468688965,0.074130579829216,3
656,-14.891311645507812,-97.04591369628906,8.046046257019043,-0.6901050806045532,-3.4768333435058594,0.5184487104415894,3
657,-30.135759353637695,-74.24064636230469,3.7089457511901855,0.48591047525405884,-3.854862928390503,0.4432484209537506,3
658,-32.20206832885742,-45.081390380859375,1.8002805709838867,0.7586451768875122,-4.250804901123047,0.7434313297271729,3
659,-13.232405662536621,1.497377872467041,-6.3711161613464355,0.9442036151885986,-4.29832124710083,0.7995350360870361,3
660,0.7723619341850281,32.95625305175781,-11.820738792419434,0.6306676268577576,-4.438406944274902,0.8124677538871765,3
661,9.741876602172852,45.525352478027344,-14.059207916259766,0.15859565138816833,-4.444694995880127,0.717552900314331,3
662,28.79275131225586,44.612674713134766,-15.339437484741211,-0.45079463720321655,-4.1655120849609375,0.6305580735206604,3
663,46.30232620239258,29.459623336791992,-16.489782333374023,-0.6665841937065125,-3.8148581981658936,0.3464803993701935,3
664,59.79962158203125,3.7231507301330566,-11.62629222869873,-0.8382302522659302,-3.199758291244507,0.20086979866027832,3
665,66.75269317626953,-15.766532897949219,-7.709092617034912,-1.0475999116897583,-2.728379249572754,0.2619791626930237,3
666,70.57676696777344,-38.87483596801758,-7.886720180511475,-0.5552971363067627,-1.9125218391418457,0.05907861888408661,3
667,60.202091217041016,-54.18742370605469,-4.884872913360596,-0.061666034162044525,-1.290534257888794,-0.01733126863837242,3
668,56.415382385253906,-53.72026443481445,-7.508260726928711,0.7419654130935669,-0.6547670960426331,-0.20713521540164948,3
669,45.27840805053711,-35.638397216796875,-11.294953346252441,1.182252287864685,-0.1103532686829567,-0.27740100026130676,3
670,27.029253005981445,-9.005404472351074,-16.325435638427734,1.0986156463623047,-0.2288512885570526,-0.26004067063331604,3
671,20.601898193359375,1.6792467832565308,-20.366416931152344,1.209967017173767,0.020698484033346176,-0.4681955575942993,3
672,18.22600555419922,11.8739652633667,-23.728612899780273,1.1200649738311768,0.288166344165802,-0.6822572350502014,3
673,16.239046096801758,29.934711456298828,-27.46426773071289,0.8902939558029175,0.49132040143013,-0.9299920201301575,3
674,19.983108520507812,35.413536071777344,-27.331300735473633,0.25753921270370483,0.6213306784629822,-1.1151301860809326,3
675,17.94576644897461,29.096649169921875,-25.161226272583008,-0.14038386940956116,0.6656503081321716,-1.38080894947052,3
676,10.559139251708984,22.934524536132812,-22.615488052368164,-0.29947230219841003,0.7003340721130371,-1.6313540935516357,3
677,7.6630859375,20.99951934814453,-20.608678817749023,-0.5655218958854675,0.8693578243255615,-1.8497627973556519,3
678,7.65239953994751,20.09741973876953,-18.67548370361328,-0.8036954402923584,1.0005427598953247,-2.047440767288208,3
679,9.317657470703125,11.732337951660156,-16.897186279296875,-0.8849730491638184,1.1434168815612793,-2.232118844985962,3
680,12.01335620880127,9.163185119628906,-16.080997467041016,-0.9410567879676819,1.2375246286392212,-2.397714614868164,3
681,14.853252410888672,6.847503662109375,-16.166650772094727,-1.1380127668380737,1.071678876876831,-2.550258159637451,3
682,24.20261573791504,1.7330280542373657,-17.039756774902344,-1.09073805809021,1.3861922025680542,-2.7128818035125732,3
683,38.893218994140625,-7.880280494689941,-19.386762619018555,-1.110844612121582,1.7360299825668335,-2.8937325477600098,3
684,39.74542999267578,-23.386337280273438,-19.414066314697266,-0.9306076765060425,2.18819260597229,-3.0912983417510986,3
685,40.14673614501953,-34.75634002685547,-19.7796573638916,-0.6553159356117249,2.392768144607544,-3.3035683631896973,3
686,42.71700668334961,-32.47837829589844,-21.478315353393555,-0.10106904804706573,2.8393518924713135,-3.4900715351104736,3
687,47.953880310058594,-13.081402778625488,-20.940095901489258,0.14098823070526123,3.308096408843994,-3.717690944671631,3
688,41.478233337402344,10.578102111816406,-18.45699119567871,0.32304179668426514,4.087438106536865,-3.8795080184936523,3
689,27.045257568359375,16.49278450012207,-14.636619567871094,-0.1579960137605667,4.162060260772705,-4.141668796539307,3
690,4.765605449676514,9.947927474975586,-9.545358657836914,-0.4546548128128052,4.322020053863525,-4.3068976402282715,3
691,-18.188791275024414,-2.0833168029785156,-4.011973857879639,-0.44278183579444885,4.195791721343994,-4.344797611236572,3
692,-31.26936912536621,-25.469003677368164,-1.8852903842926025,-0.32125040888786316,3.9506115913391113,-4.372694969177246,3
693,-36.99625778198242,-45.20866775512695,-2.1375203132629395,0.19840800762176514,3.512139320373535,-4.329690933227539,3
694,-36.26261901855469,-54.763816833496094,-0.30645814538002014,0.8206497430801392,3.16491436958313,-4.309094429016113,3
695,-26.73760223388672,-53.605186462402344,1.1250388622283936,1.3248833417892456,2.8329989910125732,-4.360110282897949,3
696,-13.387908935546875,-35.90917205810547,3.7008938789367676,1.7660043239593506,2.8438403606414795,-4.380616664886475,3
697,-0.83265620470047,-9.57774543762207,6.422277450561523,2.131061315536499,2.810411214828491,-4.2777533531188965,3
698,11.576398849487305,15.164527893066406,7.654374599456787,1.6500388383865356,2.9215025901794434,-4.475522518157959,3
699,15.99941635131836,27.926359176635742,8.9928560256958,1.3844904899597168,3.0844979286193848,-4.3991570472717285,3
700,17.765323638916016,25.69249153137207,8.818156242370605,0.9781375527381897,3.306009531021118,-4.381311416625977,3
701,14.752424240112305,19.184268951416016,9.095779418945312,0.7901288270950317,3.437007427215576,-4.247364521026611,3
702,11.309066772460938,2.032707691192627,9.168914794921875,0.7973146438598633,3.5884718894958496,-4.082293510437012,3
703,4.398653984069824,-16.03692626953125,9.184356689453125,0.8754472732543945,3.7249348163604736,-3.99837327003479,3
704,-4.28420877456665,-24.191938400268555,9.772228240966797,1.1307377815246582,3.875753402709961,-3.914785146713257,3
705,-19.157461166381836,-16.03850555419922,10.81615161895752,1.5530933141708374,3.6729724407196045,-3.6893935203552246,3
706,-27.357507705688477,-2.3211092948913574,10.995537757873535,1.7564475536346436,3.3679850101470947,-3.5208513736724854,3
707,-30.809955596923828,12.319931983947754,12.665867805480957,1.764075517654419,2.999818801879883,-3.355123996734619,3
708,-24.88325309753418,12.424001693725586,16.368772506713867,1.3089581727981567,2.717191696166992,-3.414937973022461,3
709,-24.03168487548828,8.59462833404541,19.888080596923828,1.1717641353607178,3.042212724685669,-3.3605897426605225,3
710,-31.997377395629883,-2.306478500366211,21.73883628845215,1.1394753456115723,2.661043167114258,-3.128955125808716,3
711,-38.53011703491211,-8.264627456665039,24.46422576904297,1.3492977619171143,2.1873698234558105,-2.795271873474121,3
712,-40.767696380615234,-12.464519500732422,30.653818130493164,1.303243637084961,1.6579790115356445,-2.5959906578063965,3
713,-43.20075225830078,-21.078012466430664,36.173580169677734,1.6813079118728638,1.256120204925537,-2.143589973449707,3
714,-45.737361907958984,-31.237764358520508,36.29370880126953,1.9680397510528564,0.7879346609115601,-1.7703068256378174,3
715,-40.335723876953125,-41.638545989990234,38.07766342163086,2.5058798789978027,0.1813810020685196,-1.2723262310028076,3
716,-39.58437728881836,-40.268550872802734,39.869449615478516,2.7532827854156494,0.08539934456348419,-1.0535187721252441,3
717,-56.40584945678711,-19.92276954650879,41.222328186035156,3.2242610454559326,-0.49997034668922424,-0.5465244054794312,3
718,-75.25487518310547,8.445396423339844,39.15869903564453,3.07300066947937,-1.2635594606399536,-0.2035805881023407,3
719,-81.96681213378906,36.40393829345703,37.003787994384766,2.7741165161132812,-2.3510520458221436,0.2362881451845169,3
720,-67.82377624511719,54.263153076171875,31.451505661010742,2.1386146545410156,-3.0239927768707275,0.47606515884399414,3
721,-34.42873764038086,75.04334259033203,22.730764389038086,1.328761100769043,-3.1409661769866943,0.5277417898178101,3
722,7.438162326812744,83.64671325683594,14.774056434631348,0.43623510003089905,-3.3884994983673096,0.6842044591903687,3
723,41.991085052490234,78.74411010742188,9.028726577758789,-0.36701905727386475,-3.09004282951355,0.7365063428878784,3
724,65.68683624267578,57.119354248046875,5.315609455108643,-1.1524159908294678,-2.4114229679107666,0.728936493396759,3
725,76.77167510986328,31.840778350830078,1.593071699142456,-1.51435124874115,-1.56339693069458,0.7248660326004028,3
726,65.1034164428711,11.702831268310547,2.520660638809204,-1.7894713878631592,-0.8240572214126587,0.7392743825912476,3
727,36.77181625366211,-4.727846622467041,3.560668468475342,-1.421424388885498,-0.6056464314460754,0.7705038785934448,3
728,-3.2991631031036377,-9.317773818969727,2.1349499225616455,-1.2980597019195557,-0.5333331227302551,0.8072417378425598,3
729,-44.774742126464844,-9.120746612548828,-2.5702316761016846,-1.2235666513442993,-1.0200624465942383,0.8227611184120178,3
730,-72.10099792480469,-0.06472773104906082,-8.081239700317383,-1.328106164932251,-1.6510205268859863,0.780275285243988,3
731,-80.99214935302734,7.915370464324951,-11.389632225036621,-1.3153513669967651,-2.7233564853668213,0.6713836789131165,3
732,-76.81145477294922,11.015618324279785,-12.072010040283203,-1.3987923860549927,-3.1404573917388916,0.5501309633255005,3
733,-59.15568542480469,4.791929244995117,-12.6295804977417,-1.4454010725021362,-3.9893381595611572,0.40837836265563965,3
734,-22.820375442504883,-2.3780317306518555,-13.842865943908691,-1.4830607175827026,-4.600583553314209,0.2693973779678345,3
735,25.001895904541016,-11.34041690826416,-13.593098640441895,-1.310280442237854,-4.6497979164123535,0.10578493773937225,3
736,76.86164855957031,-25.370546340942383,-13.504927635192871,-0.9925016760826111,-3.7663638591766357,-0.014544710516929626,3
737,115.9534683227539,-35.17327117919922,-13.738936424255371,-0.6333377361297607,-2.181734800338745,-0.06795484572649002,3
738,139.2794647216797,-55.798622131347656,-13.574202537536621,0.014299338683485985,-0.7780897617340088,-0.2599043846130371,3
739,146.20477294921875,-65.2105941772461,-12.99825668334961,0.5207335948944092,1.023635983467102,-0.2960607707500458,3
740,133.32261657714844,-57.101802825927734,-11.088973999023438,1.159880518913269,2.0923397541046143,-0.486331582069397,3
741,97.0335464477539,-45.08761978149414,-9.844633102416992,1.5433510541915894,2.960127115249634,-0.598936915397644,3
742,29.358978271484375,-13.12675666809082,-10.863737106323242,1.926852822303772,3.6416773796081543,-0.7474402785301208,3
743,-47.482425689697266,25.130264282226562,-8.725353240966797,1.828696370124817,3.486159324645996,-0.8405897617340088,3
744,-115.58477020263672,56.73748779296875,-5.366199970245361,1.1425188779830933,2.1194610595703125,-0.8541426658630371,3
745,-155.34803771972656,73.70597839355469,-1.841252326965332,0.4828963279724121,0.6588201522827148,-0.8716349005699158,3
746,-153.2476348876953,74.50177764892578,-0.4920448362827301,-0.4630075693130493,-1.196328043937683,-0.8759610056877136,3
747,-140.96495056152344,68.13225555419922,1.9343860149383545,-1.0653291940689087,-2.4495630264282227,-0.8957838416099548,3
748,-110.2708511352539,47.84160232543945,4.424509048461914,-1.668951392173767,-3.9862594604492188,-0.8991761207580566,3
749,-65.04379272460938,19.63155746459961,9.325639724731445,-2.0603840351104736,-4.721987247467041,-0.8487968444824219,3
750,-11.610136985778809,-13.908649444580078,14.474652290344238,-1.887747883796692,-5.050792694091797,-0.7457442879676819,3
751,45.59681701660156,-48.41990661621094,16.91547966003418,-1.3636798858642578,-4.406871318817139,-0.5468461513519287,3
752,95.4151382446289,-75.1206283569336,20.814119338989258,-0.6164251565933228,-3.346924304962158,-0.31062737107276917,3
753,121.54379272460938,-86.735107421875,20.576004028320312,0.6709693670272827,-2.0362160205841064,-0.1692899763584137,3
754,124.26214599609375,-75.09207153320312,21.1667423248291,1.1698931455612183,-0.809188961982727,0.1609451174736023,3
755,117.72006225585938,-52.577415466308594,19.386760711669922,1.914101481437683,0.4417717158794403,0.32677173614501953,3
756,91.87509155273438,-24.259872436523438,19.11431312561035,2.2291526794433594,1.207533836364746,0.5188584327697754,3
757,46.69284439086914,3.131380558013916,16.170909881591797,2.3172497749328613,2.0416476726531982,0.7012296915054321,3
758,-25.77889633178711,32.968624114990234,8.666001319885254,1.9823763370513916,2.1800949573516846,0.8679831624031067,3
759,-86.23225402832031,58.442813873291016,0.5876397490501404,1.3311809301376343,1.2061277627944946,0.9600184559822083,3
760,-121.37680053710938,80.71967315673828,-1.912981390953064,0.5830623507499695,-0.18685880303382874,0.9721153974533081,3
761,-124.4985122680664,91.057373046875,-1.9503363370895386,-0.3066057860851288,-1.0795549154281616,0.9231152534484863,3
762,-98.17108917236328,80.59025573730469,-0.34469306468963623,-1.4331367015838623,-2.6092379093170166,0.9200073480606079,3
763,-64.31499481201172,62.42808151245117,1.5916879177093506,-2.045797824859619,-2.895596742630005,0.8746666312217712,3
764,-20.5450382232666,37.12012481689453,-1.033869981765747,-2.5667407512664795,-3.2564468383789062,0.8629515171051025,3
765,20.682992935180664,20.362445831298828,-7.156936168670654,-2.6242527961730957,-2.9118592739105225,0.7927992939949036,3
766,61.105865478515625,-6.7573113441467285,-10.478087425231934,-2.6728999614715576,-2.2618911266326904,0.7207505106925964,3
767,97.7468032836914,-32.24588394165039,-10.431097984313965,-2.2386693954467773,-1.3052927255630493,0.591603696346283,3
768,108.7563705444336,-42.69632339477539,-7.640882968902588,-1.686800479888916,-0.32122743129730225,0.46190524101257324,3
769,99.81547546386719,-49.66935729980469,-6.076465129852295,-1.229994535446167,0.5679405927658081,0.37743812799453735,3
770,73.41700744628906,-48.81133270263672,-2.42811918258667,-0.5390324592590332,1.6806763410568237,0.33399417996406555,3
771,23.26656723022461,-40.88809585571289,1.5522931814193726,-0.1642400324344635,1.8899201154708862,0.28644809126853943,3
772,-28.906076431274414,-36.509117126464844,1.7375526428222656,0.3414483964443207,1.9002500772476196,0.2871202230453491,3
773,-82.03813171386719,-31.02834129333496,2.49692440032959,0.36373937129974365,0.7169355154037476,0.23023948073387146,3
774,-113.75737762451172,-25.14210319519043,7.06040096282959,0.5834085941314697,-0.6341720223426819,0.2263638824224472,3
775,-135.46697998046875,-2.4684650897979736,13.845367431640625,0.8217493891716003,-2.1852736473083496,0.29941123723983765,3
776,-133.56199645996094,14.542064666748047,16.94804573059082,0.7425471544265747,-3.254091739654541,0.48717495799064636,3
777,-110.2580337524414,24.281721115112305,19.842317581176758,0.4716406464576721,-4.544288158416748,0.6530331969261169,3
778,-76.8864974975586,39.88051986694336,22.30619239807129,0.03729971498250961,-5.612365245819092,0.828654408454895,3
779,-45.24120330810547,62.660301208496094,24.198028564453125,-0.7626825571060181,-5.863200664520264,1.0695528984069824,3
780,2.3101491928100586,72.19987487792969,18.018667221069336,-1.4735863208770752,-6.086978912353516,1.2064642906188965,3
781,61.17580032348633,81.04265594482422,8.710493087768555,-1.9366827011108398,-5.5107951164245605,1.2041658163070679,3
782,107.5121841430664,78.73304748535156,-0.031686484813690186,-3.034639358520508,-4.233099460601807,1.3047922849655151,3
783,145.61248779296875,63.51393508911133,-5.034919738769531,-3.7625784873962402,-3.0011215209960938,1.2366900444030762,3
784,166.46469116210938,48.553321838378906,-7.029171943664551,-4.313349723815918,-1.026975393295288,1.2128382921218872,3
785,143.0654296875,12.771544456481934,-6.969930171966553,-4.678149700164795,0.27051833271980286,1.106381893157959,3
786,92.46733093261719,-36.15555953979492,-3.635576009750366,-4.408138275146484,1.8742561340332031,1.124531865119934,3
787,31.34590721130371,-67.19574737548828,2.7162771224975586,-3.71372389793396,1.7623249292373657,0.8095880746841431,3
788,-34.76010513305664,-79.18260192871094,12.424057960510254,-2.5015130043029785,1.6454538106918335,0.717903733253479,3
789,-80.95011138916016,-64.42278289794922,16.026840209960938,-2.032957077026367,0.7239553928375244,0.8023021221160889,3
790,-93.20482635498047,-40.150413513183594,15.648362159729004,-1.3684797286987305,-0.49366527795791626,0.8041766285896301,3
791,-79.46668243408203,-15.687217712402344,15.107096672058105,-1.2570184469223022,-1.4231959581375122,0.9661470651626587,3
792,-46.90937805175781,6.818212985992432,13.700855255126953,-1.4252567291259766,-1.782719612121582,1.2337408065795898,3
793,1.1280795335769653,22.068435668945312,13.580642700195312,-1.7265828847885132,-1.994715690612793,1.3821288347244263,3
794,56.176143646240234,30.86240577697754,12.825751304626465,-2.071521282196045,-1.5303179025650024,1.5574266910552979,3
795,87.0709457397461,34.62858200073242,11.528985023498535,-2.4589693546295166,-0.5415489077568054,1.7625995874404907,3
796,90.23627471923828,24.753372192382812,9.366351127624512,-2.8571927547454834,0.7829537987709045,2.039071798324585,3
797,71.26100158691406,14.73240852355957,7.43673849105835,-3.0087549686431885,1.2621713876724243,1.9891624450683594,3
798,34.66170120239258,-5.462131977081299,6.388916015625,-3.018500804901123,1.8187482357025146,2.0703024864196777,3
799,-0.9856696128845215,-19.28129005432129,8.144794464111328,-2.633049488067627,1.5904285907745361,1.967394232749939,3
800,-26.098491668701172,-16.601133346557617,6.74022912979126,-2.4146571159362793,1.1350489854812622,1.9153181314468384,3
801,-30.70197296142578,-18.261693954467773,9.4016752243042,-2.203986644744873,0.6855419874191284,1.9519623517990112,3
802,-17.628467559814453,-35.665470123291016,13.53641128540039,-1.8261758089065552,0.5201113820075989,2.1009252071380615,3
803,1.811172366142273,-51.171226501464844,16.265724182128906,-1.7481153011322021,0.3865063786506653,2.1997292041778564,3
804,11.172014236450195,-47.378116607666016,16.028833389282227,-0.9312835335731506,0.5893246531486511,2.433525562286377,3
805,11.098860740661621,-36.65595245361328,16.034719467163086,-1.2725239992141724,0.6219709515571594,2.4164867401123047,3
806,4.256318092346191,-16.80824851989746,14.773346900939941,-0.4862390160560608,0.5722477436065674,2.5472869873046875,3
807,7.856299877166748,-7.354916095733643,14.606855392456055,-0.5012632608413696,0.6824114322662354,2.687653064727783,3
808,13.786192893981934,-1.4499887228012085,10.487850189208984,-0.3757173418998718,0.825419545173645,2.8602395057678223,3
809,22.001014709472656,-0.10443838685750961,4.993490695953369,-0.3491044342517853,1.1422613859176636,3.034606695175171,3
810,30.413719177246094,0.025176821276545525,3.2182624340057373,-0.18835492432117462,0.8889065980911255,3.0185508728027344,3
811,34.00847625732422,0.49447447061538696,1.6143897771835327,-0.27639782428741455,1.1207672357559204,3.029383659362793,3
812,39.68967819213867,-8.778010368347168,0.563423752784729,-0.2832571268081665,1.2895861864089966,3.021233081817627,3
813,40.45744323730469,-14.793745994567871,-0.6980628967285156,-0.09273602068424225,1.894043207168579,3.095379114151001,3
814,44.66878890991211,-17.907960891723633,0.6336915493011475,-0.013883507810533047,2.2194418907165527,3.0654473304748535,3
815,46.2401008605957,-13.344049453735352,5.600869178771973,0.3609628975391388,2.8437278270721436,3.125096559524536,3
816,41.523284912109375,-2.2939131259918213,9.167705535888672,0.4158567786216736,2.936089038848877,3.0914466381073,3
817,19.534191131591797,13.05979061126709,14.026803016662598,0.5138385891914368,3.6496596336364746,3.198204517364502,3
818,-8.857338905334473,38.88758850097656,15.57713794708252,0.26267343759536743,3.749408721923828,3.2622997760772705,3
819,-23.26576805114746,54.60001754760742,15.387030601501465,-0.1480480134487152,3.368472099304199,3.3865456581115723,3
820,-34.28111267089844,49.69485855102539,17.581844329833984,-0.7109583020210266,3.1812658309936523,3.5464746952056885,3
821,-35.80003356933594,34.757205963134766,19.272354125976562,-1.1484086513519287,2.752717971801758,3.7660319805145264,3
822,-31.184938430786133,13.167718887329102,18.453935623168945,-1.6062941551208496,2.4146108627319336,3.9515860080718994,3
823,-19.04947280883789,-14.13170051574707,17.490568161010742,-1.7593103647232056,2.0692532062530518,4.167418956756592,3
824,-6.359397888183594,-42.47266387939453,13.662897109985352,-1.597634196281433,1.8568798303604126,4.391531944274902,3
825,-0.7892748713493347,-71.46456146240234,11.611554145812988,-1.1382230520248413,1.8124382495880127,4.599410057067871,3
826,7.935114860534668,-80.32722473144531,15.675313949584961,-0.21250402927398682,1.8971505165100098,4.838592529296875,3
827,23.336462020874023,-65.74085235595703,16.228296279907227,0.14937159419059753,2.0905182361602783,4.763988018035889,3
828,32.39279556274414,-46.167171478271484,8.137701034545898,1.3667927980422974,2.37542724609375,5.1259684562683105,3
829,43.082950592041016,-23.795215606689453,-1.9411919116973877,1.4364960193634033,2.3723721504211426,5.019077777862549,3
830,45.82358169555664,-3.755949020385742,-6.19254207611084,1.7976772785186768,3.0667483806610107,5.0197367668151855,3
831,49.31615447998047,3.146658182144165,-9.803659439086914,1.840129017829895,3.307264804840088,4.955170631408691,3
832,46.18178176879883,19.88551902770996,-12.767633438110352,1.9165256023406982,3.7894365787506104,4.91285514831543,3
833,33.81768035888672,35.15903854370117,-16.486255645751953,1.5589535236358643,4.510557651519775,4.661607265472412,3
834,18.482715606689453,42.32294464111328,-15.839188575744629,1.1390149593353271,4.376376152038574,4.581282138824463,3
835,-3.076709508895874,40.33846664428711,-15.353262901306152,0.663587749004364,4.769081115722656,4.390519142150879,3
836,-22.799030303955078,24.248079299926758,-8.797337532043457,0.30988451838493347,4.647461891174316,4.342891693115234,3
837,-41.08778381347656,2.534806728363037,-4.682390213012695,0.04088899493217468,4.354629993438721,4.306027889251709,3
838,-48.40329360961914,-25.504405975341797,-1.8398890495300293,0.14305207133293152,4.006328582763672,4.380281925201416,3
839,-45.382266998291016,-46.347618103027344,-2.0484001636505127,0.5941404104232788,3.4870975017547607,4.5261030197143555,3
840,-37.158878326416016,-50.69093704223633,-3.5631167888641357,0.9673637747764587,3.159238815307617,4.437955379486084,3
841,-29.78293228149414,-41.6577033996582,-2.824420690536499,1.0645747184753418,2.823838233947754,4.1352996826171875,3
842,-30.6539306640625,-19.088539123535156,-3.6928462982177734,1.6885374784469604,2.4826767444610596,4.183588981628418,3
843,-27.034109115600586,17.218603134155273,-10.425535202026367,1.8122059106826782,2.2243685722351074,4.0459818840026855,3
844,-11.70361042022705,44.54230499267578,-16.802892684936523,1.7798486948013306,1.870084524154663,3.9978384971618652,3
845,19.161874771118164,49.4865608215332,-20.56094741821289,1.3138900995254517,1.7220594882965088,3.803046226501465,3
846,40.379764556884766,35.21350860595703,-22.23345375061035,0.803462028503418,2.040127754211426,3.542193651199341,3
847,43.94051742553711,26.544443130493164,-20.06097412109375,0.4644618630409241,2.4761500358581543,3.35396146774292,3
848,27.63967514038086,9.930708885192871,-19.404550552368164,0.1436443030834198,3.2032904624938965,3.073397636413574,3
849,10.044239044189453,-14.086394309997559,-18.72872543334961,0.08909212797880173,3.1282618045806885,3.0442774295806885,3
850,-5.142600059509277,-30.379257202148438,-18.793943405151367,0.2560521066188812,3.328465223312378,2.903473377227783,3
851,-12.649068832397461,-33.0860595703125,-20.770565032958984,0.6221781969070435,3.2676753997802734,2.7673442363739014,3
852,-7.415940284729004,-22.96856117248535,-23.261028289794922,1.043277621269226,3.0838446617126465,2.6160905361175537,3
853,-13.221892356872559,4.363340854644775,-26.42091941833496,0.9647455811500549,3.2646448612213135,2.154752492904663,3
854,-19.123132705688477,33.78449249267578,-30.576814651489258,0.8662438988685608,3.0312564373016357,1.8660632371902466,3
855,-28.00313949584961,46.669071197509766,-33.99842071533203,0.4622046947479248,2.705861806869507,1.5559563636779785,3
856,-41.18778991699219,39.710899353027344,-37.68121337890625,-0.002859801286831498,2.572760581970215,1.2218849658966064,3
857,-50.32362365722656,16.849109649658203,-40.45464324951172,-0.38562583923339844,2.036665439605713,0.9436871409416199,3
858,-41.1682014465332,-10.208816528320312,-37.85243225097656,-0.5656794905662537,1.902822494506836,0.5329004526138306,3
859,-22.453081130981445,-30.014867782592773,-33.29619216918945,-0.32242199778556824,1.220537543296814,0.2749716639518738,3
860,-5.915513038635254,-34.332645416259766,-30.573917388916016,-0.19593338668346405,1.0966697931289673,-0.147981658577919,3
861,1.4638344049453735,-28.311193466186523,-25.708620071411133,0.43934452533721924,1.002434253692627,-0.3705553412437439,3
862,-3.904815912246704,-20.545604705810547,-21.007869720458984,0.41032111644744873,1.069405436515808,-0.761558473110199,3
863,-10.49494743347168,-9.49215030670166,-16.395231246948242,0.5876151919364929,0.98456871509552,-0.9970977306365967,3
864,-18.663898468017578,0.9246315956115723,-9.457112312316895,0.8307202458381653,0.8426401615142822,-1.164361834526062,3
865,-30.930511474609375,-1.002705693244934,-4.835083961486816,0.9723795056343079,0.6533654928207397,-1.2541075944900513,3
866,-31.474140167236328,-6.874021530151367,-5.873692512512207,0.9485136270523071,0.30263349413871765,-1.3071484565734863,3
867,-27.197359085083008,-9.822275161743164,-6.342306613922119,1.0188770294189453,-0.09266714006662369,-1.3409788608551025,3
868,-16.995738983154297,-7.49833345413208,-6.15197229385376,0.8262267112731934,-0.2560693025588989,-1.4656486511230469,3
869,-5.439572811126709,11.059361457824707,-5.2873029708862305,0.9974862933158875,-0.27550259232521057,-1.5519869327545166,3
870,12.340030670166016,33.201751708984375,-8.111990928649902,0.898997962474823,-0.42184481024742126,-1.5998343229293823,3
871,28.728727340698242,49.573280334472656,-14.882895469665527,0.5757839679718018,-0.4183443784713745,-1.6650872230529785,3
872,35.69951629638672,54.91267013549805,-22.063993453979492,0.07172545045614243,-0.1494443416595459,-1.795774221420288,3
873,42.06851577758789,44.327117919921875,-28.988893508911133,-0.6911469101905823,0.34539318084716797,-2.0055134296417236,3
874,39.33380889892578,27.904787063598633,-35.69447326660156,-1.0682867765426636,0.6918240189552307,-2.2686636447906494,3
875,28.206743240356445,6.493370532989502,-40.20956802368164,-1.3453413248062134,1.1673789024353027,-2.609549045562744,3
876,5.18383264541626,-13.481247901916504,-41.85032272338867,-1.3722437620162964,1.6017608642578125,-3.0080835819244385,3
877,-13.507176399230957,-30.44927406311035,-45.22230529785156,-1.2947958707809448,1.4217193126678467,-3.419217824935913,3
878,-27.839134216308594,-46.038143157958984,-46.41963195800781,-0.9139700531959534,1.477066993713379,-3.875973701477051,3
879,-40.12147903442383,-55.89745330810547,-47.43452453613281,-0.29479333758354187,0.9830343723297119,-4.352795600891113,3
880,-47.01432418823242,-59.27039337158203,-46.39057922363281,0.6507535576820374,0.8207731246948242,-4.841983318328857,3
881,-51.84467697143555,-50.25925064086914,-44.66167449951172,0.8672667741775513,0.025873607024550438,-5.295586109161377,3
882,-44.81850814819336,-29.863941192626953,-41.305023193359375,1.295969843864441,-0.37262824177742004,-5.741245269775391,3
883,-27.543710708618164,-10.53046703338623,-37.39369583129883,1.5088483095169067,-0.4625609815120697,-6.178642749786377,3
884,-0.20303551852703094,6.453050136566162,-32.938533782958984,1.8368051052093506,-0.927483081817627,-6.568190574645996,3
885,26.556257247924805,15.687284469604492,-30.4614200592041,1.8081966638565063,-0.9368933439254761,-6.92336368560791,3
886,45.134620666503906,19.08900260925293,-27.174997329711914,1.6831330060958862,-0.5589898824691772,-7.254116535186768,3
887,50.49020004272461,21.763994216918945,-24.043100357055664,1.3398871421813965,0.11392699927091599,-7.550365447998047,3
888,45.87018966674805,27.318218231201172,-21.730636596679688,1.2514971494674683,0.5773698091506958,-7.807714939117432,3
889,32.74908447265625,33.28800582885742,-20.246007919311523,0.9214286208152771,1.0603010654449463,-8.015177726745605,3
890,18.960073471069336,30.80865478515625,-17.714813232421875,0.588783323764801,1.5688000917434692,-8.234707832336426,3
891,2.5382332801818848,23.124662399291992,-15.406475067138672,0.2587736248970032,1.7683441638946533,-8.398614883422852,3
892,-18.064950942993164,17.21500587463379,-12.799638748168945,0.08651459962129593,1.7644593715667725,-8.552947998046875,3
893,-33.820396423339844,7.368760585784912,-9.06637191772461,-0.14073628187179565,1.4114031791687012,-8.652530670166016,3
894,-44.16299057006836,-3.988978862762451,-6.029094696044922,-0.24367208778858185,0.8752747178077698,-8.721240043640137,3
895,-35.11820602416992,-23.37577247619629,-2.4467978477478027,-0.04449884966015816,0.4988563358783722,-8.80481243133545,3
896,-16.118106842041016,-36.93034744262695,1.7979085445404053,0.27760693430900574,0.22740212082862854,-8.86764907836914,3
897,7.332036972045898,-43.679046630859375,4.992521286010742,0.8007645010948181,-0.07256416976451874,-8.875044822692871,3
898,27.596399307250977,-39.853519439697266,9.077115058898926,1.288301706314087,0.09998548030853271,-8.866707801818848,3
899,36.33502960205078,-26.016225814819336,12.65410327911377,1.7160236835479736,0.4568191468715668,-8.808037757873535,3
900,37.77980041503906,-7.686084747314453,17.898515701293945,1.865612268447876,0.9037773013114929,-8.687236785888672,3
901,29.455015182495117,14.983952522277832,22.911130905151367,1.9588242769241333,1.2872151136398315,-8.522600173950195,3
902,10.590331077575684,36.65744400024414,26.8795223236084,1.715347170829773,1.441266655921936,-8.260627746582031,3
903,-4.711506366729736,50.48536682128906,30.085290908813477,1.4275466203689575,1.536692500114441,-7.984035015106201,3
904,-13.420684814453125,55.523345947265625,34.89472961425781,0.6720770001411438,1.6102405786514282,-7.676466941833496,3
905,-17.66239356994629,53.6181526184082,39.76270294189453,0.16270498931407928,1.4429696798324585,-7.319303512573242,3
906,-11.362069129943848,49.525997161865234,43.65806198120117,-0.5540711283683777,1.2241088151931763,-6.902002334594727,3
907,-9.629097938537598,35.7114372253418,46.16796112060547,-1.0301568508148193,1.0896803140640259,-6.464667797088623,3
908,-10.56436824798584,13.814894676208496,49.73256301879883,-1.3581817150115967,0.9216594696044922,-5.996394157409668,3
909,-13.472227096557617,-4.133403778076172,55.54876708984375,-1.1908421516418457,1.0546389818191528,-5.538751602172852,3
910,-8.390523910522461,-20.565265655517578,59.67538070678711,-1.036733627319336,0.9023060202598572,-5.001831531524658,3
911,-5.694655418395996,-32.38734817504883,58.39647674560547,-0.8581015467643738,0.8890800476074219,-4.4172444343566895,3
912,-4.242865562438965,-37.40347671508789,54.29819869995117,-0.47921550273895264,0.7563517689704895,-3.8375978469848633,3
913,-2.5886518955230713,-34.689456939697266,49.920494079589844,-0.011036790907382965,0.583236813545227,-3.294729709625244,3
914,-4.521226406097412,-25.515647888183594,44.73971939086914,0.0036432419437915087,0.9067127704620361,-2.7694814205169678,3
915,-7.134006500244141,-11.496427536010742,39.89175033569336,0.28489449620246887,0.8593213558197021,-2.3146212100982666,3
916,-15.616192817687988,0.37172260880470276,36.48447036743164,0.31643885374069214,1.0581421852111816,-1.9034337997436523,3
917,-28.749408721923828,8.209956169128418,32.808101654052734,0.5065152049064636,0.6308060884475708,-1.5375211238861084,3
918,-40.83720779418945,16.90371322631836,29.81110382080078,0.44737911224365234,0.5685035586357117,-1.2017085552215576,3
919,-40.89850616455078,21.72808837890625,27.94460105895996,0.08555260300636292,0.12159521132707596,-0.8890915513038635,3
920,-40.19033432006836,26.625059127807617,25.249235153198242,-0.12396808713674545,-0.5665304660797119,-0.6074299812316895,3
921,-31.73658561706543,25.05445098876953,24.265748977661133,-0.49765661358833313,-0.9032348394393921,-0.34606310725212097,3
922,-34.026241302490234,17.899831771850586,21.717315673828125,-0.7635141611099243,-1.0340834856033325,-0.10291237384080887,3
923,-43.804752349853516,8.240060806274414,18.776960372924805,-0.8959855437278748,-1.0479382276535034,0.11631713062524796,3
924,-42.44919204711914,-4.867177486419678,16.079561233520508,-0.9366300702095032,-1.6187471151351929,0.29224035143852234,3
925,-32.50532913208008,-19.74146842956543,14.460965156555176,-0.7791714668273926,-1.9354206323623657,0.4409172236919403,3
926,-11.248497009277344,-25.70035171508789,12.55278491973877,-0.5466927886009216,-2.3238236904144287,0.573050320148468,3
927,9.739501953125,-26.89954948425293,11.772582054138184,-0.25645118951797485,-2.277583360671997,0.7376627922058105,3
928,12.716788291931152,-26.353914260864258,10.414040565490723,0.11933685839176178,-2.295931577682495,0.8341628909111023,3
929,-8.61558723449707,-22.55160140991211,9.70443344116211,0.45334261655807495,-2.108154535293579,0.9322015643119812,3
930,-35.16411209106445,-11.87264633178711,10.451993942260742,0.7227665781974792,-2.2499990463256836,1.0190125703811646,3
931,-55.581512451171875,13.3907470703125,4.656595230102539,0.5571839213371277,-2.3520476818084717,1.2472771406173706,3
932,-62.41333770751953,42.21610641479492,-3.3867781162261963,0.3987914025783539,-2.6636674404144287,1.351009488105774,3
933,-57.3430061340332,57.42877960205078,-11.597057342529297,-0.21413321793079376,-3.5917229652404785,1.4082999229431152,3
934,-39.13111114501953,66.35123443603516,-18.40595817565918,-0.7666467428207397,-3.9978833198547363,1.2888163328170776,3
935,-12.584578514099121,72.0114517211914,-15.013982772827148,-1.4528385400772095,-4.4905595779418945,1.0898747444152832,3
936,13.803171157836914,56.71637725830078,-10.171598434448242,-2.2044425010681152,-4.715008735656738,0.9031311273574829,3
937,30.403871536254883,20.870155334472656,-5.7419328689575195,-2.9466264247894287,-4.637701034545898,0.8122718930244446,3
938,26.30162239074707,-28.34088706970215,-2.325857400894165,-2.6210806369781494,-4.131646633148193,0.38766199350357056,3
939,2.1849420070648193,-70.33494567871094,3.794830083847046,-2.058945894241333,-3.8453612327575684,0.1087484359741211,3
940,-26.254262924194336,-83.21961212158203,6.052280426025391,-1.3003140687942505,-3.9351556301116943,0.04818899184465408,3
941,-42.589324951171875,-69.71294403076172,8.273886680603027,-0.5699326992034912,-4.316065311431885,0.18123701214790344,3
942,-38.83018493652344,-48.008968353271484,12.505809783935547,0.10969904065132141,-4.800752639770508,0.3343086540699005,3
943,-17.123170852661133,-28.655153274536133,16.346765518188477,0.348384827375412,-5.1379923820495605,0.7047914266586304,3
944,23.80278205871582,-0.721287727355957,19.036483764648438,0.7393330931663513,-5.341332912445068,0.8331390619277954,3
945,63.842735290527344,32.81584930419922,17.318246841430664,0.5721880793571472,-5.121976852416992,1.2116749286651611,3
946,77.41085052490234,57.337528228759766,15.106159210205078,0.2609485387802124,-4.2296037673950195,1.442716121673584,3
947,76.91635131835938,81.4582748413086,13.433551788330078,-0.3212257921695709,-3.3919243812561035,1.617247223854065,3
948,52.6999397277832,83.04161071777344,12.820355415344238,-1.3391306400299072,-2.51631236076355,1.9308395385742188,3
949,14.211967468261719,63.99492645263672,11.544266700744629,-2.1431033611297607,-2.280527353286743,1.9506148099899292,3
950,-19.10855484008789,28.81458282470703,11.378762245178223,-3.0465099811553955,-1.9873511791229248,2.2082226276397705,3
951,-37.047969818115234,-12.213294982910156,10.898987770080566,-3.2002663612365723,-2.2437047958374023,2.108137369155884,3
952,-40.69340515136719,-45.235206604003906,10.454057693481445,-3.005155086517334,-2.8920888900756836,2.0088436603546143,3
953,-28.956785202026367,-58.99637222290039,8.986593246459961,-2.334824323654175,-3.215503215789795,1.9613739252090454,3
954,-9.740893363952637,-60.85189437866211,7.465111255645752,-1.9676271677017212,-3.3717191219329834,2.2699942588806152,3
955,-4.50944709777832,-48.13182067871094,4.257472038269043,-0.8589458465576172,-3.587064504623413,2.0266683101654053,3
956,-2.7097580432891846,-30.742923736572266,1.2096248865127563,-0.5838754773139954,-3.389371633529663,2.331328868865967,3
957,0.42542749643325806,-9.995022773742676,-4.340247631072998,-0.11167272180318832,-3.4018657207489014,2.3056812286376953,3
958,-0.7273762226104736,5.173802852630615,-9.181411743164062,0.002859869971871376,-3.4486083984375,2.2993993759155273,3
959,1.201981544494629,13.88839054107666,-12.454166412353516,-0.05474003031849861,-3.4187700748443604,2.2557036876678467,3
960,9.817704200744629,15.5635986328125,-13.051569938659668,-0.17737416923046112,-3.4078643321990967,2.139065980911255,3
961,20.11821937561035,19.233304977416992,-13.227470397949219,-0.581088662147522,-3.1421303749084473,2.202479600906372,3
962,36.39944839477539,17.439132690429688,-15.589408874511719,-0.6304793357849121,-2.930746078491211,1.992291808128357,3
963,57.07829284667969,9.167484283447266,-15.770188331604004,-0.9686139225959778,-2.604322910308838,1.9336793422698975,3
964,65.4258041381836,9.059432983398438,-16.039390563964844,-1.01301109790802,-1.8591105937957764,1.7845147848129272,3
965,58.562713623046875,7.7958083152771,-17.086400985717773,-1.3514046669006348,-1.1140437126159668,1.7893282175064087,3
966,42.686546325683594,3.418408155441284,-19.537017822265625,-1.339324951171875,-0.5000638961791992,1.5759905576705933,3
967,25.280057907104492,-7.026817321777344,-19.81747055053711,-1.4049522876739502,0.06389282643795013,1.4217379093170166,3
968,10.323554039001465,-16.94089126586914,-19.956729888916016,-1.2982076406478882,0.10215125977993011,1.1571862697601318,3
969,-6.9243645668029785,-18.669857025146484,-19.545270919799805,-1.1147174835205078,0.21370962262153625,0.949180543422699,3
970,-16.826889038085938,-15.213504791259766,-19.876964569091797,-0.7543513178825378,0.04751928523182869,0.6723610758781433,3
971,-14.892091751098633,-18.04903793334961,-18.264320373535156,-0.9247516393661499,-0.18734395503997803,0.5553961396217346,3
972,-0.5704885721206665,-16.04245376586914,-16.643596649169922,-0.6481568217277527,-0.3823782503604889,0.33675217628479004,3
973,16.386096954345703,-14.186564445495605,-12.60416030883789,-0.4755643904209137,-0.3212435841560364,0.18376992642879486,3
974,34.21533203125,-15.402113914489746,-8.981046676635742,-0.25525403022766113,-0.061616718769073486,0.06470569223165512,3
975,46.02090072631836,-14.436002731323242,-6.977092266082764,-0.02631947584450245,0.31493040919303894,-0.03270301967859268,3
976,45.14719009399414,-12.968087196350098,-8.273147583007812,-0.1291377991437912,1.0418118238449097,-0.041560735553503036,3
977,26.44080924987793,-2.5108067989349365,-12.851566314697266,0.13795801997184753,1.5576308965682983,-0.13084377348423004,3
978,-17.095335006713867,15.780678749084473,-15.591108322143555,0.12885421514511108,1.8877100944519043,-0.2488972544670105,3
979,-73.89591217041016,13.128990173339844,-14.887340545654297,-0.1421293169260025,1.469759464263916,-0.4226376712322235,3
