,timestamp_start,timestamp_end,acc.x,acc.y,acc.z,gyro.x,gyro.y,gyro.z,mag.x,mag.y,mag.z,stabilizer.pitch,stabilizer.roll,stabilizer.yaw
0,21145,21148,-0.012952551245689392,0.05512848123908043,0.9551583528518677,-6.238792896270752,-16.175453186035156,21.043087005615234,-0.46197688579559326,0.5909704566001892,0.5279735922813416,0.38707777857780457,-1.5499004125595093,3.772291898727417
1,21155,21158,-0.020829753950238228,0.06855708360671997,0.9901595115661621,-0.6472769975662231,-23.57147216796875,16.046783447265625,-0.46047696471214294,0.5924703478813171,0.5354732275009155,0.5403116345405579,-1.5862854719161987,3.984849214553833
2,21165,21168,-0.03223381191492081,0.029032152146100998,0.9490867257118225,9.07067584991455,-29.22296142578125,10.868471145629883,-0.45297732949256897,0.5789710283279419,0.5339732766151428,0.8698105216026306,-1.5265939235687256,4.137540817260742
3,21175,21178,-0.028932031244039536,0.04632143676280975,0.9743928909301758,21.647205352783203,-25.410865783691406,7.407841205596924,-0.45297732949256897,0.5879706144332886,0.5219739079475403,0.967290461063385,-1.3068071603775024,4.257575511932373
4,21185,21188,-0.030613547191023827,0.04962928593158722,0.9890158772468567,33.419525146484375,-14.429035186767578,4.607504844665527,-0.4454777240753174,0.5804709792137146,0.5504724383354187,0.9973291158676147,-1.232468843460083,4.3841471672058105
5,21195,21198,-0.016081104055047035,0.038739997893571854,0.9896116852760315,40.01948165893555,0.36053574085235596,2.6997618675231934,-0.44247788190841675,0.5894705057144165,0.5114744305610657,1.2571651935577393,-0.7868456244468689,4.404834747314453
6,21205,21208,-0.0360632948577404,0.00586616201326251,0.969168484210968,42.097415924072266,11.4000825881958,0.9543507695198059,-0.44397780299186707,0.56997150182724,0.5309734344482422,1.2331490516662598,-0.2598839998245239,4.414817810058594
7,21215,21218,-0.05174320191144943,-0.02628844417631626,0.8971983790397644,36.88864517211914,18.978944778442383,0.5573683977127075,-0.4394780099391937,0.5654717087745667,0.5324733853340149,1.0440984964370728,-0.01098379772156477,4.466170787811279
8,21225,21228,-0.0607612319290638,0.08282946795225143,0.9838908314704895,23.240896224975586,20.7474308013916,-0.13850247859954834,-0.448477566242218,0.577471137046814,0.5234737992286682,0.822845995426178,0.3967997133731842,4.466644287109375
9,21235,21238,-0.02185160107910633,0.08472254127264023,0.9689934849739075,6.116461753845215,14.847892761230469,0.04785923287272453,-0.4349782466888428,0.5579720735549927,0.5279735922813416,0.6921006441116333,0.5265205502510071,4.494532585144043
10,21245,21248,-0.009911058470606804,0.045940935611724854,0.9553866982460022,-8.278420448303223,4.563799858093262,0.7507132887840271,-0.4394780099391937,0.5594720244407654,0.5234737992286682,0.5984877943992615,0.5442894697189331,4.511112213134766
11,21255,21258,-0.024380598217248917,0.049930136650800705,0.9793941378593445,-17.965255737304688,-8.565130233764648,0.8049829006195068,-0.45147740840911865,0.5564721822738647,0.5444727540016174,0.7233801484107971,0.48984917998313904,4.522548675537109
12,21265,21268,-0.018190443515777588,0.029921380802989006,0.9380946159362793,-21.191307067871094,-19.757722854614258,-0.44626182317733765,-0.4454777240753174,0.5684715509414673,0.5234737992286682,0.5601100325584412,0.37000396847724915,4.511836528778076
13,21285,21278,-0.04382270202040672,0.04362627491354942,0.9368162155151367,-8.758419036865234,-24.816099166870117,-2.7063446044921875,-0.44247788190841675,0.5564721822738647,0.5294735431671143,1.3553049564361572,0.2513470947742462,4.462900638580322
14,21295,21288,-0.024443820118904114,0.019317660480737686,0.9620720148086548,2.2147889137268066,-16.573795318603516,-3.0902347564697266,-0.43197840452194214,0.5669716596603394,0.5219739079475403,1.6179839372634888,0.029023952782154083,4.458902835845947
15,21305,21298,-0.016393903642892838,0.08970734477043152,0.9352423548698425,6.2661662101745605,-2.749315023422241,-2.193690776824951,-0.4364781677722931,0.5534723401069641,0.5264736413955688,1.2653939723968506,0.01942962035536766,4.381066799163818
16,21315,21318,-0.010635280050337315,0.047656528651714325,0.9784109592437744,0.9309003949165344,11.606928825378418,-2.893890380859375,-0.45297732949256897,0.5789710283279419,0.5129743218421936,1.3453172445297241,0.09702937304973602,4.356479644775391
17,21325,21328,-0.03848496079444885,-0.028998643159866333,0.9249086976051331,-7.336879730224609,19.773488998413086,-4.3171539306640625,-0.4289785325527191,0.5849707126617432,0.5399730205535889,1.2809103727340698,0.08731470257043839,4.334870338439941
18,21335,21338,-0.10803788155317307,-0.05042833089828491,0.8617169260978699,-12.918952941894531,18.839630126953125,-3.234208345413208,-0.4169791340827942,0.5519723892211914,0.5279735922813416,1.056896448135376,-0.026081236079335213,4.302608489990234
19,21345,21348,-0.09197308868169785,-0.056923117488622665,0.8186356425285339,-18.035730361938477,12.496033668518066,-3.060394763946533,-0.4454777240753174,0.5654717087745667,0.5174741148948669,0.9361340403556824,0.10974567383527756,4.224281311035156
20,21355,21358,-0.0003728618030436337,-0.00939992442727089,0.8534064292907715,-18.18398666381836,1.6115227937698364,-3.6575798988342285,-0.4544772803783417,0.5564721822738647,0.5294735431671143,0.8451980948448181,-0.16008274257183075,4.221819877624512
21,21365,21368,-0.019088080152869225,0.057947609573602676,0.8960044384002686,-14.774828910827637,-7.210979461669922,-4.626725196838379,-0.44397780299186707,0.5729713439941406,0.5369731187820435,0.5585373044013977,-0.6218063235282898,4.216794013977051
22,21375,21378,0.05562019348144531,0.04333698749542236,0.8505198359489441,-11.052364349365234,-21.76401138305664,-5.215439796447754,-0.4469776451587677,0.5759711861610413,0.5219739079475403,0.8120540976524353,-0.8147737383842468,4.20743989944458
23,21385,21388,0.005877495743334293,0.1785002201795578,0.9698213934898376,-5.916390419006348,-31.552078247070312,-2.877255916595459,-0.4454777240753174,0.5714713931083679,0.5114744305610657,1.127128005027771,-0.9367353320121765,4.1751179695129395
24,21395,21398,-0.047252122312784195,0.09249083697795868,0.9340866208076477,6.444516658782959,-30.404752731323242,-0.7509729862213135,-0.448477566242218,0.5654717087745667,0.5324733853340149,1.6590198278427124,-0.9531964659690857,4.154361248016357
25,21405,21408,-0.0491216778755188,0.05513297766447067,0.7955898642539978,19.67911720275879,-18.940322875976562,2.3478760719299316,-0.44097793102264404,0.5729713439941406,0.5369731187820435,2.11315655708313,-0.7238227725028992,4.1123433113098145
26,21415,21418,0.07758118212223053,-0.055813804268836975,0.8270359635353088,28.984264373779297,-1.9680157899856567,4.253002643585205,-0.44097793102264404,0.5789710283279419,0.5309734344482422,1.7085248231887817,-0.5875071883201599,4.084041595458984
27,21425,21428,-0.012615458108484745,0.06436651200056076,0.8507188558578491,32.821998596191406,16.72198486328125,6.939494609832764,-0.4364781677722931,0.5804709792137146,0.5384730696678162,1.837446689605713,-0.44111332297325134,4.1479339599609375
28,21435,21438,-0.03023604117333889,0.06577976793050766,0.8653895258903503,25.753864288330078,29.734947204589844,8.17795467376709,-0.448477566242218,0.5894705057144165,0.5264736413955688,1.6320075988769531,-0.12898851931095123,4.206813812255859
29,21445,21448,-0.019714711233973503,0.0455278642475605,0.9025421142578125,13.459574699401855,32.92470932006836,8.485942840576172,-0.4394780099391937,0.5804709792137146,0.5204739570617676,1.4898642301559448,0.065599225461483,4.318130970001221
30,21465,21458,-0.000660287740174681,0.03960249945521355,0.9135027527809143,-7.961656093597412,12.656269073486328,6.917020320892334,-0.448477566242218,0.5834708213806152,0.5294735431671143,0.7220723032951355,0.2020305097103119,4.495233535766602
31,21475,21468,0.03448367863893509,0.03974023833870888,0.9404096007347107,-11.724985122680664,-7.798825263977051,4.622969627380371,-0.45297732949256897,0.5819708704948425,0.5309734344482422,0.6387035250663757,0.12009395658969879,4.580732822418213
32,21485,21478,-0.009947766549885273,0.05158444121479988,0.9005095362663269,-12.893980026245117,-28.234891891479492,2.1929566860198975,-0.448477566242218,0.5684715509414673,0.5294735431671143,0.8593897819519043,0.03731989860534668,4.647891998291016
33,21495,21488,-0.05278097838163376,0.12458620965480804,0.9206790328025818,-7.799867153167725,-41.8776969909668,-0.877794086933136,-0.4454777240753174,0.5714713931083679,0.5234737992286682,1.233054280281067,-0.11074704676866531,4.689065456390381
34,21505,21508,-0.020321087911725044,0.06205245107412338,0.8363813757896423,1.9993492364883423,-43.731201171875,-2.4666025638580322,-0.44247788190841675,0.5684715509414673,0.5324733853340149,1.4424189329147339,-0.160393625497818,4.66289758682251
35,21515,21518,-0.008154110983014107,0.023990491405129433,1.0291389226913452,13.248769760131836,-31.54770851135254,-4.777604103088379,-0.44097793102264404,0.5609719157218933,0.5189740657806396,2.0661933422088623,-0.057385146617889404,4.640512466430664
36,21525,21528,-0.0026448112912476063,0.029479248449206352,0.9077641367912292,23.208805084228516,-14.038705825805664,-5.776152610778809,-0.43197840452194214,0.56997150182724,0.5429728627204895,2.273848295211792,0.07432641834020615,4.574872016906738
37,21535,21538,-0.0010833959095180035,0.09169292449951172,0.8958941102027893,27.415748596191406,6.104526996612549,-6.2221269607543945,-0.4274786114692688,0.5714713931083679,0.5294735431671143,2.4814493656158447,0.12692001461982727,4.5569891929626465
38,21545,21548,-0.002161524025723338,0.06481891125440598,0.981651782989502,28.080774307250977,24.494035720825195,-7.790585517883301,-0.43197840452194214,0.554972231388092,0.5219739079475403,2.441070318222046,0.532433032989502,4.457045078277588
39,21555,21558,-0.00864964909851551,-0.004885747097432613,0.9535911083221436,25.006919860839844,33.51333999633789,-8.531362533569336,-0.43197840452194214,0.5729713439941406,0.5249737501144409,2.0725691318511963,0.653364896774292,4.408296585083008
40,21565,21568,-0.10115575790405273,0.04183322563767433,0.9518582820892334,16.43539047241211,33.7934455871582,-8.565605163574219,-0.44097793102264404,0.5669716596603394,0.5219739079475403,1.6012539863586426,0.5241630673408508,4.414210796356201
41,21575,21578,-0.04475171118974686,-0.01208230759948492,0.9005724191665649,4.122262954711914,24.857337951660156,-9.198443412780762,-0.4379780888557434,0.56997150182724,0.5279735922813416,1.3541502952575684,0.7617154717445374,4.333545684814453
42,21585,21588,-0.016626622527837753,-0.052741192281246185,0.9128063917160034,-6.226955890655518,6.914345741271973,-10.210368156433105,-0.4454777240753174,0.5684715509414673,0.5234737992286682,1.1800647974014282,1.094363808631897,4.207531929016113
43,21595,21598,-0.046990443021059036,0.02325805462896824,0.9342517852783203,-10.220675468444824,-10.864704132080078,-11.819436073303223,-0.4544772803783417,0.5684715509414673,0.5354732275009155,1.0584079027175903,0.8493340015411377,4.1664958000183105
44,21605,21608,-0.038003869354724884,0.08881815522909164,0.8685625791549683,-4.05076789855957,-19.448631286621094,-13.124919891357422,-0.44097793102264404,0.5669716596603394,0.5279735922813416,0.975456178188324,0.790967583656311,4.024879455566406
45,21615,21618,0.022488487884402275,0.08013402670621872,0.9918085932731628,4.961486339569092,-18.967958450317383,-14.24123764038086,-0.4364781677722931,0.5684715509414673,0.5444727540016174,1.2948356866836548,0.8091864585876465,3.907360076904297
46,21625,21628,-0.004658076446503401,0.051179807633161545,1.0518139600753784,12.704373359680176,-13.85508918762207,-15.345929145812988,-0.4544772803783417,0.5744712948799133,0.5264736413955688,1.598289966583252,0.9510413408279419,3.755565643310547
47,21635,21638,-0.0711909607052803,0.04941011592745781,1.0016802549362183,19.736602783203125,-1.1453219652175903,-15.519327163696289,-0.44397780299186707,0.5729713439941406,0.5399730205535889,1.7891141176223755,1.140730619430542,3.5848543643951416
48,21645,21648,-0.0789162814617157,0.017758067697286606,0.9051908254623413,24.20334815979004,12.53000545501709,-14.906987190246582,-0.44097793102264404,0.56997150182724,0.5339732766151428,1.7731196880340576,1.432322382926941,3.39082932472229
49,21655,21668,-0.020792102441191673,0.06263066083192825,0.9752103686332703,22.394943237304688,29.87643051147461,-14.352744102478027,-0.45297732949256897,0.5789710283279419,0.5189740657806396,1.5126811265945435,1.6314013004302979,3.2236855030059814
50,21665,21678,0.04875286668539047,-0.007571564055979252,0.9716491103172302,15.932464599609375,39.08877944946289,-14.162479400634766,-0.448477566242218,0.5744712948799133,0.5324733853340149,1.1073105335235596,1.999975562095642,3.028404951095581
51,21675,21688,-0.012867394834756851,-0.005274268798530102,0.9656558632850647,11.815665245056152,35.39458465576172,-12.778799057006836,-0.4589770436286926,0.5789710283279419,0.5249737501144409,0.8147147297859192,1.7788729667663574,2.998166561126709
52,21685,21698,-0.0496239960193634,-0.0780189037322998,0.9645636677742004,7.8262248039245605,19.465864181518555,-12.138815879821777,-0.46197688579559326,0.5759711861610413,0.5219739079475403,0.48542124032974243,1.9970062971115112,2.871272087097168
53,21695,21708,-0.15766844153404236,-0.0715191438794136,0.9473147392272949,3.048194169998169,-1.6516424417495728,-11.633892059326172,-0.45297732949256897,0.5759711861610413,0.5309734344482422,0.3440796434879303,2.0683302879333496,2.7851428985595703
54,21705,21718,-0.19572259485721588,-0.0756760761141777,0.9252135157585144,-1.516660451889038,-17.851293563842773,-10.854314804077148,-0.4664766788482666,0.5744712948799133,0.5294735431671143,0.36304545402526855,2.0672874450683594,2.6891305446624756
55,21715,21728,-0.15080012381076813,-0.07576151192188263,0.9301676750183105,-5.8028035163879395,-25.27699851989746,-10.286948204040527,-0.4574771225452423,0.5864706635475159,0.5264736413955688,0.4562920928001404,2.1366183757781982,2.552489995956421
56,21725,21738,-0.16695137321949005,-0.03911978751420975,0.8977647423744202,-10.374850273132324,-23.740633010864258,-9.970739364624023,-0.46197688579559326,0.5969701409339905,0.5189740657806396,0.77639240026474,2.12185001373291,2.460040807723999
57,21735,21748,-0.16921310126781464,0.016860952600836754,0.8713470101356506,-12.766214370727539,-13.971427917480469,-10.217903137207031,-0.45297732949256897,0.5909704566001892,0.5219739079475403,1.1042510271072388,2.0423550605773926,2.37538480758667
58,21745,21758,-0.11989998817443848,0.07552658021450043,0.9672451019287109,-16.130985260009766,-0.5435959100723267,-11.169295310974121,-0.45297732949256897,0.5999699831008911,0.5429728627204895,1.2717304229736328,2.050056219100952,2.2541277408599854
59,21755,21768,-0.08589382469654083,0.04542063921689987,1.0151773691177368,-16.80655860900879,8.320989608764648,-11.31717300415039,-0.46197688579559326,0.5969701409339905,0.5279735922813416,1.179304838180542,1.872077465057373,2.1083080768585205
60,21765,21778,-0.0411352775990963,0.007753301411867142,1.0341583490371704,-12.726423263549805,9.203899383544922,-10.65061092376709,-0.4544772803783417,0.5924703478813171,0.5264736413955688,1.0573978424072266,1.631861686706543,1.988508939743042
61,21775,21788,-0.047052957117557526,0.011948483996093273,1.015348196029663,-3.9897775650024414,4.360611438751221,-11.56230354309082,-0.4574771225452423,0.5864706635475159,0.5324733853340149,0.942369282245636,1.549324631690979,1.8723593950271606
62,21785,21798,-0.024548541754484177,0.035444475710392,1.0818942785263062,3.903674840927124,1.7982807159423828,-12.322760581970215,-0.4649767279624939,0.5939702987670898,0.5339732766151428,0.9544057846069336,1.516697883605957,1.7806122303009033
63,21795,21808,-0.05108795687556267,0.03241724520921707,1.077641248703003,15.28837776184082,-0.9388008713722229,-13.387240409851074,-0.4589770436286926,0.5939702987670898,0.5399730205535889,0.9355525374412537,1.6293805837631226,1.6539932489395142
64,21805,21818,-0.0359310582280159,-0.021147243678569794,1.0103096961975098,21.264328002929688,-0.34621813893318176,-13.459198951721191,-0.45147740840911865,0.5954701900482178,0.5234737992286682,0.9373936653137207,1.8772263526916504,1.5090663433074951
65,21815,21838,0.00035254363319836557,-0.0023376261815428734,1.0061519145965576,17.185075759887695,4.225127696990967,-13.694839477539062,-0.46947652101516724,0.5954701900482178,0.5384730696678162,0.9080605506896973,2.09952974319458,1.3610546588897705
66,21825,21848,0.006943671964108944,-0.00872437097132206,0.9770155549049377,7.482573986053467,9.08730411529541,-13.476059913635254,-0.47247636318206787,0.5954701900482178,0.5144742727279663,0.8080787062644958,2.3117921352386475,1.2024515867233276
67,21835,21858,0.029636595398187637,-0.14866381883621216,0.9760305881500244,-3.2032437324523926,8.159843444824219,-12.436984062194824,-0.4739762842655182,0.5909704566001892,0.5309734344482422,0.8825328350067139,2.369724988937378,1.1241170167922974
68,21845,21868,-0.005143505521118641,-0.056454624980688095,0.9276645183563232,-16.777822494506836,4.676337718963623,-11.816376686096191,-0.4844757616519928,0.6134693026542664,0.5144742727279663,0.8159707188606262,2.3166885375976562,1.014461874961853
69,21855,21878,-0.12800894677639008,0.04904096573591232,0.9264585971832275,-27.776683807373047,0.3376227021217346,-11.81051254272461,-0.46947652101516724,0.6134693026542664,0.5324733853340149,0.7334651947021484,1.991546630859375,0.9056530594825745
70,21865,21888,-0.1500769704580307,0.13228291273117065,1.0200892686843872,-36.68584442138672,5.030397415161133,-11.872851371765137,-0.46197688579559326,0.6059696674346924,0.5279735922813416,0.820453405380249,1.782876968383789,0.8175366520881653
71,21875,21898,-0.15072089433670044,0.12350499629974365,1.1030981540679932,-36.482540130615234,11.773616790771484,-12.366144180297852,-0.4649767279624939,0.6149692535400391,0.5459727048873901,0.6857914328575134,1.6771812438964844,0.6538887619972229
72,21885,21908,-0.03881410136818886,0.09179338812828064,1.1664624214172363,-21.870689392089844,12.444294929504395,-10.303187370300293,-0.4754762053489685,0.616469144821167,0.5324733853340149,0.48120734095573425,1.2584656476974487,0.5061339139938354
73,21895,21918,0.03479737415909767,0.03152419254183769,1.0915731191635132,-5.380356788635254,10.001823425292969,-7.442306995391846,-0.47847607731819153,0.6134693026542664,0.5144742727279663,0.2796434164047241,1.1298449039459229,0.3702167868614197
74,21905,21928,0.050067294389009476,0.11016792058944702,1.074560284614563,7.451699256896973,6.535818099975586,-5.195784091949463,-0.46947652101516724,0.5984700918197632,0.5384730696678162,0.1919781118631363,1.0268242359161377,0.2976698577404022
75,21915,21938,-0.03938063979148865,0.09835368394851685,1.0538349151611328,11.952200889587402,5.445981979370117,-3.723827600479126,-0.4649767279624939,0.6029698252677917,0.5309734344482422,0.14237992465496063,1.0899802446365356,0.24703527987003326
76,21925,21948,-0.058595217764377594,-0.05500755086541176,0.9986805319786072,3.1456921100616455,4.9417619705200195,-2.8908841609954834,-0.4679765999317169,0.6059696674346924,0.5219739079475403,0.10876615345478058,1.1741422414779663,0.2141517847776413
77,21935,21958,-0.0036918497644364834,-0.13842205703258514,0.9594487547874451,-13.960480690002441,6.208528995513916,-2.912559986114502,-0.4769761562347412,0.6089695692062378,0.5339732766151428,0.07718532532453537,1.3863447904586792,0.18890047073364258
78,21945,21968,-0.05843862146139145,0.012732552364468575,1.0527448654174805,-32.14655303955078,8.043437957763672,-2.889253854751587,-0.4739762842655182,0.6299684643745422,0.5279735922813416,0.021188385784626007,1.1897801160812378,0.16096089780330658
79,21955,21978,0.03532073274254799,-0.0265896487981081,1.0158199071884155,-45.66687774658203,6.256282806396484,-3.9923179149627686,-0.4829758405685425,0.6119694113731384,0.5309734344482422,-0.11168457567691803,1.087258219718933,0.12187715619802475
80,21965,21988,-0.006747087929397821,0.036239344626665115,1.0298031568527222,-51.30430221557617,7.262044429779053,-4.804987907409668,-0.4829758405685425,0.6089695692062378,0.5339732766151428,-0.23514410853385925,0.4265391230583191,0.06550229340791702
81,21975,21998,-0.03156743198633194,0.03655422106385231,1.0462723970413208,-47.92365646362305,8.152804374694824,-5.7514729499816895,-0.4634768068790436,0.6014699339866638,0.5414729118347168,-0.2872679531574249,-0.08399661630392075,0.022786734625697136
82,21985,22008,-0.05731469765305519,0.006155319977551699,0.9484639167785645,-37.42881393432617,8.673138618469238,-7.1489481925964355,-0.4649767279624939,0.6029698252677917,0.5189740657806396,-0.3554295599460602,-0.4526900351047516,-0.020183145999908447
83,21995,22018,0.05931257829070091,0.050982605665922165,1.041945219039917,-22.432788848876953,9.4926118850708,-7.385435581207275,-0.47097644209861755,0.5939702987670898,0.5279735922813416,-0.4969959557056427,-0.863024890422821,-0.0998987928032875
84,22005,22028,0.05298582836985588,-0.007077204063534737,1.05913507938385,-5.5528998374938965,8.194013595581055,-6.720637321472168,-0.47247636318206787,0.616469144821167,0.5174741148948669,-0.6294102072715759,-0.9618823528289795,-0.16936635971069336
85,22015,22038,0.01845843531191349,-0.033052604645490646,1.0190727710723877,8.008671760559082,6.411932945251465,-6.333054065704346,-0.47847607731819153,0.6194689869880676,0.5384730696678162,-0.7525404095649719,-1.0381749868392944,-0.24089859426021576
86,22025,22048,0.009670036844909191,0.022643491625785828,1.0193101167678833,15.398701667785645,-1.1800144910812378,-4.963619709014893,-0.47847607731819153,0.616469144821167,0.5294735431671143,-0.6012459397315979,-0.9161973595619202,-0.2766118347644806
87,22035,22058,-0.0031557143665850163,0.027739182114601135,1.0402156114578247,12.368271827697754,-10.17101764678955,-4.227426528930664,-0.46947652101516724,0.622468888759613,0.5384730696678162,-0.6952793598175049,-0.7860084772109985,-0.3382062315940857
88,22045,22068,-0.09519390016794205,0.08851269632577896,1.0308253765106201,0.645710825920105,-13.098482131958008,-4.019776821136475,-0.4589770436286926,0.6149692535400391,0.5399730205535889,-0.5360156297683716,-0.724621593952179,-0.385112464427948
89,22055,22078,-0.09693510085344315,0.14471884071826935,1.0773195028305054,-14.725566864013672,-8.158954620361328,-3.9948670864105225,-0.4664766788482666,0.6194689869880676,0.5324733853340149,-0.4335789680480957,-0.7776954770088196,-0.43935397267341614
90,22065,22088,0.006386623252183199,0.05658852308988571,1.0479527711868286,-27.697843551635742,-1.3802152872085571,-3.5628013610839844,-0.455977201461792,0.6179690957069397,0.5279735922813416,-0.40051257610321045,-0.7741682529449463,-0.46598514914512634
91,22075,22098,-0.015602903440594673,0.031292930245399475,1.0115349292755127,-35.29549026489258,7.793964385986328,-3.0744454860687256,-0.4754762053489685,0.6194689869880676,0.5354732275009155,-0.4085407853126526,-1.0276480913162231,-0.5033446550369263
92,22085,22108,-0.08001312613487244,-0.0335969515144825,1.044129729270935,-33.69778823852539,14.213472366333008,-2.136246919631958,-0.47847607731819153,0.622468888759613,0.5384730696678162,-0.5402252078056335,-1.6459746360778809,-0.5777755379676819
93,22095,22118,-0.10971611738204956,-0.11004938930273056,0.9594414830207825,-26.616092681884766,14.976831436157227,-0.5994585156440735,-0.46947652101516724,0.6194689869880676,0.5324733853340149,-0.6100776791572571,-1.7923561334609985,-0.5756000876426697
94,22105,22128,-0.023113219067454338,0.012129885144531727,0.976786732673645,-13.69802188873291,10.20073413848877,1.9390872716903687,-0.47097644209861755,0.623968780040741,0.5249737501144409,-0.6764149069786072,-2.01881742477417,-0.5865861773490906
95,22115,22138,-0.07448766380548477,0.07876263558864594,0.963602602481842,-0.11762852966785431,0.17682814598083496,4.410538673400879,-0.4679765999317169,0.6029698252677917,0.5339732766151428,-0.7901710271835327,-1.9805397987365723,-0.5419446229934692
96,22125,22148,-0.04499867931008339,0.13335679471492767,0.9879443049430847,7.776304721832275,-8.692384719848633,6.086777687072754,-0.4769761562347412,0.6059696674346924,0.5339732766151428,-0.8373914957046509,-2.048311233520508,-0.5085625052452087
97,22135,22158,0.0025276439264416695,0.05827280506491661,0.98616623878479,11.532729148864746,-13.653830528259277,8.098196983337402,-0.4769761562347412,0.6149692535400391,0.5249737501144409,-0.6827611327171326,-1.9887878894805908,-0.4614083766937256
98,22145,22168,-0.013055029325187206,0.12121792882680893,1.026126503944397,7.09948205947876,-13.430235862731934,9.41919994354248,-0.47097644209861755,0.6119694113731384,0.5309734344482422,-0.6116401553153992,-1.8979408740997314,-0.3764897584915161
99,22155,22178,-0.012867341749370098,0.07402800023555756,1.023714542388916,-2.578248977661133,-8.594903945922852,9.253059387207031,-0.4739762842655182,0.623968780040741,0.5279735922813416,-0.4879753589630127,-1.886521816253662,-0.2934577465057373
100,22165,22188,-0.002537646796554327,0.037633251398801804,1.0052528381347656,-13.651535034179688,-2.572983980178833,8.551496505737305,-0.47847607731819153,0.6254687309265137,0.5204739570617676,-0.4368477463722229,-2.0229830741882324,-0.21469658613204956
101,22175,22198,-0.04113059863448143,-0.01124181505292654,0.9135152101516724,-19.47028160095215,3.8485019207000732,8.959430694580078,-0.4649767279624939,0.623968780040741,0.5219739079475403,-0.4114539921283722,-2.1608376502990723,-0.12988434731960297
102,22185,22208,-0.005014915484935045,0.02527468651533127,0.9864963889122009,-17.70794677734375,8.299914360046387,8.57965087890625,-0.4649767279624939,0.6179690957069397,0.5249737501144409,-0.477021187543869,-2.3575592041015625,-0.03657654672861099
103,22195,22218,-0.008842372335493565,0.08150915056467056,1.0762803554534912,-10.214037895202637,8.411151885986328,8.401021957397461,-0.4649767279624939,0.6149692535400391,0.5249737501144409,-0.588397741317749,-2.6477301120758057,0.035591524094343185
104,22205,22228,-0.010313007980585098,0.11252499371767044,1.0335243940353394,1.5497279167175293,7.300567150115967,7.4085307121276855,-0.4679765999317169,0.6179690957069397,0.5219739079475403,-0.6993105411529541,-2.7880184650421143,0.11764264851808548
105,22215,22238,0.0017869132570922375,0.05466419458389282,1.0103126764297485,14.208229064941406,5.534284591674805,6.0191545486450195,-0.46047696471214294,0.6104694604873657,0.5294735431671143,-0.7858229279518127,-2.740429162979126,0.20431852340698242
106,22225,22248,0.011876525357365608,0.03682631999254227,1.0079904794692993,25.495492935180664,4.412839889526367,4.29805850982666,-0.4664766788482666,0.6044697761535645,0.5324733853340149,-0.7881873250007629,-2.5638341903686523,0.2607428729534149
107,22235,22258,0.011805519461631775,0.02607259713113308,0.9821667075157166,31.745115280151367,0.9486103057861328,2.984653949737549,-0.47247636318206787,0.5984700918197632,0.5114744305610657,-0.9033045172691345,-2.2997324466705322,0.32958659529685974
108,22245,22268,0.000585324945859611,0.017830055207014084,0.9616872668266296,31.64307403564453,1.5684925317764282,2.2714216709136963,-0.4589770436286926,0.6029698252677917,0.5219739079475403,-0.9102979898452759,-2.031080484390259,0.350371778011322
109,22255,22278,-0.061861976981163025,-0.04919222742319107,0.8417920470237732,26.299650192260742,2.170877695083618,1.8767502307891846,-0.4589770436286926,0.6029698252677917,0.5219739079475403,-0.9217681288719177,-1.7745277881622314,0.3597932755947113
110,22265,22288,-0.01053369790315628,0.023206548765301704,0.973635733127594,17.712451934814453,2.152277708053589,1.3219016790390015,-0.4649767279624939,0.6089695692062378,0.5159741640090942,-0.9406062364578247,-1.4640772342681885,0.3838317394256592
111,22275,22298,-0.020218152552843094,0.03352454677224159,0.9890879392623901,7.868512153625488,-0.06625674664974213,0.8940495252609253,-0.47247636318206787,0.5984700918197632,0.5234737992286682,-0.9387696385383606,-1.29311203956604,0.3833884000778198
112,22285,22308,-0.06034744903445244,0.01874758116900921,0.9895002841949463,-0.8210594654083252,-0.9301745891571045,0.08495808392763138,-0.47247636318206787,0.5984700918197632,0.5234737992286682,-1.049996256828308,-1.2693023681640625,0.4134557545185089
113,22295,22318,-0.03451355919241905,0.033888887614011765,1.0024864673614502,-5.114221096038818,-5.442752361297607,0.13218380510807037,-0.4679765999317169,0.6149692535400391,0.5369731187820435,-1.256342887878418,-1.364941954612732,0.4582985043525696
114,22305,22328,-0.034955497831106186,0.0833679586648941,1.045913815498352,-3.2230632305145264,-10.454568862915039,-0.16102932393550873,-0.4634768068790436,0.6044697761535645,0.5264736413955688,-1.1670111417770386,-1.4195431470870972,0.44509565830230713
115,22315,22338,-0.0633520632982254,0.15894931554794312,1.0712685585021973,2.8836615085601807,-15.271336555480957,-0.5290901064872742,-0.4679765999317169,0.6029698252677917,0.5249737501144409,-0.9360740780830383,-1.4311773777008057,0.4129124581813812
116,22325,22348,-0.004358222708106041,0.07450845092535019,1.0338326692581177,10.41397476196289,-21.820819854736328,-0.35779035091400146,-0.4589770436286926,0.6059696674346924,0.5459727048873901,-0.8336303234100342,-1.3459051847457886,0.43794381618499756
117,22335,22358,-0.08273901790380478,0.1129508838057518,1.0140026807785034,17.947816848754883,-21.80010414123535,-0.8255710005760193,-0.4589770436286926,0.5939702987670898,0.5279735922813416,-0.5843238830566406,-1.4221839904785156,0.38944482803344727
118,22345,22368,-0.026635177433490753,0.08097813278436661,0.9656906723976135,22.435413360595703,-16.297523498535156,-0.8851685523986816,-0.47097644209861755,0.5909704566001892,0.5279735922813416,-0.4237344264984131,-1.0994641780853271,0.4399827718734741
119,22355,22378,0.03904342278838158,0.08718235790729523,0.9512413144111633,21.816308975219727,-10.29226016998291,-1.1003012657165527,-0.4634768068790436,0.5924703478813171,0.5174741148948669,-0.3387804627418518,-0.803707480430603,0.47426292300224304
120,22365,22388,-0.00508255185559392,0.09255855530500412,0.9682649970054626,18.453105926513672,-4.490056991577148,-1.9057761430740356,-0.455977201461792,0.5849707126617432,0.5339732766151428,-0.06991689652204514,-0.7378283143043518,0.3949569761753082
121,22375,22398,0.032488953322172165,0.14123718440532684,1.0877714157104492,11.825236320495605,-1.5794944763183594,-1.6973638534545898,-0.45297732949256897,0.5819708704948425,0.5279735922813416,-0.10063313692808151,-0.4448741376399994,0.41896146535873413
122,22385,22408,0.013001305982470512,0.09033580124378204,1.0570563077926636,5.127199649810791,-2.351602792739868,-1.266340732574463,-0.46197688579559326,0.5819708704948425,0.5189740657806396,-0.08970782160758972,-0.6744062900543213,0.3375230133533478
123,22395,22418,-0.000774806016124785,0.05768823251128197,1.037790060043335,0.8206969499588013,-5.058786869049072,-0.9128604531288147,-0.45297732949256897,0.5849707126617432,0.5369731187820435,-0.12772683799266815,-0.5654723644256592,0.3454979658126831
124,22405,22428,-0.005772209260612726,0.03654928132891655,0.9883692860603333,1.083074927330017,-11.519500732421875,-0.2815925180912018,-0.45147740840911865,0.5864706635475159,0.5204739570617676,0.04253527149558067,-0.5065703392028809,0.3163066804409027
125,22415,22438,-0.004846109542995691,0.032737985253334045,0.9764963388442993,5.287679672241211,-15.71286678314209,0.11198936402797699,-0.44997748732566833,0.5759711861610413,0.5279735922813416,0.07960601896047592,-0.5712025761604309,0.3155255615711212
126,22425,22448,-0.04418129101395607,0.04307412728667259,0.9290802478790283,11.092385292053223,-17.795562744140625,-0.2197631299495697,-0.4394780099391937,0.5744712948799133,0.5354732275009155,0.24000103771686554,-0.5581833720207214,0.3070842921733856
127,22435,22458,-0.03309798985719681,0.03945526108145714,0.8645874857902527,15.767586708068848,-16.511539459228516,-0.4224180579185486,-0.4394780099391937,0.5744712948799133,0.5234737992286682,0.42769381403923035,-0.45384645462036133,0.3043878972530365
128,22445,22468,0.012956966646015644,0.06074951961636543,0.9426713585853577,17.832988739013672,-14.075613021850586,-0.6251389384269714,-0.4469776451587677,0.5639718174934387,0.5309734344482422,0.6592450141906738,-0.1502263993024826,0.3068174123764038
129,22465,22478,-0.005640147253870964,0.09406811743974686,0.9681822657585144,13.395792007446289,-7.104938983917236,-1.2832021713256836,-0.4469776451587677,0.5879706144332886,0.5129743218421936,0.4997643828392029,0.17380759119987488,0.35427841544151306
130,22475,22488,-0.012421662919223309,0.05730268731713295,0.9799408316612244,7.81812858581543,-4.460212230682373,-1.9261704683303833,-0.44247788190841675,0.5834708213806152,0.5234737992286682,0.6766794323921204,0.1883804351091385,0.32197242975234985
131,22485,22498,0.016020450741052628,0.0004377462901175022,1.0565605163574219,4.1303181648254395,-4.30717658996582,-1.7209373712539673,-0.4574771225452423,0.5834708213806152,0.5234737992286682,0.744759202003479,0.2696836292743683,0.3003911077976227
132,22495,22548,-0.05397697538137436,0.1463179588317871,1.026367425918579,2.8377525806427,-2.4340245723724365,-1.8975073099136353,-0.44997748732566833,0.56997150182724,0.5339732766151428,0.7881130576133728,0.3738524615764618,0.28358080983161926
133,22505,22558,-0.017155271023511887,0.053107816725969315,0.9638638496398926,7.241880893707275,-5.721404075622559,-2.013352394104004,-0.44397780299186707,0.5759711861610413,0.5309734344482422,0.8904761075973511,0.4110666811466217,0.2587837278842926
134,22515,22568,0.11373630911111832,0.04603860527276993,1.018086314201355,13.263535499572754,-10.057353973388672,-2.0015103816986084,-0.4394780099391937,0.5654717087745667,0.5204739570617676,1.056084394454956,0.5882039666175842,0.23455823957920074
135,22545,22578,0.10964306443929672,0.11470575630664825,1.0619429349899292,18.688705444335938,-6.166723251342773,-1.7082089185714722,-0.43197840452194214,0.5519723892211914,0.5219739079475403,0.9940475225448608,1.1045206785202026,0.18894904851913452
136,22555,22588,-0.02821490727365017,0.2661811113357544,1.037487268447876,17.26463508605957,-11.201148986816406,-0.7476248741149902,-0.44997748732566833,0.5639718174934387,0.5339732766151428,0.9649880528450012,1.4192711114883423,0.16510464251041412
137,22565,22598,-0.008191872388124466,0.07246947288513184,0.9359425902366638,13.776354789733887,-11.712836265563965,0.9017744064331055,-0.4379780888557434,0.56997150182724,0.5219739079475403,1.2634005546569824,1.4835597276687622,0.16499459743499756
138,22575,22608,0.0022234960924834013,0.020759159699082375,0.9600083827972412,6.045886039733887,-14.3474760055542,2.6920888423919678,-0.4349782466888428,0.5729713439941406,0.5309734344482422,1.384994626045227,1.4751230478286743,0.17730702459812164
139,22605,22618,-0.02980205789208412,-0.06298286467790604,0.8615511655807495,-16.126611709594727,-6.789952278137207,6.524947643280029,-0.4349782466888428,0.5789710283279419,0.5279735922813416,1.8351306915283203,1.428155779838562,0.2890598475933075
140,22615,22638,-0.026284942403435707,0.0004807072109542787,0.9084135293960571,-17.493865966796875,-5.042518615722656,8.109551429748535,-0.44397780299186707,0.5789710283279419,0.5279735922813416,1.5805832147598267,1.4058057069778442,0.28966039419174194
141,22635,22648,-0.10642737150192261,-0.0075055877678096294,0.9784368872642517,-13.598271369934082,-1.933302879333496,9.995862007141113,-0.44997748732566833,0.5849707126617432,0.5279735922813416,1.8306806087493896,1.1710995435714722,0.45963796973228455
142,22645,22658,-0.04561106115579605,0.039531756192445755,0.9932981729507446,-7.537508010864258,-1.0670164823532104,10.336256980895996,-0.43347832560539246,0.5834708213806152,0.5294735431671143,1.8394893407821655,0.9675920605659485,0.5636023879051208
143,22655,22668,0.059204600751399994,0.020024539902806282,0.893836259841919,-0.23944590985774994,-1.5962167978286743,11.371365547180176,-0.45147740840911865,0.5954701900482178,0.5294735431671143,1.7589648962020874,0.8695425987243652,0.6493027210235596
144,22665,22678,0.019221223890781403,0.028272343799471855,0.9579769372940063,1.70914888381958,-2.8054375648498535,11.71486759185791,-0.44397780299186707,0.5789710283279419,0.5399730205535889,1.8477308750152588,0.8683715462684631,0.7709429264068604
145,22675,22688,0.022690391167998314,0.05492715910077095,0.9566707611083984,-0.7463412284851074,-3.383643388748169,10.534252166748047,-0.45147740840911865,0.5864706635475159,0.5294735431671143,1.8864718675613403,0.8136986494064331,0.9014797806739807
146,22685,22698,0.08562411367893219,0.01409092079848051,1.028786063194275,-5.255984783172607,-7.7785725593566895,8.959894180297852,-0.44247788190841675,0.5894705057144165,0.5264736413955688,1.9366886615753174,0.785109281539917,1.0172317028045654
147,22695,22708,0.009595135226845741,-0.001204606145620346,0.939225435256958,-14.06611442565918,-10.811358451843262,7.173172950744629,-0.4379780888557434,0.5939702987670898,0.5159741640090942,2.097745180130005,0.732236921787262,1.1280416250228882
148,22705,22718,-0.04776103049516678,0.04639962688088417,1.0052762031555176,-20.248443603515625,-13.617591857910156,4.978006362915039,-0.46047696471214294,0.5984700918197632,0.5264736413955688,2.1749958992004395,0.5656449198722839,1.2095897197723389
149,22715,22728,-0.025901880115270615,0.06970532238483429,0.9343912601470947,-21.10538101196289,-11.511039733886719,3.097537040710449,-0.4664766788482666,0.5984700918197632,0.5324733853340149,2.415125608444214,0.46064895391464233,1.2581450939178467
150,22725,22738,-0.010956700891256332,0.03677297383546829,0.9556132555007935,-18.037477493286133,-6.592619895935059,0.8394765853881836,-0.44097793102264404,0.6059696674346924,0.5279735922813416,2.603739023208618,0.20218856632709503,1.3147811889648438
151,22735,22748,0.018218742683529854,0.00897552352398634,1.056485891342163,-12.647591590881348,0.5638413429260254,-1.7291898727416992,-0.4469776451587677,0.5999699831008911,0.5459727048873901,2.6277289390563965,-0.06524397432804108,1.3395788669586182
152,22745,22758,-0.025971511378884315,0.02709141932427883,1.029759407043457,-10.220172882080078,7.925227165222168,-3.947695732116699,-0.4454777240753174,0.5984700918197632,0.5324733853340149,2.534079074859619,-0.046227775514125824,1.2674962282180786
153,22755,22768,-0.029010189697146416,0.05497094243764877,1.0412750244140625,-6.880651473999023,11.715448379516602,-6.299007415771484,-0.4454777240753174,0.6074696183204651,0.5204739570617676,2.4115307331085205,-0.05622290074825287,1.1957792043685913
154,22765,22778,-0.0723792240023613,0.05091163516044617,0.9773387312889099,-5.0635199546813965,13.836725234985352,-8.13286304473877,-0.44397780299186707,0.5999699831008911,0.5369731187820435,2.23325514793396,-0.17265142500400543,1.13937509059906
155,22775,22788,-0.035916540771722794,0.04374047741293907,0.9465004801750183,-5.2295331954956055,10.994736671447754,-9.293022155761719,-0.448477566242218,0.5984700918197632,0.5354732275009155,2.0536372661590576,-0.2610209882259369,1.0658918619155884
156,22785,22798,-0.020058225840330124,0.05642808601260185,1.0334964990615845,-2.0015134811401367,8.750164985656738,-10.847416877746582,-0.45147740840911865,0.6074696183204651,0.5294735431671143,1.9737257957458496,-0.3183588683605194,0.9843540191650391
157,22795,22808,0.03190175071358681,-0.01981622353196144,0.979152262210846,-1.6539427042007446,2.329838514328003,-12.290364265441895,-0.4544772803783417,0.5894705057144165,0.5234737992286682,1.8866692781448364,-0.35124874114990234,0.8810805082321167
158,22805,22818,0.08924433588981628,-0.052206870168447495,0.9808407425880432,-1.2130858898162842,-0.05481526255607605,-12.441666603088379,-0.46197688579559326,0.6179690957069397,0.5309734344482422,1.8705590963363647,-0.23181338608264923,0.7209542989730835
159,22815,22828,0.034063052386045456,-0.017802465707063675,1.0430744886398315,-3.090388774871826,-2.078040599822998,-12.365920066833496,-0.45147740840911865,0.6104694604873657,0.5294735431671143,1.8975275754928589,-0.26957967877388,0.6068540215492249
160,22825,22838,0.007725507020950317,-0.024685803800821304,1.0558946132659912,-6.961815357208252,0.19132031500339508,-12.987079620361328,-0.4589770436286926,0.6299684643745422,0.5399730205535889,1.9262105226516724,-0.2024330049753189,0.4561505913734436
161,22835,22848,-0.013006624765694141,0.017734384164214134,1.0174957513809204,-8.704069137573242,1.9559574127197266,-13.709001541137695,-0.45297732949256897,0.6299684643745422,0.5369731187820435,1.9229918718338013,-0.25574612617492676,0.32572653889656067
162,22845,22858,0.05729992315173149,-0.025345297530293465,0.9901277422904968,-6.819045066833496,-0.601004421710968,-14.378893852233887,-0.45297732949256897,0.6119694113731384,0.5279735922813416,1.9221495389938354,-0.3916531801223755,0.2065812200307846
163,22855,22868,-0.006220086943358183,0.0009491065866313875,0.9907481074333191,-3.204031229019165,1.7746925354003906,-14.520760536193848,-0.455977201461792,0.623968780040741,0.5219739079475403,1.992099642753601,-0.487022340297699,0.07714442163705826
164,22865,22878,-0.025893310084939003,0.0716186910867691,1.0763530731201172,-0.4630100131034851,9.298040390014648,-15.165448188781738,-0.4544772803783417,0.6104694604873657,0.5414729118347168,1.9882967472076416,-0.45715364813804626,-0.0848771184682846
165,22875,22888,0.013654612004756927,0.010407432913780212,0.9753552675247192,2.5609190464019775,13.90480899810791,-14.608713150024414,-0.46197688579559326,0.6119694113731384,0.5369731187820435,1.960315227508545,-0.45916548371315,-0.2352794110774994
166,22885,22898,-0.03222603723406792,0.043739527463912964,1.0268669128417969,2.207108974456787,17.272907257080078,-13.831297874450684,-0.45297732949256897,0.6179690957069397,0.5339732766151428,1.7109936475753784,-0.4259955585002899,-0.38919270038604736
167,22895,22918,-0.025740599259734154,0.042820245027542114,0.9913807511329651,-2.3304502964019775,18.274160385131836,-13.505308151245117,-0.47097644209861755,0.6059696674346924,0.5399730205535889,1.5609235763549805,-0.4190140664577484,-0.5231000781059265
168,22905,22928,-0.057910192757844925,-0.019561411812901497,1.012385606765747,-6.182237148284912,16.27452850341797,-13.417237281799316,-0.45297732949256897,0.6149692535400391,0.5459727048873901,1.4780489206314087,-0.46858569979667664,-0.6470082402229309
169,22915,22938,-0.042088575661182404,-0.0233603585511446,0.950347900390625,-10.563475608825684,13.750410079956055,-13.636141777038574,-0.448477566242218,0.616469144821167,0.5384730696678162,1.1343154907226562,-0.5826737880706787,-0.7672851085662842
170,22925,22948,-0.011673742905259132,0.01831425540149212,1.0033828020095825,-10.810521125793457,12.58802318572998,-13.970098495483398,-0.4739762842655182,0.6299684643745422,0.5279735922813416,1.0451488494873047,-0.7397872805595398,-0.8868305683135986
171,22935,22958,-0.008080171421170235,0.025787033140659332,0.99799644947052,-6.437615871429443,14.464384078979492,-12.543235778808594,-0.4664766788482666,0.6254687309265137,0.5294735431671143,1.0242459774017334,-0.8825357556343079,-1.0160831212997437
172,22945,22968,0.017215076833963394,0.06531793624162674,1.0649482011795044,1.9790008068084717,12.433281898498535,-12.586503028869629,-0.4634768068790436,0.6194689869880676,0.5384730696678162,0.8543881177902222,-1.011215090751648,-1.1359723806381226
173,22955,22978,-0.024303928017616272,0.002395709976553917,0.960849404335022,9.580347061157227,10.053607940673828,-12.196846961975098,-0.4544772803783417,0.616469144821167,0.5294735431671143,0.6464539766311646,-0.9372376799583435,-1.2757887840270996
174,22965,22988,0.060591306537389755,0.06478007137775421,1.0481714010238647,16.177457809448242,6.193471431732178,-11.71297550201416,-0.4649767279624939,0.6089695692062378,0.5309734344482422,0.7726896405220032,-0.7495832443237305,-1.4264034032821655
175,22975,22998,-0.00954639445990324,0.056816305965185165,0.9713257551193237,22.118694305419922,4.052484512329102,-10.973419189453125,-0.46047696471214294,0.6074696183204651,0.5234737992286682,0.647775411605835,-0.46069714426994324,-1.5670666694641113
176,22985,23008,-0.08053786307573318,0.04425195977091789,0.9458328485488892,21.95379638671875,5.852822780609131,-10.288337707519531,-0.4649767279624939,0.6089695692062378,0.5339732766151428,0.5375218987464905,-0.3981168568134308,-1.653390645980835
177,22995,23018,-0.038518499583005905,0.04297510161995888,1.0216419696807861,20.987667083740234,11.063899993896484,-9.038229942321777,-0.46047696471214294,0.6284685730934143,0.5354732275009155,0.3931923806667328,-0.10262290388345718,-1.762442946434021
178,23005,23028,0.027354801073670387,0.06262057274580002,1.1032469272613525,14.775611877441406,22.49174690246582,-8.907721519470215,-0.4649767279624939,0.6209689378738403,0.5249737501144409,0.34903281927108765,-0.001337802386842668,-1.8431059122085571
179,23015,23038,0.015570048242807388,0.01392254140228033,0.963110089302063,6.622568607330322,30.176433563232422,-8.935441970825195,-0.4679765999317169,0.623968780040741,0.5309734344482422,-0.05698611959815025,0.2159091979265213,-1.9295310974121094
180,23025,23048,-0.05874261632561684,0.013966117054224014,0.9231587648391724,4.922052383422852,27.676250457763672,-8.878955841064453,-0.4769761562347412,0.6149692535400391,0.5279735922813416,-0.10617712140083313,0.1253424435853958,-2.012141704559326
181,23035,23058,-0.083848737180233,0.019894815981388092,1.0097373723983765,5.457982063293457,17.321430206298828,-8.448223114013672,-0.4829758405685425,0.6119694113731384,0.5219739079475403,-0.39945515990257263,0.23315809667110443,-2.1053874492645264
182,23045,23068,-0.016578152775764465,0.02368059940636158,1.0092926025390625,8.677045822143555,2.430338144302368,-8.006975173950195,-0.4754762053489685,0.6074696183204651,0.5354732275009155,-0.6605320572853088,0.2851784825325012,-2.190325975418091
183,23055,23078,0.09684924781322479,0.12130139768123627,0.999232292175293,13.383066177368164,-11.049881935119629,-8.291836738586426,-0.4649767279624939,0.6059696674346924,0.5279735922813416,-0.6924803256988525,0.24582764506340027,-2.2718393802642822
184,23065,23088,-0.01813710294663906,0.23118498921394348,1.0538201332092285,17.829147338867188,-23.123125076293945,-7.925262451171875,-0.4679765999317169,0.6089695692062378,0.5219739079475403,-0.4996403753757477,0.5647934675216675,-2.3539412021636963
185,23075,23098,-0.02741055190563202,0.06913742423057556,1.018496036529541,21.678701400756836,-29.471220016479492,-6.828553199768066,-0.4679765999317169,0.6059696674346924,0.5309734344482422,-0.34906312823295593,0.7274075150489807,-2.437537670135498
186,23085,23108,-0.08865930140018463,0.16066670417785645,0.9695637226104736,27.209156036376953,-31.385921478271484,-5.884798049926758,-0.47097644209861755,0.6089695692062378,0.5249737501144409,0.11323156207799911,1.039592981338501,-2.507979154586792
187,23095,23128,-0.01866745576262474,0.23807774484157562,1.0669612884521484,24.43966293334961,-21.548093795776367,-4.8983941078186035,-0.46947652101516724,0.6014699339866638,0.5204739570617676,0.30982205271720886,1.3148459196090698,-2.5775115489959717
188,23105,23138,0.03517008572816849,0.13554970920085907,1.1383341550827026,17.586116790771484,-10.0408353805542,-4.205901622772217,-0.4679765999317169,0.5999699831008911,0.5249737501144409,0.5123145580291748,1.5407253503799438,-2.63635516166687
189,23115,23148,0.03931662440299988,0.1264529824256897,1.041682481765747,-0.18308888375759125,6.098610877990723,-5.161408424377441,-0.4664766788482666,0.6134693026542664,0.5354732275009155,0.6360689997673035,1.6632333993911743,-2.6859869956970215
190,23125,23158,-0.08893459290266037,0.09513550251722336,1.1055124998092651,-14.903882026672363,14.57415771484375,-5.005836486816406,-0.4739762842655182,0.6089695692062378,0.5369731187820435,0.49361279606819153,1.6225712299346924,-2.7476372718811035
191,23135,23168,-0.054218392819166183,-0.061894722282886505,1.0313934087753296,-24.963708877563477,22.868846893310547,-5.475785732269287,-0.47247636318206787,0.5984700918197632,0.5234737992286682,0.42112213373184204,1.629571557044983,-2.782498359680176
192,23145,23178,0.0017056517535820603,0.0024507988709956408,1.024141550064087,-18.895570755004883,18.44200325012207,-5.943012714385986,-0.4544772803783417,0.6044697761535645,0.5264736413955688,0.06877920031547546,1.1984459161758423,-2.856910228729248
193,23155,23188,-0.06935138255357742,-0.01662839762866497,1.029016375541687,-10.499014854431152,11.830290794372559,-7.463651657104492,-0.47247636318206787,0.5984700918197632,0.5354732275009155,-0.07976534217596054,1.0038529634475708,-2.9012205600738525
194,23175,23198,-0.06904570013284683,-0.02826278656721115,1.0088026523590088,17.457767486572266,-6.1862335205078125,-8.200279235839844,-0.448477566242218,0.5984700918197632,0.5114744305610657,-0.2524661421775818,1.0650527477264404,-3.031430244445801
195,23185,23208,-0.046622343361377716,-0.0451592393219471,0.9155426025390625,29.64771842956543,-12.01313591003418,-7.623194217681885,-0.46947652101516724,0.5924703478813171,0.5204739570617676,-0.0657726600766182,1.3873916864395142,-3.0802910327911377
196,23195,23218,-0.0448090024292469,-0.006221923977136612,1.0174061059951782,32.41598129272461,-7.745454788208008,-5.308032989501953,-0.47097644209861755,0.5939702987670898,0.5249737501144409,0.04765703156590462,1.4886324405670166,-3.173400640487671
197,23205,23228,0.0021821088157594204,0.19443264603614807,1.1177334785461426,30.67194366455078,-3.841841697692871,-2.367760181427002,-0.4634768068790436,0.5894705057144165,0.5264736413955688,0.12359347939491272,1.9808597564697266,-3.2161316871643066
198,23215,23238,0.01143572572618723,0.1766776740550995,1.1008524894714355,13.851984024047852,1.2188050746917725,1.309213638305664,-0.4574771225452423,0.5834708213806152,0.5144742727279663,0.12798871099948883,2.1219706535339355,-3.2683358192443848
199,23225,23248,-0.0015152874402701855,0.011823569424450397,1.1723357439041138,-6.25571870803833,6.985985279083252,6.047138214111328,-0.4589770436286926,0.5819708704948425,0.5339732766151428,0.06082982197403908,2.2262117862701416,-3.278907299041748
200,23235,23258,0.058644894510507584,-0.001762694795615971,1.0969609022140503,-29.030498504638672,3.5089616775512695,10.898168563842773,-0.46047696471214294,0.5954701900482178,0.5234737992286682,0.04508258402347565,2.0675477981567383,-3.231326103210449
201,23245,23268,0.03264996409416199,0.06045123189687729,1.0694084167480469,-43.006446838378906,0.10686852037906647,18.117673873901367,-0.46047696471214294,0.5924703478813171,0.5294735431671143,-0.012212701141834259,1.8193422555923462,-3.1299264430999756
202,23255,23278,-0.03116140514612198,0.04986463114619255,1.0623533725738525,-44.48585891723633,-2.303086519241333,24.39350700378418,-0.46197688579559326,0.5849707126617432,0.5279735922813416,-0.01856922172009945,1.3373943567276,-2.9697418212890625
203,23265,23288,-0.06586596369743347,0.09110170602798462,1.088186264038086,-33.82224655151367,-6.967201232910156,26.68609046936035,-0.4634768068790436,0.5864706635475159,0.5384730696678162,0.10138227790594101,1.1456890106201172,-2.6922409534454346
204,23275,23298,-0.20603419840335846,0.1292658895254135,1.0349154472351074,-17.886123657226562,-0.4167442321777344,27.287296295166016,-0.455977201461792,0.5879706144332886,0.5309734344482422,0.13613831996917725,0.8341813683509827,-2.434605121612549
205,23285,23308,-0.07512141019105911,0.043760091066360474,1.0040041208267212,-0.5906317830085754,4.633105754852295,27.314170837402344,-0.45147740840911865,0.5954701900482178,0.5324733853340149,0.09790224581956863,0.6258031725883484,-2.175665855407715
206,23295,23318,-0.014959579333662987,0.09244728833436966,1.0225298404693604,11.932429313659668,14.5894775390625,25.4949893951416,-0.4544772803783417,0.5894705057144165,0.5324733853340149,0.14160971343517303,0.6692679524421692,-1.8753783702850342
207,23305,23328,-0.026503466069698334,0.12723614275455475,1.018311619758606,5.924270153045654,11.233697891235352,22.194198608398438,-0.4664766788482666,0.5864706635475159,0.5384730696678162,0.11828863620758057,0.6866284608840942,-1.6035465002059937
208,23315,23338,-0.1465410739183426,0.08968525379896164,1.014480471611023,-7.508306980133057,4.250439167022705,18.311012268066406,-0.46947652101516724,0.5954701900482178,0.5294735431671143,-0.06978298723697662,0.7646370530128479,-1.3841583728790283
209,23325,23348,-0.14402161538600922,-0.02579745464026928,0.8990087509155273,-21.140819549560547,-4.5473313331604,15.621410369873047,-0.45147740840911865,0.6014699339866638,0.5234737992286682,-0.1310407668352127,0.6974097490310669,-1.1984503269195557
210,23335,23358,-0.11839640140533447,-0.03680918365716934,0.9179198741912842,-38.593177795410156,-5.761296272277832,13.979714393615723,-0.4739762842655182,0.5969701409339905,0.5249737501144409,-0.0457354411482811,0.8016232252120972,-0.99383544921875
211,23345,23368,-0.06716515868902206,0.0168092492967844,1.012491226196289,-49.14440155029297,-8.153705596923828,14.690186500549316,-0.47097644209861755,0.5939702987670898,0.5279735922813416,0.02110711857676506,0.09214090555906296,-0.8873047828674316
212,23355,23378,0.024137811735272408,0.08612383902072906,1.205081820487976,-49.45958709716797,-10.245546340942383,15.004392623901367,-0.45297732949256897,0.6089695692062378,0.5339732766151428,0.12363900989294052,0.030714165419340134,-0.6914488673210144
213,23365,23388,-0.02941688895225525,-0.03922147676348686,1.0799529552459717,-37.83554458618164,-6.418418884277344,13.060356140136719,-0.46047696471214294,0.5984700918197632,0.5384730696678162,0.3724208176136017,-0.7208704948425293,-0.5506578683853149
214,23375,23398,-0.07511986047029495,-0.0023864523973315954,0.9524180889129639,-21.308828353881836,5.353766441345215,12.573044776916504,-0.448477566242218,0.6044697761535645,0.5174741148948669,0.3760710060596466,-0.8435402512550354,-0.3939478099346161
215,23385,23408,-0.12875041365623474,0.09501141309738159,0.8731120228767395,-2.1840555667877197,16.773271560668945,14.48279094696045,-0.448477566242218,0.6044697761535645,0.5294735431671143,0.22624896466732025,-1.1803364753723145,-0.2879865765571594
216,23395,23418,-0.09705331176519394,0.05883357301354408,0.9185753464698792,6.11390495300293,26.924949645996094,14.758201599121094,-0.4469776451587677,0.5939702987670898,0.5369731187820435,0.024052372202277184,-1.1275993585586548,-0.14288192987442017
217,23405,23438,-0.039300337433815,0.04109910875558853,0.9727765917778015,1.5956215858459473,31.577247619628906,10.919304847717285,-0.4634768068790436,0.5984700918197632,0.5324733853340149,-0.2683558464050293,-1.1438039541244507,-0.010168027132749557
218,23415,23448,-0.20274484157562256,0.14402177929878235,0.942360520362854,-2.852062463760376,35.021385192871094,7.4795708656311035,-0.4634768068790436,0.6014699339866638,0.5384730696678162,-0.5624998211860657,-1.1956981420516968,0.0934261679649353
219,23425,23458,-0.1420636624097824,0.10625581443309784,0.8995488286018372,-7.335534572601318,23.387670516967773,5.525295734405518,-0.45297732949256897,0.5939702987670898,0.5279735922813416,-0.6718589663505554,-1.3069548606872559,0.15748536586761475
220,23435,23468,0.06634565442800522,-0.04072941467165947,0.9114112257957458,-13.51688289642334,7.398045063018799,4.862443447113037,-0.4544772803783417,0.6014699339866638,0.5324733853340149,-0.8488410711288452,-1.4932321310043335,0.19046838581562042
221,23445,23478,0.09998493641614914,-0.061708033084869385,1.046191692352295,-17.1972713470459,-7.8071465492248535,4.745286464691162,-0.46947652101516724,0.5924703478813171,0.5204739570617676,-0.924929678440094,-1.339087963104248,0.2728327810764313
222,23455,23488,-0.06377065181732178,0.03795839473605156,1.0029330253601074,-19.24635887145996,-8.555328369140625,4.156301021575928,-0.44997748732566833,0.6029698252677917,0.5249737501144409,-0.8816288113594055,-1.6736267805099487,0.29395613074302673
223,23465,23498,-0.15595893561840057,0.14900760352611542,0.9641857147216797,-23.04205894470215,-9.769919395446777,2.5727531909942627,-0.48147591948509216,0.6104694604873657,0.5174741148948669,-0.7548679113388062,-1.6185590028762817,0.3780284523963928
224,23475,23508,-0.07231922447681427,0.08252696692943573,0.9791050553321838,-22.561811447143555,-11.373481750488281,0.5143362283706665,-0.4664766788482666,0.6074696183204651,0.5354732275009155,-0.5469173192977905,-2.09972882270813,0.36177074909210205
225,23485,23518,-0.023034125566482544,-0.1242813840508461,0.8793964982032776,-20.775026321411133,-1.2624439001083374,-0.09770718961954117,-0.4679765999317169,0.6029698252677917,0.5459727048873901,-0.4947725832462311,-2.217672824859619,0.4024401903152466
226,23495,23528,-0.002982604317367077,-0.0660584419965744,0.9244328141212463,-16.022907257080078,14.04038143157959,-1.845749020576477,-0.4649767279624939,0.5969701409339905,0.5129743218421936,-0.3314557373523712,-2.368297815322876,0.39251473546028137
227,23505,23538,-0.12224296480417252,0.07362954318523407,0.9231628179550171,-10.183323860168457,25.45917510986328,-3.01906418800354,-0.46947652101516724,0.6074696183204651,0.5264736413955688,-0.6583165526390076,-2.650853157043457,0.39074990153312683
228,23515,23548,-0.1671624630689621,0.17839081585407257,0.9201468229293823,-3.3565802574157715,35.70719528198242,-4.219879150390625,-0.46947652101516724,0.6074696183204651,0.5204739570617676,-0.9405900835990906,-2.686854362487793,0.37606897950172424
229,23525,23568,0.04164803773164749,0.09226927161216736,1.0274237394332886,5.265791893005371,35.912899017333984,-4.922919273376465,-0.47997599840164185,0.6029698252677917,0.5219739079475403,-1.256585955619812,-2.7423551082611084,0.3198145627975464
230,23535,23578,0.15912213921546936,0.03224992752075195,1.0317041873931885,18.288639068603516,24.319583892822266,-5.707993030548096,-0.4739762842655182,0.6059696674346924,0.5189740657806396,-1.3317230939865112,-2.6224381923675537,0.20033572614192963
231,23545,23588,0.1520765721797943,-0.017084401100873947,1.1825287342071533,24.443403244018555,12.959342956542969,-5.193428993225098,-0.4919753968715668,0.5969701409339905,0.5309734344482422,-1.6159991025924683,-2.3443377017974854,0.15849819779396057
232,23555,23598,0.0726701021194458,0.037217192351818085,1.1909043788909912,20.380287170410156,5.24340295791626,-3.895519495010376,-0.46947652101516724,0.6074696183204651,0.5294735431671143,-1.7848150730133057,-2.299945592880249,0.06224486976861954
233,23565,23608,-0.10861045122146606,0.08382424712181091,0.9748085737228394,7.252023696899414,8.237895965576172,-2.9506490230560303,-0.4754762053489685,0.6074696183204651,0.5114744305610657,-1.8634586334228516,-2.133669137954712,0.02487632818520069
234,23575,23618,-0.04982097074389458,0.048207834362983704,1.0011638402938843,-5.492990493774414,9.944668769836426,-1.037432312965393,-0.4634768068790436,0.6044697761535645,0.5384730696678162,-1.9039106369018555,-2.085857629776001,-0.02731592021882534
235,23585,23628,-0.034044861793518066,0.03427678346633911,1.0224946737289429,-8.406341552734375,3.01212477684021,-0.15872541069984436,-0.47097644209861755,0.5879706144332886,0.509974479675293,-1.7264041900634766,-2.1838321685791016,-0.14748932421207428
236,23595,23638,-0.03381991386413574,0.021510226652026176,0.9949656128883362,-2.628195285797119,-1.72843337059021,0.4111694097518921,-0.4649767279624939,0.5849707126617432,0.5279735922813416,-1.5677095651626587,-2.29040789604187,-0.22958724200725555
237,23605,23648,0.008671796880662441,0.019351432099938393,0.9952091574668884,11.929400444030762,-2.5206139087677,1.782202124595642,-0.4844757616519928,0.6044697761535645,0.5144742727279663,-1.6465896368026733,-2.4045374393463135,-0.22864367067813873
238,23615,23658,-0.0035839881747961044,0.044887982308864594,1.0138415098190308,31.9736328125,7.780102252960205,3.5452628135681152,-0.4739762842655182,0.5999699831008911,0.5249737501144409,-1.6883416175842285,-2.227799892425537,-0.17279374599456787
239,23625,23668,-0.04499363526701927,0.011574219912290573,0.9334923028945923,46.890159606933594,23.404298782348633,5.941206455230713,-0.4859756827354431,0.5999699831008911,0.5189740657806396,-1.9682049751281738,-1.7087608575820923,0.0038160874973982573
240,23635,23678,-0.09537242352962494,0.15859100222587585,0.9438694715499878,48.2511100769043,36.475399017333984,9.098393440246582,-0.4829758405685425,0.6029698252677917,0.5279735922813416,-2.2290754318237305,-1.3132866621017456,0.0595722459256649
241,23645,23688,-0.04249916598200798,0.21462619304656982,1.0071954727172852,35.27442932128906,48.44362258911133,11.628498077392578,-0.49947500228881836,0.6074696183204651,0.5204739570617676,-2.3488223552703857,-0.8687630295753479,0.046653274446725845
242,23655,23698,0.08792491257190704,0.1893077790737152,1.1780412197113037,12.892589569091797,36.37908935546875,15.799407005310059,-0.47997599840164185,0.5969701409339905,0.5189740657806396,-2.7534635066986084,-0.4435015320777893,0.14848843216896057
243,23665,23708,0.011456052772700787,0.07163973897695541,1.0693342685699463,-10.206225395202637,20.489240646362305,18.38711929321289,-0.48897555470466614,0.5969701409339905,0.5219739079475403,-3.0228347778320312,-0.3756297528743744,0.20277540385723114
244,23675,23718,-0.033027105033397675,0.03467296063899994,0.9929593205451965,-27.512378692626953,-0.5692682266235352,18.726696014404297,-0.46947652101516724,0.6014699339866638,0.5294735431671143,-3.289963960647583,-0.5686797499656677,0.32454797625541687
245,23685,23728,0.00034255339414812624,-0.09110326319932938,0.9725853800773621,-34.01664352416992,-11.623900413513184,16.9139404296875,-0.4769761562347412,0.5849707126617432,0.5279735922813416,-3.3447728157043457,-0.704775333404541,0.5479508638381958
246,23695,23738,-0.023717910051345825,-0.0523514561355114,0.9339735507965088,-27.135753631591797,-22.046125411987305,15.382481575012207,-0.47247636318206787,0.5804709792137146,0.5264736413955688,-2.965470552444458,-1.1823980808258057,0.5818175673484802
247,23705,23748,-0.10141871869564056,0.07710854709148407,0.890346348285675,-8.88819408416748,-24.546367645263672,12.892290115356445,-0.47097644209861755,0.6029698252677917,0.5279735922813416,-3.0421411991119385,-1.3606091737747192,0.8562036156654358
248,23715,23758,0.012863203883171082,0.09059368818998337,0.9619476795196533,8.085920333862305,-16.080322265625,10.70015811920166,-0.4739762842655182,0.5849707126617432,0.5339732766151428,-2.7418391704559326,-1.4249074459075928,1.0100070238113403
249,23725,23768,-0.0028438514564186335,0.06357657164335251,1.017783284187317,17.89101219177246,-3.9461700916290283,9.063506126403809,-0.47097644209861755,0.5819708704948425,0.5279735922813416,-2.646064281463623,-1.3261946439743042,1.1745378971099854
250,23735,23778,-0.06740348041057587,0.09420637041330338,0.9873897433280945,22.303377151489258,3.18095064163208,6.916203498840332,-0.49047547578811646,0.5924703478813171,0.5144742727279663,-2.574061393737793,-1.0759665966033936,1.310204267501831
251,23745,23788,-0.10327519476413727,0.1598224937915802,0.9644229412078857,21.844511032104492,4.8386383056640625,5.8283586502075195,-0.4589770436286926,0.5759711861610413,0.5249737501144409,-2.740138530731201,-0.8432498574256897,1.4227712154388428
252,23755,23798,-0.04869617894291878,0.0911506935954094,0.9499366283416748,16.433618545532227,7.632540702819824,5.659988880157471,-0.48897555470466614,0.5819708704948425,0.5159741640090942,-2.5862598419189453,-0.7755621075630188,1.361067533493042
253,23765,23808,-0.023645125329494476,0.005948191974312067,0.9117723703384399,9.143070220947266,9.451532363891602,7.215399265289307,-0.4769761562347412,0.5849707126617432,0.5249737501144409,-2.5555789470672607,-0.5097488760948181,1.4354783296585083
254,23775,23818,0.012789631262421608,0.017743661999702454,0.9439206123352051,2.6199424266815186,4.463778495788574,7.575595855712891,-0.455977201461792,0.5879706144332886,0.5159741640090942,-2.66306734085083,-0.42708316445350647,1.4909883737564087
255,23785,23828,0.04758097976446152,0.024364711716771126,1.12301766872406,-6.703457832336426,5.0007524490356445,6.856690406799316,-0.48147591948509216,0.5864706635475159,0.5204739570617676,-2.8012990951538086,-0.3916985094547272,1.5731233358383179
256,23795,23838,0.007855509407818317,0.06251752376556396,0.9982066750526428,-13.57845687866211,-0.38565394282341003,5.859360218048096,-0.47247636318206787,0.5864706635475159,0.5114744305610657,-2.672213077545166,-0.492404043674469,1.5827281475067139
257,23805,23848,-0.0277660321444273,0.056888677179813385,0.9385303854942322,-14.128551483154297,-3.6704421043395996,5.628175735473633,-0.4664766788482666,0.5804709792137146,0.5174741148948669,-2.706676721572876,-0.6733106374740601,1.6167714595794678
258,23815,23858,0.03352433070540428,-0.014545489102602005,1.0104939937591553,-8.667375564575195,-4.26162052154541,4.628629207611084,-0.4919753968715668,0.5939702987670898,0.5309734344482422,-2.6882736682891846,-0.7654526829719543,1.6973472833633423
259,23825,23868,-0.012466015294194221,0.05143558606505394,0.9614814519882202,3.6421003341674805,-3.8287768363952637,3.143101453781128,-0.4844757616519928,0.5834708213806152,0.5174741148948669,-2.6523854732513428,-0.8200920224189758,1.7695350646972656
260,23835,23878,-0.010547489859163761,0.050763893872499466,0.9777536988258362,21.871246337890625,-6.757314205169678,4.037320137023926,-0.4649767279624939,0.5939702987670898,0.5159741640090942,-2.603693962097168,-0.798337996006012,1.8146343231201172
261,23845,23888,-0.026242276653647423,0.03390773758292198,0.9812986254692078,37.22237777709961,-0.7480412125587463,3.280296564102173,-0.4829758405685425,0.6059696674346924,0.5249737501144409,-2.5018322467803955,-0.3635292947292328,1.9675588607788086
262,23855,23898,0.07777895778417587,0.05123375356197357,1.001086950302124,41.11045837402344,5.737786769866943,3.3667428493499756,-0.4769761562347412,0.5939702987670898,0.5189740657806396,-2.535447835922241,-0.3175312280654907,1.8681195974349976
263,23865,23908,0.09964004904031754,0.07496841996908188,1.050918698310852,33.8524055480957,11.3701753616333,2.331303596496582,-0.48147591948509216,0.5864706635475159,0.5234737992286682,-2.6670689582824707,0.27116909623146057,1.9980584383010864
264,23875,23918,-0.04041028022766113,0.17376840114593506,1.0304758548736572,26.64488983154297,17.989469528198242,0.7662755250930786,-0.4964751601219177,0.6014699339866638,0.5264736413955688,-2.824279308319092,0.540040135383606,1.9833401441574097
265,23885,23928,-0.07741729170084,0.24947552382946014,1.062320590019226,16.60106086730957,15.593259811401367,0.3797924518585205,-0.4919753968715668,0.5759711861610413,0.5309734344482422,-2.961054563522339,0.6772119998931885,1.9260414838790894
266,23895,23938,-0.0015054832911118865,0.08207109570503235,1.015115737915039,6.037168025970459,9.505970001220703,0.7859911322593689,-0.48897555470466614,0.5789710283279419,0.5189740657806396,-3.0561604499816895,0.8101931810379028,1.9005563259124756
267,23905,23948,0.007897330448031425,0.02707912027835846,1.0102390050888062,1.3607395887374878,-4.24811315536499,0.7744435667991638,-0.48897555470466614,0.5849707126617432,0.5189740657806396,-3.143895149230957,0.9456276893615723,1.9305362701416016
268,23915,23958,-0.010824473574757576,0.023693230003118515,1.0154377222061157,-3.1148200035095215,-20.980449676513672,-0.20946760475635529,-0.47847607731819153,0.5864706635475159,0.5174741148948669,-3.070439338684082,0.9805269837379456,1.945173740386963
269,23925,23968,-0.08842884004116058,0.07349160313606262,1.0418022871017456,-3.2945396900177,-31.302715301513672,-2.0347282886505127,-0.4649767279624939,0.5729713439941406,0.5219739079475403,-2.972212791442871,0.9659820795059204,1.9443604946136475
270,23935,23978,-0.08495441824197769,0.06562218815088272,1.0473426580429077,-2.3180718421936035,-33.68296813964844,-3.4704205989837646,-0.4739762842655182,0.5819708704948425,0.5279735922813416,-2.6594057083129883,0.9457247853279114,1.9291863441467285
271,23945,23988,-0.05932909995317459,0.033230412751436234,0.9831337928771973,-1.142187476158142,-32.0605354309082,-3.5648865699768066,-0.47097644209861755,0.5849707126617432,0.5249737501144409,-2.258455276489258,0.9415786862373352,1.903366208076477
272,23955,23998,-0.037951208651065826,0.008367465808987617,0.9738245010375977,3.645644426345825,-24.04427719116211,-2.7911324501037598,-0.4769761562347412,0.5789710283279419,0.5219739079475403,-1.8548707962036133,0.9760222434997559,1.8912291526794434
273,23965,24008,-0.0033957555424422026,0.02058003656566143,0.9694116115570068,9.078227043151855,-13.63374137878418,-2.2974908351898193,-0.48147591948509216,0.5744712948799133,0.5234737992286682,-1.8569591045379639,1.077438235282898,1.8677507638931274
274,23975,24018,0.0009234138997271657,0.02421041764318943,0.9826198220252991,16.150522232055664,-2.24684476852417,-1.642215371131897,-0.4739762842655182,0.56997150182724,0.5279735922813416,-1.8100427389144897,0.9961270093917847,1.7614692449569702
275,23985,24028,0.12132008373737335,0.02285616286098957,1.0577071905136108,21.594066619873047,5.266284465789795,-1.0080357789993286,-0.4649767279624939,0.5849707126617432,0.5159741640090942,-1.774929404258728,1.0254400968551636,1.6943820714950562
276,23995,24038,0.08883519470691681,0.05054192245006561,1.0797401666641235,21.897550582885742,8.15539836883545,1.0021326541900635,-0.4664766788482666,0.5894705057144165,0.5324733853340149,-1.7676528692245483,1.3319987058639526,1.7287849187850952
277,24005,24048,-0.052544791251420975,0.1817598193883896,1.067833662033081,15.654606819152832,4.31971549987793,0.7497757077217102,-0.46197688579559326,0.5729713439941406,0.5249737501144409,-1.8518633842468262,1.606904149055481,1.7555323839187622
278,24015,24058,-0.06127546355128288,0.22110208868980408,1.0358706712722778,6.4197611808776855,-0.31628355383872986,0.3580660820007324,-0.46947652101516724,0.5744712948799133,0.5264736413955688,-1.9379721879959106,1.7719289064407349,1.7600101232528687
279,24025,24068,-0.018568329513072968,0.18768759071826935,0.9541639089584351,0.10037723183631897,-15.158868789672852,-0.5454230904579163,-0.47997599840164185,0.56997150182724,0.5369731187820435,-1.8099712133407593,1.876665472984314,1.7965037822723389
280,24035,24078,-0.018279574811458588,0.05046969652175903,0.9087007641792297,-1.7055813074111938,-25.762399673461914,-1.2276924848556519,-0.4664766788482666,0.5744712948799133,0.5234737992286682,-1.7946022748947144,1.8236424922943115,1.748932957649231
281,24045,24088,0.0009654010646045208,0.019480736926198006,0.9634919166564941,-6.740095138549805,-27.89187240600586,-1.918073058128357,-0.4739762842655182,0.5849707126617432,0.5219739079475403,-1.4951128959655762,1.6476924419403076,1.6960527896881104
282,24055,24098,-0.023266568779945374,0.017734209075570107,0.9592448472976685,-12.834955215454102,-25.976625442504883,-2.4611148834228516,-0.47247636318206787,0.5894705057144165,0.5354732275009155,-1.1559449434280396,1.7549734115600586,1.7331033945083618
283,24065,24108,-0.0008590310462750494,0.08004086464643478,1.0295101404190063,-20.000402450561523,-20.83306884765625,-3.2622318267822266,-0.46947652101516724,0.5834708213806152,0.5204739570617676,-1.1411303281784058,1.600869059562683,1.6295084953308105
284,24075,24118,-0.007978793233633041,0.05722217261791229,1.0068191289901733,-23.24433708190918,-11.31332015991211,-5.614932060241699,-0.4679765999317169,0.5849707126617432,0.5279735922813416,-0.7976537346839905,1.55963933467865,1.661946415901184
285,24095,24128,-0.06839777529239655,0.015748048201203346,0.9362132549285889,-17.70000648498535,-5.865076065063477,-7.979557991027832,-0.4649767279624939,0.5849707126617432,0.5429728627204895,-0.7620517015457153,1.06202232837677,1.4810206890106201
286,24105,24138,-0.0753348171710968,-0.055805277079343796,0.869976818561554,-16.0508975982666,-7.19033670425415,-10.152010917663574,-0.4589770436286926,0.5999699831008911,0.5309734344482422,-0.8070119023323059,0.7752956748008728,1.3530141115188599
287,24115,24148,0.005460498388856649,-0.13312430679798126,0.856281042098999,-9.52802848815918,-12.595780372619629,-11.825491905212402,-0.46047696471214294,0.5894705057144165,0.5384730696678162,-0.5961136221885681,0.5513637065887451,1.2859147787094116
288,24125,24158,0.08972130715847015,-0.1426210105419159,0.8614862561225891,-3.3690221309661865,-14.71402645111084,-13.860222816467285,-0.4574771225452423,0.5864706635475159,0.5234737992286682,-0.4072766602039337,0.6291890144348145,1.2180124521255493
289,24135,24168,0.1267549991607666,-0.1123262271285057,0.9131842255592346,0.29641833901405334,-15.073606491088867,-15.296098709106445,-0.4649767279624939,0.6029698252677917,0.5159741640090942,0.03135807067155838,0.7132986783981323,1.1739150285720825
290,24145,24178,0.14813193678855896,-0.08281852304935455,0.9933867454528809,-2.55880069732666,-10.673928260803223,-16.833057403564453,-0.47247636318206787,0.6134693026542664,0.5234737992286682,-0.267591267824173,0.6158037781715393,0.9013161063194275
291,24155,24188,0.11083841323852539,-0.07105809450149536,1.067891001701355,-12.266497611999512,-4.59428071975708,-18.383527755737305,-0.47247636318206787,0.6314684152603149,0.5264736413955688,-0.04546615481376648,0.5924568772315979,0.7608116865158081
292,24165,24198,0.012721705250442028,-0.07056915014982224,1.0637775659561157,-24.96788215637207,-1.0749379396438599,-20.016117095947266,-0.46047696471214294,0.622468888759613,0.5384730696678162,-0.1324867606163025,0.5498533844947815,0.5494689345359802
293,24175,24208,-0.019305821508169174,-0.08169294148683548,1.0402865409851074,-28.760589599609375,-1.7780479192733765,-22.245115280151367,-0.4664766788482666,0.622468888759613,0.5354732275009155,-0.04028506949543953,0.20124459266662598,0.36974966526031494
294,24185,24218,-0.003943098243325949,-0.12799856066703796,1.0160034894943237,-19.619808197021484,-4.495556354522705,-23.77857208251953,-0.47097644209861755,0.6179690957069397,0.5339732766151428,-0.011548344045877457,-0.006718053016811609,0.1572241336107254
295,24195,24228,0.0030407700687646866,-0.15328997373580933,1.0519330501556396,-7.27777099609375,-8.20048713684082,-24.615619659423828,-0.4754762053489685,0.6344682574272156,0.5324733853340149,-0.008724401704967022,-0.28779131174087524,-0.08279392868280411
296,24205,24238,0.07210539281368256,-0.06564456224441528,1.0908360481262207,1.4429184198379517,-10.741605758666992,-24.191152572631836,-0.47097644209861755,0.6119694113731384,0.5279735922813416,-0.01188990380614996,-0.17501451075077057,-0.34747058153152466
297,24225,24248,0.021785560995340347,0.01937100663781166,1.0331875085830688,6.1201066970825195,-10.905559539794922,-21.413558959960938,-0.4679765999317169,0.6359682083129883,0.5279735922813416,0.1341506838798523,-0.44006529450416565,-0.8086794018745422
298,24235,24258,0.003679390996694565,0.055012047290802,0.961889386177063,0.5430682897567749,-7.408022403717041,-20.21097183227539,-0.4679765999317169,0.623968780040741,0.5399730205535889,0.232459157705307,-0.36042627692222595,-1.0262411832809448
299,24245,24268,-0.03047771193087101,0.08850126713514328,0.9693449139595032,-4.458662986755371,-5.123203754425049,-19.28779411315918,-0.4634768068790436,0.6194689869880676,0.5354732275009155,0.2859592139720917,-0.35827696323394775,-1.2311160564422607
300,24255,24278,-0.028490358963608742,0.16729213297367096,1.0756893157958984,-8.374267578125,-6.386294841766357,-18.11122703552246,-0.4544772803783417,0.6194689869880676,0.5264736413955688,0.46522027254104614,-0.3666950464248657,-1.413480281829834
301,24265,24288,-0.09838618338108063,0.20606637001037598,1.0974677801132202,-9.2938232421875,-11.3633451461792,-17.844167709350586,-0.455977201461792,0.6119694113731384,0.5459727048873901,0.6009984016418457,-0.42287638783454895,-1.59128737449646
302,24275,24298,-0.11572319269180298,0.1365635246038437,1.1263511180877686,-7.913467884063721,-15.739672660827637,-16.59369468688965,-0.4634768068790436,0.6254687309265137,0.5294735431671143,0.6524533033370972,-0.4805610477924347,-1.7755253314971924
303,24285,24308,-0.05220991000533104,0.039844267070293427,1.108215093612671,-5.322214126586914,-16.09067153930664,-14.869710922241211,-0.4664766788482666,0.6254687309265137,0.5384730696678162,0.9657290577888489,-0.516223132610321,-1.9374462366104126
304,24295,24318,0.0088416812941432,0.0246037058532238,1.1308099031448364,-1.308641791343689,-14.829648971557617,-13.485374450683594,-0.4664766788482666,0.5984700918197632,0.5354732275009155,0.7808200716972351,-0.569113552570343,-2.1099414825439453
305,24305,24328,0.052822306752204895,0.07099806517362595,1.0921968221664429,2.591249465942383,-11.409911155700684,-12.15031909942627,-0.46047696471214294,0.622468888759613,0.5294735431671143,1.0085816383361816,-0.5653862953186035,-2.2429893016815186
306,24315,24338,0.07408483326435089,0.178089901804924,1.0835037231445312,5.039050102233887,-6.391982555389404,-10.327774047851562,-0.4589770436286926,0.623968780040741,0.5279735922813416,1.017927885055542,-0.5824949145317078,-2.361654758453369
307,24325,24358,0.01660635508596897,0.190902978181839,1.032647967338562,6.620240211486816,-4.591028690338135,-8.296701431274414,-0.455977201461792,0.6029698252677917,0.5339732766151428,1.1878477334976196,-0.4231676459312439,-2.493730306625366
308,24335,24368,-0.023668432608246803,0.18814051151275635,1.008570909500122,7.4227728843688965,-5.658779621124268,-5.7914862632751465,-0.44397780299186707,0.6089695692062378,0.5309734344482422,1.3339155912399292,-0.5301802754402161,-2.5336828231811523
309,24345,24378,-0.01940418779850006,0.22109536826610565,1.0791746377944946,7.3584489822387695,-7.921380043029785,-2.820439338684082,-0.4649767279624939,0.5939702987670898,0.5339732766151428,1.4104149341583252,-0.4667331576347351,-2.5899834632873535
310,24355,24388,-0.01504336204379797,0.14865180850028992,1.1043803691864014,7.467450141906738,-9.634610176086426,-0.7640096545219421,-0.45147740840911865,0.5894705057144165,0.5294735431671143,1.590635061264038,-0.33051639795303345,-2.638075113296509
311,24365,24398,-1.1553007425391115e-05,0.05916277691721916,1.094219446182251,7.408122539520264,-8.98651123046875,0.9946414232254028,-0.45297732949256897,0.6029698252677917,0.5279735922813416,1.709850788116455,-0.2775392532348633,-2.6442835330963135
312,24375,24408,0.052921343594789505,0.06717891991138458,1.0442053079605103,7.162975311279297,-7.208248138427734,2.935903787612915,-0.4469776451587677,0.6029698252677917,0.5279735922813416,1.7433123588562012,-0.1505175530910492,-2.6551170349121094
313,24385,24418,0.11574696749448776,0.13988114893436432,1.0339454412460327,6.0080671310424805,-4.078945636749268,4.739990711212158,-0.455977201461792,0.5909704566001892,0.5339732766151428,1.8824414014816284,-0.03850541636347771,-2.6443660259246826
314,24395,24428,0.13288725912570953,0.16273194551467896,1.0182889699935913,5.754164218902588,2.6004111766815186,7.3009514808654785,-0.44997748732566833,0.5999699831008911,0.5309734344482422,1.8040404319763184,0.05651001259684563,-2.6129329204559326
315,24405,24438,0.02453644946217537,0.09419847279787064,1.003088116645813,4.582025527954102,7.422653675079346,8.794428825378418,-0.45297732949256897,0.5879706144332886,0.5249737501144409,1.7920156717300415,0.13327234983444214,-2.5559794902801514
316,24415,24448,-0.03144528344273567,0.03445226326584816,0.9929405450820923,4.774569511413574,8.378584861755371,9.824213027954102,-0.4454777240753174,0.5834708213806152,0.5264736413955688,1.643209457397461,0.1328485757112503,-2.4513227939605713
317,24425,24458,-0.025279514491558075,0.025931669399142265,0.977506697177887,6.139309406280518,5.974338054656982,9.760984420776367,-0.45297732949256897,0.5969701409339905,0.5219739079475403,1.209031105041504,0.074522964656353,-2.3109383583068848
318,24435,24468,0.014180226251482964,0.08928104490041733,0.9589951038360596,7.8585710525512695,1.5653945207595825,9.198513984680176,-0.4349782466888428,0.5909704566001892,0.5459727048873901,1.193243145942688,0.1118253692984581,-2.205770492553711
319,24445,24478,-0.0072936564683914185,0.09261155128479004,0.9904547929763794,10.396387100219727,-6.442459583282471,8.840315818786621,-0.45297732949256897,0.5819708704948425,0.5339732766151428,1.120428442955017,0.11367044597864151,-2.0844192504882812
320,24455,24488,-0.019979387521743774,0.049802254885435104,1.0226733684539795,10.48426628112793,-13.766841888427734,8.733169555664062,-0.44397780299186707,0.5879706144332886,0.5339732766151428,1.3751565217971802,0.2873764634132385,-2.0285205841064453
321,24465,24498,-0.008456558920443058,0.13666176795959473,1.0274882316589355,9.494288444519043,-18.133647918701172,8.748662948608398,-0.44247788190841675,0.5954701900482178,0.5324733853340149,1.4456357955932617,0.24699288606643677,-1.8837881088256836
322,24475,24508,-0.00513879070058465,0.16816003620624542,0.9941439628601074,7.182628631591797,-18.118560791015625,7.510826587677002,-0.4454777240753174,0.6014699339866638,0.5354732275009155,1.7804869413375854,0.4078505337238312,-1.8243030309677124
323,24485,24518,-0.03329673036932945,0.10729435086250305,0.9452293515205383,3.7777528762817383,-15.444767951965332,6.636729717254639,-0.44397780299186707,0.5999699831008911,0.5279735922813416,2.023508310317993,0.5237694978713989,-1.760162115097046
324,24495,24528,-0.035098735243082047,0.10748160630464554,0.9956486821174622,4.375917911529541,-10.750953674316406,6.292041301727295,-0.44397780299186707,0.5939702987670898,0.5249737501144409,2.1370596885681152,0.6021785736083984,-1.711504340171814
325,24505,24538,-0.04739907756447792,0.13895390927791595,1.0799133777618408,7.414788722991943,-4.34022331237793,7.307226181030273,-0.448477566242218,0.6044697761535645,0.5264736413955688,2.241386890411377,0.6920593976974487,-1.6743309497833252
326,24515,24548,-0.07575587183237076,0.1837887316942215,1.0918914079666138,9.56091022491455,5.820731163024902,9.798011779785156,-0.4454777240753174,0.6044697761535645,0.5204739570617676,2.289325714111328,0.8122895956039429,-1.6351674795150757
327,24525,24558,-0.04424654319882393,0.07434232532978058,1.0086214542388916,12.317464828491211,16.674442291259766,13.1410493850708,-0.4649767279624939,0.6119694113731384,0.5309734344482422,2.1658987998962402,0.9703003764152527,-1.5803358554840088
328,24535,24568,0.026208944618701935,-0.03463596850633621,0.9251548051834106,11.6436128616333,26.675933837890625,16.238988876342773,-0.4469776451587677,0.6209689378738403,0.5309734344482422,1.8830939531326294,0.9319142699241638,-1.387970209121704
329,24545,24578,0.018942896276712418,0.10236216336488724,1.0002983808517456,5.635300159454346,31.53174591064453,17.630510330200195,-0.44997748732566833,0.6029698252677917,0.5399730205535889,1.0633552074432373,0.9387281537055969,-1.2134183645248413
330,24555,24588,0.00907360389828682,0.18160328269004822,1.028933048248291,-1.2845046520233154,23.29407501220703,18.433095932006836,-0.47097644209861755,0.5939702987670898,0.5369731187820435,0.9097284078598022,1.0056264400482178,-1.022819995880127
331,24565,24598,-0.039996128529310226,0.16645529866218567,1.03738534450531,-6.477960586547852,2.310892105102539,19.623964309692383,-0.455977201461792,0.6089695692062378,0.5279735922813416,0.6895172595977783,0.9681732058525085,-0.8213824033737183
332,24575,24608,-0.05731230229139328,0.11026857048273087,0.9460642337799072,-9.948288917541504,-22.984350204467773,20.103422164916992,-0.4634768068790436,0.6074696183204651,0.5294735431671143,0.744573712348938,0.9307772517204285,-0.621505618095398
333,24585,24618,-0.12001480907201767,0.10862073302268982,0.9392906427383423,-4.589110851287842,-40.48292541503906,21.04106330871582,-0.45147740840911865,0.6104694604873657,0.5204739570617676,1.079291582107544,0.9418061971664429,-0.45701098442077637
334,24595,24628,-0.07696842402219772,0.05022970959544182,0.88763827085495,4.176153659820557,-44.73371887207031,23.574193954467773,-0.4454777240753174,0.6044697761535645,0.5444727540016174,1.6273754835128784,0.8821625113487244,-0.2424188256263733
335,24605,24638,-0.092146135866642,0.12683647871017456,0.9978919625282288,12.869967460632324,-35.168243408203125,26.757722854614258,-0.4454777240753174,0.6014699339866638,0.5264736413955688,2.0446832180023193,0.9651473760604858,-0.051950603723526
336,24615,24648,-0.08612705767154694,0.1099071055650711,1.0098190307617188,11.626150131225586,-16.115182876586914,29.704008102416992,-0.45297732949256897,0.6029698252677917,0.5309734344482422,2.4342572689056396,0.9944649338722229,0.2343672513961792
337,24625,24658,-0.014835904352366924,0.057408686727285385,1.033291220664978,-1.069785714149475,4.376917362213135,29.704540252685547,-0.4679765999317169,0.6269686222076416,0.5279735922813416,2.7910830974578857,1.099650263786316,0.5401780605316162
338,24635,24668,-0.004432605113834143,0.027463078498840332,0.9863916635513306,-16.27878189086914,22.041034698486328,28.053852081298828,-0.4469776451587677,0.6179690957069397,0.5369731187820435,2.4608447551727295,0.994857132434845,0.8484511971473694
339,24645,24678,-0.036770761013031006,0.05255129560828209,1.089841365814209,-27.59719467163086,29.345216751098633,27.633737564086914,-0.4469776451587677,0.6299684643745422,0.5219739079475403,2.2043821811676025,0.8223799467086792,1.1416929960250854
340,24655,24688,-0.016758525744080544,0.009760471992194653,1.050326943397522,-34.11756896972656,26.69896697998047,27.530986785888672,-0.46047696471214294,0.622468888759613,0.5414729118347168,1.78688383102417,0.4803580641746521,1.4388216733932495
341,24665,24698,-0.053885847330093384,0.0973953902721405,1.0446832180023193,-31.86726951599121,15.676913261413574,27.342742919921875,-0.45297732949256897,0.623968780040741,0.5369731187820435,1.5833673477172852,0.362868994474411,1.6207693815231323
342,24675,24708,-0.017050907015800476,0.06383847445249557,0.94544517993927,-21.56149673461914,0.4406313896179199,27.76864242553711,-0.4589770436286926,0.6209689378738403,0.5309734344482422,1.5056768655776978,-0.05567994713783264,1.9467884302139282
343,24685,24718,-0.061054032295942307,0.13439279794692993,1.0020573139190674,-11.463749885559082,-13.752453804016113,27.087656021118164,-0.46197688579559326,0.6209689378738403,0.5369731187820435,1.576322078704834,-0.16906900703907013,2.1779260635375977
344,24695,24728,-0.013889509253203869,0.1256428062915802,1.057129979133606,-2.311990737915039,-20.644981384277344,27.01816177368164,-0.448477566242218,0.6194689869880676,0.5444727540016174,1.6766061782836914,-0.20945653319358826,2.4034032821655273
345,24715,24738,0.09829352796077728,-0.01681801676750183,1.0311073064804077,-2.1647403240203857,-12.754406929016113,23.640422821044922,-0.4589770436286926,0.6269686222076416,0.5219739079475403,2.1063194274902344,-0.5413230657577515,3.0577309131622314
346,24725,24748,0.060767222195863724,-0.012600229121744633,1.0158873796463013,-7.641595363616943,-1.337117314338684,19.5317325592041,-0.46197688579559326,0.6389680504798889,0.5459727048873901,2.2880663871765137,-0.5337367653846741,3.293186664581299
347,24735,24758,0.001335572567768395,0.023167209699749947,1.0101518630981445,-12.517046928405762,10.278837203979492,15.433709144592285,-0.46197688579559326,0.6179690957069397,0.5429728627204895,2.2745752334594727,-0.6115702986717224,3.5036752223968506
348,24745,24768,-0.0406915582716465,0.08488506823778152,1.0547226667404175,-13.309449195861816,20.14037322998047,13.00786304473877,-0.4649767279624939,0.6149692535400391,0.5369731187820435,2.1312291622161865,-0.607427179813385,3.6076831817626953
349,24755,24778,-0.047306712716817856,0.11785966902971268,1.0728647708892822,-12.499809265136719,22.08112335205078,11.302438735961914,-0.46197688579559326,0.6329683661460876,0.5339732766151428,1.8708561658859253,-0.6960628032684326,3.721062421798706
350,24765,24788,0.06641556322574615,0.023363906890153885,1.0505807399749756,-11.269375801086426,17.347736358642578,10.589275360107422,-0.4574771225452423,0.622468888759613,0.5354732275009155,1.6140661239624023,-0.9166719317436218,3.8723196983337402
351,24775,24798,0.08160413056612015,-0.05913303419947624,1.0779372453689575,-10.757267951965332,7.354198932647705,8.784624099731445,-0.4649767279624939,0.623968780040741,0.5339732766151428,1.384017825126648,-1.1119035482406616,4.008737564086914
352,24785,24808,0.056815240532159805,-0.06378571689128876,1.0175188779830933,-7.610132694244385,-2.3162968158721924,6.6764235496521,-0.4574771225452423,0.6284685730934143,0.5384730696678162,1.3612258434295654,-1.2063525915145874,4.088526725769043
353,24795,24818,-0.05623292177915573,0.06125310808420181,1.024969220161438,-1.1792588233947754,-6.325239181518555,4.4809112548828125,-0.4634768068790436,0.6284685730934143,0.5414729118347168,1.451080560684204,-1.3082817792892456,4.160055637359619
354,24805,24828,-0.1552111804485321,0.12850937247276306,1.0113626718521118,3.9992411136627197,-4.936792373657227,2.9026498794555664,-0.4544772803783417,0.6284685730934143,0.5414729118347168,1.5059025287628174,-1.3195608854293823,4.20150089263916
355,24815,24838,-0.08417379856109619,0.14899109303951263,1.1381503343582153,8.435908317565918,1.9916976690292358,-0.21229347586631775,-0.4469776451587677,0.6269686222076416,0.5399730205535889,1.5454529523849487,-1.2346467971801758,4.218761444091797
356,24825,24848,0.0056593711487948895,0.04223310574889183,1.0558665990829468,9.890070915222168,11.127334594726562,-2.784924030303955,-0.4454777240753174,0.6284685730934143,0.5264736413955688,1.4099774360656738,-1.1716862916946411,4.24741792678833
357,24835,24858,0.03182424232363701,0.010734639130532742,1.0268954038619995,8.821488380432129,20.61418342590332,-4.842772006988525,-0.4544772803783417,0.6314684152603149,0.5384730696678162,1.35889732837677,-1.0149506330490112,4.205337047576904
358,24845,24878,-0.001039711176417768,-0.0023123547434806824,1.0678383111953735,7.881990909576416,26.1567325592041,-6.580808639526367,-0.4649767279624939,0.6149692535400391,0.5309734344482422,1.1404223442077637,-0.8776328563690186,4.145293712615967
359,24855,24888,0.014932281337678432,0.032636042684316635,1.0564519166946411,8.801667213439941,26.280620574951172,-8.015728950500488,-0.4649767279624939,0.6149692535400391,0.5309734344482422,0.924210250377655,-0.8119422793388367,4.080228328704834
360,24865,24898,0.009991150349378586,0.037448763847351074,1.0519518852233887,9.37071418762207,22.218435287475586,-9.575647354125977,-0.4649767279624939,0.6149692535400391,0.5309734344482422,0.6450185179710388,-0.6707166433334351,3.9856908321380615
361,24875,24908,0.003012458560988307,0.046707089990377426,1.0718557834625244,12.611202239990234,17.500452041625977,-10.572178840637207,-0.4649767279624939,0.6149692535400391,0.5309734344482422,0.4265079200267792,-0.78509521484375,3.9473679065704346
362,24885,24918,0.010994012467563152,0.03181846812367439,1.0363311767578125,13.14456558227539,15.152769088745117,-11.91607666015625,-0.4649767279624939,0.6149692535400391,0.5309734344482422,0.41179004311561584,-0.6401905417442322,3.8086938858032227
363,24895,24928,0.008149616420269012,0.04566650465130806,1.059755563735962,13.945906639099121,12.588338851928711,-13.837326049804688,-0.46047696471214294,0.5984700918197632,0.5264736413955688,0.15060216188430786,-0.5513265132904053,3.718428611755371
364,24905,24938,0.053973812609910965,0.009084588848054409,1.005677580833435,15.42133617401123,13.149656295776367,-14.95836067199707,-0.448477566242218,0.5834708213806152,0.5264736413955688,0.06098916381597519,-0.5112690329551697,3.5966968536376953
365,24915,24948,0.009663969278335571,0.04505521059036255,1.0604064464569092,16.358631134033203,13.526631355285645,-15.729634284973145,-0.4589770436286926,0.6059696674346924,0.5309734344482422,-0.17218777537345886,-0.23458056151866913,3.4459879398345947
366,24925,24958,-0.0164746455848217,0.03957642614841461,1.0451791286468506,15.96879768371582,12.661266326904297,-16.578144073486328,-0.4664766788482666,0.6014699339866638,0.5324733853340149,-0.18626102805137634,-0.0970039889216423,3.2772560119628906
367,24935,24968,-0.0041467719711363316,0.018880734220147133,1.0064747333526611,13.695343017578125,11.866365432739258,-16.991811752319336,-0.4589770436286926,0.5939702987670898,0.5159741640090942,-0.33764442801475525,0.16438445448875427,3.1052117347717285
368,24945,24978,0.010565072298049927,0.006989114452153444,0.9884312748908997,11.16494083404541,11.220501899719238,-17.207399368286133,-0.45297732949256897,0.5999699831008911,0.5339732766151428,-0.5464094281196594,0.2441687136888504,2.9537911415100098
369,24955,24988,0.006631976459175348,0.02081836201250553,0.9986746907234192,8.217009544372559,11.108440399169922,-17.18825912475586,-0.4649767279624939,0.5909704566001892,0.5159741640090942,-0.7396498918533325,0.41936901211738586,2.788921356201172
370,24965,24998,0.005447160918265581,0.020322058349847794,0.9978049993515015,5.973596572875977,10.198002815246582,-15.869851112365723,-0.47247636318206787,0.5954701900482178,0.5264736413955688,-0.710562527179718,0.4088091552257538,2.6075994968414307
371,24975,25008,-0.009664506651461124,0.04082074016332626,1.0205650329589844,2.8885445594787598,5.601183891296387,-14.689234733581543,-0.4634768068790436,0.5834708213806152,0.5294735431671143,-0.7959993481636047,0.431851863861084,2.4460155963897705
372,24985,25018,-0.036144010722637177,0.07991360872983932,1.0480319261550903,0.47126832604408264,0.546993613243103,-13.278786659240723,-0.4544772803783417,0.5894705057144165,0.5204739570617676,-0.8811013102531433,0.2779054641723633,2.2966456413269043
373,24995,25028,-0.033615272492170334,0.09279586374759674,1.042758822441101,0.7702519297599792,-3.108668327331543,-11.555598258972168,-0.4574771225452423,0.5744712948799133,0.5144742727279663,-0.8893997073173523,0.3212897479534149,2.1633715629577637
374,25005,25038,-0.010285528376698494,0.08722943812608719,1.0251750946044922,3.260910987854004,-5.858547687530518,-9.941402435302734,-0.4574771225452423,0.5804709792137146,0.5354732275009155,-0.9053913354873657,0.4435262680053711,2.0560383796691895
375,25015,25048,0.016705818474292755,0.07473381608724594,1.0202080011367798,6.435128688812256,-6.6415300369262695,-8.739249229431152,-0.448477566242218,0.577471137046814,0.5354732275009155,-0.8881592154502869,0.5274076461791992,1.9607521295547485
376,25025,25058,0.01864190585911274,0.06446515023708344,1.011016607284546,5.843233585357666,-5.537106037139893,-8.00981330871582,-0.4544772803783417,0.577471137046814,0.5294735431671143,-0.7906613349914551,0.6350381970405579,1.875920295715332
377,25035,25068,-0.011838342063128948,0.060714565217494965,0.9727782607078552,3.007373571395874,-1.9268914461135864,-7.487019062042236,-0.4634768068790436,0.5834708213806152,0.5264736413955688,-0.8644201755523682,0.6566104292869568,1.792303204536438
378,25045,25078,-0.02275962196290493,0.07442700117826462,0.9330906271934509,1.0767048597335815,0.9967882037162781,-6.8473124504089355,-0.45147740840911865,0.5684715509414673,0.5324733853340149,-0.775623619556427,0.4316566586494446,1.6813344955444336
379,25055,25088,0.020245308056473732,0.10976014286279678,0.960207998752594,-0.999643087387085,2.598182439804077,-5.9135661125183105,-0.448477566242218,0.5714713931083679,0.5294735431671143,-0.7951297163963318,0.4698515832424164,1.6169742345809937
380,25065,25098,0.08724173903465271,0.14141583442687988,1.0237078666687012,-0.5506100058555603,1.21199369430542,-5.545929431915283,-0.45147740840911865,0.5684715509414673,0.5264736413955688,-0.8206802010536194,0.4890987277030945,1.562980055809021
381,25075,25108,0.11436433345079422,0.15488682687282562,1.06259286403656,0.8255211710929871,-0.027865633368492126,-5.572667598724365,-0.4544772803783417,0.5924703478813171,0.5144742727279663,-0.828879177570343,0.44712069630622864,1.504807710647583
382,25085,25118,0.10102322697639465,0.16694672405719757,1.0947496891021729,2.6967601776123047,-2.4555819034576416,-5.230118274688721,-0.46947652101516724,0.5834708213806152,0.5354732275009155,-0.8050500154495239,0.49843233823776245,1.4617990255355835
383,25095,25128,0.07494787126779556,0.16019181907176971,1.123536229133606,6.380437850952148,-4.9831461906433105,-4.404171466827393,-0.448477566242218,0.5834708213806152,0.5294735431671143,-0.7475137114524841,0.5852869153022766,1.4253357648849487
384,25105,25138,0.032457027584314346,0.11257670074701309,1.086535930633545,10.171202659606934,-6.378028392791748,-3.6662116050720215,-0.4544772803783417,0.5684715509414673,0.5264736413955688,-0.7292493581771851,0.7182343602180481,1.396888017654419
385,25115,25148,0.048126716166734695,0.04940430074930191,1.031326413154602,11.534119606018066,-6.218274116516113,-2.552281379699707,-0.4394780099391937,0.562471866607666,0.5264736413955688,-0.6922420263290405,0.8136515617370605,1.3607505559921265
386,25125,25158,-0.01348440907895565,0.01043003797531128,0.9333272576332092,10.802058219909668,-5.1738762855529785,-1.3553988933563232,-0.4364781677722931,0.5714713931083679,0.5264736413955688,-0.5871483683586121,0.9872696399688721,1.3485021591186523
387,25135,25168,-0.09988301247358322,-0.004797276575118303,0.8408599495887756,8.015576362609863,-4.337504863739014,-0.4780671000480652,-0.44097793102264404,0.554972231388092,0.5219739079475403,-0.6349433660507202,1.197196125984192,1.3486621379852295
388,25155,25178,-0.06959452480077744,-0.017865478992462158,0.8631768226623535,-3.481663942337036,-1.0720242261886597,-0.791411280632019,-0.44247788190841675,0.562471866607666,0.5264736413955688,-0.45222926139831543,1.2567371129989624,1.327039361000061
389,25165,25188,-0.004416869021952152,-0.12320807576179504,0.9033879041671753,-12.24236011505127,-1.8072636127471924,-0.9166033267974854,-0.4454777240753174,0.562471866607666,0.5144742727279663,-0.36995333433151245,1.1881338357925415,1.3093112707138062
390,25175,25198,0.030511513352394104,-0.14497308433055878,0.9055054187774658,-18.75634002685547,-1.4784387350082397,-1.1196162700653076,-0.4469776451587677,0.56997150182724,0.5249737501144409,-0.45421668887138367,1.0627180337905884,1.2780717611312866
391,25185,25208,0.0033919494599103928,0.013092675246298313,0.9190629720687866,-21.468351364135742,-1.0193133354187012,-0.5659661293029785,-0.4454777240753174,0.5714713931083679,0.5234737992286682,-0.4197268486022949,1.0442785024642944,1.3001917600631714
392,25195,25218,0.0013012941926717758,0.038637641817331314,0.9176915884017944,-18.94583511352539,-1.280863642692566,-0.017110276967287064,-0.4664766788482666,0.562471866607666,0.5204739570617676,-0.32391947507858276,0.7167590260505676,1.277335524559021
393,25205,25228,-0.009471872821450233,0.02333233319222927,0.9176004528999329,-14.33270263671875,-3.7250847816467285,0.06732743978500366,-0.44997748732566833,0.5819708704948425,0.5249737501144409,-0.7605146169662476,0.43404340744018555,1.1991199254989624
394,25215,25238,0.010225476697087288,0.055313486605882645,0.9305793046951294,-7.661200523376465,-5.602324485778809,0.8050662279129028,-0.4454777240753174,0.5834708213806152,0.5384730696678162,-0.6592418551445007,0.5066824555397034,1.2550832033157349
395,25225,25248,0.0052551403641700745,0.0843164250254631,0.9534472227096558,-1.1760789155960083,-8.910796165466309,0.9332613348960876,-0.4574771225452423,0.5834708213806152,0.5384730696678162,-0.5284279584884644,0.3853638470172882,1.264004111289978
396,25235,25258,-0.10303404182195663,0.11144226044416428,0.936955988407135,1.5307738780975342,-12.425661087036133,0.25542396306991577,-0.44397780299186707,0.5729713439941406,0.5249737501144409,-0.5470550060272217,0.4257526993751526,1.2757688760757446
397,25245,25268,-0.03393770754337311,0.02534925378859043,0.952653706073761,-1.5395536422729492,-15.292236328125,-0.2744296193122864,-0.4649767279624939,0.5849707126617432,0.5309734344482422,-0.3563220500946045,0.4146592915058136,1.2828054428100586
398,25255,25278,0.08788011968135834,-0.010057405568659306,0.9748820066452026,-9.813098907470703,-16.252531051635742,-0.8917924761772156,-0.44397780299186707,0.5909704566001892,0.5279735922813416,-0.20032162964344025,0.341352254152298,1.2641230821609497
399,25265,25288,0.028266755864024162,0.08112049102783203,0.9586302042007446,-18.037282943725586,-15.392335891723633,-0.6333917379379272,-0.4544772803783417,0.5984700918197632,0.5144742727279663,0.06981302052736282,0.14993390440940857,1.2449817657470703
400,25275,25298,-0.080782949924469,0.1275467872619629,0.8866497278213501,-22.630014419555664,-13.79873275756836,-0.3909180164337158,-0.44997748732566833,0.6089695692062378,0.5189740657806396,0.0998598039150238,-0.08071795850992203,1.214155673980713
401,25285,25308,0.0037203303072601557,0.03554566577076912,0.9539608359336853,-21.456188201904297,-13.16373348236084,-0.11925586313009262,-0.45297732949256897,0.6119694113731384,0.5309734344482422,-0.06332051753997803,-0.010431711561977863,1.2316925525665283
402,25295,25318,0.07136831432580948,-0.07576130330562592,1.0162074565887451,-16.921649932861328,-11.116805076599121,0.30758556723594666,-0.4469776451587677,0.5969701409339905,0.5249737501144409,0.13424809277057648,-0.015497511252760887,1.2668246030807495
403,25305,25328,0.002920418744906783,-0.10492373257875443,0.8815094232559204,-10.827719688415527,-9.697789192199707,0.2710007131099701,-0.4574771225452423,0.6044697761535645,0.5324733853340149,0.2831760048866272,-0.318940669298172,1.2520883083343506
404,25315,25338,-0.07656851410865784,-0.02121623046696186,0.8317229747772217,-6.9940619468688965,-11.155266761779785,0.31930965185165405,-0.4589770436286926,0.6059696674346924,0.5279735922813416,0.47967514395713806,-0.4591819643974304,1.2589812278747559
405,25325,25348,-0.021176373586058617,0.07408001273870468,0.9376779794692993,-5.255241394042969,-13.975030899047852,0.898506760597229,-0.448477566242218,0.622468888759613,0.5324733853340149,0.5006081461906433,-0.5979395508766174,1.2501170635223389
406,25335,25358,0.07021239399909973,0.09880317002534866,0.9757363200187683,-3.607356309890747,-13.5172700881958,1.4997857809066772,-0.46047696471214294,0.6134693026542664,0.5234737992286682,0.7799662351608276,-0.6878635883331299,1.2629836797714233
407,25345,25368,0.07616499811410904,0.12696437537670135,1.0804740190505981,-2.9367806911468506,-11.151383399963379,1.2277296781539917,-0.46197688579559326,0.623968780040741,0.5339732766151428,0.8242836594581604,-0.7540374398231506,1.2781919240951538
408,25355,25378,0.04116812348365784,0.0858251303434372,1.0623594522476196,-2.278074026107788,-8.678651809692383,1.4602211713790894,-0.45297732949256897,0.6389680504798889,0.5399730205535889,1.1048967838287354,-0.6050877571105957,1.3040428161621094
409,25365,25388,-0.015456314198672771,-0.002807120094075799,1.008513331413269,-3.194727659225464,-5.2778801918029785,1.349576473236084,-0.4574771225452423,0.6104694604873657,0.5324733853340149,1.2474331855773926,-0.6192150115966797,1.3163022994995117
410,25375,25398,-0.012883174233138561,-0.06381937861442566,0.8944164514541626,-4.792089939117432,-3.8175039291381836,0.8788499236106873,-0.4574771225452423,0.6254687309265137,0.5204739570617676,1.3482474088668823,-0.7223272919654846,1.3252261877059937
411,25385,25408,-0.026132309809327126,0.005664248950779438,0.938052237033844,-5.506845951080322,-0.3932005763053894,0.35610586404800415,-0.4379780888557434,0.6059696674346924,0.5339732766151428,0.8624040484428406,-0.8974307775497437,1.354628324508667
412,25395,25418,-0.022820843383669853,0.050447117537260056,1.0267977714538574,-4.788773059844971,4.648080348968506,0.1405080109834671,-0.45147740840911865,0.6314684152603149,0.5384730696678162,1.0016546249389648,-0.8433218002319336,1.3525255918502808
413,25405,25428,0.025000035762786865,-0.032920144498348236,1.0054638385772705,-3.475743532180786,4.590483665466309,-0.3377138376235962,-0.4574771225452423,0.6254687309265137,0.5324733853340149,1.017281174659729,-0.9207980036735535,1.3578108549118042
414,25415,25438,0.027442054823040962,-0.06285973638296127,1.0236446857452393,-0.9919111728668213,-0.6806844472885132,-0.5626780390739441,-0.4574771225452423,0.6254687309265137,0.5414729118347168,1.0304003953933716,-1.0450414419174194,1.359801173210144
415,25425,25448,0.020574871450662613,-0.05959106609225273,1.0234081745147705,0.41364407539367676,-5.589332103729248,-0.28622129559516907,-0.4589770436286926,0.6269686222076416,0.5339732766151428,1.024598240852356,-0.9901102781295776,1.3531131744384766
416,25435,25458,-0.01112271286547184,-0.013432575389742851,1.0524135828018188,2.9841432571411133,-9.493692398071289,0.08903797715902328,-0.455977201461792,0.6389680504798889,0.5309734344482422,1.0893054008483887,-0.9842115044593811,1.3456101417541504
417,25445,25468,-0.05416860803961754,-0.010842186398804188,1.07210373878479,3.224388360977173,-11.721982955932617,0.17206931114196777,-0.47097644209861755,0.6269686222076416,0.5249737501144409,1.1380170583724976,-0.9513790011405945,1.3494206666946411
418,25455,25478,-0.0663800835609436,-0.039201520383358,1.0390868186950684,3.0835301876068115,-10.14516544342041,-0.7939115762710571,-0.4544772803783417,0.6254687309265137,0.5294735431671143,1.2139277458190918,-1.0488170385360718,1.3688453435897827
419,25465,25488,-0.050998806953430176,-0.01703544333577156,1.037076711654663,4.161694526672363,-4.448696136474609,-2.4045515060424805,-0.44997748732566833,0.6359682083129883,0.5309734344482422,1.389581561088562,-1.1289172172546387,1.3696357011795044
420,25475,25498,-0.046972598880529404,0.014270146377384663,1.0270919799804688,7.168637752532959,2.0137057304382324,-3.132472276687622,-0.4589770436286926,0.6179690957069397,0.5489725470542908,1.4693299531936646,-0.9643709063529968,1.3333241939544678
421,25485,25518,-0.001866874867118895,0.03954629600048065,1.1168895959854126,9.585957527160645,7.749814510345459,-4.36865234375,-0.4589770436286926,0.6299684643745422,0.5279735922813416,1.4431867599487305,-0.9792344570159912,1.3145748376846313
422,25495,25528,-0.09796154499053955,0.0076394155621528625,1.0597587823867798,11.998616218566895,10.380331039428711,-5.038555145263672,-0.4634768068790436,0.622468888759613,0.5234737992286682,1.3430618047714233,-0.8004575371742249,1.2674360275268555
423,25505,25538,-0.12506219744682312,0.019657956436276436,1.035780429840088,12.385161399841309,10.657978057861328,-6.244906902313232,-0.4574771225452423,0.6044697761535645,0.5354732275009155,1.2095743417739868,-0.6686447858810425,1.2226132154464722
424,25525,25548,-0.09940864890813828,0.05625496059656143,1.0518473386764526,10.175980567932129,2.12288498878479,-7.066798686981201,-0.4574771225452423,0.6044697761535645,0.5264736413955688,1.0009959936141968,-0.41096505522727966,1.0942517518997192
425,25535,25558,0.001168849878013134,0.03306281939148903,1.057884931564331,7.270025730133057,-3.0777924060821533,-7.177887916564941,-0.45297732949256897,0.5969701409339905,0.5309734344482422,1.0178859233856201,-0.38584503531455994,1.0288063287734985
426,25545,25568,0.009658862836658955,0.030965181067585945,1.0614324808120728,3.546874761581421,-6.341742038726807,-7.22349739074707,-0.45297732949256897,0.6179690957069397,0.5459727048873901,1.1121329069137573,-0.2618856132030487,0.941403865814209
427,25555,25578,-0.04748229309916496,0.05309027433395386,1.0768250226974487,1.7655854225158691,-5.90838623046875,-7.25678014755249,-0.4454777240753174,0.5984700918197632,0.5294735431671143,1.3025315999984741,-0.1916438341140747,0.849006175994873
428,25565,25588,-0.024112820625305176,0.02452635020017624,1.0454117059707642,3.0778872966766357,-6.219446182250977,-6.566341876983643,-0.4364781677722931,0.6014699339866638,0.5234737992286682,1.3378221988677979,-0.14423279464244843,0.7759456634521484
429,25575,25598,0.001190781476907432,0.011053997091948986,1.0102176666259766,5.116672515869141,-1.0106663703918457,-6.713902473449707,-0.45147740840911865,0.6014699339866638,0.5324733853340149,1.34921133518219,-0.07973409444093704,0.7086663842201233
430,25585,25608,-0.025532308965921402,0.021602364256978035,1.0264853239059448,6.867076873779297,10.74310302734375,-7.872844219207764,-0.44397780299186707,0.6149692535400391,0.5219739079475403,1.3255865573883057,0.013245837762951851,0.6388397216796875
431,25595,25618,-0.05533159151673317,0.027264144271612167,1.0512970685958862,5.299895763397217,19.337785720825195,-9.234428405761719,-0.45147740840911865,0.6044697761535645,0.5324733853340149,1.0722572803497314,0.046015676110982895,0.5894883871078491
432,25605,25628,-0.0674145370721817,0.037910569459199905,1.0579215288162231,3.9553871154785156,21.72127342224121,-9.60814380645752,-0.45147740840911865,0.6014699339866638,0.5294735431671143,0.8544132113456726,0.06817038357257843,0.5115294456481934
433,25615,25638,-0.0796581283211708,0.04519132152199745,1.0374948978424072,6.738922595977783,14.491273880004883,-9.285284042358398,-0.4394780099391937,0.5834708213806152,0.5324733853340149,0.5713350176811218,0.16046682000160217,0.41464558243751526
434,25625,25648,-0.09946725517511368,0.04170886054635048,1.0087815523147583,11.932689666748047,4.2016096115112305,-8.54857349395752,-0.44397780299186707,0.5969701409339905,0.5219739079475403,0.5561562180519104,0.15871571004390717,0.3200255334377289
435,25635,25658,-0.09437038004398346,0.030544588342308998,1.0041652917861938,16.049673080444336,-4.080410480499268,-7.6323652267456055,-0.44247788190841675,0.5684715509414673,0.5354732275009155,0.5436569452285767,0.30774083733558655,0.2245747447013855
436,25655,25668,-0.05132404342293739,0.010273224674165249,1.0199596881866455,12.609086990356445,-9.528535842895508,-4.3695526123046875,-0.43347832560539246,0.5744712948799133,0.5234737992286682,0.7342269420623779,0.6790400743484497,0.07085307687520981
437,25665,25678,-0.03624783828854561,-0.05072735622525215,0.9768146872520447,8.090836524963379,-8.193544387817383,-2.5207507610321045,-0.4394780099391937,0.5834708213806152,0.5294735431671143,0.8265723586082458,0.8057315945625305,0.025171684101223946
438,25675,25688,-0.02897701784968376,-0.13626308739185333,0.972007691860199,3.4018311500549316,-4.330028057098389,-1.2799152135849,-0.4454777240753174,0.5834708213806152,0.5294735431671143,0.9555139541625977,0.860378623008728,-0.001334155211225152
439,25685,25698,-0.009211203083395958,-0.2059427797794342,1.0014814138412476,-0.26770877838134766,-0.6162480711936951,-0.4541073441505432,-0.45147740840911865,0.5684715509414673,0.5294735431671143,1.023442268371582,0.9851722121238708,-0.028648490086197853
440,25695,25708,-0.06345817446708679,-0.19399230182170868,0.9896727204322815,-2.9926083087921143,0.941519021987915,0.6917099356651306,-0.4469776451587677,0.5639718174934387,0.5309734344482422,1.0401217937469482,0.9784401059150696,-0.032846227288246155
441,25705,25718,-0.14035369455814362,-0.12798254191875458,0.9481881260871887,-5.482563495635986,1.2101964950561523,1.6324573755264282,-0.4469776451587677,0.5879706144332886,0.5339732766151428,1.0334293842315674,0.9308071136474609,-0.025194993242621422
442,25715,25728,-0.17232072353363037,-0.07754567265510559,0.9371101260185242,-7.273849964141846,3.7559750080108643,2.4943149089813232,-0.455977201461792,0.5939702987670898,0.5249737501144409,1.0027168989181519,0.8489556312561035,-0.007062721066176891
443,25725,25738,-0.06767448782920837,-0.0723198726773262,0.8882553577423096,-7.518216133117676,6.58795166015625,3.413003444671631,-0.44247788190841675,0.5834708213806152,0.5324733853340149,0.9289769530296326,0.7394094467163086,0.017804177477955818
444,25735,25748,-0.01716430112719536,-0.0484674833714962,0.852477490901947,-8.399653434753418,7.492462635040283,4.427731990814209,-0.4589770436286926,0.5819708704948425,0.5279735922813416,0.7477425932884216,0.7546370625495911,0.02902884967625141
445,25745,25758,0.0008416185737587512,0.016130253672599792,0.9584356546401978,-5.989147186279297,5.034107208251953,5.860026836395264,-0.4574771225452423,0.5894705057144165,0.5294735431671143,0.7133961319923401,0.6946864128112793,0.07203862816095352
446,25755,25768,-0.10226305574178696,0.11282888799905777,1.0051170587539673,-4.460754871368408,0.9649530649185181,6.877979278564453,-0.4574771225452423,0.6044697761535645,0.5354732275009155,0.6408974528312683,0.5829043388366699,0.13113074004650116
447,25765,25778,-0.010484174825251102,0.10598649829626083,1.0938913822174072,-3.8738954067230225,-1.301789402961731,7.601670265197754,-0.448477566242218,0.5984700918197632,0.5234737992286682,0.6229498982429504,0.4929671287536621,0.20230896770954132
448,25775,25788,0.09212660789489746,0.02741343528032303,1.0605487823486328,-4.85183048248291,-3.963526964187622,8.750167846679688,-0.44997748732566833,0.5999699831008911,0.5219739079475403,0.64565509557724,0.47807395458221436,0.27200421690940857
449,25785,25798,0.08378591388463974,0.016124777495861053,1.0046955347061157,-3.8115732669830322,-8.344877243041992,11.169269561767578,-0.44997748732566833,0.6029698252677917,0.5249737501144409,0.720366895198822,0.39277681708335876,0.36020952463150024
450,25795,25808,-0.08430363237857819,0.08340171724557877,0.959852397441864,-2.8406965732574463,-11.71260929107666,11.936236381530762,-0.44997748732566833,0.5849707126617432,0.5249737501144409,0.7870354652404785,0.32283809781074524,0.4656698405742645
451,25805,25818,-0.10186003893613815,0.0778193324804306,0.9620153903961182,-5.350451469421387,-8.504633903503418,11.931940078735352,-0.448477566242218,0.5954701900482178,0.5354732275009155,1.018959641456604,0.2548188269138336,0.5974899530410767
452,25815,25828,-0.006621330510824919,0.016589641571044922,0.952232837677002,-9.584134101867676,-1.7290410995483398,11.409698486328125,-0.45297732949256897,0.5909704566001892,0.5309734344482422,1.1183180809020996,0.21710048615932465,0.7137757539749146
453,25825,25838,0.0003597914765123278,-0.017431912943720818,0.9674126505851746,-11.378600120544434,5.964132785797119,11.561665534973145,-0.44997748732566833,0.6059696674346924,0.5279735922813416,1.0330755710601807,0.26485562324523926,0.8041417598724365
454,25835,25848,0.05122646689414978,-8.262033225037158e-05,0.9986646771430969,-11.359796524047852,11.292194366455078,12.094232559204102,-0.4589770436286926,0.5849707126617432,0.5249737501144409,0.9848827123641968,0.27488604187965393,0.904943585395813
455,25845,25858,0.008920783177018166,0.04446028172969818,0.9949603080749512,-10.843865394592285,14.509871482849121,12.739516258239746,-0.455977201461792,0.6029698252677917,0.5279735922813416,0.7920398712158203,0.2089705914258957,1.0110186338424683
456,25855,25868,0.024651607498526573,0.02269640751183033,0.9424147605895996,-9.4373779296875,12.045392990112305,12.750070571899414,-0.4469776451587677,0.5999699831008911,0.5279735922813416,0.6413370966911316,0.012501941993832588,1.1431896686553955
457,25865,25878,-0.06153940036892891,0.020924147218465805,0.9444842338562012,-9.553988456726074,7.711445331573486,11.632017135620117,-0.44397780299186707,0.5999699831008911,0.5189740657806396,0.458913654088974,-0.1664891391992569,1.2731977701187134
458,25875,25888,0.0053483108058571815,0.025735484436154366,0.9421090483665466,-7.892033576965332,0.48776504397392273,10.77319049835205,-0.4394780099391937,0.5744712948799133,0.5264736413955688,0.36711615324020386,-0.0489044226706028,1.373657464981079
459,25885,25898,0.048090606927871704,-0.004783692769706249,0.9363513588905334,-3.589148759841919,-9.850164413452148,10.317008018493652,-0.4469776451587677,0.5909704566001892,0.5279735922813416,0.4717944264411926,-0.2574007213115692,1.4991117715835571
460,25895,25908,0.013120156712830067,0.03966153785586357,0.9868237376213074,1.146458625793457,-16.235042572021484,10.415414810180664,-0.44097793102264404,0.5969701409339905,0.5399730205535889,0.5634733438491821,-0.2560058534145355,1.5995732545852661
461,25905,25918,-0.03762874752283096,0.045020751655101776,0.9806820750236511,-0.31610673666000366,-15.772784233093262,9.38228988647461,-0.4454777240753174,0.5894705057144165,0.5384730696678162,0.8064162135124207,-0.2787160575389862,1.7107393741607666
462,25915,25928,-0.026126384735107422,0.05383194237947464,0.9868302345275879,-4.220761775970459,-10.449411392211914,8.459301948547363,-0.45147740840911865,0.5864706635475159,0.5354732275009155,0.8841120004653931,-0.32604745030403137,1.807603120803833
463,25925,25938,-0.006645383313298225,0.048144806176424026,0.9816160798072815,-7.863659381866455,-4.517856121063232,7.318930149078369,-0.45147740840911865,0.6104694604873657,0.5354732275009155,1.0147278308868408,-0.3559800088405609,1.8941270112991333
464,25935,25948,-0.04542287811636925,0.039932671934366226,0.9356277585029602,-9.818018913269043,6.150785446166992,6.229153156280518,-0.4379780888557434,0.6029698252677917,0.5339732766151428,1.0997097492218018,-0.5070235133171082,1.9768075942993164
465,25945,25958,-0.021653536707162857,0.04003492742776871,0.8933825492858887,-9.744437217712402,14.629697799682617,4.5356926918029785,-0.45297732949256897,0.5999699831008911,0.5399730205535889,0.8914080262184143,-0.6802752614021301,2.0450825691223145
466,25955,25968,-0.00988471694290638,0.05597929283976555,1.0012998580932617,-7.024901866912842,22.145273208618164,2.65568208694458,-0.4574771225452423,0.622468888759613,0.5174741148948669,0.6956485509872437,-0.8292289972305298,2.098116636276245
467,25965,25978,0.01155187003314495,0.04277076944708824,1.006345272064209,-2.3184564113616943,24.397441864013672,1.3758240938186646,-0.45297732949256897,0.6119694113731384,0.5279735922813416,0.3437120020389557,-0.854062557220459,2.125873327255249
468,25975,25988,0.0006858777487650514,0.020908711478114128,0.9881451725959778,6.987390041351318,19.830394744873047,0.5729039907455444,-0.44247788190841675,0.6134693026542664,0.5264736413955688,0.26264938712120056,-0.6491575837135315,2.119779348373413
469,25985,25998,-0.00329699763096869,0.023366324603557587,0.9751229286193848,16.349782943725586,11.083727836608887,-0.35416680574417114,-0.4589770436286926,0.5999699831008911,0.5279735922813416,0.10921800881624222,-0.735776424407959,2.1280930042266846
470,25995,26008,-0.03622352331876755,0.03704558685421944,0.9966922998428345,18.428892135620117,4.630280017852783,-1.169995903968811,-0.4544772803783417,0.5924703478813171,0.5264736413955688,-0.06443756818771362,-0.4897327423095703,2.123466968536377
471,26005,26018,0.005442472640424967,0.01837035082280636,0.9513741731643677,15.063669204711914,-0.6543537378311157,-1.25166654586792,-0.4469776451587677,0.5939702987670898,0.5309734344482422,-0.12015074491500854,-0.22318045794963837,2.1124744415283203
472,26015,26028,-0.005337124224752188,0.03743826597929001,0.9741874933242798,6.059758186340332,-0.47084149718284607,-0.8797637820243835,-0.455977201461792,0.6029698252677917,0.5219739079475403,-0.12318672239780426,-0.03983909264206886,2.0996854305267334
473,26025,26038,-0.011157150380313396,0.05743848904967308,1.039263129234314,-6.985375881195068,-0.8080754280090332,0.4507310688495636,-0.455977201461792,0.5879706144332886,0.5159741640090942,-0.12414860725402832,-0.08571497350931168,2.0875437259674072
474,26045,26048,-0.08243165910243988,0.057346414774656296,1.0302224159240723,-19.642173767089844,-11.058444023132324,4.185477256774902,-0.4469776451587677,0.5969701409339905,0.5339732766151428,0.016596559435129166,-0.4559115767478943,2.096456527709961
475,26055,26058,-0.06378468871116638,-0.010506793856620789,1.0379966497421265,-11.032011985778809,-13.20058822631836,6.107728004455566,-0.4394780099391937,0.5894705057144165,0.5234737992286682,0.11819711327552795,-0.6590613722801208,2.1344923973083496
476,26065,26068,0.051968690007925034,-0.019980670884251595,1.0328692197799683,3.929161787033081,-12.285379409790039,7.586397171020508,-0.4379780888557434,0.5819708704948425,0.5309734344482422,0.37169668078422546,-0.7844310402870178,2.1831469535827637
477,26075,26078,0.005981698166579008,0.08130932599306107,1.0747699737548828,17.866413116455078,-7.719221591949463,9.317423820495605,-0.4379780888557434,0.5819708704948425,0.5309734344482422,0.5253903865814209,-0.6101728677749634,2.2617533206939697
478,26085,26088,-0.001080724410712719,0.06619453430175781,1.0050292015075684,20.092796325683594,0.42401382327079773,11.643616676330566,-0.4469776451587677,0.5879706144332886,0.5429728627204895,0.6012581586837769,-0.4862528145313263,2.3520431518554688
479,26095,26098,-0.024966126307845116,-0.0167970173060894,0.9213539361953735,12.627256393432617,6.036336898803711,12.358522415161133,-0.45297732949256897,0.5909704566001892,0.5399730205535889,0.4886418879032135,-0.21299545466899872,2.476685047149658
