,timestamp_start,timestamp_end,acc.x,acc.y,acc.z,gyro.x,gyro.y,gyro.z,mag.x,mag.y,mag.z,stabilizer.pitch,stabilizer.roll,stabilizer.yaw
0,712787,712788,-0.040829721838235855,0.016267387196421623,0.9738688468933105,72.62660217285156,23.005720138549805,2.1158454418182373,-0.7484625577926636,1.4234287738800049,0.2744862735271454,-0.3151339590549469,-0.8316193222999573,2.5273635387420654
1,712797,712798,0.02718806453049183,-0.022016867995262146,0.9447246789932251,60.156429290771484,44.172794342041016,4.67293119430542,-0.7514623999595642,1.435428261756897,0.28048595786094666,-0.7095885872840881,-0.11813586950302124,2.6200428009033203
2,712807,712808,-0.009843611158430576,-0.049257293343544006,0.8689683079719543,42.15633773803711,50.1009521484375,5.904470443725586,-0.7514623999595642,1.4414279460906982,0.2864856719970703,-1.0430762767791748,0.1562364250421524,2.61422061920166
3,712817,712818,-0.04045040160417557,-0.027947360649704933,0.8648567795753479,20.029478073120117,40.88084030151367,5.976742744445801,-0.7589620351791382,1.4399279356002808,0.28198590874671936,-1.7058331966400146,0.4398273527622223,2.7696127891540527
4,712827,712828,-0.05808180570602417,-0.04539087414741516,0.8937491774559021,-6.005602836608887,12.860429763793945,6.685214996337891,-0.7679615616798401,1.4279285669326782,0.28498575091362,-1.880725383758545,0.36298391222953796,2.753220319747925
5,712837,712838,-0.031969811767339706,-0.12998072803020477,0.8444929122924805,-23.03162956237793,-23.252052307128906,6.435169696807861,-0.7649617195129395,1.445927619934082,0.28498575091362,-1.8514595031738281,0.24012678861618042,2.8012993335723877
6,712847,712848,0.00472358800470829,-0.11962689459323883,0.8652923107147217,-39.40001678466797,-46.95579147338867,4.621308326721191,-0.7604619860649109,1.4324283599853516,0.2864856719970703,-1.3987141847610474,-0.18469218909740448,2.789238214492798
7,712857,712858,-0.0389479361474514,-0.020724516361951828,0.8802079558372498,-34.77040481567383,-53.03813171386719,1.875052809715271,-0.7499625086784363,1.4489275217056274,0.28798559308052063,-1.0474666357040405,-0.680720329284668,2.884946346282959
8,712867,712868,-0.05622640252113342,0.030543411150574684,0.9888263940811157,-18.997020721435547,-39.96693420410156,-1.8042799234390259,-0.7589620351791382,1.4399279356002808,0.29098543524742126,-0.4266151189804077,-0.9836248755455017,2.8499879837036133
9,712877,712878,-0.016093505546450615,-0.026653511449694633,0.9967004656791687,-0.2972581088542938,-25.887611389160156,-2.5545239448547363,-0.7514623999595642,1.4534273147583008,0.28048595786094666,-0.27873092889785767,-1.0439971685409546,2.9362926483154297
10,712887,712888,-0.03687230870127678,-0.018867939710617065,0.9630975127220154,25.339447021484375,-7.948714733123779,-2.0975871086120605,-0.736463189125061,1.4474276304244995,0.2924853563308716,-0.022570228204131126,-0.8196423649787903,2.897994041442871
11,712897,712898,-0.012313220649957657,-0.030865196138620377,0.9840661883354187,38.07914733886719,0.838866114616394,0.2777818739414215,-0.7469626665115356,1.4549272060394287,0.29098543524742126,-0.19460232555866241,-0.8198935985565186,2.9719226360321045
12,712907,712908,-0.005705902352929115,0.0852000042796135,0.9673286080360413,47.25920486450195,5.583695411682129,4.872152328491211,-0.7574620842933655,1.4474276304244995,0.28948551416397095,-0.21857066452503204,-0.15898188948631287,2.9931914806365967
13,712917,712918,-0.06805305927991867,0.03035508096218109,0.9538955688476562,37.009151458740234,7.2652201652526855,7.518497943878174,-0.7499625086784363,1.445927619934082,0.2969851493835449,-0.3941531777381897,0.08301191031932831,3.0973312854766846
14,712927,712928,-0.08886369317770004,-0.005041675176471472,1.0757129192352295,13.476415634155273,13.95557975769043,10.485549926757812,-0.7469626665115356,1.4519274234771729,0.2939853072166443,-0.4358910024166107,0.2684917747974396,3.156308889389038
15,712937,712938,-0.11981923133134842,0.041613634675741196,1.0452097654342651,-14.180276870727539,19.610919952392578,9.006349563598633,-0.7589620351791382,1.4549272060394287,0.28198590874671936,-0.5169076919555664,0.10350413620471954,3.2143020629882812
16,712947,712948,-0.06384782493114471,0.06598010659217834,1.0279526710510254,-34.07834243774414,15.237733840942383,3.429622173309326,-0.7514623999595642,1.4414279460906982,0.2924853563308716,-0.7539259791374207,-0.038933008909225464,3.3085153102874756
17,712957,712958,-0.07447754591703415,0.057022884488105774,0.9961370229721069,-29.041893005371094,12.150856971740723,0.38074928522109985,-0.7574620842933655,1.4534273147583008,0.2834858298301697,-0.9226864576339722,-0.44607821106910706,3.3380682468414307
18,712967,712968,-0.14331138134002686,0.1313447803258896,0.9870994687080383,-7.614004135131836,21.789167404174805,-1.944059133529663,-0.7529623508453369,1.4549272060394287,0.28498575091362,-1.1345434188842773,-0.6209290027618408,3.3558037281036377
19,712977,712978,-0.12060097604990005,0.08617039769887924,0.996600866317749,11.013697624206543,27.469663619995117,-5.186750888824463,-0.7589620351791382,1.4489275217056274,0.27898603677749634,-1.5352064371109009,-0.5914087295532227,3.3895397186279297
20,712987,712988,-0.015246300026774406,0.0682065412402153,0.9437724947929382,39.101322174072266,34.65369415283203,-7.91619873046875,-0.7649617195129395,1.436928153038025,0.29098543524742126,-1.7517048120498657,-0.5482715368270874,3.27490496635437
21,712997,712998,0.0015677508199587464,0.00109540531411767,1.040717601776123,46.514705657958984,29.972068786621094,-13.589642524719238,-0.7604619860649109,1.459426999092102,0.277486115694046,-2.1820085048675537,-0.0398518331348896,3.2253577709198
22,713007,713008,-0.02330528013408184,-0.04088563844561577,1.04783296585083,48.7003288269043,12.980338096618652,-14.818479537963867,-0.7694615125656128,1.4504274129867554,0.27148643136024475,-2.2644550800323486,0.24133124947547913,2.9902873039245605
23,713017,713018,-0.06048130989074707,-0.015546409413218498,0.9694745540618896,41.640987396240234,-9.308752059936523,-14.473499298095703,-0.7634618282318115,1.4264286756515503,0.2834858298301697,-2.315807819366455,0.9882530570030212,2.8723998069763184
24,713027,713028,-0.07606705278158188,0.0899832472205162,0.9979095458984375,32.85786819458008,-28.301219940185547,-14.111127853393555,-0.7454627156257629,1.4174290895462036,0.2924853563308716,-2.0698626041412354,1.176451325416565,2.6558449268341064
25,713037,713038,-0.06126394495368004,0.07754399627447128,0.9906145930290222,14.707293510437012,-30.959468841552734,-13.009210586547852,-0.7604619860649109,1.4324283599853516,0.2864856719970703,-1.9143385887145996,1.2951862812042236,2.5302302837371826
26,713047,713048,-0.03101831115782261,0.0249252337962389,0.9719923734664917,8.043152809143066,-28.65447235107422,-11.04659652709961,-0.7559621930122375,1.4159291982650757,0.2759861946105957,-1.6120998859405518,1.4777355194091797,2.407461643218994
27,713057,713058,-0.07004702836275101,0.010442373342812061,0.9954929947853088,10.627577781677246,-24.752866744995117,-8.092020034790039,-0.7514623999595642,1.4234287738800049,0.28948551416397095,-1.2962630987167358,1.488972544670105,2.2715904712677
28,713067,713068,-0.056045666337013245,0.013746678829193115,0.9935026168823242,10.861495971679688,-24.755332946777344,-6.392107009887695,-0.7499625086784363,1.4099295139312744,0.28198590874671936,-1.0219179391860962,1.654196858406067,2.1915833950042725
29,713077,713078,-0.06425963342189789,0.018560824915766716,1.063712239265442,21.528099060058594,-23.71788787841797,-5.936055660247803,-0.737963080406189,1.406929612159729,0.28498575091362,-0.7992967963218689,1.7789185047149658,2.12506103515625
30,713087,713088,-0.0032691454980522394,-0.012855223380029202,1.0998849868774414,28.39459228515625,-23.97756004333496,-3.9810726642608643,-0.7619618773460388,1.3979300260543823,0.28798559308052063,-0.4364467263221741,2.063161849975586,2.046837568283081
31,713097,713098,-0.024701453745365143,-0.023078175261616707,1.0028226375579834,34.40742874145508,-25.505884170532227,0.39494842290878296,-0.7244637608528137,1.3994300365447998,0.28948551416397095,-0.2785211205482483,2.23625111579895,2.010714292526245
32,713107,713108,-0.030624812468886375,0.08032483607530594,0.9741967916488647,29.211040496826172,-18.15146255493164,1.7527369260787964,-0.7424628734588623,1.3934303522109985,0.28948551416397095,-0.15824651718139648,2.750091791152954,2.051685094833374
33,713117,713118,-0.023738646879792213,0.03795706108212471,0.8867294192314148,22.591632843017578,1.672555923461914,-1.706446647644043,-0.7424628734588623,1.3784310817718506,0.28948551416397095,-0.12115097045898438,2.8770289421081543,2.04350209236145
34,713127,713128,-0.09624803811311722,0.03787403553724289,0.9752477407455444,20.350433349609375,9.168970108032227,-3.1811461448669434,-0.737963080406189,1.3859306573867798,0.28498575091362,-0.1729765683412552,3.010244131088257,2.017221212387085
35,713137,713138,-0.11419320851564407,-0.07414603978395462,0.9347843527793884,17.043842315673828,10.288214683532715,-4.237093925476074,-0.7454627156257629,1.3814308643341064,0.2864856719970703,-0.23115581274032593,3.3828723430633545,2.000859498977661
36,713147,713148,-0.11101502925157547,-0.03716094791889191,0.9631364941596985,17.916696548461914,12.995402336120605,-4.172877311706543,-0.736463189125061,1.3784310817718506,0.28048595786094666,-0.4353371560573578,3.443988561630249,1.9584996700286865
37,713157,713158,-0.0647747665643692,-0.00247713434509933,0.9505685567855835,16.34968376159668,7.298537731170654,-1.4156372547149658,-0.7424628734588623,1.3964301347732544,0.2654867172241211,-0.5235418081283569,3.6226890087127686,1.9290250539779663
38,713167,713168,-0.0939847081899643,0.005373973865061998,0.9373912215232849,15.46921443939209,-12.374957084655762,2.905488967895508,-0.7409629225730896,1.3799309730529785,0.2759861946105957,-0.47363555431365967,3.8635761737823486,1.9364947080612183
39,713177,713178,-0.07722854614257812,0.004102928098291159,0.9298467040061951,-2.7923479080200195,-20.620588302612305,6.338453769683838,-0.7289635539054871,1.3709313869476318,0.2759861946105957,-0.22892354428768158,3.823336601257324,1.964198350906372
40,713187,713188,-0.05806175246834755,0.00790491048246622,0.9348838329315186,-21.659910202026367,-21.7598876953125,7.228817939758301,-0.7349632382392883,1.3709313869476318,0.2669866383075714,-0.12639179825782776,3.745969295501709,2.0064918994903564
41,713197,713198,-0.05837206169962883,0.0337943434715271,0.9729073643684387,-31.056318283081055,-22.20025062561035,8.439627647399902,-0.7259637117385864,1.382930874824524,0.27298635244369507,0.25354447960853577,3.425192356109619,2.085977554321289
42,713207,713208,-0.08245698362588882,0.035199277102947235,0.9900472164154053,-30.619108200073242,-24.35759735107422,8.734997749328613,-0.7244637608528137,1.3724313974380493,0.2744862735271454,0.5954858660697937,3.006450653076172,2.1708950996398926
43,713217,713218,-0.08234366029500961,0.020294904708862305,0.9499603509902954,-23.78963279724121,-11.23500919342041,10.202683448791504,-0.7274636030197144,1.3844307661056519,0.277486115694046,0.5489529967308044,2.642256736755371,2.2082462310791016
44,713227,713228,-0.11382762342691422,0.0819762647151947,0.9159062504768372,-12.179231643676758,6.162665367126465,10.686836242675781,-0.7469626665115356,1.3859306573867798,0.27898603677749634,0.5259990692138672,2.6265511512756348,2.286543846130371
45,713237,713238,-0.11603350937366486,0.09347310662269592,0.9309729337692261,-3.739837408065796,20.30389404296875,8.656326293945312,-0.7289635539054871,1.3859306573867798,0.27898603677749634,0.4450763165950775,2.5660207271575928,2.393066167831421
46,713247,713248,-0.08847855776548386,0.08882790058851242,0.9868636727333069,10.970703125,23.037193298339844,6.455680847167969,-0.730463445186615,1.3934303522109985,0.2864856719970703,0.21789389848709106,2.587153673171997,2.479015588760376
47,713257,713258,-0.07738052308559418,0.062151916325092316,0.9520077109336853,30.413759231567383,25.885183334350586,4.207409381866455,-0.730463445186615,1.3904304504394531,0.277486115694046,0.07305005937814713,2.9134716987609863,2.5559396743774414
48,713267,713268,-0.1398497372865677,0.012484068050980568,0.9323999881744385,35.06755828857422,13.232982635498047,3.8308355808258057,-0.7424628734588623,1.408429503440857,0.277486115694046,-0.18720673024654388,3.295003890991211,2.6026015281677246
49,713277,713278,-0.10045888274908066,0.021785523742437363,0.9300917983055115,27.871143341064453,-1.5215675830841064,4.399363994598389,-0.7529623508453369,1.3889305591583252,0.28798559308052063,-0.286604642868042,3.5270159244537354,2.655507802963257
50,713287,713288,-0.0697217732667923,0.0360417515039444,0.9220215678215027,19.786649703979492,-24.230026245117188,4.11935567855835,-0.7424628734588623,1.3814308643341064,0.2744862735271454,-0.09632329642772675,3.7813210487365723,2.719697952270508
51,713297,713298,-0.06157667934894562,0.11329395323991776,0.9490464329719543,4.482481002807617,-40.87126159667969,6.820133686065674,-0.7394630312919617,1.3994300365447998,0.2834858298301697,0.22499819099903107,4.0596723556518555,2.7488455772399902
52,713307,713308,-0.02468678541481495,0.14271408319473267,0.9163841009140015,-21.747817993164062,-45.74982833862305,9.989521026611328,-0.7349632382392883,1.3859306573867798,0.28498575091362,0.6254897713661194,3.8696374893188477,2.7993359565734863
53,713317,713318,-0.030276641249656677,0.07129612565040588,0.9149165153503418,-53.104278564453125,-44.85801315307617,7.033668041229248,-0.7154642343521118,1.3904304504394531,0.2744862735271454,1.141798973083496,3.423621416091919,2.8861184120178223
54,713327,713328,-0.049896564334630966,-0.02328258566558361,0.9520651698112488,-76.51725769042969,-33.054656982421875,3.5418336391448975,-0.7214639186859131,1.405429720878601,0.277486115694046,1.5547722578048706,2.8666539192199707,2.918107509613037
55,713337,713338,-0.05163557454943657,0.03481558710336685,0.9703927040100098,-78.29623413085938,-17.221221923828125,1.7877826690673828,-0.7214639186859131,1.3994300365447998,0.277486115694046,1.8771501779556274,1.9013196229934692,2.964815378189087
56,713347,713348,-0.015072820708155632,-0.027910791337490082,1.0077780485153198,-72.2444839477539,-0.5421953797340393,-0.280018150806427,-0.7244637608528137,1.420428991317749,0.2744862735271454,1.9305576086044312,1.2594274282455444,2.936504602432251
57,713357,713358,-0.06470935791730881,-0.004215450491756201,0.9566903710365295,-42.533912658691406,12.625672340393066,-1.6494178771972656,-0.7394630312919617,1.4294284582138062,0.3014849126338959,1.9328430891036987,0.4419550895690918,2.9667160511016846
58,713367,713368,-0.14745517075061798,0.07728515565395355,0.9700453877449036,-13.751121520996094,31.91383171081543,-7.5889506340026855,-0.7349632382392883,1.4279285669326782,0.2939853072166443,1.6911320686340332,0.34762507677078247,2.874206304550171
59,713377,713378,-0.09789449721574783,0.028275633230805397,0.9884395599365234,16.146278381347656,41.454158782958984,-11.960436820983887,-0.7409629225730896,1.4339282512664795,0.28198590874671936,1.4117825031280518,0.29854917526245117,2.7957041263580322
60,713387,713388,-0.042738206684589386,0.026776131242513657,1.0201236009597778,37.52961349487305,50.175254821777344,-15.660819053649902,-0.7559621930122375,1.4429278373718262,0.2939853072166443,1.052851676940918,0.6025546789169312,2.6619977951049805
61,713397,713398,-0.03458448871970177,0.006043585017323494,1.0173839330673218,49.29553985595703,51.37710952758789,-16.59756088256836,-0.7529623508453369,1.4519274234771729,0.2939853072166443,0.5184441804885864,1.0354403257369995,2.4989240169525146
62,713407,713408,-0.052633173763751984,-0.008236432448029518,0.9665432572364807,59.746063232421875,46.43218994140625,-14.61892032623291,-0.7604619860649109,1.459426999092102,0.28948551416397095,-0.13941559195518494,1.7979375123977661,2.2900443077087402
63,713417,713418,-0.09200066328048706,-0.001352436258457601,0.9430065155029297,60.873653411865234,37.072025299072266,-12.185027122497559,-0.7649617195129395,1.4489275217056274,0.3029848337173462,-0.5455048680305481,2.2368228435516357,2.199023723602295
64,713427,713428,-0.10651635378599167,-0.01165023259818554,0.9080943465232849,53.59780502319336,23.675003051757812,-11.71500015258789,-0.7694615125656128,1.4324283599853516,0.28948551416397095,-0.9168730974197388,2.782302141189575,2.099071979522705
65,713437,713438,-0.11896080523729324,-0.028111912310123444,0.9200862646102905,38.58009338378906,8.961913108825684,-12.210755348205566,-0.7844607830047607,1.4294284582138062,0.29848507046699524,-1.0581854581832886,3.160963296890259,2.0134048461914062
66,713447,713448,-0.11552928388118744,-0.0899321660399437,0.9273673295974731,17.25494956970215,-3.16109299659729,-11.661114692687988,-0.7619618773460388,1.4249287843704224,0.29098543524742126,-0.9738513231277466,3.3879213333129883,1.9211184978485107
67,713457,713458,-0.10652372986078262,-0.1311735063791275,0.9897502064704895,-7.0707926750183105,-11.872773170471191,-12.534660339355469,-0.7544622421264648,1.4294284582138062,0.277486115694046,-0.8582428097724915,3.550231456756592,1.8057225942611694
68,713467,713468,-0.05493602529168129,-0.06809522211551666,1.0481592416763306,-38.2591438293457,-19.33723258972168,-17.559370040893555,-0.7604619860649109,1.4264286756515503,0.2654867172241211,-0.8130710124969482,3.256439447402954,1.6664276123046875
69,713477,713478,-0.09392374753952026,-0.06769583374261856,0.9913686513900757,-63.828643798828125,-23.952524185180664,-23.284807205200195,-0.7439627647399902,1.436928153038025,0.2969851493835449,-0.4675009250640869,2.694384813308716,1.4931188821792603
70,713487,713488,-0.07510118186473846,0.007030601613223553,1.0230134725570679,-77.92814636230469,-29.095335006713867,-27.827518463134766,-0.7394630312919617,1.4564270973205566,0.2834858298301697,-0.3530369699001312,2.1253583431243896,1.2137116193771362
71,713497,713498,-0.11155812442302704,0.08439237624406815,0.9937061667442322,-73.01265716552734,-28.634166717529297,-27.680700302124023,-0.7454627156257629,1.4564270973205566,0.2954852283000946,0.1047208309173584,1.2300748825073242,0.9531936049461365
72,713507,713508,-0.13649974763393402,0.10432317852973938,0.9743326306343079,-53.5950927734375,-15.613953590393066,-26.55474090576172,-0.7469626665115356,1.46092689037323,0.2939853072166443,0.32891035079956055,0.5265657901763916,0.6681657433509827
73,713517,713518,-0.06351744383573532,0.08324569463729858,1.1135624647140503,-28.783050537109375,-3.666780710220337,-24.28434181213379,-0.7529623508453369,1.4639267921447754,0.29998499155044556,0.36998945474624634,0.12177519500255585,0.3919815421104431
74,713527,713528,-0.11537686735391617,-0.008101905696094036,1.0960817337036133,9.425172805786133,9.605563163757324,-21.52670669555664,-0.7664616703987122,1.4534273147583008,0.30748462677001953,0.3313761055469513,0.006308072712272406,0.1474083662033081
75,713537,713538,-0.07814256101846695,0.06005292758345604,1.089529275894165,38.644588470458984,24.183441162109375,-19.663631439208984,-0.7544622421264648,1.4624269008636475,0.2834858298301697,0.08021411299705505,0.3166077733039856,-0.07727967202663422
76,713547,713548,-0.047520291060209274,0.021785618737339973,0.9929782152175903,52.53937911987305,33.18975067138672,-20.042287826538086,-0.7739613056182861,1.4669265747070312,0.28198590874671936,-0.2875863015651703,0.8457346558570862,-0.28116947412490845
77,713557,713558,0.04578092321753502,0.036139413714408875,0.9607259035110474,52.061553955078125,31.550329208374023,-18.636051177978516,-0.782960832118988,1.46092689037323,0.2939853072166443,-0.5066571831703186,1.2848604917526245,-0.4697425067424774
78,713567,713568,-0.0075550442561507225,-0.004113544709980488,0.9867954254150391,25.889047622680664,27.481016159057617,-17.467458724975586,-0.7664616703987122,1.4564270973205566,0.30748462677001953,-0.9841344952583313,1.7023351192474365,-0.6419835090637207
79,713577,713578,-0.012334534898400307,0.004680408630520105,1.0371092557907104,-0.03909285366535187,25.969196319580078,-18.09632682800293,-0.7619618773460388,1.4519274234771729,0.2969851493835449,-1.3956822156906128,1.940893292427063,-0.808883011341095
80,713587,713588,-0.02396092750132084,0.037921130657196045,1.144473910331726,-27.925601959228516,17.323265075683594,-21.169986724853516,-0.7709614634513855,1.4489275217056274,0.28498575091362,-1.5064284801483154,1.6085293292999268,-0.9954560399055481
81,713597,713598,0.019138962030410767,0.04971170797944069,1.0264503955841064,-42.54762649536133,-3.632845401763916,-25.16508674621582,-0.7769611477851868,1.4399279356002808,0.2969851493835449,-1.59726083278656,1.3668923377990723,-1.2179548740386963
82,713607,713608,0.08648672699928284,0.07633695006370544,0.9636421203613281,-35.22967529296875,-27.296463012695312,-28.540809631347656,-0.7484625577926636,1.4384280443191528,0.28948551416397095,-1.3130642175674438,0.8413307070732117,-1.4934333562850952
83,713617,713618,0.06592612713575363,0.0794551745057106,0.9756786227226257,-19.211658477783203,-44.53166961669922,-29.467527389526367,-0.7484625577926636,1.4384280443191528,0.2924853563308716,-1.045251727104187,0.5376578569412231,-1.7869255542755127
84,713627,713628,-0.0017430281732231379,0.12540170550346375,1.00922429561615,-2.0340354442596436,-48.5034294128418,-26.886259078979492,-0.7559621930122375,1.4429278373718262,0.29098543524742126,-0.4604981541633606,0.4487164616584778,-2.0830535888671875
85,713637,713638,-0.05098236724734306,0.04332626238465309,1.0121088027954102,10.575438499450684,-40.182464599609375,-22.48642921447754,-0.7514623999595642,1.4324283599853516,0.29848507046699524,-0.1269664168357849,0.529139518737793,-2.334238052368164
86,713647,713648,-0.04740095138549805,-0.04034043103456497,0.9882798194885254,19.494720458984375,-25.970067977905273,-16.025835037231445,-0.7469626665115356,1.445927619934082,0.2969851493835449,0.0901450589299202,0.7690880298614502,-2.529179573059082
87,713657,713658,0.02763763815164566,-0.05044403672218323,0.9348779320716858,24.95146369934082,-11.009394645690918,-12.581918716430664,-0.7529623508453369,1.4249287843704224,0.27898603677749634,0.2853303551673889,1.1335967779159546,-2.675055503845215
88,713667,713668,-0.004383568186312914,-0.05373679846525192,1.014830470085144,22.750534057617188,8.138641357421875,-11.8209810256958,-0.7649617195129395,1.4309284687042236,0.28198590874671936,0.351387619972229,1.2309064865112305,-2.804450511932373
89,713677,713678,-0.06421273201704025,-0.07106663286685944,0.897286593914032,14.191146850585938,12.362383842468262,-9.789544105529785,-0.7439627647399902,1.4399279356002808,0.2939853072166443,0.19757477939128876,1.377205491065979,-2.9124844074249268
90,713687,713688,-0.04422137886285782,-0.06378453224897385,0.858262300491333,1.6096272468566895,10.561930656433105,-8.737876892089844,-0.7634618282318115,1.420428991317749,0.28948551416397095,0.05288350209593773,1.4370769262313843,-3.001497745513916
91,713697,713698,-2.7869407858815975e-05,0.05464664846658707,0.9615508913993835,-5.733048439025879,7.083406448364258,-7.880581378936768,-0.7574620842933655,1.4384280443191528,0.277486115694046,-0.12101868540048599,1.3900961875915527,-3.0790746212005615
92,713707,713708,-0.031027423217892647,-0.006389956455677748,0.8798171877861023,-11.132540702819824,-5.733418941497803,-6.724855899810791,-0.7604619860649109,1.444427728652954,0.2834858298301697,-0.08815619349479675,1.3871287107467651,-3.157766580581665
93,713717,713718,-0.06789952516555786,0.030116111040115356,0.9752715229988098,-8.112374305725098,-15.677372932434082,-4.345711708068848,-0.7604619860649109,1.4504274129867554,0.2834858298301697,0.03076976351439953,1.2779595851898193,-3.225538492202759
94,713727,713728,-0.07698802649974823,0.029132481664419174,1.0725361108779907,-1.7767062187194824,-7.799357891082764,-2.78718638420105,-0.7484625577926636,1.4474276304244995,0.2864856719970703,0.04496306926012039,1.17428719997406,-3.2575197219848633
95,713737,713738,-0.03460327535867691,-0.031140955165028572,0.9741191267967224,12.052149772644043,-0.9582796692848206,0.6723393797874451,-0.7664616703987122,1.4564270973205566,0.2924853563308716,0.016789721325039864,1.2492517232894897,-3.270589828491211
96,713747,713748,-0.016157573089003563,0.047747086733579636,1.0090482234954834,17.047100067138672,1.1063392162322998,3.5671639442443848,-0.7559621930122375,1.4549272060394287,0.2969851493835449,0.11612437665462494,1.467940330505371,-3.2657668590545654
97,713757,713758,-0.023393310606479645,0.03085503727197647,1.0008071660995483,19.5953426361084,4.402296543121338,7.131524562835693,-0.7439627647399902,1.445927619934082,0.28498575091362,0.035113558173179626,1.6805471181869507,-3.2144453525543213
98,713767,713768,-0.02799494005739689,-0.029736611992120743,0.9416947364807129,12.046696662902832,6.943225383758545,9.527963638305664,-0.7619618773460388,1.4549272060394287,0.29998499155044556,-0.14612920582294464,1.784326195716858,-3.1210718154907227
99,713777,713778,-0.022074885666370392,0.014890465885400772,1.0234553813934326,-4.441970348358154,6.287714004516602,11.50872802734375,-0.7529623508453369,1.46092689037323,0.28498575091362,-0.3341960310935974,1.8333631753921509,-3.006019115447998
100,713787,713788,-0.008576269261538982,-0.003827531123533845,0.983199954032898,-21.032926559448242,-0.9226875901222229,11.571441650390625,-0.7574620842933655,1.4624269008636475,0.2864856719970703,-0.3117324709892273,1.6138026714324951,-2.8890297412872314
101,713797,713798,-0.04781656339764595,-0.10380204766988754,0.9801121950149536,-35.84093475341797,-13.400373458862305,10.322444915771484,-0.7559621930122375,1.46092689037323,0.28798559308052063,-0.3536655008792877,1.4197765588760376,-2.775442361831665
102,713807,713808,-0.04575227200984955,-0.027934661135077477,0.9768890142440796,-47.6938591003418,-27.627172470092773,9.248078346252441,-0.7559621930122375,1.46092689037323,0.28798559308052063,-0.09202564507722855,0.9280039668083191,-2.6804449558258057
103,713817,713818,2.9573613574029878e-05,0.03349791094660759,1.0456310510635376,-52.404300689697266,-33.74424362182617,6.308960437774658,-0.7559621930122375,1.46092689037323,0.28798559308052063,0.21156743168830872,0.4522823989391327,-2.5980634689331055
104,713827,713828,-0.07625730335712433,-0.002982856472954154,1.0112091302871704,-49.66014862060547,-28.704309463500977,1.1269999742507935,-0.7559621930122375,1.46092689037323,0.28798559308052063,0.4433267116546631,0.14555111527442932,-2.551870346069336
105,713837,713838,-0.042212873697280884,0.04329885169863701,1.0819227695465088,-37.047203063964844,-19.710466384887695,-2.627035617828369,-0.7469626665115356,1.472926378250122,0.3119843900203705,0.705407440662384,-0.48436325788497925,-2.5447263717651367
106,713847,713848,-0.032632701098918915,0.03369738906621933,1.053768515586853,-19.031291961669922,-13.638593673706055,-5.185671806335449,-0.7484625577926636,1.47442626953125,0.3014849126338959,0.8377735614776611,-0.5725394487380981,-2.583491325378418
107,713857,713858,-0.039664752781391144,0.020499184727668762,1.0362904071807861,-2.3555119037628174,-12.792705535888672,-6.134695529937744,-0.7469626665115356,1.4699264764785767,0.2969851493835449,0.918012797832489,-0.7172760367393494,-2.630519390106201
108,713867,713868,-0.028230732306838036,-0.01587347686290741,1.009067416191101,7.38889217376709,-15.426605224609375,-3.0459494590759277,-0.7544622421264648,1.459426999092102,0.2864856719970703,0.8679580092430115,-0.7141226530075073,-2.6558570861816406
109,713877,713878,0.027127932757139206,0.052547961473464966,1.0380955934524536,8.393182754516602,-18.2791748046875,-3.6521778106689453,-0.7409629225730896,1.4519274234771729,0.28798559308052063,1.1564412117004395,-0.6183028221130371,-2.706523895263672
110,713887,713888,-0.10946301370859146,-0.004565889481455088,1.1206605434417725,-1.1581355333328247,-24.20989990234375,-6.822580337524414,-0.7394630312919617,1.4504274129867554,0.28948551416397095,1.4323176145553589,-0.5924736261367798,-2.7651946544647217
111,713897,713898,-0.057733204215765,-0.027381135150790215,1.0410420894622803,-12.025153160095215,-25.56241798400879,-12.059096336364746,-0.7349632382392883,1.4549272060394287,0.3059847056865692,1.783339500427246,-0.8798291683197021,-2.834064245223999
112,713907,713908,-0.05925850197672844,-0.033675819635391235,1.0027331113815308,-16.482999801635742,-23.765676498413086,-17.195770263671875,-0.7259637117385864,1.46092689037323,0.3059847056865692,1.9016163349151611,-0.8460173606872559,-2.9617252349853516
113,713917,713918,-0.023543305695056915,0.15898849070072174,1.151364803314209,-9.553698539733887,-23.69821548461914,-18.229183197021484,-0.7334632873535156,1.4624269008636475,0.2864856719970703,2.236656904220581,-1.0090628862380981,-3.142887830734253
114,713927,713928,-0.04924917221069336,0.012118762359023094,1.1045448780059814,0.6135786771774292,-18.689889907836914,-20.06005096435547,-0.722963809967041,1.4549272060394287,0.2939853072166443,2.3745460510253906,-1.0415210723876953,-3.3107476234436035
115,713937,713938,-0.10184507071971893,-0.03308519721031189,1.0798720121383667,9.890368461608887,-2.3603365421295166,-22.131027221679688,-0.7499625086784363,1.4579271078109741,0.29998499155044556,2.5152218341827393,-0.9697816967964172,-3.515127658843994
116,713947,713948,-0.07832149416208267,0.001188929076306522,1.1010489463806152,14.966418266296387,20.207490921020508,-24.715850830078125,-0.730463445186615,1.459426999092102,0.28948551416397095,2.243872880935669,-0.7756637930870056,-3.6991500854492188
117,713957,713958,-0.08035175502300262,-0.006485470104962587,1.0994102954864502,24.09864044189453,31.228700637817383,-26.592845916748047,-0.7424628734588623,1.459426999092102,0.29848507046699524,2.098345994949341,-0.481779545545578,-4.010555267333984
118,713967,713968,-0.05471230670809746,0.009610171429812908,1.0937564373016357,32.67331314086914,26.6290225982666,-26.14634895324707,-0.7349632382392883,1.4579271078109741,0.3119843900203705,1.7477538585662842,-0.19920453429222107,-4.271951675415039
119,713977,713978,-0.05607499182224274,0.014508298598229885,1.07130765914917,35.97028350830078,14.049872398376465,-21.137470245361328,-0.7394630312919617,1.4624269008636475,0.29848507046699524,1.6088907718658447,0.18541735410690308,-4.561756134033203
120,713987,713988,-0.05145316943526268,-0.007291327230632305,1.0373889207839966,31.147706985473633,3.7543704509735107,-14.042179107666016,-0.7469626665115356,1.4429278373718262,0.29998499155044556,1.5244719982147217,0.5147905349731445,-4.748234748840332
121,713997,713998,-0.10470058768987656,-0.04956803470849991,1.0148354768753052,7.113237380981445,-4.375749588012695,-9.82542896270752,-0.7394630312919617,1.4324283599853516,0.2834858298301697,1.5104726552963257,0.828523576259613,-4.889890193939209
122,714007,714008,-0.08275377005338669,-0.017043819651007652,1.0282479524612427,-19.849090576171875,-16.987876892089844,-8.467979431152344,-0.7289635539054871,1.4399279356002808,0.2939853072166443,1.7114505767822266,0.6996253728866577,-4.987717628479004
123,714017,714018,-0.02647225931286812,0.021594954654574394,1.0451089143753052,-36.9284782409668,-25.854366302490234,-7.382458209991455,-0.730463445186615,1.4414279460906982,0.2864856719970703,1.9741405248641968,0.1913747489452362,-5.013114929199219
124,714027,714028,-0.0017327283276244998,0.08257567882537842,1.0669646263122559,-45.16543960571289,-38.50597381591797,-5.498394012451172,-0.730463445186615,1.459426999092102,0.29848507046699524,2.3511698246002197,0.1298517882823944,-5.18690824508667
125,714037,714038,-0.07543575763702393,-0.0009379884577356279,1.0218387842178345,-46.63886260986328,-46.120967864990234,-1.625946044921875,-0.7274636030197144,1.4504274129867554,0.28948551416397095,2.725717782974243,-0.5977475643157959,-5.138442516326904
126,714047,714048,-0.11106564849615097,0.04335583373904228,1.0573402643203735,-35.61770248413086,-38.903114318847656,0.6202447414398193,-0.7154642343521118,1.4474276304244995,0.2954852283000946,3.1145730018615723,-1.0200005769729614,-5.131597995758057
127,714057,714058,-0.11139197647571564,0.09308823198080063,1.042604684829712,-8.553230285644531,-17.504127502441406,3.406470537185669,-0.7244637608528137,1.4534273147583008,0.30748462677001953,3.4278595447540283,-1.2624653577804565,-5.106855392456055
128,714067,714068,-0.12978249788284302,0.008029420860111713,1.0018103122711182,26.704309463500977,25.000633239746094,10.629537582397461,-0.7184640765190125,1.4384280443191528,0.2954852283000946,3.4195361137390137,-1.150010108947754,-5.074892044067383
129,714077,714078,-0.06064419448375702,0.021875832229852676,0.9741467833518982,41.00505447387695,54.1233024597168,13.061838150024414,-0.7244637608528137,1.4384280443191528,0.2954852283000946,2.929006338119507,-0.559070348739624,-5.036421775817871
130,714087,714088,-0.033592525869607925,-0.014874734915792942,0.8851335644721985,43.695377349853516,64.83235168457031,13.568093299865723,-0.7274636030197144,1.4534273147583008,0.2924853563308716,2.3332979679107666,-0.36846277117729187,-4.803551197052002
131,714097,714098,-0.005405617877840996,0.06054812669754028,0.962108314037323,29.22515106201172,55.9699592590332,12.493988990783691,-0.7259637117385864,1.4519274234771729,0.28798559308052063,1.7220569849014282,0.12203299254179001,-4.716141700744629
132,714107,714108,-0.05837705731391907,0.03174489364027977,0.9433920383453369,15.586302757263184,40.79108810424805,15.120396614074707,-0.7469626665115356,1.4429278373718262,0.3059847056865692,1.1017690896987915,0.22496597468852997,-4.502020359039307
133,714117,714118,-0.04843958839774132,0.004879477899521589,0.9170807600021362,5.257234573364258,22.78005599975586,16.631732940673828,-0.7349632382392883,1.4279285669326782,0.28798559308052063,0.8925687670707703,0.37304767966270447,-4.385843753814697
134,714127,714128,-0.013275609351694584,0.023264968767762184,0.9195538759231567,1.5436842441558838,9.332294464111328,16.740339279174805,-0.736463189125061,1.4234287738800049,0.2954852283000946,0.6629917621612549,0.39245277643203735,-4.196614742279053
135,714137,714138,-0.015271465294063091,0.01741219125688076,0.8941857814788818,-9.957013130187988,-0.41274723410606384,17.51202964782715,-0.7199639678001404,1.4249287843704224,0.28198590874671936,0.7550083994865417,0.2961098551750183,-4.0355119705200195
136,714147,714148,-0.06345177441835403,-0.023380165919661522,0.9069828391075134,-25.70091438293457,-4.714080333709717,17.877185821533203,-0.7409629225730896,1.4249287843704224,0.28198590874671936,0.5506631731987,-0.003856017952784896,-3.754256010055542
137,714157,714158,-0.05122200399637222,-0.009180708788335323,0.9426479935646057,-32.13117218017578,-6.916046619415283,15.100790023803711,-0.730463445186615,1.4384280443191528,0.2924853563308716,0.7417723536491394,-0.2075619250535965,-3.63350772857666
138,714167,714168,-0.0270585585385561,-0.027670197188854218,0.9105544090270996,-34.20265197753906,-10.347099304199219,13.094274520874023,-0.730463445186615,1.444427728652954,0.2924853563308716,0.7637205719947815,-0.7016136050224304,-3.4305126667022705
139,714177,714178,-0.034443456679582596,0.002647567307576537,0.9401935935020447,-28.004411697387695,-10.169593811035156,7.882657527923584,-0.7349632382392883,1.436928153038025,0.2969851493835449,0.9530630707740784,-0.9482935667037964,-3.3503758907318115
140,714187,714188,-0.05234065279364586,0.04062027484178543,0.9594024419784546,-15.690696716308594,-11.019586563110352,3.614387273788452,-0.7454627156257629,1.4384280443191528,0.3014849126338959,1.1368298530578613,-1.318985104560852,-3.270616054534912
141,714197,714198,-0.07440397143363953,0.022248713299632072,0.982619047164917,-1.4488106966018677,-9.237713813781738,-0.15827026963233948,-0.7484625577926636,1.4564270973205566,0.28948551416397095,1.248972773551941,-1.3096210956573486,-3.2738852500915527
142,714207,714208,-0.06269215792417526,-0.04789955914020538,1.0044041872024536,17.16962432861328,0.08795109391212463,-1.3508599996566772,-0.7319633960723877,1.4489275217056274,0.27898603677749634,1.326308012008667,-1.046834945678711,-3.333737373352051
143,714217,714218,-0.06272663176059723,-0.1448686420917511,0.8679903745651245,30.280546188354492,9.862089157104492,-2.1371958255767822,-0.7424628734588623,1.4534273147583008,0.3014849126338959,1.247938632965088,-0.799926221370697,-3.3410189151763916
144,714227,714228,-0.025105591863393784,0.04266659915447235,0.9662178158760071,29.821758270263672,17.064708709716797,-3.737520694732666,-0.737963080406189,1.4519274234771729,0.29998499155044556,1.0197073221206665,-0.38207024335861206,-3.365463972091675
145,714237,714238,-0.030942082405090332,0.07888932526111603,0.91763836145401,20.33243751525879,19.011402130126953,-4.413816452026367,-0.7334632873535156,1.4384280443191528,0.29848507046699524,0.941787600517273,-0.0009114749263972044,-3.45434308052063
146,714247,714248,-0.02599336765706539,0.10587499290704727,1.0286697149276733,4.998067855834961,22.992650985717773,-3.8291988372802734,-0.7469626665115356,1.4429278373718262,0.28798559308052063,1.0248874425888062,0.03478384017944336,-3.54435133934021
147,714257,714258,0.005062457174062729,0.03638235107064247,1.0153307914733887,-11.51965045928955,29.82251739501953,-2.4116384983062744,-0.7559621930122375,1.4519274234771729,0.2759861946105957,0.505443274974823,-0.05347898602485657,-3.5023045539855957
148,714267,714268,0.07071756571531296,0.0390654020011425,0.9363278746604919,-22.763019561767578,31.32807731628418,-0.8841118812561035,-0.7439627647399902,1.4549272060394287,0.29098543524742126,0.33789312839508057,-0.2817404866218567,-3.544764995574951
149,714277,714278,0.030299004167318344,0.09389405697584152,0.933745265007019,-28.959482192993164,23.869951248168945,1.7197341918945312,-0.7514623999595642,1.4714263677597046,0.3014849126338959,0.006992053706198931,-0.5213227868080139,-3.5404720306396484
150,714287,714288,-0.002802193397656083,0.10080286860466003,0.9572399854660034,-31.02853775024414,5.7531609535217285,3.5853629112243652,-0.7514623999595642,1.4564270973205566,0.2744862735271454,-0.17647841572761536,-0.9562245011329651,-3.4999802112579346
151,714297,714298,-0.024698462337255478,0.1378023624420166,1.043043613433838,-25.39472770690918,-10.468955993652344,5.025613784790039,-0.7439627647399902,1.4669265747070312,0.2939853072166443,-0.14074401557445526,-1.0114858150482178,-3.4931764602661133
152,714307,714308,-0.07750045508146286,-0.01975087635219097,0.9779551029205322,-10.397231101989746,-18.01845359802246,5.83787727355957,-0.7499625086784363,1.4549272060394287,0.28798559308052063,0.009816628880798817,-1.3290244340896606,-3.433154582977295
153,714317,714318,-0.027932437136769295,-0.009652524255216122,1.1093825101852417,1.912406325340271,-20.019020080566406,4.877599716186523,-0.7439627647399902,1.4339282512664795,0.28498575091362,0.09038101136684418,-1.2803616523742676,-3.3629534244537354
154,714327,714328,-0.07625356316566467,-0.13505807518959045,0.9595386981964111,17.405258178710938,-13.321124076843262,3.5206363201141357,-0.7409629225730896,1.4549272060394287,0.2969851493835449,0.36221805214881897,-1.0712990760803223,-3.3471384048461914
155,714337,714338,-0.02261214889585972,0.06334807723760605,1.0188077688217163,28.092348098754883,-3.7961950302124023,4.847421646118164,-0.7454627156257629,1.459426999092102,0.2954852283000946,0.35913947224617004,-0.9837886691093445,-3.2687137126922607
156,714347,714348,-0.05426448583602905,0.09572256356477737,0.9706780910491943,28.43997573852539,5.9488444328308105,5.788677215576172,-0.7424628734588623,1.444427728652954,0.29848507046699524,0.3430778682231903,-0.6620907783508301,-3.204883575439453
157,714357,714358,-0.10475621372461319,0.07125094532966614,1.0741130113601685,16.789709091186523,10.701227188110352,4.2493672370910645,-0.7454627156257629,1.4324283599853516,0.2834858298301697,0.18553802371025085,-0.44392186403274536,-3.13094162940979
158,714367,714368,-0.010017563588917255,0.024009546265006065,1.0173909664154053,0.2880347967147827,11.65566349029541,0.47112223505973816,-0.7334632873535156,1.4414279460906982,0.277486115694046,0.13256078958511353,-0.3450767397880554,-3.120037078857422
159,714377,714378,0.011984912678599358,0.06684059649705887,0.9844251871109009,-5.075938701629639,19.77452850341797,0.8536844849586487,-0.7514623999595642,1.435428261756897,0.28948551416397095,-0.06123090907931328,-0.4057266414165497,-3.104048252105713
160,714387,714388,0.01528756134212017,0.12402401119470596,1.0365757942199707,-9.876513481140137,22.132930755615234,3.5323832035064697,-0.7409629225730896,1.4489275217056274,0.28798559308052063,-0.2717684209346771,-0.47000205516815186,-3.086703300476074
161,714397,714398,-0.010350827127695084,0.05118013918399811,1.0039677619934082,-20.180932998657227,17.46115493774414,4.848551273345947,-0.7559621930122375,1.4339282512664795,0.28198590874671936,-0.6116443872451782,-0.7288193702697754,-3.0234954357147217
162,714407,714408,-0.04795798659324646,0.01902935653924942,1.04768967628479,-26.99736976623535,7.730359077453613,3.4658267498016357,-0.737963080406189,1.4579271078109741,0.2939853072166443,-0.7439558506011963,-1.0105984210968018,-2.9872779846191406
163,714417,714418,-0.08153892308473587,0.005336421076208353,1.003027081489563,-14.3611478805542,2.321622133255005,2.6403560638427734,-0.7469626665115356,1.4549272060394287,0.2939853072166443,-0.8178553581237793,-0.9588773846626282,-2.937896490097046
164,714427,714428,-0.018278568983078003,0.05371951684355736,1.0339425802230835,6.371401786804199,-5.114321231842041,1.3947128057479858,-0.7469626665115356,1.445927619934082,0.2939853072166443,-0.7938376069068909,-1.0756016969680786,-2.9199860095977783
165,714437,714438,-0.05434778332710266,0.013223177753388882,0.9834575057029724,31.683574676513672,-13.206966400146484,-0.3288263976573944,-0.7409629225730896,1.445927619934082,0.28498575091362,-0.6412805318832397,-0.8704351782798767,-2.923236608505249
166,714447,714448,-0.006728381849825382,0.0658615231513977,1.0100518465042114,46.12732696533203,-13.761558532714844,-0.45177045464515686,-0.7439627647399902,1.4399279356002808,0.28798559308052063,-0.47578758001327515,-0.6030906438827515,-2.9386277198791504
167,714457,714458,-0.03450332581996918,-0.017622612416744232,0.944625198841095,43.791812896728516,-5.978771686553955,-1.8082627058029175,-0.7559621930122375,1.445927619934082,0.29098543524742126,-0.5051379799842834,-0.07885035872459412,-2.9063973426818848
168,714467,714468,-0.007854513823986053,-0.053765516728162766,0.8944813013076782,29.79713249206543,9.672490119934082,-4.6310858726501465,-0.7694615125656128,1.4474276304244995,0.2834858298301697,-0.43294161558151245,0.2428736686706543,-2.950415849685669
169,714477,714478,-0.028986558318138123,-0.014091594144701958,0.9688144326210022,15.291854858398438,21.370323181152344,-6.570872783660889,-0.7469626665115356,1.4429278373718262,0.29098543524742126,-0.459636926651001,0.2516563832759857,-3.0506374835968018
170,714487,714488,0.01326216571033001,-0.0263021569699049,1.0401948690414429,0.5900325775146484,21.31830406188965,-9.617342948913574,-0.7484625577926636,1.4474276304244995,0.28948551416397095,-0.8256939053535461,0.3668734133243561,-3.1000473499298096
171,714497,714498,-0.054719287902116776,-0.04843176156282425,0.9755671620368958,-5.178825855255127,11.849258422851562,-12.15075969696045,-0.7499625086784363,1.445927619934082,0.29098543524742126,-1.0918171405792236,0.3460770547389984,-3.190337896347046
172,714507,714508,-0.012989041395485401,0.006797533482313156,0.9710407853126526,-8.585603713989258,0.16909752786159515,-13.724408149719238,-0.7574620842933655,1.4474276304244995,0.28048595786094666,-1.1698001623153687,0.24048401415348053,-3.325178623199463
173,714517,714518,0.03200918063521385,0.1494453400373459,1.0191724300384521,-9.679666519165039,-12.765008926391602,-14.275248527526855,-0.7559621930122375,1.4399279356002808,0.28498575091362,-1.0542346239089966,0.17259493470191956,-3.4714739322662354
174,714527,714528,-0.008871287107467651,0.06547538936138153,0.9816596508026123,-10.841379165649414,-24.057363510131836,-15.802501678466797,-0.7394630312919617,1.4534273147583008,0.28948551416397095,-0.8039846420288086,-0.06632588803768158,-3.6527464389801025
175,714537,714538,0.007208514027297497,0.06786737591028214,1.094713807106018,-11.35312271118164,-29.7828369140625,-16.445514678955078,-0.7544622421264648,1.435428261756897,0.2954852283000946,-0.5669034123420715,-0.10844417661428452,-3.797945261001587
176,714547,714548,0.021515315398573875,0.09068726748228073,1.0335196256637573,-6.38698148727417,-27.72770881652832,-16.751665115356445,-0.7514623999595642,1.4534273147583008,0.29848507046699524,-0.2189788669347763,-0.10577511042356491,-3.952138900756836
177,714557,714558,-0.03692397102713585,0.06215788051486015,0.9249367117881775,-1.8003427982330322,-17.481807708740234,-16.182491302490234,-0.7514623999595642,1.444427728652954,0.29848507046699524,0.04007403925061226,-0.1384735256433487,-4.113866329193115
178,714567,714568,-0.08331285417079926,0.02898954041302204,1.0402894020080566,-4.208754539489746,0.44433480501174927,-16.308528900146484,-0.7514623999595642,1.4504274129867554,0.3044847846031189,0.12054742872714996,-0.2596488893032074,-4.285736560821533
179,714577,714578,-0.03782248869538307,0.04712376743555069,1.0773615837097168,-6.458418846130371,19.532238006591797,-17.369216918945312,-0.7529623508453369,1.4699264764785767,0.3029848337173462,-0.2583949565887451,-0.2594166696071625,-4.414488792419434
180,714587,714588,-0.02107110619544983,0.04992535337805748,0.9557836055755615,-1.6473385095596313,25.251447677612305,-18.537837982177734,-0.7484625577926636,1.4714263677597046,0.2924853563308716,-0.45595821738243103,-0.3872518837451935,-4.6063618659973145
181,714597,714598,-0.01186223141849041,0.07839187979698181,1.0590076446533203,9.467615127563477,19.411821365356445,-16.55559539794922,-0.7559621930122375,1.436928153038025,0.29998499155044556,-0.7035931348800659,-0.24349375069141388,-4.764834403991699
182,714607,714608,-0.034422218799591064,-0.030757572501897812,1.0899676084518433,23.306114196777344,6.123837947845459,-13.33414363861084,-0.7544622421264648,1.444427728652954,0.28948551416397095,-0.7352478504180908,-0.051710207015275955,-4.925809383392334
183,714617,714618,-0.1076207384467125,-0.1219015046954155,0.9936733245849609,42.16755294799805,-14.810665130615234,-7.165323257446289,-0.7619618773460388,1.445927619934082,0.2939853072166443,-0.613872230052948,0.48568636178970337,-5.013742446899414
184,714627,714628,-0.03870360925793648,-0.02476734109222889,1.011834740638733,52.228240966796875,-33.609928131103516,2.289278745651245,-0.7409629225730896,1.4339282512664795,0.28498575091362,-0.46313557028770447,0.8443824648857117,-5.07016134262085
185,714637,714638,-0.06399954110383987,-0.03243429213762283,0.9755181670188904,48.06651306152344,-38.96736526489258,11.017197608947754,-0.7424628734588623,1.4324283599853516,0.28948551416397095,-0.3251027762889862,1.1662824153900146,-5.039971828460693
186,714647,714648,0.022621437907218933,0.07006517797708511,1.0094138383865356,41.84364700317383,-29.44008445739746,22.128128051757812,-0.7469626665115356,1.421928882598877,0.2939853072166443,0.1323523074388504,1.7485429048538208,-4.887442588806152
187,714657,714658,-0.04019981250166893,0.12709705531597137,0.9485436081886292,26.079986572265625,-1.4827797412872314,32.4145622253418,-0.7469626665115356,1.4279285669326782,0.29098543524742126,0.26964735984802246,2.1840548515319824,-4.624769687652588
188,714667,714668,-0.05289841443300247,-0.01727643795311451,0.8812859654426575,0.32313987612724304,21.033042907714844,37.30512619018555,-0.7559621930122375,1.4189289808273315,0.28498575091362,0.09699077904224396,2.2509090900421143,-4.293325424194336
189,714677,714678,-0.000462362018879503,-0.02704542689025402,0.8627063035964966,-27.84841537475586,33.504112243652344,39.401275634765625,-0.7484625577926636,1.444427728652954,0.28048595786094666,-0.24746176600456238,2.01812744140625,-3.922114133834839
190,714687,714688,0.021539462730288506,0.06727465242147446,1.0058584213256836,-45.21515655517578,17.41485595703125,41.42485046386719,-0.7454627156257629,1.459426999092102,0.2954852283000946,-0.6253288984298706,1.55988347530365,-3.5284640789031982
191,714697,714698,-0.009546620771288872,0.027105044573545456,1.0788782835006714,-58.067665100097656,-11.23128890991211,41.00795364379883,-0.7454627156257629,1.459426999092102,0.2924853563308716,-0.5941576957702637,1.05613112449646,-3.104624032974243
192,714707,714708,-0.011429648846387863,0.10932405292987823,1.0327283143997192,-57.90960693359375,-35.08424377441406,40.583641052246094,-0.7424628734588623,1.4624269008636475,0.29848507046699524,-0.13580812513828278,0.47162604331970215,-2.674165725708008
193,714717,714718,-0.04963916167616844,0.11641885340213776,0.9811829328536987,-46.08480453491211,-53.60332107543945,38.84238052368164,-0.737963080406189,1.4699264764785767,0.2939853072166443,0.018662000074982643,-0.09307590872049332,-2.299818277359009
194,714727,714728,-0.10144336521625519,0.10206660628318787,0.9840744733810425,-32.61138916015625,-61.18665313720703,35.882266998291016,-0.7244637608528137,1.459426999092102,0.29848507046699524,0.5342892408370972,-0.3846123516559601,-1.906385064125061
195,714737,714738,-0.14941106736660004,0.030731201171875,1.0359218120574951,-13.201862335205078,-60.34308624267578,31.99701499938965,-0.7274636030197144,1.4564270973205566,0.3014849126338959,1.46092689037323,-0.6900286078453064,-1.5362695455551147
196,714747,714748,-0.09104585647583008,0.08302547037601471,1.0315890312194824,-3.594817876815796,-54.75114059448242,25.892759323120117,-0.730463445186615,1.459426999092102,0.29848507046699524,1.7629841566085815,-0.8191812634468079,-1.2437440156936646
197,714757,714758,-0.049574390053749084,0.05758201330900192,1.0297890901565552,1.0502583980560303,-41.241512298583984,17.852947235107422,-0.7199639678001404,1.445927619934082,0.2939853072166443,2.454153299331665,-0.7715835571289062,-0.9932578206062317
198,714767,714768,0.0017414746107533574,-0.04191803187131882,1.0301198959350586,9.09106159210205,-20.06817054748535,8.913341522216797,-0.7064646482467651,1.444427728652954,0.2924853563308716,2.732372522354126,-0.7237616181373596,-0.84102463722229
199,714777,714778,-0.0582948662340641,-0.06804146617650986,0.982013463973999,17.576541900634766,-4.964924335479736,2.0665183067321777,-0.7274636030197144,1.4534273147583008,0.31048446893692017,2.9765982627868652,-0.653538703918457,-0.7687577605247498
200,714787,714788,-0.023714927956461906,-0.12899896502494812,1.0107381343841553,22.770198822021484,8.119364738464355,-4.83920431137085,-0.7139642834663391,1.445927619934082,0.29098543524742126,2.553278684616089,-0.33736687898635864,-0.7863385081291199
201,714797,714798,0.006074120290577412,0.05115694925189018,0.9676676988601685,28.250446319580078,20.552242279052734,-8.717864036560059,-0.7439627647399902,1.445927619934082,0.2969851493835449,2.3857460021972656,-0.049191780388355255,-0.8482593297958374
202,714807,714808,-0.03405756130814552,0.03914562985301018,1.0346200466156006,23.30495834350586,29.376197814941406,-10.473679542541504,-0.7439627647399902,1.4519274234771729,0.2939853072166443,2.1127431392669678,0.02854912169277668,-0.9126486778259277
203,714817,714818,-0.08909659832715988,-0.02484992705285549,1.028841495513916,7.25650691986084,20.53334617614746,-14.660083770751953,-0.7334632873535156,1.4504274129867554,0.3014849126338959,1.907004475593567,0.2775706946849823,-1.0441386699676514
204,714827,714828,-0.1216808557510376,-0.014122593216598034,1.1026344299316406,-1.7681043148040771,6.909121036529541,-17.952848434448242,-0.736463189125061,1.435428261756897,0.2954852283000946,1.9076087474822998,0.18069545924663544,-1.1841905117034912
205,714837,714838,-0.046378202736377716,2.78394618362654e-05,1.0898188352584839,-6.431602478027344,4.840574264526367,-21.14154052734375,-0.7319633960723877,1.4429278373718262,0.2939853072166443,1.8695487976074219,0.1838187873363495,-1.3820980787277222
206,714847,714848,-0.07934092730283737,-0.026152079924941063,1.0793498754501343,-0.13907063007354736,3.2773869037628174,-24.306312561035156,-0.7334632873535156,1.459426999092102,0.3014849126338959,1.6985394954681396,0.13706345856189728,-1.60496187210083
207,714857,714858,-0.0073682102374732494,0.06092827394604683,1.0877699851989746,19.054351806640625,-3.6934823989868164,-24.982376098632812,-0.730463445186615,1.4504274129867554,0.3164841830730438,1.678861141204834,0.23545296490192413,-1.8566875457763672
208,714867,714868,-0.07391326129436493,0.04604659602046013,1.0427772998809814,41.928707122802734,-20.145221710205078,-22.20606803894043,-0.7409629225730896,1.445927619934082,0.29998499155044556,1.9216926097869873,0.6801518797874451,-2.132538318634033
209,714877,714878,-0.1102626770734787,0.0592910535633564,1.129171371459961,64.64350891113281,-35.83042526245117,-17.145179748535156,-0.7319633960723877,1.436928153038025,0.3029848337173462,2.2252540588378906,1.2165277004241943,-2.3474936485290527
210,714887,714888,-0.052905403077602386,0.025779681280255318,1.0881729125976562,67.93795013427734,-31.57524871826172,-10.040131568908691,-0.7259637117385864,1.4399279356002808,0.2939853072166443,2.7459301948547363,2.0314669609069824,-2.5367047786712646
211,714897,714898,-0.09531611949205399,-0.06513060629367828,1.006081461906433,55.00056457519531,-12.764135360717773,-1.3384373188018799,-0.7334632873535156,1.4264286756515503,0.29848507046699524,2.903390645980835,2.5926170349121094,-2.5977227687835693
212,714907,714908,-0.1327252835035324,-0.10601459443569183,0.9952903985977173,33.72750473022461,10.893476486206055,7.368195056915283,-0.7274636030197144,1.4174290895462036,0.2924853563308716,2.866071939468384,3.075443983078003,-2.5922091007232666
213,714917,714918,-0.08065861463546753,-0.13621830940246582,1.1038309335708618,-0.057824376970529556,35.11058807373047,13.399404525756836,-0.7409629225730896,1.4339282512664795,0.29998499155044556,2.743532419204712,3.113147497177124,-2.43204402923584
214,714927,714928,-0.032832641154527664,-0.004577945917844772,0.977619469165802,-32.96171188354492,53.925819396972656,14.71446418762207,-0.7484625577926636,1.444427728652954,0.28948551416397095,2.145463228225708,2.886490821838379,-2.2549381256103516
215,714937,714938,0.012894685380160809,0.002526337280869484,1.0962302684783936,-52.925437927246094,67.6559829711914,15.029939651489258,-0.730463445186615,1.459426999092102,0.28948551416397095,1.2890160083770752,2.283118724822998,-2.066420078277588
216,714947,714948,0.09191868454217911,0.10700071603059769,1.0082380771636963,-54.906497955322266,64.01175689697266,16.2994384765625,-0.7529623508453369,1.4849257469177246,0.2939853072166443,0.7204685807228088,1.9474955797195435,-1.9219064712524414
217,714957,714958,0.034473586827516556,-0.0037310777697712183,0.9225305914878845,-46.3298225402832,46.51417541503906,17.478248596191406,-0.7394630312919617,1.444427728652954,0.29848507046699524,0.0920281708240509,1.235316514968872,-1.698819637298584
218,714967,714968,-0.03869517520070076,-0.03484368696808815,0.9821531772613525,-34.15199661254883,20.404726028442383,17.727901458740234,-0.7349632382392883,1.4579271078109741,0.2969851493835449,-0.04024733603000641,1.0010143518447876,-1.51445472240448
219,714977,714978,-0.12892650067806244,-0.011601589620113373,1.029937505722046,-25.162555694580078,-7.142265796661377,18.921916961669922,-0.7454627156257629,1.4534273147583008,0.29848507046699524,-0.05417580530047417,0.6467999219894409,-1.305385947227478
220,714987,714988,-0.1670994907617569,0.001921548042446375,1.0426965951919556,-29.455385208129883,-25.423919677734375,19.683256149291992,-0.7454627156257629,1.4504274129867554,0.3014849126338959,0.23097187280654907,0.5468286871910095,-1.11612868309021
221,714997,714998,-0.16583076119422913,0.024546535685658455,1.0347011089324951,-31.595083236694336,-33.355865478515625,18.771326065063477,-0.7409629225730896,1.46092689037323,0.29098543524742126,0.5295922160148621,0.2983112335205078,-0.9293161034584045
222,715007,715008,-0.13955770432949066,0.06549379974603653,1.0099650621414185,-36.32837677001953,-24.866331100463867,16.92462730407715,-0.737963080406189,1.4489275217056274,0.2939853072166443,0.9808698296546936,-0.20705287158489227,-0.6966149806976318
223,715017,715018,-0.08477720618247986,0.1326221078634262,1.0022742748260498,-42.680809020996094,-3.6491363048553467,14.332201957702637,-0.7319633960723877,1.4519274234771729,0.28798559308052063,1.1784588098526,-0.44614267349243164,-0.5512529015541077
224,715027,715028,-0.07163925468921661,0.09743404388427734,0.9583784341812134,-41.4394416809082,19.02157211303711,9.923883438110352,-0.7319633960723877,1.4579271078109741,0.3029848337173462,1.0713176727294922,-0.8369209170341492,-0.43722352385520935
225,715037,715038,-0.13230887055397034,0.03757180646061897,1.0230212211608887,-27.972564697265625,38.04879379272461,3.863558769226074,-0.737963080406189,1.472926378250122,0.3149842321872711,0.6940520405769348,-1.2095162868499756,-0.37789443135261536
226,715047,715048,-0.1669136881828308,0.04344038665294647,0.9753247499465942,0.7238153219223022,44.968074798583984,-1.8686634302139282,-0.7499625086784363,1.4579271078109741,0.29998499155044556,0.1807139366865158,-1.3722484111785889,-0.3753894567489624
227,715057,715058,-0.0696517825126648,0.04171454533934593,1.0066338777542114,31.232521057128906,39.38877868652344,-6.5327863693237305,-0.7514623999595642,1.4624269008636475,0.2954852283000946,-0.29724884033203125,-1.3299336433410645,-0.41360390186309814
228,715067,715068,-0.016504842787981033,0.12483042478561401,0.9707474708557129,61.0828971862793,20.264320373535156,-9.899113655090332,-0.7484625577926636,1.4684265851974487,0.2864856719970703,-0.5398117899894714,-0.717231810092926,-0.5110729336738586
229,715077,715078,-0.03450546786189079,0.014836594462394714,0.9583996534347534,76.10486602783203,-10.855961799621582,-9.341229438781738,-0.737963080406189,1.4639267921447754,0.2939853072166443,-0.38411062955856323,-0.015223785303533077,-0.6190803050994873
230,715087,715088,-0.015179998241364956,0.01997493766248226,0.9662886261940002,70.6418228149414,-38.70860290527344,-6.881567001342773,-0.7499625086784363,1.4399279356002808,0.29998499155044556,-0.015338551253080368,0.6742177605628967,-0.7086843252182007
231,715097,715098,-0.056018948554992676,-0.029273124411702156,0.9407731294631958,51.658687591552734,-52.94935607910156,-4.211828708648682,-0.7319633960723877,1.445927619934082,0.2969851493835449,0.41411980986595154,1.442793369293213,-0.7828242182731628
232,715107,715108,-0.06372834742069244,-0.05961143970489502,0.9357337355613708,25.261943817138672,-45.73965835571289,-2.040780544281006,-0.737963080406189,1.4399279356002808,0.28498575091362,1.0093932151794434,1.6356865167617798,-0.8263744115829468
233,715117,715118,-0.057145796716213226,-0.06863828003406525,0.9271342158317566,-4.733295440673828,-23.10824966430664,2.9592113494873047,-0.7394630312919617,1.4324283599853516,0.2924853563308716,1.3707891702651978,1.6645129919052124,-0.8398404717445374
234,715127,715128,-0.04434332251548767,-0.04388842731714249,0.9701111316680908,-26.758960723876953,1.6926847696304321,8.248125076293945,-0.7334632873535156,1.4294284582138062,0.2864856719970703,1.5411357879638672,1.524198055267334,-0.8018563985824585
235,715137,715138,-0.04422333836555481,-0.056845251470804214,0.931685209274292,-35.29887008666992,16.233440399169922,13.748030662536621,-0.7319633960723877,1.4309284687042236,0.27898603677749634,1.375805139541626,1.004798412322998,-0.6961110830307007
236,715147,715148,-0.0645652711391449,-0.027839861810207367,0.9813382625579834,-40.448368072509766,24.73123550415039,17.45735740661621,-0.737963080406189,1.4399279356002808,0.29998499155044556,1.0196807384490967,1.063058853149414,-0.5834975838661194
237,715157,715158,-0.042277608066797256,-0.0266898050904274,0.985429048538208,-38.99543762207031,36.72026062011719,17.335983276367188,-0.736463189125061,1.4324283599853516,0.2924853563308716,0.7324415445327759,0.36125448346138,-0.38346317410469055
238,715167,715168,-0.03665129095315933,-0.00866712350398302,1.0091097354888916,-40.43849182128906,46.7730827331543,15.865633010864258,-0.736463189125061,1.4474276304244995,0.28948551416397095,0.11356931179761887,0.1092965379357338,-0.23394379019737244
239,715177,715178,0.008351528085768223,0.04601796343922615,1.0023747682571411,-38.78729248046875,46.831260681152344,13.918326377868652,-0.7289635539054871,1.4519274234771729,0.28798559308052063,-0.24401959776878357,-0.2284325659275055,-0.07283779978752136
240,715187,715188,0.013488419353961945,0.050682175904512405,0.9941138029098511,-27.191614151000977,35.361568450927734,10.254133224487305,-0.7424628734588623,1.4414279460906982,0.2864856719970703,-0.9519379138946533,-0.4815153479576111,0.04354018345475197
241,715197,715198,0.016873862594366074,0.06059490516781807,1.015233039855957,-10.965694427490234,17.96132469177246,4.637781143188477,-0.7454627156257629,1.4294284582138062,0.29848507046699524,-1.2689167261123657,-0.8670824766159058,0.12946102023124695
242,715207,715208,0.040811121463775635,0.0318341925740242,1.0143049955368042,10.529786109924316,7.420124530792236,2.2153143882751465,-0.7544622421264648,1.4384280443191528,0.277486115694046,-1.3440362215042114,-0.7879132628440857,0.174709290266037
243,715217,715218,-0.0202737245708704,-0.0065307714976370335,1.0117563009262085,28.059627532958984,2.0179247856140137,2.6260924339294434,-0.7394630312919617,1.435428261756897,0.2924853563308716,-1.352889895439148,-0.5333157777786255,0.20307540893554688
244,715227,715228,0.044891081750392914,-0.006348838098347187,0.9852887988090515,37.5986328125,-6.753182411193848,3.664663076400757,-0.7529623508453369,1.436928153038025,0.29098543524742126,-1.3464759588241577,-0.12972161173820496,0.2401740401983261
245,715237,715238,0.04280494526028633,0.020284529775381088,0.9539589285850525,34.15253829956055,-17.025014877319336,5.452789306640625,-0.7574620842933655,1.4324283599853516,0.2834858298301697,-1.1810028553009033,0.28281959891319275,0.28261473774909973
246,715247,715248,0.01820281334221363,0.0988674908876419,0.9624612927436829,13.42425537109375,-24.254653930664062,6.48276948928833,-0.737963080406189,1.4279285669326782,0.28198590874671936,-0.8584802150726318,0.5165430903434753,0.32798948884010315
247,715257,715258,-0.024680595844984055,0.10370670258998871,0.9601477980613708,-13.926684379577637,-23.862695693969727,6.102125644683838,-0.7334632873535156,1.4264286756515503,0.2834858298301697,-0.603141725063324,0.49620676040649414,0.378745436668396
248,715267,715268,-0.0797824114561081,0.055536478757858276,1.0075997114181519,-39.856082916259766,-18.46763038635254,3.5628013610839844,-0.7349632382392883,1.436928153038025,0.28798559308052063,-0.4725659191608429,0.24915342032909393,0.42730575799942017
249,715277,715278,-0.03479614108800888,-0.020899584516882896,0.927515983581543,-59.290531158447266,-10.863248825073242,-0.31461429595947266,-0.730463445186615,1.4534273147583008,0.2834858298301697,-0.22665266692638397,-0.17453254759311676,0.45761796832084656
250,715287,715288,-0.022624924778938293,-0.02326863259077072,0.9195801019668579,-64.85317993164062,-4.340119361877441,-3.3725764751434326,-0.7424628734588623,1.4384280443191528,0.2924853563308716,-0.2464415431022644,-0.7514238953590393,0.4544755816459656
251,715297,715298,0.02906218357384205,0.051497429609298706,0.9348793625831604,-57.27132797241211,3.1821067333221436,-4.808899879455566,-0.7484625577926636,1.4474276304244995,0.2834858298301697,-0.16612458229064941,-1.3912372589111328,0.41489115357398987
252,715307,715308,0.03797707334160805,0.010297587141394615,0.9124855995178223,-43.707481384277344,9.937307357788086,-5.647762775421143,-0.737963080406189,1.445927619934082,0.2939853072166443,-0.21460285782814026,-1.7312513589859009,0.3918658196926117
253,715317,715318,-0.03582414239645004,0.020946666598320007,0.9810661673545837,-22.94223403930664,13.625499725341797,-6.467325687408447,-0.7349632382392883,1.4489275217056274,0.3029848337173462,-0.4071972072124481,-2.132413864135742,0.33009323477745056
254,715327,715328,-0.03455432504415512,0.038434647023677826,0.977206289768219,0.4395294487476349,12.1797456741333,-7.309849739074707,-0.7514623999595642,1.4564270973205566,0.3014849126338959,-0.5995458364486694,-2.019711971282959,0.30652716755867004
255,715337,715338,-0.04834701120853424,0.06621626019477844,0.9191941022872925,20.13446617126465,10.028155326843262,-7.5094499588012695,-0.7649617195129395,1.4579271078109741,0.3029848337173462,-0.7557178139686584,-1.9002114534378052,0.24351100623607635
256,715347,715348,-0.054251778870821,0.0856155976653099,0.9064266681671143,24.866670608520508,6.967960357666016,-7.124815940856934,-0.7559621930122375,1.472926378250122,0.2939853072166443,-0.8558043241500854,-1.5927189588546753,0.18824714422225952
257,715357,715358,-0.027138935402035713,0.11545579880475998,0.9521297812461853,15.691449165344238,4.119248390197754,-6.8044538497924805,-0.7499625086784363,1.4789260625839233,0.2969851493835449,-0.9154202342033386,-1.3331621885299683,0.1262054443359375
258,715367,715368,-0.06438799947500229,0.07369212806224823,1.0005131959915161,-2.590461492538452,0.11848296970129013,-6.345293045043945,-0.7424628734588623,1.4714263677597046,0.2864856719970703,-0.9262012243270874,-1.304561734199524,0.04310905560851097
259,715377,715378,-0.03732876852154732,-0.007996459491550922,0.9803448915481567,-19.334877014160156,-4.821680068969727,-4.492842197418213,-0.7649617195129395,1.4849257469177246,0.28498575091362,-0.8645133376121521,-1.5063966512680054,-0.04356744512915611
260,715387,715388,0.002442867262288928,0.04178737848997116,0.9782188534736633,-30.245044708251953,-9.755178451538086,-1.992814302444458,-0.7544622421264648,1.4804259538650513,0.2834858298301697,-0.7261276841163635,-1.8420203924179077,-0.11084407567977905
261,715397,715398,0.012411047704517841,0.10915594547986984,1.0226144790649414,-33.7048225402832,-12.045010566711426,0.03241520747542381,-0.7544622421264648,1.47442626953125,0.3014849126338959,-0.5341606140136719,-2.1363823413848877,-0.13136467337608337
262,715407,715408,0.013827583752572536,0.10796232521533966,1.0388575792312622,-31.183088302612305,-11.322474479675293,1.6947461366653442,-0.7544622421264648,1.47442626953125,0.3014849126338959,-0.4819223880767822,-2.4424591064453125,-0.10050404071807861
263,715417,715418,-0.011955175548791885,0.03439037501811981,1.0817066431045532,-24.786624908447266,-9.406970977783203,3.1895811557769775,-0.7544622421264648,1.47442626953125,0.3014849126338959,-0.305859237909317,-2.6206469535827637,-0.06885021924972534
264,715427,715428,-0.0391409732401371,-0.05258820578455925,1.0256328582763672,-16.073150634765625,-5.14014196395874,4.380563735961914,-0.7544622421264648,1.47442626953125,0.3014849126338959,-0.1698916107416153,-2.809201240539551,-0.03809282183647156
265,715437,715438,-0.06192860007286072,0.0033380489330738783,1.0485349893569946,-6.918283939361572,1.3680243492126465,5.65708065032959,-0.7424628734588623,1.489425539970398,0.2954852283000946,-0.2745860517024994,-3.051668882369995,0.029288657009601593
266,715447,715448,-0.009937625378370285,0.032931193709373474,1.0138739347457886,1.0033159255981445,5.861097812652588,6.006741523742676,-0.7424628734588623,1.4864256381988525,0.3014849126338959,-0.33620819449424744,-3.0602173805236816,0.09912778437137604
267,715457,715458,0.03998662531375885,-0.017064819112420082,1.0190324783325195,5.301210403442383,5.896315574645996,5.47150182723999,-0.7544622421264648,1.4864256381988525,0.28948551416397095,-0.44184190034866333,-2.985478401184082,0.17171677947044373
268,715467,715468,-0.0186503604054451,0.005114227533340454,1.0282557010650635,8.716324806213379,3.5696468353271484,4.9478302001953125,-0.7544622421264648,1.4864256381988525,0.3014849126338959,-0.5765458345413208,-2.9100351333618164,0.2513086199760437
269,715477,715478,-0.008579328656196594,0.02176557295024395,1.026480793952942,5.63815450668335,0.14690802991390228,4.428137302398682,-0.7514623999595642,1.489425539970398,0.2954852283000946,-0.6490336060523987,-2.8259212970733643,0.3188987970352173
270,715487,715488,-0.06007363274693489,0.04214410483837128,0.9443065524101257,1.6562737226486206,-3.042112112045288,3.287557601928711,-0.7484625577926636,1.4834258556365967,0.3014849126338959,-0.5857909917831421,-2.792548418045044,0.3433229625225067
271,715497,715498,-0.01710379868745804,0.1399478018283844,1.0108457803726196,-0.837576687335968,-5.922476768493652,2.419381618499756,-0.7349632382392883,1.4819258451461792,0.29098543524742126,-0.6181655526161194,-2.893373727798462,0.38659051060676575
272,715507,715508,-0.04358009621500969,0.016730744391679764,1.0346897840499878,0.20057643949985504,-7.694880962371826,2.457059383392334,-0.7544622421264648,1.4804259538650513,0.2924853563308716,-0.6081010699272156,-2.936145544052124,0.43087905645370483
273,715517,715518,-0.05737233906984329,-0.06591692566871643,1.0548456907272339,6.436338901519775,-10.463286399841309,2.6531314849853516,-0.7424628734588623,1.4924253225326538,0.30748462677001953,-0.47696030139923096,-2.920351266860962,0.4457169771194458
274,715527,715528,-0.05163086950778961,0.0112918671220541,1.089868426322937,12.773285865783691,-11.158958435058594,2.5277206897735596,-0.7439627647399902,1.4789260625839233,0.3029848337173462,-0.26999375224113464,-2.777592658996582,0.4440124034881592
275,715537,715538,0.01778164505958557,-0.008956893347203732,1.014994502067566,18.119699478149414,-9.263749122619629,1.9500313997268677,-0.7514623999595642,1.4774260520935059,0.2924853563308716,-0.23999525606632233,-2.6078855991363525,0.4973367154598236
276,715547,715548,0.004009568598121405,-0.04680410772562027,1.0414949655532837,18.80453872680664,-8.695075988769531,1.1990736722946167,-0.7394630312919617,1.4714263677597046,0.2924853563308716,-0.21427296102046967,-2.524610757827759,0.5223776698112488
277,715557,715558,-0.005655170418322086,-0.012869990430772305,1.0583646297454834,18.112028121948242,-7.644176483154297,0.6089389324188232,-0.737963080406189,1.472926378250122,0.28798559308052063,-0.3821651339530945,-2.3661715984344482,0.6442415118217468
278,715567,715568,-0.07094088196754456,-0.00018646501121111214,0.9944574236869812,16.60407829284668,-6.877199649810791,-0.1902313232421875,-0.7439627647399902,1.475926160812378,0.2969851493835449,-0.33279895782470703,-2.0691404342651367,0.6876015663146973
279,715577,715578,0.012056656181812286,0.06197551637887955,1.0814085006713867,12.226332664489746,-7.0781636238098145,-1.3570297956466675,-0.7469626665115356,1.46092689037323,0.3029848337173462,-0.24139268696308136,-2.133758783340454,0.6342504620552063
280,715587,715588,-0.04800032824277878,0.016186391934752464,1.0731942653656006,8.62746810913086,-9.335932731628418,-1.3541189432144165,-0.7484625577926636,1.4834258556365967,0.2954852283000946,-0.12145891040563583,-1.9584497213363647,0.6124534606933594
281,715597,715598,-0.01684151031076908,0.014809047803282738,1.1351864337921143,9.272473335266113,-14.11959457397461,-0.5774906873703003,-0.7349632382392883,1.472926378250122,0.2939853072166443,0.1290903240442276,-2.089459180831909,0.5204285383224487
282,715607,715608,-0.021988390013575554,-0.11205260455608368,1.03175687789917,9.817805290222168,-15.258379936218262,0.6170458793640137,-0.7409629225730896,1.4699264764785767,0.2939853072166443,0.13085681200027466,-1.9835083484649658,0.5807111859321594
283,715617,715618,0.02762921340763569,0.007528216578066349,1.0177339315414429,14.8266019821167,-14.73656940460205,0.7061409950256348,-0.7349632382392883,1.4699264764785767,0.28498575091362,0.29156988859176636,-1.8828049898147583,0.5892776846885681
284,715627,715628,0.001118672895245254,0.10772312432527542,1.0676461458206177,18.00472068786621,-11.740880966186523,0.7120954394340515,-0.7349632382392883,1.4699264764785767,0.30898454785346985,0.20083723962306976,-1.5592095851898193,0.7030748128890991
285,715637,715638,-0.03987867757678032,0.049592312425374985,1.0365031957626343,20.70805549621582,-8.995203971862793,-0.12741968035697937,-0.736463189125061,1.4624269008636475,0.3014849126338959,0.5085368156433105,-1.4237148761749268,0.6299325823783875
286,715647,715648,-0.08226058632135391,-0.010078932158648968,1.0373352766036987,20.15687370300293,-5.137639999389648,0.6689175963401794,-0.730463445186615,1.4504274129867554,0.29848507046699524,0.5589086413383484,-1.1954301595687866,0.6470226049423218
287,715657,715658,-0.08003776520490646,-0.027122346684336662,1.042995810508728,17.183351516723633,-3.718061923980713,0.856597900390625,-0.7394630312919617,1.4534273147583008,0.2924853563308716,0.5613180994987488,-0.9369167685508728,0.6783207654953003
288,715667,715668,-0.05193213373422623,0.009957333095371723,1.0525472164154053,14.547616958618164,-3.24391508102417,0.8660058379173279,-0.7439627647399902,1.4489275217056274,0.3029848337173462,0.6091570854187012,-0.9269701838493347,0.6764801740646362
289,715677,715678,0.009088768623769283,0.03616928681731224,1.0487836599349976,11.17106819152832,-3.359621047973633,1.387731909751892,-0.7319633960723877,1.4519274234771729,0.2939853072166443,0.7014179825782776,-0.6746124029159546,0.6699013710021973
290,715687,715688,0.04480987414717674,0.006148756481707096,1.0213217735290527,10.483400344848633,-3.9731531143188477,1.9389622211456299,-0.7289635539054871,1.4519274234771729,0.29098543524742126,0.7926008701324463,-0.6770040392875671,0.663521945476532
291,715697,715698,0.06985694169998169,-0.01624469645321369,1.0156042575836182,9.332369804382324,-5.05838680267334,2.087800979614258,-0.7289635539054871,1.4429278373718262,0.29998499155044556,0.6939345598220825,-0.5528746843338013,0.7191829681396484
292,715707,715708,0.0024350073654204607,-0.04059666767716408,0.990855872631073,8.773255348205566,-5.342024803161621,1.730324387550354,-0.7289635539054871,1.4489275217056274,0.29998499155044556,0.8379156589508057,-0.4361833930015564,0.7190752029418945
293,715717,715718,-0.056930702179670334,0.010195530019700527,0.9989125728607178,6.466457843780518,-6.799288749694824,2.3919358253479004,-0.7334632873535156,1.4474276304244995,0.3044847846031189,0.9302126169204712,-0.47611868381500244,0.7356424927711487
294,715727,715728,-0.04704735055565834,0.11002665013074875,1.055712103843689,9.514664649963379,-6.028884410858154,3.0847856998443604,-0.7244637608528137,1.444427728652954,0.2924853563308716,1.0201013088226318,-0.4443519711494446,0.7605757713317871
295,715737,715738,-0.03558731451630592,0.10260047763586044,1.0430078506469727,12.195893287658691,-4.153305530548096,3.9179556369781494,-0.7124643921852112,1.444427728652954,0.2924853563308716,1.001371145248413,-0.21992936730384827,0.8008250594139099
296,715747,715748,-0.026312269270420074,0.014308883808553219,1.022420883178711,13.482647895812988,-2.760687828063965,4.233168601989746,-0.7319633960723877,1.4399279356002808,0.28798559308052063,1.0228691101074219,-0.18481963872909546,0.8427642583847046
297,715757,715758,-0.00531323067843914,-0.07643698155879974,1.050642490386963,14.970291137695312,-0.9233141541481018,4.4179301261901855,-0.7289635539054871,1.436928153038025,0.2969851493835449,0.8813146352767944,-0.05581190809607506,0.9027015566825867
298,715767,715768,0.015764230862259865,-0.1293063461780548,1.0010088682174683,12.951168060302734,-0.2674849033355713,4.3985114097595215,-0.7124643921852112,1.4384280443191528,0.2834858298301697,1.0083088874816895,0.007300448138266802,0.9354482293128967
299,715777,715778,0.01945894956588745,-0.09859960526227951,0.9774077534675598,11.244624137878418,-1.7847188711166382,4.614171981811523,-0.7259637117385864,1.4249287843704224,0.29998499155044556,1.207332730293274,0.12315253168344498,0.9621031880378723
300,715787,715788,0.0005495922523550689,-0.014070230536162853,1.0268303155899048,11.869111061096191,-1.4690691232681274,5.0457444190979,-0.7289635539054871,1.4279285669326782,0.28798559308052063,0.9894819855690002,0.09582078456878662,1.0392590761184692
301,715797,715798,-0.007742470595985651,0.007810301147401333,0.9902368187904358,11.179813385009766,0.43656623363494873,5.00262975692749,-0.7154642343521118,1.435428261756897,0.277486115694046,1.1197469234466553,0.3496304154396057,1.0707900524139404
302,715807,715808,0.048331838101148605,0.033435527235269547,1.011846661567688,15.324125289916992,2.2035484313964844,4.827902793884277,-0.722963809967041,1.4159291982650757,0.29998499155044556,0.9085022807121277,0.4156029224395752,1.132163166999817
303,715817,715818,0.0018010600470006466,0.029903791844844818,1.002563238143921,17.336273193359375,4.128572463989258,4.647926330566406,-0.7244637608528137,1.4174290895462036,0.2864856719970703,0.9032711386680603,0.7342730760574341,1.1621618270874023
304,715827,715828,-0.029232632368803024,0.01622720994055271,0.9968007802963257,18.18701171875,4.4661407470703125,4.528359413146973,-0.7139642834663391,1.4129292964935303,0.2939853072166443,0.8185543417930603,0.8022180795669556,1.220786452293396
305,715837,715838,-0.003051047446206212,0.005736718885600567,0.9564993381500244,15.0452241897583,3.671022891998291,3.927485227584839,-0.722963809967041,1.4009299278259277,0.28798559308052063,0.7951973676681519,0.8633407354354858,1.2795227766036987
306,715847,715848,0.002623920561745763,0.005761516280472279,0.944204568862915,13.564881324768066,1.4747076034545898,3.2454850673675537,-0.7259637117385864,1.4039298295974731,0.28198590874671936,0.6457637548446655,0.8804624676704407,1.326049566268921
307,715857,715858,0.011634709313511848,-0.10375548899173737,0.9323009848594666,9.916949272155762,-1.1971120834350586,2.7149910926818848,-0.7139642834663391,1.391930341720581,0.2759861946105957,0.8090462684631348,1.1296968460083008,1.3540300130844116
308,715867,715868,-0.015557743608951569,-0.027717681601643562,0.9265091419219971,9.013187408447266,-5.376597881317139,2.568997383117676,-0.7244637608528137,1.405429720878601,0.2924853563308716,0.8992772698402405,1.2725961208343506,1.380123257637024
309,715877,715878,-0.008733624592423439,0.005028950981795788,0.9343127012252808,7.325756549835205,-7.4349045753479,2.7626304626464844,-0.7274636030197144,1.4114294052124023,0.2864856719970703,0.8285473585128784,1.3916845321655273,1.3852702379226685
310,715887,715888,-0.06677854061126709,-0.05752495303750038,0.9315264225006104,5.916490077972412,-7.312922477722168,3.2955939769744873,-0.7199639678001404,1.3949302434921265,0.29098543524742126,0.9343785643577576,1.1321144104003906,1.4526311159133911
311,715897,715898,-0.14855828881263733,-0.04597771540284157,0.9491355419158936,4.059793949127197,-6.444293022155762,3.3845911026000977,-0.722963809967041,1.4039298295974731,0.2969851493835449,1.0366756916046143,1.3537611961364746,1.4643614292144775
312,715907,715908,-0.17141824960708618,-0.018372176215052605,0.9781511425971985,5.018742561340332,-4.448596954345703,3.8159825801849365,-0.7109644412994385,1.391930341720581,0.29098543524742126,1.1198114156723022,1.3428065776824951,1.5032991170883179
313,715917,715918,-0.14300407469272614,-0.005913091823458672,0.9580174088478088,5.023042678833008,-1.3902614116668701,3.8882558345794678,-0.722963809967041,1.3949302434921265,0.28798559308052063,0.9483745694160461,1.4778310060501099,1.4867013692855835
314,715927,715928,-0.08832868188619614,-0.01542305201292038,0.8873112797737122,4.878391265869141,1.6303739547729492,4.338910102844238,-0.730463445186615,1.4024298191070557,0.2924853563308716,0.9389416575431824,1.6753448247909546,1.5019309520721436
315,715937,715938,-0.001327809295617044,0.022318394854664803,0.9379569888114929,2.851780891418457,2.6616153717041016,4.514491081237793,-0.7124643921852112,1.4144293069839478,0.2864856719970703,1.1660003662109375,1.6440842151641846,1.6123287677764893
316,715947,715948,-0.002862028544768691,0.013223732821643353,0.9415555000305176,-0.9504206776618958,1.5773769617080688,4.116279602050781,-0.730463445186615,1.3994300365447998,0.2924853563308716,1.097489833831787,1.7078096866607666,1.6402374505996704
317,715957,715958,0.004190417472273111,-0.03670351579785347,0.8966514468193054,-3.8553805351257324,0.9787404537200928,3.995325803756714,-0.7169641256332397,1.406929612159729,0.28198590874671936,1.1295233964920044,1.57260262966156,1.7083035707473755
318,715967,715968,0.023510834202170372,-0.061619147658348083,0.8691105842590332,-5.950029373168945,0.9661905765533447,3.742842674255371,-0.7169641256332397,1.406929612159729,0.28198590874671936,0.9567616581916809,1.534867763519287,1.6995298862457275
319,715977,715978,0.024963971227407455,0.08280354738235474,0.9082654118537903,-5.737722396850586,1.5059021711349487,3.6189119815826416,-0.7334632873535156,1.408429503440857,0.2954852283000946,0.9678258895874023,1.4814045429229736,1.7437986135482788
320,715987,715988,-0.0022568830754607916,0.042611971497535706,0.9492573738098145,-6.138501167297363,-2.912846565246582,2.844780921936035,-0.7124643921852112,1.4234287738800049,0.2924853563308716,1.0113474130630493,1.492841362953186,1.7814762592315674
321,715997,715998,-0.014236736111342907,0.0770825445652008,0.9825139045715332,-2.5357627868652344,-5.600702285766602,2.197575807571411,-0.7154642343521118,1.4114294052124023,0.28948551416397095,1.0469884872436523,1.454843521118164,1.8045352697372437
322,716007,716008,-0.04884275421500206,0.11408603936433792,0.9644880294799805,1.838544249534607,-5.720563888549805,1.9684486389160156,-0.7154642343521118,1.4114294052124023,0.28948551416397095,0.8948832750320435,1.3313440084457397,1.7774235010147095
323,716017,716018,-0.05850427597761154,0.14092141389846802,0.9461581110954285,8.555038452148438,-3.967320203781128,2.1374449729919434,-0.7124643921852112,1.4114294052124023,0.2864856719970703,1.2282943725585938,1.4419903755187988,1.8741401433944702
324,716027,716028,0.007309870794415474,0.15264371037483215,0.9949486255645752,15.67078685760498,-4.60764217376709,1.6517030000686646,-0.7214639186859131,1.4114294052124023,0.2834858298301697,1.165551781654358,1.5888487100601196,1.8586372137069702
325,716037,716038,0.02530503273010254,0.0880131796002388,0.9639355540275574,17.06700897216797,-1.9245132207870483,1.9128023386001587,-0.7274636030197144,1.4294284582138062,0.28948551416397095,1.1033837795257568,1.8185735940933228,1.8348591327667236
326,716047,716048,0.026146525517106056,0.030978811904788017,0.9295843243598938,14.745323181152344,0.2808537781238556,2.4050965309143066,-0.730463445186615,1.4384280443191528,0.2924853563308716,1.0838136672973633,1.820674180984497,1.8705464601516724
327,716057,716058,-0.00045761652290821075,0.012620434165000916,0.9233574271202087,7.727108001708984,0.5734868049621582,2.3926637172698975,-0.7244637608528137,1.4294284582138062,0.29848507046699524,0.8375324606895447,2.05423641204834,1.7989587783813477
328,716067,716068,-0.016480570659041405,0.00105846649967134,0.9372374415397644,-1.280480980873108,0.9329506158828735,2.9775378704071045,-0.7394630312919617,1.4294284582138062,0.2924853563308716,0.8018507957458496,2.139392137527466,1.8109054565429688
329,716077,716078,-0.024034088477492332,-0.032861460000276566,0.9178795218467712,-10.914344787597656,-2.0358777046203613,3.1237878799438477,-0.7199639678001404,1.436928153038025,0.28498575091362,0.7875458598136902,2.0639002323150635,1.8439934253692627
330,716087,716088,-0.010852311737835407,-0.05262293294072151,0.912294864654541,-17.08057403564453,-5.542775630950928,2.6065926551818848,-0.7319633960723877,1.4279285669326782,0.2939853072166443,0.8251162767410278,1.8566008806228638,1.8896737098693848
331,716097,716098,-0.002283385954797268,-0.038632601499557495,0.9286381006240845,-19.349363327026367,-10.134775161743164,2.4102673530578613,-0.7274636030197144,1.4384280443191528,0.2864856719970703,0.8603725433349609,1.6410701274871826,1.9078181982040405
332,716107,716108,-0.0021310329902917147,0.008787413127720356,0.9570879340171814,-16.701082229614258,-14.773640632629395,2.83312726020813,-0.7289635539054871,1.445927619934082,0.28498575091362,1.052010178565979,1.497045636177063,1.9531590938568115
333,716117,716118,0.0016640243120491505,0.06202547252178192,0.9685713052749634,-10.900055885314941,-16.68824577331543,3.024137258529663,-0.722963809967041,1.4399279356002808,0.29998499155044556,1.15486741065979,1.3541227579116821,1.960142970085144
334,716127,716128,-0.02743375673890114,-0.000543877889867872,0.9818469882011414,-6.036709785461426,-15.377470970153809,3.609616756439209,-0.736463189125061,1.4684265851974487,0.2924853563308716,1.4739089012145996,1.3016247749328613,2.039405345916748
335,716137,716138,0.0401497520506382,0.04213232174515724,0.9698134064674377,-2.7939376831054688,-10.706265449523926,3.8911080360412598,-0.7334632873535156,1.4624269008636475,0.30748462677001953,1.5862318277359009,1.3120453357696533,2.055589199066162
336,716147,716148,0.019282005727291107,0.028896454721689224,1.0242395401000977,-1.8755120038986206,-4.919546604156494,4.143133163452148,-0.7289635539054871,1.46092689037323,0.29998499155044556,1.4836088418960571,1.2012698650360107,2.0355064868927
337,716157,716158,-0.023470470681786537,-0.011359786614775658,1.022668719291687,-3.982065200805664,0.3208422362804413,4.7228803634643555,-0.7334632873535156,1.459426999092102,0.30748462677001953,1.6649006605148315,1.0906637907028198,2.1398916244506836
338,716167,716168,-0.00773409241810441,0.06158704310655594,1.0465140342712402,-5.330084323883057,2.2572903633117676,3.932486057281494,-0.730463445186615,1.4534273147583008,0.29848507046699524,1.4259788990020752,1.1727162599563599,2.0845797061920166
339,716177,716178,-0.019544940441846848,0.1331126093864441,1.09727942943573,-6.834273338317871,2.968864679336548,4.992237091064453,-0.7169641256332397,1.4579271078109741,0.3059847056865692,1.4365659952163696,1.0801140069961548,2.146315813064575
340,716187,716188,-0.01667814329266548,-0.0028878457378596067,1.0513399839401245,-9.259859085083008,-0.6281737685203552,4.498651027679443,-0.736463189125061,1.4714263677597046,0.2954852283000946,1.3907865285873413,0.9458146691322327,2.1958706378936768
341,716197,716198,-0.03615856170654297,-0.0585305318236351,1.0907753705978394,-10.890750885009766,-5.661106586456299,5.002745628356934,-0.730463445186615,1.459426999092102,0.3044847846031189,1.503067135810852,0.7746124863624573,2.278548002243042
342,716207,716208,-0.06389056891202927,-0.04457136243581772,1.0560013055801392,-8.850966453552246,-10.11750316619873,4.4257612228393555,-0.7349632382392883,1.4639267921447754,0.2969851493835449,1.6155965328216553,0.7535415887832642,2.3214473724365234
343,716217,716218,-0.048190563917160034,-0.001998339081183076,1.032995581626892,-6.811532497406006,-11.952467918395996,3.9711530208587646,-0.7244637608528137,1.4564270973205566,0.2924853563308716,1.8262068033218384,0.8289417028427124,2.3644351959228516
344,716227,716228,-0.04530712962150574,0.02330845780670643,1.1167213916778564,-8.267293930053711,-10.041595458984375,4.033134460449219,-0.7259637117385864,1.4429278373718262,0.29998499155044556,1.8207383155822754,0.8338817358016968,2.352670431137085
345,716237,716238,0.017674433067440987,-0.1101834699511528,1.0485010147094727,-10.993328094482422,-6.76459264755249,4.573342800140381,-0.7349632382392883,1.4249287843704224,0.2939853072166443,1.9264931678771973,0.7223650217056274,2.3986833095550537
346,716247,716248,0.027683647349476814,-0.02455691434442997,1.0544757843017578,-14.714025497436523,-0.9859769940376282,4.0981855392456055,-0.7094644904136658,1.420428991317749,0.28948551416397095,1.743032693862915,0.5826225280761719,2.3906726837158203
347,716257,716258,-0.012509146705269814,0.020617783069610596,1.026309847831726,-20.281166076660156,2.987898349761963,3.8524229526519775,-0.7199639678001404,1.4279285669326782,0.29998499155044556,1.7028870582580566,0.3524899184703827,2.436325788497925
348,716267,716268,0.01129989419132471,-0.05818210542201996,1.0472654104232788,-22.265811920166016,3.3537073135375977,2.190521478652954,-0.7274636030197144,1.4264286756515503,0.28948551416397095,1.6783801317214966,0.04792330414056778,2.4904346466064453
349,716277,716278,-0.005034135654568672,-0.0023704119957983494,1.0314077138900757,-19.19761085510254,1.6611510515213013,0.11952126026153564,-0.7289635539054871,1.4399279356002808,0.2939853072166443,1.6237763166427612,-0.08468809723854065,2.4820640087127686
350,716287,716288,-0.04362756386399269,0.03440427780151367,1.008624792098999,-9.283987998962402,0.2947787940502167,-1.1606570482254028,-0.7139642834663391,1.4189289808273315,0.29098543524742126,1.6570178270339966,-0.26995980739593506,2.4928390979766846
351,716297,716298,0.009018069133162498,0.09975261986255646,1.0048797130584717,3.64666748046875,-2.312692403793335,-3.5974509716033936,-0.7244637608528137,1.4414279460906982,0.2924853563308716,1.7712135314941406,-0.11358971148729324,2.4494495391845703
352,716307,716308,-0.01926284469664097,0.03381199389696121,1.0129156112670898,10.08818244934082,-7.194259166717529,-4.642630100250244,-0.7199639678001404,1.4249287843704224,0.2939853072166443,1.5918864011764526,-0.04248148947954178,2.3689334392547607
353,716317,716318,-0.06053002551198006,-0.033543799072504044,1.0059387683868408,11.135669708251953,-9.76402473449707,-5.765314102172852,-0.7079645991325378,1.4339282512664795,0.3029848337173462,1.783338189125061,0.08949214965105057,2.326131820678711
354,716327,716328,-0.08258756250143051,0.016854725778102875,1.0058423280715942,7.44461727142334,-12.080463409423828,-6.542196273803711,-0.7169641256332397,1.4309284687042236,0.30898454785346985,1.942962408065796,0.07852490991353989,2.298084020614624
355,716337,716338,-0.02658439800143242,0.03832167759537697,1.045704960823059,0.9949541091918945,-11.292403221130371,-6.748757839202881,-0.7184640765190125,1.4474276304244995,0.2864856719970703,2.1711628437042236,0.14079660177230835,2.243973731994629
356,716347,716348,-0.033936016261577606,-0.009697162546217442,0.9897750020027161,-5.4446330070495605,-7.45408296585083,-5.873860836029053,-0.722963809967041,1.4399279356002808,0.29098543524742126,2.2201106548309326,0.0941048115491867,2.181696653366089
357,716357,716358,-0.03993518278002739,-0.0165190901607275,0.9842624664306641,-9.145331382751465,0.43166589736938477,-4.03281307220459,-0.7184640765190125,1.4474276304244995,0.31048446893692017,2.2367818355560303,-0.04500133544206619,2.141660451889038
358,716367,716368,-0.08921882510185242,-0.06880584359169006,1.0230151414871216,-9.43216609954834,10.695307731628418,-2.9506709575653076,-0.730463445186615,1.47442626953125,0.3044847846031189,2.169227123260498,0.06477243453264236,2.044609308242798
359,716377,716378,-0.03526691719889641,-0.04269162937998772,0.9672297835350037,-8.056310653686523,15.7274808883667,-1.6344192028045654,-0.722963809967041,1.4579271078109741,0.3059847056865692,1.9669770002365112,-0.2351178079843521,2.0670650005340576
360,716387,716388,-0.04027726128697395,-0.013978232629597187,0.9840710163116455,-6.234772682189941,15.69373893737793,-1.1411012411117554,-0.7154642343521118,1.4684265851974487,0.29848507046699524,1.8765326738357544,-0.36662545800209045,2.0684962272644043
361,716397,716398,-0.010979438200592995,0.01445762813091278,0.9916160702705383,-2.9711525440216064,13.210636138916016,-0.756683349609375,-0.7274636030197144,1.459426999092102,0.30748462677001953,1.6523592472076416,-0.37982165813446045,2.0430116653442383
362,716407,716408,-0.004838238470256329,0.03457464277744293,1.0328702926635742,-1.9010400772094727,11.536237716674805,-0.3638201355934143,-0.7124643921852112,1.459426999092102,0.3014849126338959,1.5270451307296753,-0.35497426986694336,2.0227296352386475
363,716417,716418,-0.004743454046547413,-0.030369283631443977,1.0250439643859863,-0.5628901124000549,7.274710655212402,-0.032412584871053696,-0.7289635539054871,1.445927619934082,0.3059847056865692,1.368871808052063,-0.25396302342414856,1.9882338047027588
364,716427,716428,-0.0011365892132744193,-0.0857342854142189,0.9890884160995483,-0.5596060156822205,3.8616421222686768,-0.10726794600486755,-0.7199639678001404,1.4519274234771729,0.3029848337173462,1.359580397605896,-0.2838647961616516,1.9922939538955688
365,716437,716438,0.009804288856685162,-0.010752423666417599,1.0175596475601196,-3.3975889682769775,0.7626786828041077,-1.1858450174331665,-0.7319633960723877,1.4639267921447754,0.29998499155044556,1.342617392539978,-0.2561906576156616,1.9796773195266724
366,716447,716448,0.0235079824924469,0.06845454126596451,0.9800411462783813,-6.848865509033203,0.22302106022834778,-1.960453987121582,-0.722963809967041,1.4489275217056274,0.2969851493835449,1.3498092889785767,-0.34465837478637695,1.9765270948410034
367,716457,716458,-0.03379950672388077,0.03728792071342468,1.027910828590393,-10.5261812210083,0.9036605358123779,-1.918387770652771,-0.722963809967041,1.4669265747070312,0.3029848337173462,1.4939945936203003,-0.49894842505455017,1.9710718393325806
368,716467,716468,-0.00996637623757124,-0.013173495419323444,0.9953636527061462,-10.80038833618164,2.8789360523223877,-1.7298822402954102,-0.722963809967041,1.4639267921447754,0.30898454785346985,1.4694989919662476,-0.5471546053886414,1.940588355064392
369,716477,716478,-0.0056296829134225845,0.038662225008010864,1.0641443729400635,-7.139636993408203,4.826205253601074,-0.5620375871658325,-0.7109644412994385,1.4579271078109741,0.2969851493835449,1.401258945465088,-0.712926983833313,1.9390889406204224
370,716487,716488,-0.03718511760234833,0.03198044374585152,1.0673236846923828,-3.2802867889404297,6.554785251617432,-0.08299294114112854,-0.7184640765190125,1.4654266834259033,0.3014849126338959,1.2998145818710327,-0.741664469242096,1.9296525716781616
371,716497,716498,-0.049445025622844696,0.016339218243956566,1.0521080493927002,1.0200324058532715,6.157632350921631,0.15279904007911682,-0.7184640765190125,1.4624269008636475,0.31048446893692017,1.1908104419708252,-0.7757886648178101,1.9330145120620728
372,716507,716508,0.007430135738104582,-0.008051200769841671,1.005914330482483,4.241732597351074,5.881043910980225,0.7160963416099548,-0.7289635539054871,1.4699264764785767,0.2939853072166443,1.0957293510437012,-0.6729174852371216,1.924214243888855
373,716517,716518,-0.05955184996128082,0.015554104931652546,1.0381760597229004,5.250296592712402,4.830413818359375,1.1730486154556274,-0.7199639678001404,1.46092689037323,0.3059847056865692,1.1546725034713745,-0.6069563627243042,1.9188275337219238
374,716527,716528,-0.006405617110431194,0.04384860768914223,1.0796414613723755,3.6561005115509033,5.43610954284668,1.1311246156692505,-0.737963080406189,1.4939253330230713,0.30898454785346985,1.060813069343567,-0.6176666021347046,1.942149043083191
375,716537,716538,0.00893380492925644,-0.0027564181946218014,1.0465840101242065,1.020448088645935,6.741243839263916,1.0258631706237793,-0.730463445186615,1.4954252243041992,0.29848507046699524,0.9575482606887817,-0.5865252614021301,1.9581964015960693
376,716547,716548,-0.04532391205430031,0.053666722029447556,1.1086978912353516,-1.695123553276062,6.647620677947998,0.9538532495498657,-0.7214639186859131,1.4804259538650513,0.2954852283000946,0.9891968369483948,-0.6754264831542969,1.9699779748916626
377,716557,716558,0.006257385015487671,-0.030249932780861855,0.9985050559043884,-3.249681234359741,5.47840690612793,1.3137415647506714,-0.7469626665115356,1.4789260625839233,0.30898454785346985,0.8114784359931946,-0.7026936411857605,1.9945143461227417
378,716567,716568,-0.02457364648580551,0.027657462283968925,1.0911184549331665,-0.4286307692527771,5.363724231719971,1.8234648704528809,-0.737963080406189,1.4849257469177246,0.2969851493835449,0.7792367339134216,-0.674091637134552,1.998878002166748
379,716577,716578,0.0024553758557885885,0.03321628272533417,1.0908910036087036,1.3979281187057495,4.180826663970947,1.4290703535079956,-0.7514623999595642,1.4774260520935059,0.2924853563308716,0.69439697265625,-0.6748546361923218,2.019374370574951
380,716587,716588,-0.029703926295042038,-0.059004899114370346,1.0978244543075562,4.301477909088135,4.011472702026367,1.5513685941696167,-0.7244637608528137,1.4774260520935059,0.3044847846031189,0.6200063824653625,-0.6353059411048889,2.033815383911133
381,716597,716598,0.0002671208349056542,0.0005679735913872719,1.0600286722183228,4.15375280380249,1.4288980960845947,1.5383113622665405,-0.730463445186615,1.459426999092102,0.3014849126338959,0.6240614652633667,-0.51182621717453,2.036236524581909
382,716607,716608,-0.0061155217699706554,0.08205112814903259,1.0636274814605713,4.873062610626221,0.1462424099445343,1.8942644596099854,-0.7349632382392883,1.4549272060394287,0.3029848337173462,0.6025182604789734,-0.4945675730705261,2.0588254928588867
383,716617,716618,0.017752524465322495,0.03660120442509651,1.0596222877502441,3.571293830871582,-0.4079301655292511,1.6441051959991455,-0.7184640765190125,1.4324283599853516,0.2924853563308716,0.5894764065742493,-0.5041602849960327,2.0808401107788086
384,716627,716628,-0.013465003110468388,-0.004383128136396408,1.051650881767273,5.393710136413574,0.5730243921279907,1.999418020248413,-0.7124643921852112,1.444427728652954,0.3014849126338959,0.5839117169380188,-0.42356908321380615,2.098006010055542
385,716637,716638,-0.02481851726770401,0.03924819454550743,1.0802326202392578,5.904069423675537,5.648624897003174,1.7039375305175781,-0.7199639678001404,1.4309284687042236,0.29998499155044556,0.6002569198608398,-0.33572274446487427,2.1124677658081055
386,716647,716648,0.006938041187822819,0.10477400571107864,1.0161571502685547,5.13455057144165,8.114775657653809,2.078155517578125,-0.7319633960723877,1.4309284687042236,0.2969851493835449,0.5485532879829407,-0.38208454847335815,2.131368398666382
387,716657,716658,-0.02066410332918167,0.05737242102622986,1.053357481956482,5.120494365692139,10.482501983642578,2.8844094276428223,-0.7274636030197144,1.4324283599853516,0.29848507046699524,0.38611239194869995,-0.21891388297080994,2.164382219314575
388,716667,716668,-0.024581288918852806,-0.02812015824019909,1.0076944828033447,2.962104320526123,12.453429222106934,2.962430715560913,-0.7274636030197144,1.4384280443191528,0.2924853563308716,0.20941181480884552,-0.29537469148635864,2.2017931938171387
389,716677,716678,-0.012238794006407261,0.035865217447280884,1.0293760299682617,0.17467568814754486,12.852740287780762,2.7099390029907227,-0.7289635539054871,1.421928882598877,0.2969851493835449,-0.12144343554973602,-0.24809838831424713,2.2579832077026367
390,716687,716688,-0.018542807549238205,0.1456674188375473,1.091206669807434,-2.8608977794647217,10.134160995483398,2.3509793281555176,-0.7244637608528137,1.405429720878601,0.2864856719970703,0.3339044451713562,-0.3199819028377533,2.2163543701171875
391,716697,716698,-0.029838500544428825,0.1283228099346161,1.043367862701416,-2.1328437328338623,3.0637612342834473,2.982924461364746,-0.7289635539054871,1.421928882598877,0.2939853072166443,0.18815279006958008,-0.34755614399909973,2.2487595081329346
392,716707,716708,-0.037721406668424606,0.030244559049606323,0.9976992607116699,-2.063950777053833,-2.530325174331665,3.0829432010650635,-0.7289635539054871,1.4249287843704224,0.2759861946105957,0.21718816459178925,-0.377666175365448,2.2735936641693115
393,716717,716718,-0.06188506260514259,-0.014612030237913132,0.9330441951751709,-1.9234950542449951,-5.291011333465576,3.185851573944092,-0.7259637117385864,1.4279285669326782,0.28198590874671936,0.26073625683784485,-0.47439438104629517,2.299992799758911
394,716727,716728,-0.04765244945883751,0.0767773985862732,0.9382036924362183,-1.1733449697494507,-4.425179958343506,3.3159289360046387,-0.7214639186859131,1.4144293069839478,0.2834858298301697,0.3249356746673584,-0.47639894485473633,2.334326982498169
395,716737,716738,-0.03440781682729721,0.05430262163281441,1.0115195512771606,2.395233392715454,-0.511030375957489,3.394426107406616,-0.7124643921852112,1.4174290895462036,0.28948551416397095,0.26801037788391113,-0.45880961418151855,2.3792800903320312
396,716747,716748,-0.02686842530965805,0.04446727782487869,1.0041308403015137,6.740421772003174,4.8700480461120605,3.269252300262451,-0.7274636030197144,1.4174290895462036,0.29848507046699524,0.21215347945690155,-0.3760564923286438,2.42181658744812
397,716757,716758,-0.03859075903892517,-0.06686969846487045,0.9541059732437134,10.093938827514648,9.299032211303711,2.9735536575317383,-0.7289635539054871,1.4279285669326782,0.2939853072166443,0.13822786509990692,-0.4438518285751343,2.4401886463165283
398,716767,716768,-0.007500296458601952,-0.009363820776343346,0.9717600345611572,11.137616157531738,6.976232051849365,2.5618224143981934,-0.7334632873535156,1.4294284582138062,0.28948551416397095,0.05098240077495575,-0.31244853138923645,2.469775676727295
399,716777,716778,0.024363931268453598,0.015915028750896454,0.9871985912322998,12.960808753967285,6.40632963180542,1.5163705348968506,-0.7289635539054871,1.4249287843704224,0.3029848337173462,-0.011248305439949036,-0.1600746065378189,2.496443033218384
400,716787,716788,0.011437200009822845,0.018838943913578987,1.0493366718292236,14.081122398376465,7.950404167175293,0.25919461250305176,-0.7289635539054871,1.421928882598877,0.29098543524742126,-0.1536792367696762,-0.05889676511287689,2.512169361114502
401,716797,716798,-0.02978583797812462,-0.052069004625082016,0.9441311955451965,12.933753967285156,6.431188583374023,-0.6189484000205994,-0.7259637117385864,1.4099295139312744,0.28798559308052063,-0.1682567596435547,0.17553594708442688,2.51946759223938
402,716807,716808,-0.006531483493745327,0.003671431913971901,0.9619495868682861,9.10130786895752,0.868699312210083,-0.9533758759498596,-0.7154642343521118,1.4024298191070557,0.2954852283000946,-0.25029242038726807,0.23373396694660187,2.508573532104492
403,716817,716818,-0.050849076360464096,0.0010997933568432927,0.9659621119499207,6.124397277832031,-4.758543968200684,-1.200082778930664,-0.7049647569656372,1.4129292964935303,0.2969851493835449,-0.23223930597305298,0.24434629082679749,2.4875776767730713
404,716827,716828,-0.13213428854942322,-0.02162688784301281,0.8846465945243835,8.093676567077637,-6.663257598876953,-1.2310858964920044,-0.7289635539054871,1.4039298295974731,0.28798559308052063,-0.1376766413450241,0.2423994541168213,2.463388681411743
405,716837,716838,-0.042647406458854675,0.07385426014661789,0.897897481918335,9.998984336853027,-7.093437194824219,-0.7600973844528198,-0.7124643921852112,1.4174290895462036,0.28948551416397095,-0.027963152155280113,0.4082587659358978,2.4648730754852295
406,716847,716848,-0.005188616458326578,0.029354920610785484,0.9593844413757324,13.138111114501953,-2.56184458732605,-1.0128086805343628,-0.7274636030197144,1.4174290895462036,0.2954852283000946,0.032546915113925934,0.48383888602256775,2.448884963989258
407,716857,716858,-0.02235766500234604,0.02040410041809082,0.9873990416526794,13.799176216125488,3.5506250858306885,-0.5091767311096191,-0.7199639678001404,1.4099295139312744,0.2939853072166443,0.012478449381887913,0.736160397529602,2.460209608078003
408,716867,716868,0.0416940338909626,0.0151459826156497,0.9251946806907654,6.824371814727783,12.360404014587402,-0.9432951807975769,-0.7274636030197144,1.405429720878601,0.28948551416397095,-0.13830380141735077,0.7969940900802612,2.4471704959869385
409,716877,716878,0.0484110452234745,-0.04598084092140198,0.8992111086845398,-0.8476405739784241,19.762603759765625,-1.3159273862838745,-0.7349632382392883,1.4159291982650757,0.2939853072166443,-0.4071505665779114,0.7385258078575134,2.421499729156494
410,716887,716888,0.005648025311529636,-0.019534612074494362,0.9264575242996216,-7.6359453201293945,20.19969367980957,-0.8408234119415283,-0.7319633960723877,1.4039298295974731,0.29098543524742126,-0.672842800617218,0.6933533549308777,2.4082391262054443
411,716897,716898,-0.025694221258163452,-0.06563971936702728,0.9725512862205505,-8.880528450012207,13.9415283203125,-1.247379183769226,-0.7244637608528137,1.4114294052124023,0.28948551416397095,-0.8222271800041199,0.6470951437950134,2.406306266784668
412,716907,716908,-0.013174202293157578,-0.016613153740763664,0.9128220677375793,-9.86128044128418,8.131028175354004,-1.1672507524490356,-0.7259637117385864,1.406929612159729,0.28198590874671936,-0.9424403309822083,0.6595697402954102,2.4176290035247803
413,716917,716918,-0.0012863416923210025,0.008281923830509186,0.9232085347175598,-9.77598762512207,3.220325231552124,-1.4049030542373657,-0.7469626665115356,1.4279285669326782,0.2969851493835449,-0.9029415845870972,0.6531392931938171,2.430891275405884
414,716927,716928,-0.04980616271495819,0.083595871925354,0.919194221496582,-8.685286521911621,-0.8602345585823059,-1.1205353736877441,-0.7319633960723877,1.4519274234771729,0.2939853072166443,-0.9290521144866943,0.37296587228775024,2.3746752738952637
415,716937,716938,0.04184531420469284,0.07170162349939346,0.9685156345367432,-7.984105587005615,-2.465686559677124,-0.19713595509529114,-0.737963080406189,1.445927619934082,0.2939853072166443,-0.9898418188095093,0.3371374309062958,2.374438524246216
416,716947,716948,0.1449439376592636,0.02776535600423813,0.9734577536582947,-6.341697692871094,-4.114116191864014,0.25979486107826233,-0.7454627156257629,1.4474276304244995,0.2834858298301697,-0.9554532170295715,0.30635350942611694,2.384565830230713
417,716957,716958,0.0850645899772644,0.012805599719285965,1.0278773307800293,-1.8810887336730957,-5.945446014404297,0.2053317278623581,-0.7289635539054871,1.445927619934082,0.2939853072166443,-0.8848604559898376,0.24623903632164001,2.3852298259735107
418,716967,716968,0.001960592810064554,-0.002685733139514923,1.0180416107177734,1.6175203323364258,-8.306150436401367,0.712582528591156,-0.737963080406189,1.4519274234771729,0.28798559308052063,-0.7757369875907898,0.24112829566001892,2.392878770828247
419,716977,716978,-0.057355672121047974,-0.003341889241710305,1.0360112190246582,4.840654373168945,-8.64010238647461,1.3375171422958374,-0.737963080406189,1.4519274234771729,0.28798559308052063,-0.6996288299560547,0.2251768410205841,2.3899433612823486
420,716987,716988,-0.08708233386278152,0.03270409256219864,0.9996337890625,5.0182271003723145,-5.2770867347717285,1.7095015048980713,-0.737963080406189,1.4519274234771729,0.28798559308052063,-0.7036353349685669,0.26029452681541443,2.3960282802581787
421,716997,716998,-0.004619876388460398,0.015047433786094189,0.9815642833709717,4.5613861083984375,-0.26070377230644226,1.6065809726715088,-0.737963080406189,1.4519274234771729,0.28798559308052063,-0.65711909532547,0.349210649728775,2.425046920776367
422,717007,717008,0.021907513961195946,0.13213464617729187,1.039959192276001,3.531121015548706,1.168501853942871,1.3566901683807373,-0.7334632873535156,1.459426999092102,0.29848507046699524,-0.5354657173156738,0.3010212182998657,2.421199321746826
423,717017,717018,0.04040684178471565,0.07871972024440765,1.0239481925964355,1.3963360786437988,1.2469080686569214,1.3931374549865723,-0.7394630312919617,1.459426999092102,0.3014849126338959,-0.5680927634239197,0.2862418591976166,2.421799421310425
424,717027,717028,0.022656165063381195,0.007185166236013174,1.0016359090805054,-1.89802086353302,0.8507658243179321,1.7222503423690796,-0.7409629225730896,1.4429278373718262,0.3029848337173462,-0.6645484566688538,0.30630895495414734,2.435868740081787
425,717037,717038,-0.020666291937232018,0.04300149902701378,1.0432255268096924,-0.47933268547058105,-1.1911170482635498,1.8543341159820557,-0.7274636030197144,1.4474276304244995,0.29848507046699524,-0.7302323579788208,0.3000674545764923,2.452333688735962
426,717047,717048,0.016957571730017662,0.03622465580701828,0.9650508761405945,4.203290939331055,-2.550046443939209,2.019056558609009,-0.7289635539054871,1.4429278373718262,0.28198590874671936,-0.6920522451400757,0.2846403121948242,2.465808391571045
427,717057,717058,0.062361620366573334,0.008404242806136608,1.0026899576187134,7.965546131134033,-4.632411003112793,1.381098985671997,-0.7349632382392883,1.4339282512664795,0.28798559308052063,-0.635364830493927,0.40123751759529114,2.502866506576538
428,717067,717068,-0.007702838629484177,0.05140906572341919,1.0535956621170044,10.182760238647461,-6.857586860656738,1.3308074474334717,-0.736463189125061,1.4324283599853516,0.2924853563308716,-0.5918132662773132,0.3567778766155243,2.4790425300598145
429,717077,717078,-0.007510703522711992,-0.017670763656497,0.9535244703292847,10.981053352355957,-9.302149772644043,1.4981414079666138,-0.730463445186615,1.444427728652954,0.28948551416397095,-0.4526795744895935,0.5687430500984192,2.5230798721313477
430,717087,717088,-0.06767801195383072,-0.02172193117439747,0.977787435054779,9.58721923828125,-9.358302116394043,1.295272707939148,-0.7409629225730896,1.4399279356002808,0.29998499155044556,-0.43028831481933594,0.6170807480812073,2.518638849258423
431,717097,717098,-0.0731951966881752,0.006760627031326294,1.0013498067855835,8.858656883239746,-7.45640754699707,1.1292942762374878,-0.7349632382392883,1.4429278373718262,0.2939853072166443,-0.3484771251678467,0.7966728806495667,2.551093816757202
432,717107,717108,0.0016899904003366828,-0.017327044159173965,0.9870747327804565,2.7517590522766113,-6.187477111816406,0.831503689289093,-0.7484625577926636,1.4384280443191528,0.3044847846031189,-0.29597774147987366,0.9012183547019958,2.569394111633301
433,717117,717118,-0.019961416721343994,0.060454655438661575,1.0663295984268188,-1.915010929107666,-6.384890556335449,0.7763463258743286,-0.722963809967041,1.4489275217056274,0.29998499155044556,-0.17792530357837677,0.9272188544273376,2.583526134490967
434,717127,717128,-0.0027458895929157734,0.0026023113168776035,0.9973410964012146,-5.189026355743408,-6.865238189697266,0.4564187228679657,-0.7349632382392883,1.4309284687042236,0.29998499155044556,-0.19285868108272552,0.6770169138908386,2.5291483402252197
435,717137,717138,-0.016700472682714462,-0.0023833864834159613,1.0112334489822388,-8.283940315246582,-6.194766998291016,0.6191859841346741,-0.737963080406189,1.436928153038025,0.28198590874671936,-0.072329081594944,0.581259548664093,2.5309572219848633
436,717147,717148,-0.035747725516557693,-0.0068332660011947155,0.99897700548172,-5.789209365844727,-7.781284809112549,0.2689630389213562,-0.7274636030197144,1.4384280443191528,0.3044847846031189,0.05305827781558037,0.5653132796287537,2.5528385639190674
437,717157,717158,-0.0008264849311672151,-0.004065468907356262,0.9958928227424622,-0.20245037972927094,-7.914451599121094,-0.2847282588481903,-0.7484625577926636,1.4294284582138062,0.29848507046699524,0.12669917941093445,0.5316840410232544,2.5546164512634277
438,717167,717168,-0.038170527666807175,0.05271364003419876,1.0560050010681152,2.671807289123535,-6.960993766784668,-0.025921527296304703,-0.7289635539054871,1.4309284687042236,0.27298635244369507,0.19952699542045593,0.5637937188148499,2.5568289756774902
439,717177,717178,0.0013628964079543948,0.015973301604390144,1.0026700496673584,5.080574035644531,-3.10760760307312,-0.2289895862340927,-0.730463445186615,1.4474276304244995,0.28948551416397095,0.14836393296718597,0.642376184463501,2.5532450675964355
440,717187,717188,0.005585100967437029,0.028113316744565964,0.9988906979560852,3.053079843521118,1.068740725517273,-0.5814173817634583,-0.737963080406189,1.4339282512664795,0.2939853072166443,0.18171578645706177,0.7267508506774902,2.5561933517456055
441,717197,717198,-0.03624652326107025,0.049985628575086594,1.0526567697525024,0.30685001611709595,1.0661839246749878,-0.6560654044151306,-0.7394630312919617,1.4534273147583008,0.2864856719970703,0.18076010048389435,0.7825424671173096,2.5558035373687744
442,717207,717208,-0.019646290689706802,0.04132838919758797,1.0577536821365356,-4.054144859313965,2.812689781188965,-1.0171829462051392,-0.7424628734588623,1.4504274129867554,0.29848507046699524,0.2299056500196457,0.7003781199455261,2.5440969467163086
443,717217,717218,-0.01632707379758358,0.07764504104852676,1.0962694883346558,-5.09982967376709,0.5969168543815613,-1.0768356323242188,-0.7424628734588623,1.4384280443191528,0.3044847846031189,0.14034856855869293,0.7027706503868103,2.5335752964019775
444,717227,717228,0.01152930036187172,-0.02312401309609413,0.9693209528923035,-5.448110580444336,-0.13382521271705627,-1.5867164134979248,-0.7334632873535156,1.459426999092102,0.2864856719970703,0.14943940937519073,0.685114860534668,2.527010440826416
445,717237,717238,-0.012658380903303623,0.00896320678293705,1.0229436159133911,-7.107329845428467,-0.21441830694675446,-1.9413508176803589,-0.7424628734588623,1.4534273147583008,0.2954852283000946,0.0987863838672638,0.656194269657135,2.5089595317840576
446,717247,717248,-0.005268648732453585,0.027743922546505928,1.0341929197311401,-6.782534599304199,-0.7864893078804016,-2.4933712482452393,-0.7334632873535156,1.4504274129867554,0.2954852283000946,0.05028386041522026,0.5396590828895569,2.477261781692505
447,717257,717258,0.0022713702637702227,0.02571777068078518,1.0351742506027222,-5.69166898727417,-4.032754898071289,-2.7706496715545654,-0.7334632873535156,1.435428261756897,0.2954852283000946,-0.10429949313402176,0.45070868730545044,2.430063247680664
448,717267,717268,0.01819862797856331,0.07984545826911926,1.0427379608154297,-5.408257007598877,-5.302729606628418,-3.4228336811065674,-0.7259637117385864,1.4339282512664795,0.29998499155044556,0.05963016301393509,0.3454424738883972,2.407755136489868
449,717277,717278,0.05297167971730232,0.05784017592668533,1.0164364576339722,-1.9094171524047852,-9.158183097839355,-3.3299849033355713,-0.7244637608528137,1.435428261756897,0.30748462677001953,0.1345609575510025,0.2775636613368988,2.3728697299957275
450,717287,717288,0.018353596329689026,0.0599462129175663,1.013458251953125,2.416469097137451,-10.191472053527832,-3.2820534706115723,-0.7064646482467651,1.4144293069839478,0.2834858298301697,0.2567158341407776,0.29217565059661865,2.343825101852417
451,717297,717298,-0.02417287416756153,0.05549340695142746,1.0306341648101807,7.435580730438232,-8.113574981689453,-3.2459425926208496,-0.7199639678001404,1.406929612159729,0.2939853072166443,0.2941843569278717,0.30374354124069214,2.3016836643218994
452,717307,717308,0.023672329261898994,-0.0067267888225615025,0.967134952545166,7.445505142211914,-3.8206405639648438,-3.408291816711426,-0.7199639678001404,1.421928882598877,0.29998499155044556,0.21337488293647766,0.4271624684333801,2.2602436542510986
453,717317,717318,0.019767146557569504,-0.005536134820431471,0.950340211391449,8.113460540771484,-1.719244360923767,-3.223935127258301,-0.7199639678001404,1.4099295139312744,0.29098543524742126,0.3069095313549042,0.5613152384757996,2.2347159385681152
454,717327,717328,0.02720782905817032,-0.00760621577501297,0.9374228119850159,7.361093997955322,-1.8468574285507202,-3.135387420654297,-0.7124643921852112,1.3964301347732544,0.2954852283000946,0.3718235492706299,0.694890558719635,2.209929943084717
455,717337,717338,0.0017721654148772359,0.024187808856368065,0.9739516973495483,4.716579914093018,-3.1115243434906006,-3.0406582355499268,-0.7169641256332397,1.4009299278259277,0.2939853072166443,0.4421980679035187,0.6683714985847473,2.1775026321411133
456,717347,717348,-0.036107707768678665,0.007435888983309269,0.9822285771369934,2.2821500301361084,-4.393499374389648,-2.7362353801727295,-0.7259637117385864,1.4099295139312744,0.28798559308052063,0.5218217968940735,0.7259080410003662,2.152194023132324
457,717357,717358,-0.01606835424900055,0.005718115717172623,0.9575487971305847,-2.914191246032715,-5.389094829559326,-2.670933485031128,-0.7139642834663391,1.4339282512664795,0.2969851493835449,0.48438775539398193,0.7315767407417297,2.1163129806518555
458,717367,717368,-0.013721113093197346,0.09789600968360901,1.002029299736023,-4.9317240715026855,-5.855278968811035,-2.609811544418335,-0.7184640765190125,1.4324283599853516,0.29848507046699524,0.5874065160751343,0.5215734839439392,2.0876283645629883
459,717377,717378,-0.02677490934729576,0.05920414626598358,0.9799206852912903,-7.646790981292725,-6.492770671844482,-2.626129627227783,-0.7184640765190125,1.4474276304244995,0.2954852283000946,0.5635805130004883,0.49703267216682434,2.053964853286743
460,717387,717388,-0.05071956291794777,0.0014894268242642283,1.003832459449768,-4.922897815704346,-8.449440956115723,-2.5122933387756348,-0.7349632382392883,1.4489275217056274,0.29998499155044556,0.7126715779304504,0.388888418674469,2.0320615768432617
461,717397,717398,-0.0805554911494255,-0.03876049071550369,0.9445298314094543,-1.6669437885284424,-9.549659729003906,-2.1257638931274414,-0.737963080406189,1.4489275217056274,0.3119843900203705,0.8932342529296875,0.33333417773246765,2.0155231952667236
462,717407,717408,-0.05620291084051132,0.026968611404299736,1.0143789052963257,2.659839391708374,-7.069304466247559,-2.1341779232025146,-0.722963809967041,1.4489275217056274,0.3029848337173462,0.6261821985244751,0.48583197593688965,1.9651563167572021
463,717417,717418,-0.037380993366241455,0.13742181658744812,1.0288714170455933,3.0732462406158447,-2.660674571990967,-2.152942657470703,-0.7319633960723877,1.4639267921447754,0.30898454785346985,0.7507322430610657,0.5299151539802551,1.9472225904464722
464,717427,717428,-0.0037287697196006775,0.055999014526605606,0.9920781850814819,3.46209979057312,-1.9362516403198242,-2.4616472721099854,-0.7334632873535156,1.4564270973205566,0.3044847846031189,0.8168291449546814,0.5797727108001709,1.9261159896850586
465,717437,717438,-0.032086245715618134,0.0261473897844553,1.0338939428329468,0.9435301423072815,-1.878115177154541,-2.748983860015869,-0.7334632873535156,1.4534273147583008,0.29848507046699524,0.8122690916061401,0.4717975854873657,1.9040049314498901
466,717447,717448,-0.014384107664227486,0.010072104632854462,1.0160566568374634,-0.6571069359779358,-3.143862724304199,-2.839970827102661,-0.737963080406189,1.445927619934082,0.29998499155044556,0.8133020997047424,0.5494547486305237,1.8715096712112427
467,717457,717458,0.027505595237016678,0.029709147289395332,1.0371768474578857,-1.8022526502609253,-2.989201068878174,-3.1072041988372803,-0.7259637117385864,1.46092689037323,0.29998499155044556,0.7464699149131775,0.5260770320892334,1.835595726966858
468,717467,717468,-0.000935991236474365,0.057984352111816406,1.075081467628479,-3.9742228984832764,-4.260698318481445,-3.2904393672943115,-0.7484625577926636,1.4564270973205566,0.3014849126338959,0.8415696620941162,0.479552298784256,1.8080143928527832
469,717477,717478,-0.00660310173407197,0.035491470247507095,1.0774840116500854,-5.182791709899902,-5.2218451499938965,-4.190877437591553,-0.7244637608528137,1.4384280443191528,0.2924853563308716,0.8706320524215698,0.4676860272884369,1.7679967880249023
470,717487,717488,-0.007925494574010372,-0.028049437329173088,1.0338420867919922,-4.709799766540527,-6.616573810577393,-4.027012825012207,-0.7349632382392883,1.436928153038025,0.29098543524742126,1.008878231048584,0.38254591822624207,1.7326889038085938
471,717497,717498,-0.06186482310295105,0.06113076210021973,1.0723503828048706,-3.318708896636963,-6.148780822753906,-3.5635154247283936,-0.7199639678001404,1.445927619934082,0.2969851493835449,1.0717166662216187,0.32043662667274475,1.6957982778549194
472,717507,717508,-0.068453848361969,0.07096534967422485,1.0277066230773926,-3.7526862621307373,-2.3962669372558594,-3.9647634029388428,-0.7169641256332397,1.4489275217056274,0.28798559308052063,1.1662120819091797,0.2647206485271454,1.662305474281311
473,717517,717518,-0.051718007773160934,-0.01432213094085455,1.0260865688323975,-3.5945863723754883,1.6332361698150635,-4.261895179748535,-0.7199639678001404,1.4519274234771729,0.2939853072166443,1.1882860660552979,0.2188907414674759,1.622671127319336
474,717527,717528,0.017190514132380486,0.02452097460627556,1.047852873802185,0.014925896190106869,3.7388880252838135,-3.923461675643921,-0.722963809967041,1.4549272060394287,0.3059847056865692,1.1711267232894897,0.19395141303539276,1.5817683935165405
475,717537,717538,-0.021974261850118637,0.03665412962436676,1.0538609027862549,1.8100998401641846,4.646883010864258,-4.159003257751465,-0.722963809967041,1.4429278373718262,0.2969851493835449,1.1125133037567139,0.20446477830410004,1.540667176246643
476,717547,717548,-0.06071193888783455,0.050106171518564224,1.0181528329849243,5.282553672790527,4.698518753051758,-4.502295017242432,-0.7184640765190125,1.4414279460906982,0.3044847846031189,1.0468753576278687,0.268075168132782,1.493751883506775
