,timestamp_start,timestamp_end,acc.x,acc.y,acc.z,gyro.x,gyro.y,gyro.z,mag.x,mag.y,mag.z,stabilizer.pitch,stabilizer.roll,stabilizer.yaw
0,588653,588654,-0.012369520030915737,0.036961402744054794,1.0474209785461426,-36.70193099975586,-37.425472259521484,5.97104024887085,-0.7574620842933655,1.4714263677597046,0.28948551416397095,-1.1721618175506592,-1.9686729907989502,1.5938917398452759
1,588663,588664,-0.038819439709186554,0.01697542704641819,1.039807677268982,-13.423721313476562,-54.720027923583984,5.7156267166137695,-0.7484625577926636,1.4864256381988525,0.277486115694046,-0.680168867111206,-2.4387221336364746,1.6219959259033203
2,588673,588674,-0.03545345738530159,0.040361255407333374,1.07602059841156,10.151214599609375,-61.587623596191406,5.711056232452393,-0.7574620842933655,1.4774260520935059,0.2864856719970703,-0.47196048498153687,-2.5406606197357178,1.7823781967163086
3,588683,588684,-0.10362355411052704,0.07573223114013672,1.1096611022949219,26.29380989074707,-48.3005256652832,3.291490316390991,-0.7529623508453369,1.472926378250122,0.28798559308052063,0.2833194136619568,-2.4003567695617676,1.8332865238189697
4,588693,588694,-0.14782510697841644,0.002319746883586049,1.0612784624099731,45.031211853027344,-16.508827209472656,4.482176780700684,-0.7559621930122375,1.472926378250122,0.29098543524742126,0.5018959641456604,-2.2552649974823,1.9515317678451538
5,588703,588704,-0.09825613349676132,-0.05764087289571762,0.9520925879478455,51.07784652709961,13.431004524230957,4.962255954742432,-0.736463189125061,1.4714263677597046,0.2834858298301697,0.8034005761146545,-1.5510450601577759,2.007192373275757
6,588713,588714,-0.05820823833346367,0.12780100107192993,0.9838446974754333,56.544105529785156,29.1016788482666,5.362174987792969,-0.7679615616798401,1.475926160812378,0.27298635244369507,0.6962279081344604,-1.154810905456543,2.054640054702759
7,588723,588724,-0.16258426010608673,0.01177176833152771,1.1208899021148682,50.75885772705078,25.934734344482422,5.031214714050293,-0.7529623508453369,1.4789260625839233,0.27898603677749634,0.31010597944259644,-0.25997334718704224,2.158207654953003
8,588733,588734,-0.067292720079422,-0.08009141683578491,0.9498692154884338,35.63398361206055,16.705734252929688,5.166654109954834,-0.7454627156257629,1.4624269008636475,0.27148643136024475,-0.0296750757843256,-0.15535606443881989,2.215651273727417
9,588743,588744,-0.12236930429935455,0.01641080714762211,1.056428074836731,12.501290321350098,3.1714863777160645,5.403241157531738,-0.7409629225730896,1.445927619934082,0.28198590874671936,-0.07414302974939346,0.022678375244140625,2.2270419597625732
10,588753,588754,-0.0624333955347538,-0.006404373794794083,0.9729331135749817,-7.28505802154541,-13.24381160736084,4.77681303024292,-0.7574620842933655,1.4294284582138062,0.2744862735271454,-0.06305427849292755,0.1339930295944214,2.2650442123413086
11,588763,588764,-0.0884910300374031,0.022031284868717194,1.0417087078094482,-23.35824966430664,-25.217849731445312,3.0892343521118164,-0.7424628734588623,1.444427728652954,0.277486115694046,-0.0031995538156479597,0.12555822730064392,2.3272390365600586
12,588773,588774,-0.04356611520051956,-0.0033451751805841923,0.99966961145401,-32.716365814208984,-30.06711769104004,2.1423182487487793,-0.7319633960723877,1.4489275217056274,0.26998651027679443,0.3125711679458618,-0.20520752668380737,2.3428125381469727
13,588783,588784,-0.06010696664452553,-0.025099288672208786,0.9691895842552185,-30.9910945892334,-28.05974769592285,2.2868123054504395,-0.7394630312919617,1.4474276304244995,0.2744862735271454,0.5108709931373596,-0.5602198839187622,2.387202739715576
14,588793,588794,-0.07161424309015274,0.041908685117959976,0.9269801378250122,-15.862152099609375,-15.098862648010254,4.016547679901123,-0.7274636030197144,1.4624269008636475,0.277486115694046,0.8355381488800049,-1.0207072496414185,2.41495943069458
15,588803,588804,-0.0496177077293396,0.010125603526830673,0.9879010915756226,10.90434455871582,4.1641459465026855,7.388359069824219,-0.7394630312919617,1.4564270973205566,0.277486115694046,0.8903651237487793,-1.0296343564987183,2.4699618816375732
16,588813,588814,-0.06389763206243515,-0.0017585151363164186,1.006611943244934,35.04869079589844,21.454225540161133,9.584874153137207,-0.7319633960723877,1.4489275217056274,0.28198590874671936,0.9182652831077576,-0.7979266047477722,2.515650749206543
17,588823,588824,-0.04420909285545349,0.0025342912413179874,0.9547396898269653,47.30440139770508,24.538785934448242,9.863670349121094,-0.7409629225730896,1.4519274234771729,0.27898603677749634,0.6665599942207336,-0.3209155201911926,2.6019375324249268
18,588833,588834,-0.08552400022745132,0.01895957626402378,0.9664998054504395,40.16357421875,8.040103912353516,7.5248613357543945,-0.7559621930122375,1.4399279356002808,0.29098543524742126,0.3536738455295563,0.16180448234081268,2.7085962295532227
19,588843,588844,-0.01113358698785305,-0.057388365268707275,0.8948057293891907,25.200401306152344,-13.96111011505127,5.091753005981445,-0.736463189125061,1.4294284582138062,0.2744862735271454,0.34099751710891724,0.4910663366317749,2.782775402069092
20,588853,588854,-0.05964532122015953,-0.019251510500907898,0.9344785213470459,6.918395042419434,-22.51020622253418,1.9788511991500854,-0.7469626665115356,1.4519274234771729,0.28498575091362,0.5909107327461243,0.9198871850967407,2.793037176132202
21,588863,588864,-0.06295667588710785,-0.05190630629658699,0.9864408373832703,-10.69599437713623,-26.516162872314453,1.3851882219314575,-0.737963080406189,1.4399279356002808,0.2759861946105957,0.7206950783729553,0.5850963592529297,2.881389617919922
22,588873,588874,-0.06515929847955704,-0.002937732497230172,0.9661675691604614,-26.401233673095703,-25.516958236694336,1.335984468460083,-0.7394630312919617,1.4384280443191528,0.2744862735271454,0.9968568682670593,0.4762226939201355,2.8974506855010986
23,588883,588884,-0.08280468732118607,0.036388687789440155,1.0162044763565063,-39.90838623046875,-24.328102111816406,1.3765758275985718,-0.7334632873535156,1.4534273147583008,0.277486115694046,1.4639232158660889,0.18270918726921082,2.901303291320801
24,588893,588894,-0.05642625316977501,0.01134073082357645,1.0383765697479248,-42.67849349975586,-22.95418930053711,-1.0288764238357544,-0.7244637608528137,1.4474276304244995,0.2864856719970703,1.617974042892456,-0.05587724596261978,2.897614002227783
25,588903,588904,-0.032734595239162445,0.015304934233427048,1.033820629119873,-28.52423095703125,-20.2279052734375,-4.096635818481445,-0.7259637117385864,1.445927619934082,0.28498575091362,1.6890537738800049,-0.5097598433494568,2.906071662902832
26,588913,588914,-0.01597564108669758,0.08111859858036041,1.0316252708435059,6.5955376625061035,-12.317676544189453,-7.14229154586792,-0.730463445186615,1.4414279460906982,0.2744862735271454,1.806287407875061,-0.6856972575187683,2.8488268852233887
27,588923,588924,-0.07721587270498276,0.009371520951390266,1.035051703453064,38.93598175048828,0.8545225858688354,-7.187215328216553,-0.730463445186615,1.444427728652954,0.277486115694046,2.065049886703491,-0.5954079031944275,2.762990951538086
28,588933,588934,-0.08023638278245926,0.018552403897047043,1.0551276206970215,54.179203033447266,12.614867210388184,-4.861613750457764,-0.7394630312919617,1.435428261756897,0.2834858298301697,2.1118974685668945,-0.18873940408229828,2.6732847690582275
29,588943,588944,-0.097920723259449,0.01506766863167286,1.0423773527145386,42.98989486694336,23.064159393310547,-1.637479543685913,-0.7319633960723877,1.436928153038025,0.27898603677749634,1.9604458808898926,0.5428332090377808,2.5710337162017822
30,588953,588954,-0.0935511365532875,-0.003558418247848749,1.0070420503616333,16.153141021728516,29.398103713989258,-1.4513665437698364,-0.7349632382392883,1.4249287843704224,0.28498575091362,1.7061399221420288,0.9684913158416748,2.5631473064422607
31,588963,588964,-0.07384392619132996,-0.004901794251054525,0.9835874438285828,-18.155075073242188,20.86395835876465,-3.2183971405029297,-0.7319633960723877,1.4309284687042236,0.27298635244369507,1.485189437866211,1.0425549745559692,2.58945631980896
32,588973,588974,-0.06619435548782349,0.004843673203140497,1.001199722290039,-46.05670166015625,5.389435291290283,-7.72011137008667,-0.737963080406189,1.436928153038025,0.28198590874671936,1.2345566749572754,0.7934126257896423,2.599940776824951
33,588983,588984,-0.08345616608858109,-0.0208720825612545,0.9781903624534607,-54.98112869262695,-16.3143253326416,-15.850062370300293,-0.7214639186859131,1.435428261756897,0.2654867172241211,1.232211709022522,0.30161455273628235,2.5531742572784424
34,588993,588994,-0.10355333983898163,-0.003994754049926996,1.008750081062317,-34.13420486450195,-39.5394401550293,-22.09784507751465,-0.7244637608528137,1.444427728652954,0.277486115694046,1.5724217891693115,-0.3450964093208313,2.444467544555664
35,589003,589004,-0.08911465853452682,0.00844309851527214,1.0271252393722534,-2.109403133392334,-45.025299072265625,-23.09255027770996,-0.7274636030197144,1.435428261756897,0.2744862735271454,1.716844081878662,-0.5398452877998352,2.173898220062256
36,589013,589014,-0.07284058630466461,-0.11718255281448364,0.9959636330604553,29.21624183654785,-29.531341552734375,-20.188871383666992,-0.730463445186615,1.435428261756897,0.277486115694046,2.4486875534057617,-0.4649108946323395,1.9051083326339722
37,589023,589024,-0.08838986605405807,-0.0035058078356087208,1.0298963785171509,53.15401077270508,1.6443074941635132,-15.627517700195312,-0.7184640765190125,1.4474276304244995,0.2834858298301697,2.788151979446411,-0.09328236430883408,1.6584078073501587
38,589033,589034,-0.10321841388940811,-0.04646284505724907,0.9585840106010437,55.11161422729492,40.947025299072266,-10.852161407470703,-0.730463445186615,1.4384280443191528,0.28948551416397095,2.7886109352111816,0.39203503727912903,1.5013283491134644
39,589043,589044,-0.13472160696983337,-0.07137805968523026,0.9296416640281677,42.0022087097168,77.44031524658203,-8.504324913024902,-0.7424628734588623,1.4384280443191528,0.2864856719970703,2.1711857318878174,1.139739990234375,1.3235052824020386
40,589053,589054,-0.06408823281526566,-0.024668661877512932,0.9709585905075073,23.798486709594727,96.38199615478516,-6.824427127838135,-0.7529623508453369,1.445927619934082,0.27298635244369507,1.5283129215240479,1.746201515197754,1.1971309185028076
41,589063,589064,-0.07923046499490738,-0.046425964683294296,0.9380401372909546,4.754103183746338,94.21902465820312,-4.266083240509033,-0.7499625086784363,1.4489275217056274,0.2669866383075714,0.33286336064338684,2.116809844970703,1.1145251989364624
42,589073,589074,-0.08523131161928177,-0.0636773556470871,0.859911322593689,-27.1023006439209,76.58683776855469,-5.109102725982666,-0.7469626665115356,1.4399279356002808,0.26998651027679443,-0.2803184986114502,1.5521845817565918,1.3379261493682861
43,589083,589084,-0.0625232607126236,-0.040614236146211624,0.8497156500816345,-63.17966842651367,44.2768669128418,-8.348190307617188,-0.7454627156257629,1.4474276304244995,0.26248687505722046,-1.2598168849945068,1.1525872945785522,1.3512496948242188
44,589093,589094,-0.06156286597251892,0.09839645028114319,0.9384951591491699,-75.90746307373047,7.997066497802734,-11.949161529541016,-0.7454627156257629,1.4474276304244995,0.26248687505722046,-1.3435280323028564,0.6839406490325928,1.2961751222610474
45,589103,589104,-0.11823859810829163,-0.11486607044935226,0.844515860080719,-57.728450775146484,-34.169464111328125,-16.247745513916016,-0.7469626665115356,1.4429278373718262,0.26998651027679443,-1.5122630596160889,-0.1775858998298645,1.211058497428894
46,589113,589114,-0.1828625500202179,-0.07436776906251907,0.8240419030189514,-22.752286911010742,-73.05597686767578,-17.392000198364258,-0.7439627647399902,1.4429278373718262,0.26998651027679443,-1.2239317893981934,-0.6042484045028687,1.0193848609924316
47,589123,589124,-0.05281119793653488,0.053472355008125305,0.9253994822502136,15.57008171081543,-98.9590835571289,-15.908987998962402,-0.7514623999595642,1.4474276304244995,0.2654867172241211,-0.4331490099430084,-0.9940196871757507,0.8845162987709045
48,589133,589134,-0.07982900738716125,0.005625660996884108,0.9603989124298096,45.6777229309082,-102.02627563476562,-11.933018684387207,-0.7439627647399902,1.4519274234771729,0.27898603677749634,0.6678416728973389,-0.5553485155105591,0.6985149383544922
49,589143,589144,-0.06064668670296669,0.11653591692447662,0.9918174147605896,61.995609283447266,-76.00555419921875,-2.457239866256714,-0.7319633960723877,1.4339282512664795,0.28198590874671936,1.450924277305603,-0.16728217899799347,0.5591043829917908
50,589153,589154,-0.09194186329841614,0.02679711952805519,0.9760730266571045,65.79976654052734,-20.01346206665039,8.814797401428223,-0.7394630312919617,1.4384280443191528,0.29848507046699524,2.579104423522949,0.5739839673042297,0.5086299777030945
51,589163,589164,-0.061874568462371826,-0.02788519114255905,0.8245477676391602,50.52363967895508,40.82381057739258,15.30065631866455,-0.7349632382392883,1.421928882598877,0.26998651027679443,2.6332902908325195,1.1865739822387695,0.5563980340957642
52,589173,589174,-0.12403785437345505,-0.023007597774267197,0.9678348898887634,17.728900909423828,90.06428527832031,16.527149200439453,-0.7499625086784363,1.4309284687042236,0.28198590874671936,2.305419445037842,1.8076958656311035,0.6874736547470093
53,589183,589184,-0.11971168965101242,-0.09420622885227203,0.9549416899681091,-20.918880462646484,120.78983306884766,16.271514892578125,-0.7424628734588623,1.444427728652954,0.26848655939102173,1.352224349975586,1.9890451431274414,0.8758864998817444
54,589193,589194,-0.04386841133236885,-0.07095726579427719,0.8969874382019043,-50.419410705566406,127.96419525146484,18.689502716064453,-0.7694615125656128,1.4684265851974487,0.277486115694046,0.061073388904333115,1.6362441778182983,1.103819727897644
55,589203,589204,-0.023607727140188217,-0.08428951352834702,0.8268865942955017,-68.6719741821289,113.53236389160156,21.025907516479492,-0.7739613056182861,1.472926378250122,0.2939853072166443,-1.0432924032211304,1.2163286209106445,1.3308179378509521
56,589213,589214,-0.043195825070142746,-0.01371568813920021,0.875264048576355,-74.47528076171875,78.6230239868164,18.800769805908203,-0.7859606742858887,1.475926160812378,0.2969851493835449,-2.5283780097961426,0.4756048917770386,1.5310070514678955
57,589223,589224,0.05472881719470024,2.0530318579403684e-05,0.9479866027832031,-62.74528503417969,35.92486572265625,16.16339683532715,-0.7724613547325134,1.4834258556365967,0.28048595786094666,-2.722872018814087,-0.24232915043830872,1.8140857219696045
58,589233,589234,-0.02043875679373741,-0.013547413051128387,0.8711928129196167,-32.517303466796875,-9.49636459350586,12.395289421081543,-0.7724613547325134,1.459426999092102,0.2744862735271454,-3.1979928016662598,-0.7513366937637329,1.963724136352539
59,589243,589244,-0.04562494903802872,0.00764064583927393,0.9159839153289795,0.8212252259254456,-44.06650161743164,10.241964340209961,-0.7694615125656128,1.4504274129867554,0.26248687505722046,-3.2017359733581543,-1.2252367734909058,2.0956928730010986
60,589253,589254,0.009636062197387218,-0.047661665827035904,0.9090112447738647,30.07246971130371,-59.02456283569336,9.679965019226074,-0.7724613547325134,1.459426999092102,0.2594870328903198,-2.6757259368896484,-1.1541768312454224,2.2260372638702393
61,589263,589264,-0.06339109688997269,-0.07240217179059982,0.9616835117340088,56.35352325439453,-56.089691162109375,12.067862510681152,-0.7679615616798401,1.472926378250122,0.27898603677749634,-2.0791261196136475,-0.8300106525421143,2.338810682296753
62,589273,589274,-0.04064634069800377,-0.011097054928541183,0.976777970790863,74.97270965576172,-42.54951858520508,17.988182067871094,-0.7469626665115356,1.4639267921447754,0.28498575091362,-1.8956704139709473,-0.28091296553611755,2.4369008541107178
63,589283,589284,-0.06186138466000557,0.029661642387509346,1.0086365938186646,69.02497100830078,-26.537675857543945,25.821216583251953,-0.7649617195129395,1.4579271078109741,0.28198590874671936,-1.2735798358917236,0.5942578911781311,2.6274824142456055
64,589293,589294,-0.051236025989055634,0.004977419041097164,0.9687780737876892,33.61284255981445,-11.389710426330566,32.65195846557617,-0.7739613056182861,1.4549272060394287,0.28798559308052063,-1.1204462051391602,1.139131784439087,2.837078809738159
65,589303,589304,-0.03989221155643463,-0.008915857411921024,0.9300451874732971,-20.293922424316406,-4.327977657318115,37.338134765625,-0.7739613056182861,1.4549272060394287,0.28798559308052063,-0.9916058778762817,1.5993465185165405,3.1511178016662598
66,589313,589314,-0.09848711639642715,-0.029086843132972717,0.9482476711273193,-71.43488311767578,0.10631739348173141,40.12782669067383,-0.7739613056182861,1.4549272060394287,0.28798559308052063,-0.9127453565597534,1.363203525543213,3.486896514892578
67,589323,589324,-0.04398759454488754,0.009612951427698135,0.9688954949378967,-107.16515350341797,-4.7517313957214355,41.8006706237793,-0.7739613056182861,1.4549272060394287,0.28798559308052063,-0.8397369980812073,0.8422130942344666,3.8957138061523438
68,589333,589334,-0.04791206121444702,0.1182679831981659,1.0463643074035645,-118.98004913330078,-13.318397521972656,42.742149353027344,-0.7739613056182861,1.4549272060394287,0.28798559308052063,-0.7237322330474854,-0.594903290271759,4.250328063964844
69,589343,589344,-0.07285858690738678,0.07480829209089279,1.1068198680877686,-106.2341537475586,-12.845185279846191,41.96485137939453,-0.7439627647399902,1.4699264764785767,0.27298635244369507,-0.5654681921005249,-1.536441683769226,4.717451572418213
70,589353,589354,-0.08757667988538742,0.162805438041687,1.0742716789245605,-75.535888671875,-10.956181526184082,38.45071029663086,-0.730463445186615,1.4714263677597046,0.26848655939102173,-0.39352118968963623,-2.6277732849121094,5.15092658996582
71,589363,589364,-0.11458545923233032,-0.019663166254758835,1.1817989349365234,-33.08445358276367,-10.500528335571289,32.36488723754883,-0.7439627647399902,1.4639267921447754,0.2759861946105957,-0.2694798707962036,-3.5187244415283203,5.541263580322266
72,589373,589374,-0.12605516612529755,0.003490758128464222,1.097183108329773,13.01784896850586,-2.4143643379211426,21.77663803100586,-0.7319633960723877,1.4669265747070312,0.2759861946105957,-0.22108043730258942,-3.618335723876953,5.931666851043701
73,589383,589384,-0.050335511565208435,0.12650331854820251,0.9134629964828491,54.221763610839844,-0.5993708968162537,10.06902027130127,-0.7319633960723877,1.4519274234771729,0.2669866383075714,-0.2851392924785614,-3.5431504249572754,6.183116912841797
74,589393,589394,-0.07575633376836777,0.06313498318195343,1.1390355825424194,86.89016723632812,2.081089973449707,2.085555076599121,-0.7514623999595642,1.4534273147583008,0.28048595786094666,-0.38106417655944824,-2.7780141830444336,6.352472305297852
75,589403,589404,-0.058611832559108734,0.0866193175315857,1.0585689544677734,101.44386291503906,13.175943374633789,3.0818920135498047,-0.7394630312919617,1.459426999092102,0.2744862735271454,-0.41771939396858215,-2.1352546215057373,6.371856212615967
76,589413,589414,-0.07735834270715714,0.011888858862221241,0.9852132201194763,83.67536926269531,25.70393943786621,7.3902435302734375,-0.7559621930122375,1.4519274234771729,0.27298635244369507,-0.6314777135848999,-1.2368252277374268,6.394300937652588
77,589423,589424,-0.1457088440656662,0.041785888373851776,0.9995229244232178,34.54838943481445,28.852108001708984,7.276883602142334,-0.736463189125061,1.4564270973205566,0.28048595786094666,-1.0277560949325562,-0.3429325819015503,6.4832940101623535
78,589433,589434,-0.0728335976600647,0.02081247605383396,0.9024559855461121,-31.084232330322266,16.5487060546875,1.4197609424591064,-0.737963080406189,1.4189289808273315,0.26998651027679443,-1.2116990089416504,-0.026335371658205986,6.518386363983154
79,589443,589444,-0.0807580053806305,0.011486602015793324,0.9011887311935425,-86.42842102050781,-6.05927038192749,-5.435635089874268,-0.7424628734588623,1.4294284582138062,0.26248687505722046,-1.3774431943893433,-0.3918819725513458,6.506668567657471
80,589453,589454,-0.05575235188007355,0.11882340162992477,0.943407416343689,-109.8932876586914,-17.708303451538086,-13.216614723205566,-0.7484625577926636,1.4474276304244995,0.277486115694046,-1.3419126272201538,-1.2245196104049683,6.449070930480957
81,589463,589464,-0.05384521186351776,0.11584696173667908,0.9987431764602661,-98.11151885986328,-15.870380401611328,-22.57045555114746,-0.7454627156257629,1.4684265851974487,0.2744862735271454,-1.0551815032958984,-2.4863476753234863,6.285194396972656
82,589473,589474,-0.08046398311853409,-0.001600366784259677,1.027528166770935,-59.62888717651367,-15.307109832763672,-33.30854797363281,-0.7499625086784363,1.4549272060394287,0.2669866383075714,-1.013348937034607,-3.4414021968841553,6.110997200012207
83,589483,589484,-0.10341222584247589,0.15590496361255646,1.026748776435852,-0.7760289907455444,-13.984460830688477,-42.76649475097656,-0.7589620351791382,1.4669265747070312,0.28798559308052063,-0.812122106552124,-4.112649440765381,5.816336631774902
84,589493,589494,-0.08825284242630005,0.04967048764228821,1.0062106847763062,63.780242919921875,-11.938305854797363,-45.54941940307617,-0.7214639186859131,1.4564270973205566,0.28948551416397095,-0.6341638565063477,-4.023199558258057,5.45078706741333
85,589503,589504,-0.1377367526292801,0.1011357232928276,0.8857191801071167,101.59830474853516,-3.2570297718048096,-48.347740173339844,-0.730463445186615,1.4504274129867554,0.26848655939102173,-0.47896164655685425,-3.562161922454834,5.003240585327148
86,589513,589514,-0.05061701685190201,0.042710885405540466,0.9599612355232239,119.6599349975586,11.494949340820312,-52.907676696777344,-0.7499625086784363,1.4579271078109741,0.2639867961406708,-0.4006495475769043,-2.4197304248809814,4.557841777801514
87,589523,589524,-0.10158831626176834,-0.04390260577201843,0.8991012573242188,126.26148986816406,26.209243774414062,-53.93865203857422,-0.7559621930122375,1.4639267921447754,0.28798559308052063,-0.5484507083892822,-1.3925318717956543,4.039883136749268
88,589533,589534,-0.01599104329943657,-0.006168894935399294,0.9134929180145264,115.69068145751953,37.39320755004883,-52.35791778564453,-0.7544622421264648,1.444427728652954,0.28048595786094666,-0.942304790019989,0.17546960711479187,3.6029036045074463
89,589543,589544,-0.033606477081775665,-0.030782541260123253,0.8757002949714661,93.81085968017578,32.14468765258789,-50.20109558105469,-0.7694615125656128,1.444427728652954,0.26848655939102173,-1.1830487251281738,1.0209096670150757,2.9967081546783447
90,589553,589554,-0.02528013102710247,-0.09619159996509552,0.8148754239082336,63.054996490478516,20.68592071533203,-42.265132904052734,-0.7469626665115356,1.4429278373718262,0.28498575091362,-1.650719165802002,2.107494354248047,2.550586700439453
91,589563,589564,-0.02628813311457634,-0.0500088632106781,0.8662447929382324,26.697256088256836,12.919600486755371,-31.940521240234375,-0.7589620351791382,1.4249287843704224,0.26098695397377014,-2.0097577571868896,2.613447666168213,2.1293139457702637
92,589573,589574,-0.034658800810575485,-0.032289277762174606,0.8798884749412537,-12.645873069763184,7.331118106842041,-20.240535736083984,-0.7514623999595642,1.4144293069839478,0.2834858298301697,-1.9311366081237793,2.8183114528656006,1.7348912954330444
93,589583,589584,-0.01205341424793005,0.054677095264196396,0.8670645952224731,-45.10387420654297,6.082546710968018,-11.951525688171387,-0.7649617195129395,1.421928882598877,0.2579870820045471,-2.0531609058380127,2.699434518814087,1.510367512702942
94,589593,589594,-0.0453832633793354,0.008943982422351837,0.9143423438072205,-62.26474380493164,5.987699508666992,-6.435055732727051,-0.7529623508453369,1.4399279356002808,0.26098695397377014,-2.1448326110839844,2.130049705505371,1.349863886833191
95,589603,589604,-0.008060600608587265,0.022225860506296158,0.9487878680229187,-63.56013107299805,-2.2963104248046875,-3.488781213760376,-0.7559621930122375,1.4489275217056274,0.2759861946105957,-2.2262020111083984,1.468860387802124,1.2677485942840576
96,589613,589614,-0.018426625058054924,0.033966708928346634,0.9807692766189575,-48.601158142089844,-14.785651206970215,-1.3231792449951172,-0.7784610390663147,1.4564270973205566,0.28048595786094666,-2.103513479232788,0.9067497253417969,1.2432646751403809
97,589623,589624,-0.022319665178656578,0.022701654583215714,0.9545537829399109,-20.36722755432129,-24.746015548706055,0.6258827447891235,-0.7694615125656128,1.4474276304244995,0.28048595786094666,-1.9312011003494263,0.42331796884536743,1.2332642078399658
98,589633,589634,-0.0374818779528141,0.06223984435200691,0.9303238987922668,4.977231979370117,-25.196582794189453,3.2367563247680664,-0.7619618773460388,1.4399279356002808,0.28198590874671936,-1.8686987161636353,0.30991092324256897,1.2647360563278198
99,589643,589644,-0.05737816542387009,0.04708559438586235,0.9624631404876709,22.84795379638672,-16.415786743164062,5.302176475524902,-0.7484625577926636,1.4324283599853516,0.26848655939102173,-1.425320029258728,0.3987686336040497,1.3157131671905518
100,589653,589654,-0.030353782698512077,0.0032558823004364967,0.9193001985549927,30.456710815429688,-5.402245998382568,6.5651702880859375,-0.7634618282318115,1.4294284582138062,0.27148643136024475,-1.4046119451522827,0.5698308944702148,1.3492112159729004
101,589663,589664,-0.030334321781992912,0.022063301876187325,0.951427698135376,28.367918014526367,5.063441276550293,6.157951354980469,-0.7589620351791382,1.4339282512664795,0.27898603677749634,-1.1931122541427612,0.8701798319816589,1.4188883304595947
102,589673,589674,-0.05011864751577377,-0.006585037801414728,0.9030665755271912,19.180879592895508,12.391927719116211,5.160221576690674,-0.7574620842933655,1.4384280443191528,0.27148643136024475,-1.4354124069213867,1.226098895072937,1.487052321434021
103,589683,589684,-0.041256729513406754,-0.011987811885774136,0.8846113681793213,5.558907508850098,13.564754486083984,3.8206357955932617,-0.7604619860649109,1.4234287738800049,0.2654867172241211,-1.6489959955215454,1.300379753112793,1.5008710622787476
104,589693,589694,-0.024778934195637703,-0.009157984517514706,0.8903908729553223,-5.496987342834473,6.1312174797058105,3.148204803466797,-0.7619618773460388,1.4309284687042236,0.2669866383075714,-1.8145930767059326,1.4465819597244263,1.555094838142395
105,589703,589704,-0.0019056710880249739,-0.013218739069998264,0.8799977898597717,-16.587888717651367,-4.967026233673096,2.2128303050994873,-0.7679615616798401,1.436928153038025,0.26998651027679443,-1.8703733682632446,1.3946902751922607,1.5860670804977417
106,589713,589714,0.030349774286150932,-0.08624016493558884,0.8865076303482056,-22.700944900512695,-17.99897003173828,1.250661849975586,-0.7664616703987122,1.4534273147583008,0.2654867172241211,-1.7537734508514404,1.1622141599655151,1.5977518558502197
107,589723,589724,0.0043115136213600636,-0.032380297780036926,0.951706051826477,-21.06340789794922,-30.397687911987305,1.03081214427948,-0.7544622421264648,1.4564270973205566,0.26848655939102173,-1.5699889659881592,1.042357325553894,1.6347675323486328
108,589733,589734,-0.030757715925574303,0.007626923732459545,0.9448582530021667,-17.047473907470703,-35.98967361450195,1.1501209735870361,-0.7559621930122375,1.4579271078109741,0.2939853072166443,-1.3905836343765259,0.8579082489013672,1.6340538263320923
109,589743,589744,-0.049143292009830475,0.0369972363114357,0.971978485584259,-10.891542434692383,-31.78705406188965,1.7071092128753662,-0.7649617195129395,1.46092689037323,0.2759861946105957,-1.1003485918045044,0.5909435153007507,1.6115391254425049
110,589753,589754,-0.03318405523896217,0.003984253853559494,0.9293225407600403,-4.000033378601074,-23.417593002319336,2.5564043521881104,-0.7619618773460388,1.4489275217056274,0.2759861946105957,-0.6454631090164185,0.5683879256248474,1.666056752204895
111,589763,589764,-0.036819253116846085,-0.006566640455275774,0.9450334310531616,0.6804227232933044,-10.96541976928711,2.6857471466064453,-0.7514623999595642,1.459426999092102,0.28048595786094666,-0.547570526599884,0.4345420002937317,1.6487494707107544
112,589773,589774,-0.005563150625675917,0.0597316138446331,1.0280210971832275,3.688084602355957,-1.1770155429840088,2.4251859188079834,-0.7574620842933655,1.459426999092102,0.28048595786094666,-0.4826258420944214,0.45938771963119507,1.6690995693206787
113,589783,589784,-0.028242044150829315,0.01852181926369667,0.9947629570960999,2.1622304916381836,4.018368721008301,1.5125406980514526,-0.7619618773460388,1.475926160812378,0.28198590874671936,-0.5092575550079346,0.5347378253936768,1.6944618225097656
114,589793,589794,-0.030419496819376945,-0.011953888460993767,0.9609840512275696,-0.7491448521614075,2.571585178375244,0.11522059887647629,-0.7544622421264648,1.4774260520935059,0.2744862735271454,-0.6244493126869202,0.5140523910522461,1.6902108192443848
115,589803,589804,0.007676801178604364,-0.027927560731768608,1.040395736694336,-1.9300860166549683,-3.363943576812744,-1.2427036762237549,-0.7619618773460388,1.4819258451461792,0.2759861946105957,-0.7829713821411133,0.5218591094017029,1.677830696105957
116,589813,589814,0.015005183406174183,-0.07804228365421295,1.0568889379501343,1.361080527305603,-14.087688446044922,-2.9661524295806885,-0.7739613056182861,1.4819258451461792,0.27898603677749634,-0.7008653879165649,0.5099637508392334,1.677130937576294
117,589823,589824,0.0053403787314891815,-0.004271071869879961,1.0481635332107544,8.343794822692871,-26.938793182373047,-4.499536037445068,-0.7634618282318115,1.47442626953125,0.28048595786094666,-0.5333651304244995,0.47499826550483704,1.6492904424667358
118,589833,589834,-0.025154953822493553,0.03821992501616478,1.054850697517395,14.585604667663574,-34.685237884521484,-6.33705472946167,-0.7559621930122375,1.475926160812378,0.29098543524742126,-0.3688461184501648,0.5507659316062927,1.5947246551513672
119,589843,589844,-0.046074580401182175,-0.01900613121688366,1.0067692995071411,19.881397247314453,-39.7098503112793,-7.82136344909668,-0.7484625577926636,1.4654266834259033,0.2834858298301697,0.22391632199287415,0.7983747124671936,1.5791815519332886
120,589853,589854,-0.027298463508486748,0.049660224467515945,1.0884937047958374,19.46158218383789,-39.96072769165039,-7.872437477111816,-0.7439627647399902,1.472926378250122,0.28498575091362,0.24312883615493774,0.9108552932739258,1.4420615434646606
121,589863,589864,-0.047506459057331085,0.035590071231126785,1.092073678970337,16.832578659057617,-39.33538055419922,-7.0936479568481445,-0.7394630312919617,1.4714263677597046,0.2864856719970703,0.5766838192939758,1.100630521774292,1.3458139896392822
122,589873,589874,-0.03455625846982002,-0.04079257696866989,0.9809810519218445,14.918383598327637,-36.590877532958984,-4.782561779022217,-0.7409629225730896,1.4639267921447754,0.28798559308052063,1.186802625656128,1.2512412071228027,1.2927706241607666
123,589883,589884,-0.047953322529792786,0.010346958413720131,1.016867995262146,8.980740547180176,-24.918899536132812,-3.2248566150665283,-0.7469626665115356,1.46092689037323,0.28798559308052063,1.251386284828186,1.4416868686676025,1.192387580871582
124,589893,589894,-0.05054011940956116,-0.04336237907409668,0.9522521495819092,1.9775826930999756,-9.750800132751465,-2.727241039276123,-0.7334632873535156,1.4534273147583008,0.28948551416397095,1.5077100992202759,1.4672209024429321,1.14704167842865
125,589903,589904,-0.022568197920918465,-0.01499268040060997,0.9736952781677246,-4.4346747398376465,5.76175594329834,-1.9331876039505005,-0.737963080406189,1.4579271078109741,0.28798559308052063,1.661859154701233,1.5921236276626587,1.1185497045516968
126,589913,589914,0.024300068616867065,0.030321214348077774,1.037028431892395,-17.02243995666504,18.77174949645996,-0.4737968146800995,-0.7514623999595642,1.4564270973205566,0.2864856719970703,1.567291259765625,1.532568335533142,1.0891472101211548
127,589923,589924,0.049749910831451416,0.01145790982991457,1.0119799375534058,-29.397809982299805,22.852548599243164,0.7749865651130676,-0.7454627156257629,1.4624269008636475,0.28048595786094666,1.405643105506897,1.3538551330566406,1.0880595445632935
128,589933,589934,0.005546958185732365,-0.010061261244118214,0.9779617786407471,-35.34136962890625,19.11267852783203,1.055588722229004,-0.7469626665115356,1.4639267921447754,0.28498575091362,0.9396593570709229,1.0423401594161987,1.0603158473968506
129,589943,589944,0.010197378695011139,-0.038250621408224106,0.9859644174575806,-28.325881958007812,3.837538480758667,1.2645593881607056,-0.7589620351791382,1.475926160812378,0.29098543524742126,0.8272553086280823,0.6891133189201355,1.0909481048583984
130,589953,589954,0.0014812879962846637,0.05960219353437424,1.055395245552063,-19.48259735107422,-17.860776901245117,0.18460582196712494,-0.7514623999595642,1.47442626953125,0.28948551416397095,0.8606206774711609,0.28744715452194214,1.1373261213302612
131,589963,589964,-4.3365198507672176e-05,0.08530696481466293,0.9824848175048828,-11.433511734008789,-37.8258171081543,-0.31668248772621155,-0.7499625086784363,1.475926160812378,0.28498575091362,0.881489634513855,0.2544368803501129,1.0961918830871582
132,589973,589974,-0.02876857854425907,0.04199187830090523,1.0337800979614258,-9.299949645996094,-52.46277618408203,0.15759560465812683,-0.7394630312919617,1.4684265851974487,0.2924853563308716,1.2386243343353271,0.2682560980319977,1.0764427185058594
133,589983,589984,-0.08037242293357849,0.02143099531531334,1.047149658203125,-12.409405708312988,-55.86763000488281,0.9003848433494568,-0.7439627647399902,1.4819258451461792,0.29998499155044556,2.1254770755767822,0.09961280226707458,1.1507211923599243
134,589993,589994,-0.05586970970034599,0.041783131659030914,1.079567313194275,-17.421220779418945,-46.991920471191406,0.7706356644630432,-0.7424628734588623,1.4834258556365967,0.28048595786094666,2.2692317962646484,-0.03448561578989029,1.097240686416626
135,590003,590004,-0.09426309913396835,0.05354849994182587,1.010392189025879,-21.448331832885742,-27.74266815185547,-0.9698932766914368,-0.7394630312919617,1.4834258556365967,0.28948551416397095,2.8890347480773926,-0.3179510533809662,1.149574875831604
136,590013,590014,-0.06826338917016983,-0.056965574622154236,1.06357741355896,-23.147897720336914,-10.045370101928711,-3.3340446949005127,-0.7319633960723877,1.4849257469177246,0.3059847056865692,3.200833797454834,-0.363847941160202,1.1080241203308105
137,590023,590024,-0.036651693284511566,0.04994688928127289,1.025181770324707,-16.812606811523438,4.261753082275391,-9.426992416381836,-0.737963080406189,1.475926160812378,0.2939853072166443,3.1498196125030518,-0.7528873085975647,1.097748041152954
138,590033,590034,-0.058612652122974396,-0.09981044381856918,1.0429590940475464,2.9637887477874756,21.847301483154297,-16.921457290649414,-0.736463189125061,1.4954252243041992,0.2954852283000946,3.2224812507629395,-0.6647641062736511,0.9461685419082642
139,590043,590044,-0.01003194972872734,-0.0435500293970108,0.9886776208877563,21.988935470581055,25.234804153442383,-22.346927642822266,-0.7439627647399902,1.4939253330230713,0.2939853072166443,2.8593947887420654,-0.6604203581809998,0.7663735151290894
140,590053,590054,-0.0007297432166524231,0.05556133762001991,1.017327070236206,39.52632522583008,14.104944229125977,-26.17673110961914,-0.7529623508453369,1.5029247999191284,0.28498575091362,2.57438325881958,-0.3314700424671173,0.5046916604042053
141,590063,590064,0.012368482537567616,-0.030921518802642822,0.9781941771507263,51.959110260009766,-18.2739200592041,-27.22154426574707,-0.7559621930122375,1.4939253330230713,0.28798559308052063,2.4405465126037598,-0.2950752079486847,0.3778117001056671
142,590073,590074,-0.06458405405282974,-0.07718909531831741,1.0757529735565186,52.6285285949707,-52.23980712890625,-25.529516220092773,-0.7439627647399902,1.4909254312515259,0.29998499155044556,2.7891104221343994,0.48279252648353577,0.011133449152112007
143,590083,590084,-0.09313081949949265,-0.12473603338003159,1.1014329195022583,50.112518310546875,-75.4137954711914,-20.644357681274414,-0.7439627647399902,1.4849257469177246,0.2969851493835449,3.3134970664978027,0.8412637114524841,-0.17807790637016296
144,590093,590094,-0.05997464433312416,-0.09562618285417557,1.0093495845794678,38.971248626708984,-73.84474182128906,-17.1668643951416,-0.7274636030197144,1.4834258556365967,0.30748462677001953,3.9295010566711426,1.4550493955612183,-0.4546647369861603
145,590103,590104,-0.05383788049221039,-0.0020320008043199778,1.072022557258606,13.799090385437012,-46.80370330810547,-13.02804946899414,-0.7124643921852112,1.4654266834259033,0.30748462677001953,4.729140758514404,1.9069432020187378,-0.6573812365531921
146,590113,590114,-0.01990491896867752,-0.030235154554247856,1.0449192523956299,-7.807977676391602,-2.092146873474121,-9.815951347351074,-0.7094644904136658,1.4714263677597046,0.28948551416397095,5.519811153411865,2.0202839374542236,-0.7572110295295715
147,590123,590124,0.05938597396016121,0.036977946758270264,0.9542917013168335,-21.000627517700195,42.62788009643555,-5.915234088897705,-0.722963809967041,1.4849257469177246,0.3029848337173462,5.114363193511963,2.0041768550872803,-0.9003244042396545
148,590133,590134,-0.018150147050619125,0.010341908782720566,1.071510672569275,-25.38002586364746,69.48069763183594,-5.404506683349609,-0.7289635539054871,1.4849257469177246,0.2759861946105957,4.527690410614014,1.6891580820083618,-0.89622962474823
149,590143,590144,-0.002693711081519723,-0.09174203127622604,1.0649504661560059,-20.338455200195312,73.40550231933594,-5.5213518142700195,-0.7394630312919617,1.5014249086380005,0.2924853563308716,3.8767549991607666,1.419450044631958,-0.9166978597640991
150,590153,590154,-0.06169162690639496,-0.13465498387813568,1.0416370630264282,-1.7583543062210083,58.71330642700195,-6.722415924072266,-0.7409629225730896,1.5089244842529297,0.3059847056865692,3.0541014671325684,1.2364542484283447,-0.9787951707839966
151,590163,590164,0.00014803750673308969,-0.05957019329071045,1.0296584367752075,15.907357215881348,27.791189193725586,-6.26618766784668,-0.736463189125061,1.4954252243041992,0.29848507046699524,2.541280746459961,1.478928565979004,-1.1958271265029907
152,590173,590174,-0.06781021505594254,-0.017738599330186844,0.994739830493927,11.385982513427734,5.1511054039001465,-5.394135475158691,-0.730463445186615,1.4804259538650513,0.277486115694046,2.2889068126678467,1.6185048818588257,-1.2421358823776245
153,590183,590184,-0.14847886562347412,-0.1410919725894928,0.9937007427215576,-5.04195499420166,-7.101686000823975,-4.570176601409912,-0.7184640765190125,1.459426999092102,0.28948551416397095,2.2596724033355713,1.841843605041504,-1.3484967947006226
154,590193,590194,-0.07735241949558258,-0.10879987478256226,1.0043718814849854,-23.558231353759766,-11.780611038208008,-2.6639609336853027,-0.737963080406189,1.4669265747070312,0.29098543524742126,2.4302446842193604,1.7314810752868652,-1.3281807899475098
155,590203,590204,-0.02074061706662178,-0.04456918686628342,0.9527955651283264,-39.042232513427734,-10.121268272399902,-0.7481042742729187,-0.7259637117385864,1.46092689037323,0.2939853072166443,2.600033760070801,1.3929402828216553,-1.2735297679901123
156,590213,590214,-0.07671795785427094,-0.0750274658203125,1.0360307693481445,-48.388919830322266,-0.24078865349292755,0.40227770805358887,-0.7139642834663391,1.4819258451461792,0.28198590874671936,2.6662051677703857,1.0912402868270874,-1.3317921161651611
157,590223,590224,-0.006025002337992191,-0.029125364497303963,1.0117450952529907,-45.89777755737305,8.771851539611816,2.7053189277648926,-0.7319633960723877,1.4669265747070312,0.28198590874671936,2.7205300331115723,0.5560911893844604,-1.2889680862426758
158,590233,590234,-0.03121601603925228,0.004884297493845224,1.0414642095565796,-35.75655746459961,14.673173904418945,4.09185791015625,-0.7244637608528137,1.4714263677597046,0.28948551416397095,2.4872491359710693,0.12302988022565842,-1.3134886026382446
159,590243,590244,0.02431316487491131,0.00243820040486753,1.008676290512085,-18.60792350769043,14.292585372924805,6.3068084716796875,-0.736463189125061,1.4684265851974487,0.28948551416397095,2.3092563152313232,-0.018855471163988113,-1.4171727895736694
160,590253,590254,-0.038333795964717865,-0.007380026858299971,0.9948282837867737,-7.706761360168457,11.58477783203125,8.497889518737793,-0.736463189125061,1.459426999092102,0.2834858298301697,2.1263341903686523,-0.4023497700691223,-1.2756420373916626
161,590263,590264,-0.06235622987151146,-0.0840800553560257,0.9847946166992188,-1.0344493389129639,8.601547241210938,9.892972946166992,-0.7274636030197144,1.459426999092102,0.28948551416397095,2.055570602416992,-0.5128596425056458,-1.1793358325958252
162,590273,590274,-0.015478873625397682,-0.008871856145560741,0.9997624754905701,1.4083271026611328,6.522806167602539,12.11272144317627,-0.7259637117385864,1.46092689037323,0.2939853072166443,1.9557372331619263,-0.504579484462738,-1.0998262166976929
163,590283,590284,-0.016165539622306824,0.02162368968129158,1.0189924240112305,-9.395071029663086,-1.894469976425171,13.853214263916016,-0.736463189125061,1.4564270973205566,0.2924853563308716,1.887654423713684,-0.3925725221633911,-1.0342692136764526
164,590293,590294,0.00014317076420411468,0.01148585882037878,0.997102677822113,-23.768922805786133,-13.045248985290527,12.97429084777832,-0.7169641256332397,1.4429278373718262,0.28798559308052063,1.8756637573242188,-0.5211609601974487,-0.8771318197250366
165,590303,590304,-0.03363362327218056,0.022963929921388626,1.0155850648880005,-28.877046585083008,-15.921170234680176,10.98285961151123,-0.7274636030197144,1.4534273147583008,0.28948551416397095,1.9726489782333374,-0.59928297996521,-0.813550591468811
166,590313,590314,-0.027278056368231773,0.025671502575278282,1.0176560878753662,-18.083187103271484,-10.404666900634766,8.695554733276367,-0.7079645991325378,1.4639267921447754,0.28498575091362,2.1944291591644287,-0.986809253692627,-0.6519800424575806
167,590323,590324,-0.0007453872822225094,-0.030708102509379387,1.0006029605865479,-0.8268058896064758,-10.546311378479004,6.964589595794678,-0.7154642343521118,1.4504274129867554,0.28048595786094666,2.4066028594970703,-1.2040172815322876,-0.5513085126876831
168,590333,590334,-0.03387713059782982,-0.020195910707116127,0.9275996088981628,19.127838134765625,-3.7697839736938477,8.149630546569824,-0.7139642834663391,1.4639267921447754,0.28198590874671936,2.455963134765625,-1.202628254890442,-0.49351122975349426
169,590343,590344,0.024475155398249626,0.0932944267988205,0.9461672306060791,36.444698333740234,9.309868812561035,9.872057914733887,-0.7199639678001404,1.445927619934082,0.27898603677749634,2.5421628952026367,-0.9630194902420044,-0.4509146511554718
170,590353,590354,0.02557441033422947,0.021821539849042892,0.8937504887580872,38.11699676513672,27.64468002319336,10.910382270812988,-0.7244637608528137,1.4564270973205566,0.28048595786094666,2.3427464962005615,-0.6531398892402649,-0.33894187211990356
171,590363,590364,0.020269326865673065,-0.0006034051184542477,0.9472774267196655,29.966476440429688,40.586490631103516,10.946873664855957,-0.7214639186859131,1.459426999092102,0.30748462677001953,1.9263845682144165,-0.0897015780210495,-0.30089452862739563
172,590373,590374,-0.07348817586898804,-0.11132494360208511,0.9017931818962097,10.977534294128418,43.4345588684082,11.525312423706055,-0.7319633960723877,1.46092689037323,0.28798559308052063,1.3825722932815552,0.05530048534274101,-0.1165456473827362
173,590383,590384,-0.03312987834215164,-0.1391482651233673,0.8788620233535767,-6.293184757232666,41.183128356933594,12.001962661743164,-0.7184640765190125,1.4564270973205566,0.29848507046699524,1.0050276517868042,0.1980782151222229,-0.009116576053202152
174,590393,590394,0.03006892278790474,-0.1615351289510727,0.8744342923164368,-24.52254867553711,31.623273849487305,13.013976097106934,-0.7319633960723877,1.4549272060394287,0.28498575091362,0.5220584273338318,0.05704706907272339,0.1515202522277832
175,590403,590404,0.060633957386016846,-0.13266348838806152,0.8989171385765076,-38.26780700683594,16.20810317993164,13.369502067565918,-0.7454627156257629,1.4654266834259033,0.2744862735271454,0.1863282173871994,-0.23417556285858154,0.3016752302646637
176,590413,590414,0.0009657451300881803,-0.03339212015271187,0.9239004254341125,-43.913936614990234,-1.9428253173828125,13.082711219787598,-0.7499625086784363,1.4699264764785767,0.28198590874671936,0.09252253919839859,-0.5346632599830627,0.4074636995792389
177,590423,590424,0.04568885639309883,-0.11242645233869553,0.9215002655982971,-39.451446533203125,-15.520298957824707,13.047281265258789,-0.7394630312919617,1.489425539970398,0.28948551416397095,0.13716915249824524,-1.1440646648406982,0.5814112424850464
178,590433,590434,0.0187020655721426,-0.09684932976961136,0.9947875142097473,-24.70213508605957,-22.88817024230957,12.679523468017578,-0.7409629225730896,1.4819258451461792,0.2759861946105957,0.3307710886001587,-1.4608547687530518,0.6907386183738708
179,590443,590444,-0.023370759561657906,-0.015033375471830368,0.9717374444007874,-9.514935493469238,-21.061424255371094,13.090461730957031,-0.736463189125061,1.4774260520935059,0.28048595786094666,0.42797043919563293,-1.7658002376556396,0.8408024907112122
180,590453,590454,-0.004038053564727306,-0.0027670657727867365,0.9630478024482727,4.32875394821167,-11.23372745513916,13.246217727661133,-0.737963080406189,1.4699264764785767,0.2759861946105957,0.7176384925842285,-1.8917368650436401,0.9710900783538818
181,590463,590464,-0.08176121860742569,-0.01688825711607933,1.020564317703247,13.497769355773926,0.6937762498855591,13.242242813110352,-0.736463189125061,1.4804259538650513,0.28948551416397095,0.8612151741981506,-1.8725863695144653,1.1020570993423462
182,590473,590474,-0.1127934381365776,-0.018078435212373734,1.0017164945602417,14.543303489685059,10.56885051727295,13.122663497924805,-0.7424628734588623,1.4834258556365967,0.2864856719970703,0.8909662365913391,-1.6921255588531494,1.2223337888717651
183,590483,590484,-0.018423592671751976,-0.021664172410964966,0.9601303339004517,10.619455337524414,17.07195472717285,11.175973892211914,-0.7274636030197144,1.47442626953125,0.2924853563308716,0.7489433288574219,-1.4824451208114624,1.3526313304901123
184,590493,590494,-0.03258049115538597,-0.0054908632300794125,0.9668101668357849,3.9805660247802734,19.850378036499023,9.012452125549316,-0.7574620842933655,1.4804259538650513,0.2864856719970703,0.49559667706489563,-1.3368785381317139,1.4754714965820312
185,590503,590504,-0.0045533254742622375,0.004452232271432877,0.9939599633216858,-4.065837383270264,16.33682632446289,7.190953254699707,-0.7529623508453369,1.4879255294799805,0.29098543524742126,0.206813782453537,-1.3693150281906128,1.5902963876724243
186,590513,590514,-0.046433225274086,-0.03453046828508377,0.9558109641075134,-8.657876014709473,8.877483367919922,5.873293876647949,-0.7514623999595642,1.4954252243041992,0.2834858298301697,-0.02861177735030651,-1.3745604753494263,1.6719688177108765
187,590523,590524,-0.0520281046628952,0.01884041167795658,1.0211552381515503,-11.582618713378906,-1.0863394737243652,4.875692367553711,-0.7559621930122375,1.4939253330230713,0.29098543524742126,0.0630824938416481,-1.459230899810791,1.6882909536361694
188,590533,590534,0.009069425985217094,-0.030916299670934677,0.963123619556427,-13.502677917480469,-11.040423393249512,3.8919296264648438,-0.736463189125061,1.498425006866455,0.2864856719970703,0.08652779459953308,-1.5959198474884033,1.7307683229446411
189,590543,590544,0.004142588470131159,0.04722035303711891,1.0458545684814453,-13.498059272766113,-17.151609420776367,3.605703592300415,-0.7484625577926636,1.489425539970398,0.3014849126338959,0.13507424294948578,-1.6927109956741333,1.7826067209243774
190,590553,590554,0.01279602013528347,0.015112420544028282,0.9781580567359924,-12.652935028076172,-21.25228500366211,4.135224342346191,-0.737963080406189,1.4969251155853271,0.28798559308052063,0.3609280586242676,-1.7882603406906128,1.8079371452331543
191,590563,590564,-0.016267646104097366,0.1613047569990158,1.036139726638794,-10.912879943847656,-21.732542037963867,4.434496879577637,-0.737963080406189,1.4879255294799805,0.28498575091362,0.7181053161621094,-1.8731412887573242,1.8186914920806885
192,590573,590574,-0.010758963413536549,0.028089066967368126,1.091164469718933,-16.91877555847168,-18.64643669128418,3.9035770893096924,-0.7274636030197144,1.4834258556365967,0.2924853563308716,1.079628348350525,-2.2908577919006348,1.8321987390518188
193,590583,590584,-0.032861366868019104,0.13351140916347504,1.0658904314041138,-13.08195972442627,-7.745687484741211,1.4282219409942627,-0.7439627647399902,1.4969251155853271,0.2939853072166443,1.0948028564453125,-2.342188596725464,1.9252996444702148
194,590593,590594,-0.03616614267230034,-0.02704758383333683,0.9598029851913452,1.4325512647628784,2.4257652759552,-3.3988614082336426,-0.730463445186615,1.4774260520935059,0.28948551416397095,0.9650763273239136,-2.4255623817443848,2.017397165298462
195,590603,590604,-0.012032691389322281,0.060536760836839676,1.10093092918396,22.981609344482422,-2.0795905590057373,-8.82219409942627,-0.730463445186615,1.4954252243041992,0.2954852283000946,0.8899422883987427,-2.4253127574920654,2.0080320835113525
196,590613,590614,-0.06142621859908104,0.012007318437099457,0.9696575999259949,43.69951248168945,-13.43049144744873,-13.79660701751709,-0.7349632382392883,1.4849257469177246,0.29098543524742126,0.937282919883728,-2.0783891677856445,1.9202723503112793
197,590623,590624,-0.04539075121283531,-0.04062208905816078,1.0916075706481934,54.9252815246582,-15.977925300598145,-16.306062698364258,-0.7274636030197144,1.4714263677597046,0.2864856719970703,1.0233389139175415,-1.7611033916473389,1.8050931692123413
198,590633,590634,-0.05457153916358948,-0.0004981975653208792,1.0578380823135376,55.42924499511719,-6.114127159118652,-16.01347541809082,-0.737963080406189,1.4669265747070312,0.28498575091362,1.3059008121490479,-1.0232584476470947,1.6155864000320435
199,590643,590644,-0.026867007836699486,0.06280512362718582,0.9755440354347229,48.181270599365234,4.38391637802124,-15.846396446228027,-0.7409629225730896,1.4819258451461792,0.29098543524742126,1.2967675924301147,-0.6260161995887756,1.4855473041534424
200,590653,590654,-0.06523644179105759,-0.0033244930673390627,0.9392624497413635,36.295318603515625,11.60598087310791,-17.52629852294922,-0.7424628734588623,1.459426999092102,0.28948551416397095,1.1933250427246094,0.03044959157705307,1.3570281267166138
201,590663,590664,-0.01978468708693981,-0.07262113690376282,0.9003086686134338,26.574176788330078,9.970612525939941,-17.586673736572266,-0.7319633960723877,1.4579271078109741,0.28198590874671936,1.0472880601882935,0.3491145074367523,1.2012040615081787
202,590673,590674,-0.023352082818746567,-0.07859569787979126,0.9010004997253418,21.175077438354492,-3.1061489582061768,-16.44021987915039,-0.736463189125061,1.444427728652954,0.2864856719970703,0.9822655916213989,0.5809326767921448,1.0111123323440552
203,590683,590684,-0.0459476038813591,-0.09931450337171555,0.983269453048706,10.353880882263184,-7.305628776550293,-14.77889633178711,-0.7259637117385864,1.4399279356002808,0.2759861946105957,1.034072756767273,0.7191065549850464,0.8342970013618469
204,590693,590694,0.0005301410565152764,-0.04244252294301987,0.9587070941925049,-3.8613579273223877,-7.055750846862793,-11.520071029663086,-0.7349632382392883,1.4519274234771729,0.2759861946105957,0.8199761509895325,0.8453366160392761,0.7444973587989807
205,590703,590704,0.00018712328164838254,0.003505412256345153,0.9779345989227295,-26.010326385498047,1.3001163005828857,-9.622971534729004,-0.7424628734588623,1.459426999092102,0.2744862735271454,0.975665271282196,0.8092860579490662,0.6079780459403992
206,590713,590714,-0.027580417692661285,-0.08600011467933655,0.9490114450454712,-47.34296417236328,13.636370658874512,-8.785295486450195,-0.7199639678001404,1.46092689037323,0.28198590874671936,1.0000934600830078,0.6376895308494568,0.5069267153739929
207,590723,590724,-0.07450714707374573,-0.07258956879377365,0.9483792185783386,-52.28213882446289,18.060089111328125,-7.029513835906982,-0.7439627647399902,1.472926378250122,0.27898603677749634,0.8351138830184937,0.05401654168963432,0.4252549707889557
208,590733,590734,0.028699658811092377,0.04739692062139511,1.0589874982833862,-42.540096282958984,18.940719604492188,-4.881749153137207,-0.7409629225730896,1.4879255294799805,0.28798559308052063,0.5760250091552734,-0.49750304222106934,0.3594641089439392
209,590743,590744,-0.025058342143893242,0.048214733600616455,0.9889663457870483,-20.959152221679688,12.409733772277832,-3.418726921081543,-0.736463189125061,1.4864256381988525,0.28948551416397095,0.3008284568786621,-0.9845032095909119,0.3105088472366333
210,590753,590754,-0.031898949295282364,0.08793642371892929,1.0507606267929077,1.1222326755523682,3.2086665630340576,-2.7156050205230713,-0.7334632873535156,1.459426999092102,0.2954852283000946,0.4108285903930664,-1.0010757446289062,0.25671327114105225
211,590763,590764,0.026771679520606995,0.05033058300614357,1.0351221561431885,20.070425033569336,-4.3781418800354,-1.9786936044692993,-0.7484625577926636,1.4684265851974487,0.2864856719970703,0.366059809923172,-1.0224641561508179,0.22744087874889374
212,590773,590774,0.0022611948661506176,0.020976027473807335,1.0090701580047607,27.53167152404785,-13.598064422607422,-1.1150431632995605,-0.7319633960723877,1.4549272060394287,0.28498575091362,0.4499688744544983,-0.728769063949585,0.2067306488752365
213,590783,590784,-0.0637662261724472,-0.021736565977334976,0.9706624746322632,24.225603103637695,-11.661636352539062,-0.6749100089073181,-0.737963080406189,1.46092689037323,0.28498575091362,0.467683345079422,-0.5038145780563354,0.2046116441488266
214,590793,590794,-0.005869251675903797,0.04946313053369522,1.0289455652236938,13.364892959594727,-3.5429821014404297,-1.2064677476882935,-0.7199639678001404,1.4549272060394287,0.28498575091362,0.6256952285766602,-0.25177624821662903,0.19687004387378693
215,590803,590804,-0.041130900382995605,-0.03157617524266243,0.9498584270477295,-0.35427823662757874,2.223374128341675,-1.7375398874282837,-0.7319633960723877,1.46092689037323,0.27898603677749634,0.6573832035064697,-0.08160827308893204,0.18904973566532135
216,590813,590814,-0.015135242603719234,0.06616809219121933,0.9788367748260498,-14.800393104553223,3.139934778213501,-1.8387445211410522,-0.7439627647399902,1.4489275217056274,0.29098543524742126,0.6490355134010315,-0.15190359950065613,0.16777914762496948
217,590823,590824,-0.045538529753685,0.07762348651885986,0.9680445194244385,-24.183361053466797,3.2592153549194336,-2.031761884689331,-0.737963080406189,1.4639267921447754,0.2969851493835449,0.6176564693450928,-0.3796613812446594,0.1443643718957901
218,590833,590834,-0.051529206335544586,0.08656435459852219,1.0153602361679077,-24.77822494506836,2.04500412940979,-2.7878403663635254,-0.7349632382392883,1.4639267921447754,0.29098543524742126,0.5899132490158081,-0.544784426689148,0.1275278627872467
219,590843,590844,-0.02442103438079357,0.027373870834708214,0.9940761923789978,-20.424570083618164,-3.0461134910583496,-2.4891223907470703,-0.7334632873535156,1.459426999092102,0.2834858298301697,0.580797016620636,-0.8021169304847717,0.09943177551031113
220,590853,590854,-0.08226639777421951,-0.02625356614589691,1.0413219928741455,-11.58170223236084,-4.278446197509766,-2.337045907974243,-0.7289635539054871,1.4639267921447754,0.29098543524742126,0.6360621452331543,-1.1285154819488525,0.06427523493766785
221,590863,590864,-0.033325694501399994,-0.02772224135696888,0.9834482669830322,3.3922133445739746,-5.16724967956543,-0.740570604801178,-0.736463189125061,1.4504274129867554,0.2864856719970703,0.7192837595939636,-1.2324081659317017,0.04000997543334961
222,590873,590874,-0.09303534775972366,-0.006905807182192802,1.02022385597229,14.81806468963623,0.1756826937198639,-0.3986774682998657,-0.736463189125061,1.4714263677597046,0.28048595786094666,0.815392255783081,-1.0361824035644531,0.040093228220939636
223,590883,590884,-0.05283355712890625,0.03826191648840904,1.0317100286483765,18.65370750427246,7.828726291656494,-0.016217045485973358,-0.7439627647399902,1.4519274234771729,0.28498575091362,0.8211118578910828,-0.8697469830513,0.037687741219997406
224,590893,590894,-0.01674170233309269,0.03588157892227173,1.0261305570602417,18.193952560424805,14.339864730834961,0.06215818598866463,-0.7439627647399902,1.4519274234771729,0.28498575091362,0.7027501463890076,-0.7066207528114319,0.03838134929537773
225,590903,590904,0.006235591135919094,-0.006485820282250643,0.9815461039543152,13.130928039550781,13.985898971557617,0.15130168199539185,-0.7439627647399902,1.4519274234771729,0.28498575091362,0.48388969898223877,-0.480133980512619,0.047348443418741226
226,590913,590914,-0.05687332898378372,0.0016668369062244892,0.9715996980667114,10.226391792297363,6.498079299926758,1.0636568069458008,-0.7439627647399902,1.4519274234771729,0.28498575091362,0.2695915997028351,-0.3287389874458313,0.05418442189693451
227,590923,590924,-0.030085211619734764,-0.012054524384438992,0.9597236514091492,6.158944606781006,3.014876127243042,0.9473954439163208,-0.7439627647399902,1.4519274234771729,0.28498575091362,0.16453371942043304,-0.2321617752313614,0.06344401836395264
228,590933,590934,-0.03854367882013321,-0.03127897530794144,0.9312893152236938,1.568831443786621,-1.4528617858886719,0.9143678545951843,-0.7394630312919617,1.4714263677597046,0.2834858298301697,0.13327433168888092,-0.2659364342689514,0.06528352946043015
229,590943,590944,-0.0218876414000988,-0.0042325034737586975,0.9788678288459778,-4.656410217285156,-2.181516170501709,1.350975751876831,-0.736463189125061,1.4714263677597046,0.2834858298301697,0.17363224923610687,-0.22905321419239044,0.07397668063640594
230,590953,590954,-0.07825057208538055,0.04769902676343918,1.0020335912704468,-3.87756609916687,-4.472225189208984,2.0569705963134766,-0.7409629225730896,1.4639267921447754,0.28798559308052063,0.16077107191085815,-0.2181689441204071,0.0928388312458992
231,590963,590964,-0.057714276015758514,-0.011592419818043709,0.9649146795272827,-1.2817928791046143,-3.8668863773345947,1.7467586994171143,-0.7394630312919617,1.4654266834259033,0.2744862735271454,-0.30368277430534363,-0.2740899622440338,0.13751834630966187
232,590973,590974,-0.0338793508708477,-0.017047198489308357,0.9829810857772827,-0.13823695480823517,-7.578784942626953,1.6288491487503052,-0.737963080406189,1.4669265747070312,0.2939853072166443,-0.17578038573265076,-0.28773024678230286,0.15171384811401367
233,590983,590984,0.0019302393775433302,0.0009457251289859414,0.9958965182304382,0.27511510252952576,-12.35925579071045,1.2324953079223633,-0.7334632873535156,1.4624269008636475,0.2924853563308716,-0.07012292742729187,-0.2789740562438965,0.16706524789333344
234,590993,590994,0.021857349202036858,0.03985926881432533,1.026213526725769,-1.7187920808792114,-13.341706275939941,0.9186316728591919,-0.7424628734588623,1.4684265851974487,0.2924853563308716,0.17524413764476776,-0.2640816569328308,0.17563681304454803
235,591003,591004,-0.02400212734937668,0.005000812001526356,0.9595280289649963,-3.199399471282959,-14.600863456726074,2.0607314109802246,-0.722963809967041,1.475926160812378,0.28798559308052063,0.22154992818832397,-0.2788698971271515,0.18624746799468994
236,591013,591014,-0.045356832444667816,0.04154340550303459,1.0232642889022827,-4.794212341308594,-10.368770599365234,2.276961326599121,-0.7334632873535156,1.47442626953125,0.28948551416397095,0.4251851439476013,-0.3270409405231476,0.19973084330558777
237,591023,591024,-0.006957492791116238,-0.000800347130279988,0.9807723760604858,-5.132722854614258,-7.40482234954834,2.9567525386810303,-0.730463445186615,1.4804259538650513,0.2834858298301697,0.568803608417511,-0.39549538493156433,0.21972982585430145
238,591033,591034,-0.019981637597084045,-0.004943386651575565,0.9909257292747498,-3.5409820079803467,-3.6128087043762207,3.521240711212158,-0.730463445186615,1.47442626953125,0.29848507046699524,0.5894819498062134,-0.4646247625350952,0.24848397076129913
239,591043,591044,0.009183482266962528,-0.01714579574763775,0.9759805798530579,-0.6917320489883423,-0.5074136853218079,3.3688414096832275,-0.7289635539054871,1.4909254312515259,0.28798559308052063,0.7653077840805054,-0.43582770228385925,0.28929492831230164
240,591053,591054,-0.03795449435710907,0.017066650092601776,1.040149450302124,3.321837902069092,-0.9739956259727478,3.322073221206665,-0.7424628734588623,1.4774260520935059,0.28948551416397095,0.8094028234481812,-0.436868280172348,0.3238353133201599
241,591063,591064,-0.08590207248926163,-0.020985106006264687,0.9860053658485413,3.7187604904174805,-5.975918292999268,3.0812313556671143,-0.7409629225730896,1.4909254312515259,0.28798559308052063,0.8559938669204712,-0.3784979283809662,0.3591660261154175
242,591073,591074,-0.08329369127750397,0.08669932931661606,1.009997844696045,2.986665964126587,-12.133997917175293,3.6203384399414062,-0.7394630312919617,1.47442626953125,0.2834858298301697,0.6931180357933044,-0.45175737142562866,0.38306498527526855
243,591083,591084,-0.11937606334686279,0.13672077655792236,1.0663509368896484,0.9500757455825806,-18.49049186706543,3.680521249771118,-0.7274636030197144,1.489425539970398,0.2954852283000946,0.6460925340652466,-0.38617658615112305,0.42396411299705505
244,591093,591094,-0.10315482318401337,0.09337537735700607,1.1343555450439453,1.4910614490509033,-19.158512115478516,5.174850940704346,-0.7214639186859131,1.489425539970398,0.2924853563308716,0.9205136299133301,-0.28552716970443726,0.4682016968727112
245,591103,591104,-0.12016595900058746,-0.10660344362258911,1.0895689725875854,3.076000928878784,-24.04083824157715,8.41169261932373,-0.7409629225730896,1.4849257469177246,0.29998499155044556,1.2077564001083374,-0.322028249502182,0.512576699256897
246,591113,591114,-0.056609299033880234,-0.009543380700051785,1.0891484022140503,-3.7601757049560547,-31.292688369750977,12.502656936645508,-0.7484625577926636,1.4864256381988525,0.2924853563308716,1.4225250482559204,-0.33581048250198364,0.5917022824287415
247,591123,591124,-0.0671282559633255,0.029012763872742653,1.10598886013031,-24.576499938964844,-38.22465896606445,12.270703315734863,-0.7289635539054871,1.4789260625839233,0.2939853072166443,1.890750765800476,-0.387457013130188,0.7107728719711304
248,591133,591134,-0.06641867756843567,-0.01039869524538517,1.1207383871078491,-35.679569244384766,-36.21935272216797,9.395770072937012,-0.7244637608528137,1.489425539970398,0.2924853563308716,2.5227439403533936,-0.6234425902366638,0.836550235748291
249,591143,591144,-0.029594624415040016,0.12801028788089752,1.0737314224243164,-35.07019805908203,-15.847742080688477,5.999701499938965,-0.722963809967041,1.475926160812378,0.28198590874671936,2.4725887775421143,-1.1092995405197144,0.9395315051078796
250,591153,591154,-0.10764137655496597,-0.04976693168282509,1.150254487991333,-37.42644119262695,13.323469161987305,0.5864713191986084,-0.7094644904136658,1.4864256381988525,0.2924853563308716,2.758607864379883,-1.3115794658660889,1.0037826299667358
251,591163,591164,-0.03529123589396477,0.028228305280208588,1.14187490940094,-19.144187927246094,37.960567474365234,-1.4307308197021484,-0.7184640765190125,1.4864256381988525,0.2834858298301697,2.5770766735076904,-1.7529536485671997,1.0183764696121216
252,591173,591174,-0.0220906101167202,-0.02672736719250679,1.123843789100647,10.995316505432129,57.37876510620117,-4.998716831207275,-0.7289635539054871,1.4879255294799805,0.2969851493835449,2.061777114868164,-2.0385494232177734,1.0028786659240723
253,591183,591184,-0.03525996953248978,0.0031072781421244144,1.0660048723220825,46.66714096069336,64.17820739746094,-9.087909698486328,-0.7319633960723877,1.4849257469177246,0.29098543524742126,1.4586210250854492,-1.772469162940979,0.9236674308776855
254,591193,591194,-0.01246592029929161,0.13019174337387085,1.0278313159942627,65.85527038574219,50.4155387878418,-12.163272857666016,-0.7454627156257629,1.47442626953125,0.2954852283000946,0.596729576587677,-1.1499831676483154,0.8178377151489258
255,591203,591204,-0.014702572487294674,0.0355457104742527,0.9737352728843689,63.5909309387207,20.45859718322754,-13.135839462280273,-0.7454627156257629,1.489425539970398,0.2834858298301697,0.10228187590837479,-0.781657874584198,0.7147849202156067
256,591213,591214,0.009671484120190144,-0.025926465168595314,0.9549599885940552,55.98529052734375,-3.190896511077881,-10.216934204101562,-0.7424628734588623,1.459426999092102,0.28048595786094666,0.145553857088089,0.14490123093128204,0.535277783870697
257,591223,591224,0.019197776913642883,-0.045206017792224884,0.8915247917175293,44.33906173706055,-20.208959579467773,-5.179342746734619,-0.737963080406189,1.445927619934082,0.29098543524742126,0.2695177495479584,0.5793437361717224,0.4282631278038025
258,591233,591234,0.0034305592998862267,-0.02514508180320263,0.8638281226158142,31.63163185119629,-33.369483947753906,-0.8927016258239746,-0.7334632873535156,1.4534273147583008,0.2834858298301697,0.5258586406707764,0.9822680354118347,0.3659920394420624
259,591243,591244,-0.08251018822193146,-0.03165996074676514,0.9024111032485962,19.219284057617188,-37.50688171386719,0.4209248721599579,-0.7424628734588623,1.4384280443191528,0.2834858298301697,0.8515362739562988,1.3908956050872803,0.3414385914802551
260,591253,591254,-0.10896769165992737,-0.1515577882528305,0.930250346660614,2.292419672012329,-32.87538528442383,-0.2949078679084778,-0.7259637117385864,1.4249287843704224,0.29098543524742126,1.108186960220337,1.5177090167999268,0.34317028522491455
261,591263,591264,0.007128869649022818,-0.11940883100032806,0.9104905724525452,-12.073097229003906,-23.154338836669922,-0.8724765777587891,-0.722963809967041,1.436928153038025,0.29098543524742126,1.6506606340408325,1.4541921615600586,0.33624738454818726
262,591273,591274,0.03683161735534668,-0.044315800070762634,0.8924323320388794,-21.644718170166016,-9.003803253173828,-1.9453296661376953,-0.722963809967041,1.445927619934082,0.27898603677749634,2.023632526397705,1.3009939193725586,0.3284291625022888
263,591283,591284,-0.07177213579416275,0.03809191286563873,1.016265869140625,-25.430627822875977,9.568848609924316,-3.344475030899048,-0.7124643921852112,1.4534273147583008,0.28948551416397095,2.158264636993408,0.98757004737854,0.31783732771873474
264,591293,591294,-0.013065887615084648,0.08730800449848175,1.0240777730941772,-24.713668823242188,29.062437057495117,-3.0650084018707275,-0.7259637117385864,1.4669265747070312,0.2939853072166443,1.923210859298706,0.7567093968391418,0.27303630113601685
265,591303,591304,0.04926341399550438,0.01215449720621109,0.9419583082199097,-18.61500358581543,43.49262237548828,-3.11415433883667,-0.7274636030197144,1.4684265851974487,0.3014849126338959,1.4593703746795654,0.5323965549468994,0.222761332988739
266,591313,591314,0.004539031069725752,-0.022906899452209473,0.9589943885803223,-4.660244941711426,49.34632110595703,-4.114330291748047,-0.7484625577926636,1.4684265851974487,0.2864856719970703,0.9719312787055969,0.4041624069213867,0.18194693326950073
267,591323,591324,-0.019902179017663002,-0.04433120787143707,0.9239965677261353,12.805656433105469,49.0424919128418,-6.12406063079834,-0.7394630312919617,1.47442626953125,0.2864856719970703,0.45795828104019165,0.3444654643535614,0.14194871485233307
268,591333,591334,-0.014060262590646744,-0.006367472931742668,0.9194244146347046,27.884307861328125,43.251617431640625,-8.840164184570312,-0.7589620351791382,1.4699264764785767,0.2939853072166443,-0.12446236610412598,0.5645747780799866,0.06798338890075684
269,591343,591344,-0.0012876723194494843,-0.009493688121438026,0.9013562798500061,32.6690788269043,27.876995086669922,-11.87032413482666,-0.7574620842933655,1.4714263677597046,0.28048595786094666,-0.5382219552993774,0.6726444363594055,0.002882613567635417
270,591353,591354,0.0055831680074334145,-0.04360172152519226,0.9272858500480652,28.762447357177734,9.96109676361084,-13.017738342285156,-0.7574620842933655,1.4684265851974487,0.2864856719970703,-0.9280267953872681,1.1614387035369873,-0.12196561694145203
271,591363,591364,-0.04367557913064957,-0.04634682089090347,0.997397780418396,16.678373336791992,-10.794018745422363,-13.661561012268066,-0.7469626665115356,1.4639267921447754,0.27898603677749634,-0.9534080028533936,1.3646186590194702,-0.23300378024578094
272,591373,591374,-0.010203994810581207,-0.01094195805490017,1.0135228633880615,0.8427203893661499,-24.846385955810547,-13.391335487365723,-0.7499625086784363,1.472926378250122,0.29098543524742126,-0.7885170578956604,1.5877403020858765,-0.35758906602859497
273,591383,591384,0.003047774313017726,9.353462519356981e-05,0.9936221837997437,-13.120656967163086,-31.461580276489258,-12.654096603393555,-0.7514623999595642,1.4624269008636475,0.2924853563308716,-0.395041823387146,1.4127672910690308,-0.48008009791374207
274,591393,591394,-0.020782412961125374,-0.11809851974248886,1.024598479270935,-24.167646408081055,-28.027860641479492,-11.651866912841797,-0.7589620351791382,1.4669265747070312,0.28498575091362,0.09534628689289093,1.236954689025879,-0.5855022072792053
275,591403,591404,0.0040237982757389545,-0.11915753781795502,0.9591760635375977,-28.634132385253906,-23.027563095092773,-9.607682228088379,-0.737963080406189,1.4849257469177246,0.27298635244369507,0.38981348276138306,0.8884844779968262,-0.715628981590271
276,591413,591414,-0.012947341427206993,0.036171771585941315,1.000481367111206,-26.620132446289062,-11.375032424926758,-7.182083606719971,-0.7454627156257629,1.4834258556365967,0.28048595786094666,0.5330913662910461,0.6778255105018616,-0.8315420746803284
277,591423,591424,-0.07468979060649872,0.0680442601442337,1.069932460784912,-19.894149780273438,3.0738883018493652,-5.787919044494629,-0.7319633960723877,1.4849257469177246,0.29098543524742126,0.6423671245574951,0.41520413756370544,-0.9126806855201721
278,591433,591434,-0.031345102936029434,0.03223828226327896,1.0852830410003662,-9.159283638000488,12.126529693603516,-5.301022052764893,-0.7394630312919617,1.4834258556365967,0.2834858298301697,0.5850107073783875,0.335844486951828,-0.9705237150192261
279,591443,591444,0.033723410218954086,-0.054190341383218765,1.0415235757827759,0.9412129521369934,11.36569595336914,-4.989353656768799,-0.7484625577926636,1.498425006866455,0.2954852283000946,0.5934489965438843,0.20008616149425507,-1.0019705295562744
280,591453,591454,0.015744371339678764,-0.10016410797834396,0.9858381748199463,7.395498752593994,6.237048149108887,-5.7780303955078125,-0.7514623999595642,1.4804259538650513,0.29848507046699524,0.38301366567611694,0.224043607711792,-1.0665688514709473
281,591463,591464,-0.011876837350428104,-0.042181722819805145,1.021863341331482,12.87994384765625,1.8123178482055664,-7.21022367477417,-0.7469626665115356,1.4669265747070312,0.28198590874671936,0.2560116946697235,0.351901113986969,-1.1274335384368896
282,591473,591474,0.0019776078406721354,-0.01047816127538681,1.0926605463027954,12.164233207702637,1.6494050025939941,-8.519857406616211,-0.7334632873535156,1.4684265851974487,0.2954852283000946,0.20798996090888977,0.5708293318748474,-1.1928166151046753
283,591483,591484,-0.022797025740146637,-0.0298402551561594,1.0746780633926392,6.671921730041504,-7.728646755218506,-10.726675987243652,-0.7409629225730896,1.475926160812378,0.29098543524742126,0.17170152068138123,0.7785558104515076,-1.2720668315887451
284,591493,591494,0.0015161597402766347,0.08140773326158524,1.1357825994491577,2.1575663089752197,-16.766653060913086,-12.428009986877441,-0.7244637608528137,1.4564270973205566,0.277486115694046,0.231039360165596,0.7445658445358276,-1.3899484872817993
285,591503,591504,0.027263926342129707,0.12120624631643295,1.0617262125015259,2.9641613960266113,-13.800716400146484,-10.36773681640625,-0.7454627156257629,1.4504274129867554,0.2864856719970703,0.42133456468582153,0.7869630455970764,-1.5076055526733398
286,591513,591514,0.00428159162402153,0.10716351866722107,1.1309518814086914,-5.094305515289307,-4.495353698730469,-5.681194305419922,-0.7454627156257629,1.4534273147583008,0.30748462677001953,0.5648266673088074,0.8353216648101807,-1.6137465238571167
287,591523,591524,-0.02980787307024002,-0.05951353907585144,1.0937162637710571,-10.31067943572998,3.3036317825317383,-0.5695498585700989,-0.7259637117385864,1.4519274234771729,0.28198590874671936,0.6386339664459229,0.6995984315872192,-1.6813312768936157
288,591533,591534,-0.012863509356975555,-0.0735614150762558,0.9967576265335083,-11.98237133026123,0.46836864948272705,3.3644981384277344,-0.7334632873535156,1.4564270973205566,0.2864856719970703,0.589063823223114,0.5471096038818359,-1.7003450393676758
289,591543,591544,-0.05205618962645531,-0.015105433762073517,0.9965904355049133,-10.815518379211426,0.9931797981262207,3.5040442943573,-0.7274636030197144,1.4564270973205566,0.2924853563308716,0.5646761059761047,0.4286421239376068,-1.6729377508163452
290,591553,591554,-0.0865105539560318,-0.0575268380343914,0.9516115784645081,7.870040416717529,7.268161296844482,4.307549953460693,-0.736463189125061,1.4384280443191528,0.28948551416397095,0.6560084819793701,0.4786723256111145,-1.6065579652786255
291,591563,591564,-0.14441749453544617,-0.07917860895395279,0.9832831025123596,23.08553695678711,4.268060207366943,5.883060455322266,-0.7259637117385864,1.4549272060394287,0.28498575091362,0.5101804733276367,0.5883647203445435,-1.570755958557129
292,591573,591574,-0.13166531920433044,-0.09142761677503586,1.0344979763031006,36.29511642456055,-2.760385274887085,6.67213773727417,-0.722963809967041,1.445927619934082,0.28498575091362,0.4143519103527069,0.8130424618721008,-1.520111322402954
293,591583,591584,-0.022732555866241455,-0.029639646410942078,0.9753473401069641,28.932640075683594,-10.754344940185547,6.2138800621032715,-0.7259637117385864,1.4519274234771729,0.28498575091362,0.29660624265670776,1.1691793203353882,-1.4759001731872559
294,591593,591594,0.011034075170755386,0.00905701145529747,0.9482354521751404,14.651259422302246,-15.85973834991455,5.789422988891602,-0.737963080406189,1.4429278373718262,0.28798559308052063,0.5951299667358398,1.284741997718811,-1.3958749771118164
295,591603,591604,-0.0422837920486927,-0.08308219909667969,0.9434260725975037,-5.64990758895874,-12.999302864074707,5.063718795776367,-0.7274636030197144,1.4384280443191528,0.2954852283000946,0.8269581198692322,1.5317507982254028,-1.3233503103256226
296,591613,591614,-0.037316516041755676,-0.031953390687704086,0.946273148059845,-27.35291290283203,-2.6171231269836426,3.3289694786071777,-0.7319633960723877,1.4399279356002808,0.28798559308052063,0.5259034037590027,1.4483040571212769,-1.3540931940078735
297,591623,591624,-0.012652048841118813,0.04854518547654152,0.9304636716842651,-33.446533203125,8.98030948638916,2.715160369873047,-0.7259637117385864,1.4549272060394287,0.27898603677749634,0.5801652073860168,1.1601868867874146,-1.3199542760849
298,591633,591634,-0.002883021254092455,0.060607004910707474,0.978714108467102,-25.043127059936523,20.334108352661133,-0.32667413353919983,-0.7349632382392883,1.4669265747070312,0.3029848337173462,0.43119344115257263,0.898720920085907,-1.301119089126587
299,591643,591644,0.00497126579284668,0.006769762374460697,0.935975968837738,-7.91364860534668,21.440078735351562,-3.013950824737549,-0.7334632873535156,1.4564270973205566,0.2924853563308716,0.11477524042129517,0.47990885376930237,-1.3324743509292603
300,591653,591654,-0.00851828046143055,-0.017346901819109917,0.9204317331314087,4.666927337646484,22.953702926635742,-4.408890724182129,-0.7424628734588623,1.4534273147583008,0.2834858298301697,-0.009942304342985153,0.5511389374732971,-1.3276299238204956
301,591663,591664,-0.05202913284301758,0.06563224643468857,0.9665973782539368,7.649144172668457,22.108661651611328,-4.842535018920898,-0.7424628734588623,1.4504274129867554,0.28948551416397095,-0.3007165491580963,0.6750520467758179,-1.3713839054107666
302,591673,591674,-0.06844234466552734,0.0839453935623169,0.9993381500244141,6.410531044006348,18.37346839904785,-3.934171676635742,-0.7394630312919617,1.4564270973205566,0.27148643136024475,-0.5757560133934021,0.7811663150787354,-1.42323637008667
303,591683,591684,-0.06218160688877106,0.02081921137869358,0.9891849160194397,0.8172711730003357,13.440682411193848,-3.478809356689453,-0.7409629225730896,1.4489275217056274,0.28198590874671936,-0.7205585837364197,0.8683624267578125,-1.4512407779693604
304,591693,591694,-0.04342217370867729,-0.0768187865614891,0.9472825527191162,-11.761334419250488,7.736449718475342,-3.7171688079833984,-0.7439627647399902,1.445927619934082,0.28498575091362,-0.8611127138137817,0.8596292734146118,-1.486523151397705
305,591703,591704,-0.04096166417002678,-0.15296131372451782,0.9305554628372192,-22.568246841430664,1.8622632026672363,-3.242324113845825,-0.7484625577926636,1.4624269008636475,0.28948551416397095,-0.980355441570282,0.654146671295166,-1.5406405925750732
306,591713,591714,-0.03435692936182022,-0.18570192158222198,0.9013149738311768,-28.86942481994629,-5.733447551727295,-2.08803653717041,-0.7499625086784363,1.4669265747070312,0.2759861946105957,-0.9304729104042053,0.48312726616859436,-1.5517460107803345
307,591723,591724,-0.01382200513035059,-0.16000987589359283,0.8828624486923218,-30.041080474853516,-12.935970306396484,-0.919208824634552,-0.7544622421264648,1.4564270973205566,0.2924853563308716,-0.968372642993927,0.34127259254455566,-1.564329743385315
308,591733,591734,-0.013119359500706196,-0.11801167577505112,0.9140453934669495,-27.550289154052734,-18.44272232055664,0.22914628684520721,-0.736463189125061,1.4684265851974487,0.2924853563308716,-0.8090977072715759,-0.11217748373746872,-1.5950690507888794
309,591743,591744,-0.022555025294423103,-0.13813719153404236,0.9440178871154785,-20.565187454223633,-20.719722747802734,1.2545078992843628,-0.7274636030197144,1.4684265851974487,0.28948551416397095,-0.7003242373466492,-0.37154069542884827,-1.6013067960739136
310,591753,591754,-0.014303607866168022,-0.13873478770256042,0.9698866009712219,-11.221261978149414,-19.84073257446289,2.1427910327911377,-0.7454627156257629,1.47442626953125,0.28948551416397095,-0.3432140052318573,-0.5228346586227417,-1.5540704727172852
311,591763,591764,0.03480486944317818,-0.06374629586935043,0.9748789668083191,-3.8966822624206543,-16.486703872680664,2.478663682937622,-0.7454627156257629,1.4684265851974487,0.3044847846031189,-0.07741324603557587,-0.8116855025291443,-1.5562026500701904
312,591773,591774,0.0780758410692215,0.005840490106493235,0.9396767020225525,0.13633432984352112,-10.832720756530762,2.8513991832733154,-0.737963080406189,1.472926378250122,0.28798559308052063,0.1319260597229004,-0.6912069916725159,-1.4930715560913086
313,591783,591784,0.03373310714960098,0.0468159094452858,1.0030208826065063,0.7633541822433472,-2.3501393795013428,2.6978585720062256,-0.7214639186859131,1.4684265851974487,0.2864856719970703,0.17646925151348114,-0.7216771841049194,-1.4756370782852173
314,591793,591794,0.014016552828252316,0.09447722882032394,0.9683954119682312,0.778252124786377,4.779169082641602,3.0393781661987305,-0.7289635539054871,1.4789260625839233,0.28498575091362,0.2365494817495346,-0.7313267588615417,-1.4504796266555786
315,591803,591804,-0.02935418300330639,0.09223020076751709,0.9766660928726196,-1.1788933277130127,10.220860481262207,2.7488770484924316,-0.7469626665115356,1.4789260625839233,0.29098543524742126,0.18099236488342285,-0.7375656962394714,-1.4238131046295166
316,591813,591814,-0.04197409003973007,0.08097022026777267,1.0595585107803345,-7.761027812957764,8.769838333129883,2.079901695251465,-0.7469626665115356,1.4639267921447754,0.28198590874671936,-0.0979410782456398,-0.6361672282218933,-1.3807916641235352
317,591823,591824,-0.026401527225971222,0.04127577319741249,1.0568287372589111,-12.715572357177734,-0.9095564484596252,2.485102653503418,-0.7484625577926636,1.4714263677597046,0.28948551416397095,-0.20233705639839172,-0.7810732126235962,-1.3702447414398193
318,591833,591834,-0.04679059237241745,-0.04329383373260498,1.0429437160491943,-24.00578498840332,-21.672412872314453,1.5132735967636108,-0.7319633960723877,1.472926378250122,0.28498575091362,-0.15647394955158234,-1.0030585527420044,-1.3622751235961914
319,591843,591844,-0.11045330762863159,-0.12206308543682098,1.0418463945388794,-31.529638290405273,-40.862247467041016,-1.1939209699630737,-0.7319633960723877,1.4819258451461792,0.28798559308052063,0.06472484767436981,-1.3202441930770874,-1.3568215370178223
320,591853,591854,-0.09052823483943939,-0.06167758256196976,1.0418479442596436,-32.215450286865234,-41.02439498901367,-6.632484436035156,-0.7319633960723877,1.4819258451461792,0.28798559308052063,0.5161572098731995,-1.5479321479797363,-1.3443076610565186
321,591863,591864,-0.05169518291950226,0.02310364320874214,1.0382546186447144,-20.01957130432129,-34.02465057373047,-13.969141006469727,-0.7274636030197144,1.4714263677597046,0.2924853563308716,0.9916026592254639,-1.797472596168518,-1.3837306499481201
322,591873,591874,-0.023089267313480377,-0.043381523340940475,1.0559651851654053,7.925509929656982,-27.208045959472656,-15.866569519042969,-0.7424628734588623,1.4714263677597046,0.2924853563308716,1.572147250175476,-2.132157325744629,-1.533769965171814
323,591883,591884,0.008968370035290718,-0.07052857428789139,1.0683757066726685,41.38899230957031,-17.29706382751465,-11.782690048217773,-0.7214639186859131,1.4804259538650513,0.2864856719970703,1.4655925035476685,-1.9407655000686646,-1.6254392862319946
324,591893,591894,0.044491566717624664,0.006704854778945446,0.9680448770523071,67.1947021484375,-6.696891784667969,-7.546454906463623,-0.7214639186859131,1.4804259538650513,0.28948551416397095,1.7707316875457764,-1.3602415323257446,-1.7418566942214966
325,591903,591904,-0.07732381671667099,0.009067253209650517,0.9938043355941772,70.30200958251953,13.641707420349121,-5.926379680633545,-0.7274636030197144,1.4864256381988525,0.2864856719970703,1.5988539457321167,-0.7976985573768616,-1.7912607192993164
326,591913,591914,-0.0724937841296196,-0.0406443327665329,0.9757684469223022,56.077880859375,36.292484283447266,-3.519578218460083,-0.730463445186615,1.4684265851974487,0.2924853563308716,1.6301192045211792,-0.02391679957509041,-1.874007225036621
327,591923,591924,0.021850045770406723,0.09969394654035568,0.9509551525115967,31.49603271484375,50.481204986572266,-0.7300859689712524,-0.730463445186615,1.4804259538650513,0.2924853563308716,1.2067960500717163,0.3802894651889801,-1.8979190587997437
328,591933,591934,-0.08363325893878937,0.0903581976890564,1.055337905883789,2.898886203765869,53.61689758300781,1.2335052490234375,-0.7394630312919617,1.4714263677597046,0.2924853563308716,0.6205617189407349,0.8255847096443176,-1.8884040117263794
329,591943,591944,-0.06699997186660767,-0.020668234676122665,1.0194926261901855,-15.382614135742188,37.36753845214844,3.1649580001831055,-0.7439627647399902,1.4699264764785767,0.29098543524742126,0.06265628337860107,0.8164317011833191,-1.8678041696548462
330,591953,591954,-0.022760059684515,-0.10773207992315292,0.9960038661956787,-34.250301361083984,10.120333671569824,3.8200249671936035,-0.7469626665115356,1.4639267921447754,0.28798559308052063,-0.11657322198152542,0.5652311444282532,-1.864598035812378
331,591963,591964,-0.06007329374551773,-0.13594885170459747,0.9722362160682678,-39.257110595703125,-15.731565475463867,2.897102117538452,-0.7289635539054871,1.4789260625839233,0.28498575091362,-0.23602499067783356,0.024807963520288467,-1.8299813270568848
332,591973,591974,-0.0510227233171463,-0.10967322438955307,0.9732977151870728,-25.752933502197266,-33.1833381652832,1.6298128366470337,-0.7319633960723877,1.4669265747070312,0.28798559308052063,-0.14219613373279572,-0.3061986565589905,-1.797366976737976
333,591983,591984,-0.030599378049373627,-0.060485970228910446,0.9764057993888855,-6.823887348175049,-35.138832092285156,1.5332565307617188,-0.730463445186615,1.4624269008636475,0.2924853563308716,0.37690627574920654,-0.6543736457824707,-1.796272873878479
334,591993,591994,-0.021186575293540955,0.01738513447344303,0.9782048463821411,7.925062656402588,-20.857810974121094,2.5040862560272217,-0.730463445186615,1.4564270973205566,0.2954852283000946,0.7170595526695251,-0.5548427700996399,-1.77498459815979
335,592003,592004,-0.06136897951364517,0.04102471470832825,0.9841854572296143,17.673969268798828,-0.4930640459060669,3.3817386627197266,-0.7319633960723877,1.4639267921447754,0.28798559308052063,1.0533936023712158,-0.4372312128543854,-1.7591525316238403
336,592013,592014,-0.011284497566521168,0.05996086820960045,1.047300934791565,18.156906127929688,21.533397674560547,3.63352632522583,-0.7274636030197144,1.4654266834259033,0.2834858298301697,0.9913017749786377,-0.372699499130249,-1.71810781955719
337,592023,592024,0.04721551761031151,0.03204796090722084,1.0315128564834595,14.274392127990723,33.863182067871094,3.9363620281219482,-0.7349632382392883,1.4699264764785767,0.28498575091362,0.5978744626045227,-0.07030177116394043,-1.6617170572280884
338,592033,592034,0.12925070524215698,0.028706474229693413,0.9846177101135254,8.817436218261719,32.22447204589844,3.495100498199463,-0.7349632382392883,1.4639267921447754,0.28498575091362,0.22746172547340393,0.02411646768450737,-1.6163971424102783
339,592043,592044,0.14810188114643097,0.05502638965845108,0.9503482580184937,2.172991991043091,19.415184020996094,3.162587881088257,-0.7409629225730896,1.4699264764785767,0.28798559308052063,-0.0547405406832695,0.10602882504463196,-1.5832045078277588
340,592053,592054,0.12622316181659698,0.08852245658636093,0.9517428874969482,-4.647519588470459,2.012838840484619,2.843181610107422,-0.7274636030197144,1.4684265851974487,0.28948551416397095,-0.28502288460731506,0.15039877593517303,-1.5496790409088135
341,592063,592064,0.10230604559183121,0.11231229454278946,0.9623419642448425,-9.065773963928223,-11.88377571105957,2.3535966873168945,-0.7409629225730896,1.475926160812378,0.28798559308052063,-0.3132634460926056,0.015715083107352257,-1.5235494375228882
342,592073,592074,0.08433172106742859,0.11982626467943192,0.9611315131187439,-10.05437183380127,-22.026084899902344,2.138005495071411,-0.7289635539054871,1.472926378250122,0.29998499155044556,-0.18379954993724823,-0.11635243892669678,-1.5032871961593628
343,592083,592084,0.055985599756240845,0.09096132963895798,0.9430534839630127,-7.956918239593506,-23.59749412536621,1.7747310400009155,-0.7394630312919617,1.4714263677597046,0.28948551416397095,-0.031793925911188126,-0.12454640865325928,-1.4760262966156006
344,592093,592094,-0.04018375277519226,0.039115060120821,0.9902101159095764,-1.168081283569336,-16.755586624145508,1.4599865674972534,-0.7394630312919617,1.4684265851974487,0.2924853563308716,0.3619284927845001,-0.24358926713466644,-1.467814564704895
345,592103,592104,-0.07239053398370743,-0.058579280972480774,1.024587631225586,3.7626123428344727,-4.375349998474121,0.5953760743141174,-0.7484625577926636,1.4834258556365967,0.2834858298301697,0.4941885471343994,-0.2565635144710541,-1.4478577375411987
346,592113,592114,-0.10110750049352646,-0.10288594663143158,1.036072015762329,5.554331302642822,6.451972007751465,0.339417427778244,-0.7409629225730896,1.4819258451461792,0.29098543524742126,0.5767446756362915,-0.11939852684736252,-1.4357877969741821
347,592123,592124,-0.057738590985536575,-0.06630070507526398,1.0303688049316406,3.7963058948516846,13.49921703338623,-0.2843294143676758,-0.7544622421264648,1.4804259538650513,0.2834858298301697,0.3382702171802521,-0.030988305807113647,-1.4201046228408813
348,592133,592134,-0.01550707034766674,-0.025012243539094925,0.986355721950531,1.5810661315917969,19.19978141784668,-0.7280530333518982,-0.7439627647399902,1.4879255294799805,0.28198590874671936,0.27277544140815735,-0.041300319135189056,-1.4271268844604492
349,592143,592144,-0.025369545444846153,-0.012121579609811306,1.0004310607910156,-0.5899052023887634,20.04177474975586,-0.9311267733573914,-0.7484625577926636,1.4864256381988525,0.28048595786094666,0.043259866535663605,-0.08712660521268845,-1.4353967905044556
350,592153,592154,0.018882397562265396,0.11783969402313232,1.0152968168258667,1.5766795873641968,15.607672691345215,0.21070405840873718,-0.7469626665115356,1.4969251155853271,0.2939853072166443,-0.2703593075275421,-0.08847164362668991,-1.4393709897994995
351,592163,592164,0.009948288090527058,-0.034689970314502716,0.9671157002449036,2.8220980167388916,7.674680709838867,-0.18535932898521423,-0.7499625086784363,1.4849257469177246,0.2759861946105957,-0.43662041425704956,-0.06557688862085342,-1.4418718814849854
352,592173,592174,0.002313666744157672,-0.15727931261062622,1.012959599494934,5.985429763793945,-1.9768614768981934,-0.5984036922454834,-0.7394630312919617,1.4714263677597046,0.2924853563308716,-0.4047865867614746,-0.01550273783504963,-1.4503076076507568
353,592183,592184,0.03454912453889847,0.019023461267352104,1.0512237548828125,9.691335678100586,-11.419988632202148,-0.2643420398235321,-0.737963080406189,1.475926160812378,0.2969851493835449,-0.4288021922111511,0.08781302720308304,-1.4535331726074219
354,592193,592194,0.0488881915807724,0.05764765292406082,1.0267997980117798,8.71313190460205,-15.4597806930542,0.2527068853378296,-0.736463189125061,1.4774260520935059,0.28948551416397095,-0.29170817136764526,0.24824976921081543,-1.4535495042800903
355,592203,592204,0.037960201501846313,0.00825879443436861,1.0521403551101685,4.896692752838135,-17.05776596069336,0.9753751158714294,-0.7424628734588623,1.47442626953125,0.2954852283000946,-0.006561035756021738,0.32472583651542664,-1.4543105363845825
356,592213,592214,0.09427125006914139,-0.003475287463515997,1.0221295356750488,0.1320396065711975,-14.796256065368652,1.8876785039901733,-0.7424628734588623,1.4624269008636475,0.2954852283000946,0.16293974220752716,0.34059005975723267,-1.4459681510925293
357,592223,592224,0.007097202353179455,-0.037578508257865906,0.9717973470687866,-4.930852890014648,-10.33641529083252,2.2853639125823975,-0.737963080406189,1.475926160812378,0.27898603677749634,0.43010544776916504,0.34761545062065125,-1.42964506149292
358,592233,592234,-0.05305470526218414,-0.04945002868771553,0.9944605231285095,-9.938153266906738,-3.705819845199585,2.231137275695801,-0.736463189125061,1.4714263677597046,0.2834858298301697,0.45581889152526855,0.33638134598731995,-1.4043930768966675
359,592243,592244,-0.12054723501205444,-0.062491223216056824,1.06980299949646,-13.906116485595703,2.643162488937378,2.0764527320861816,-0.730463445186615,1.4624269008636475,0.29848507046699524,0.5809683799743652,0.17374776303768158,-1.385493516921997
360,592253,592254,-0.09523027390241623,-0.05429260805249214,1.0729577541351318,-14.259081840515137,6.657586574554443,2.7642738819122314,-0.7319633960723877,1.4699264764785767,0.28498575091362,0.31625989079475403,0.022522922605276108,-1.364311695098877
361,592263,592264,-0.008495358750224113,-0.022508051246404648,0.9999526143074036,-10.614212036132812,6.857980251312256,3.3552255630493164,-0.722963809967041,1.4639267921447754,0.27898603677749634,0.42911097407341003,-0.20612725615501404,-1.3402682542800903
362,592273,592274,0.013118377886712551,0.052863333374261856,1.0118412971496582,-2.2522692680358887,6.7528557777404785,3.753330707550049,-0.7244637608528137,1.4474276304244995,0.2834858298301697,0.24656978249549866,-0.3757037818431854,-1.3124903440475464
363,592283,592284,0.009627590887248516,0.03056172840297222,1.008065938949585,2.675269603729248,1.5204838514328003,2.9429900646209717,-0.7289635539054871,1.4549272060394287,0.28498575091362,0.22156600654125214,-0.41180184483528137,-1.2773845195770264
364,592293,592294,0.007517392747104168,-0.005126823205500841,1.0018925666809082,7.10792350769043,-4.630685806274414,1.8387327194213867,-0.7334632873535156,1.459426999092102,0.277486115694046,0.13094188272953033,-0.35827112197875977,-1.2455555200576782
365,592303,592304,-0.052891235798597336,-0.032848060131073,1.0062363147735596,9.21903133392334,-9.027706146240234,0.3039033114910126,-0.7244637608528137,1.4474276304244995,0.29848507046699524,0.3528546988964081,-0.23648349940776825,-1.2241572141647339
366,592313,592314,-0.056149885058403015,-0.052561793476343155,0.9673469662666321,13.630119323730469,-4.0647430419921875,-0.2685423195362091,-0.736463189125061,1.4504274129867554,0.28048595786094666,0.002700063632801175,-0.07954561710357666,-1.2110826969146729
367,592323,592324,-0.029620081186294556,-0.032231420278549194,0.953876256942749,18.110849380493164,6.118169784545898,-1.2700815200805664,-0.7274636030197144,1.4504274129867554,0.2924853563308716,0.02726437896490097,0.1435949206352234,-1.209129810333252
368,592333,592334,-0.06301108002662659,-0.04794081300497055,0.9705523252487183,12.1292085647583,8.163717269897461,-1.3858236074447632,-0.737963080406189,1.4489275217056274,0.28498575091362,-0.03207575902342796,0.2859531044960022,-1.2223761081695557
369,592343,592344,-0.08360165357589722,-0.08465602248907089,0.9800345301628113,4.197671890258789,6.830904006958008,-1.0987513065338135,-0.7334632873535156,1.444427728652954,0.277486115694046,-0.07228405773639679,0.48425915837287903,-1.2325888872146606
370,592353,592354,-0.07913334667682648,-0.1302240490913391,0.9706112742424011,-5.820872783660889,-0.27719852328300476,-0.23600587248802185,-0.7409629225730896,1.445927619934082,0.27298635244369507,-0.1606425642967224,0.3415645360946655,-1.2520393133163452
371,592363,592364,-0.06179572641849518,-0.16518710553646088,0.9680415391921997,-10.938745498657227,-7.756262302398682,0.5722401142120361,-0.730463445186615,1.4534273147583008,0.2834858298301697,-0.20044411718845367,0.2642476260662079,-1.2548604011535645
372,592373,592374,-0.04239099472761154,-0.17547015845775604,0.9650647044181824,-12.41590690612793,-15.839086532592773,1.2688920497894287,-0.7289635539054871,1.4639267921447754,0.27898603677749634,-0.03952415660023689,0.24189162254333496,-1.2418708801269531
373,592383,592384,-0.023093614727258682,-0.16623780131340027,0.9764127135276794,-8.035931587219238,-19.642887115478516,1.3188502788543701,-0.7214639186859131,1.4624269008636475,0.2864856719970703,0.24619615077972412,0.05078993737697601,-1.23095703125
374,592393,592394,0.009794590063393116,-0.14442552626132965,1.001206398010254,-0.2675377130508423,-17.30455780029297,1.685734748840332,-0.7184640765190125,1.4534273147583008,0.28048595786094666,0.3071661591529846,-0.06459829956293106,-1.2190287113189697
375,592403,592404,0.009523402899503708,-0.03921261429786682,0.9803231954574585,8.026926040649414,-11.59903335571289,2.0635409355163574,-0.7199639678001404,1.4549272060394287,0.2759861946105957,0.54850172996521,0.08547864854335785,-1.1908564567565918
376,592413,592414,0.00786141399294138,-0.04986834526062012,0.9378594756126404,14.392951965332031,-4.156986236572266,1.9301012754440308,-0.7289635539054871,1.4519274234771729,0.28798559308052063,0.7615556716918945,0.13958102464675903,-1.1702628135681152
377,592423,592424,-0.027066325768828392,-0.02145419642329216,0.9543049931526184,11.993812561035156,5.029263973236084,0.848009467124939,-0.7199639678001404,1.4579271078109741,0.2759861946105957,0.8376035094261169,0.36287516355514526,-1.1492433547973633
378,592433,592434,-0.020472168922424316,0.024783600121736526,0.9583415985107422,9.13033390045166,6.526320934295654,1.199601411819458,-0.7334632873535156,1.459426999092102,0.28948551416397095,0.767898678779602,0.4147011339664459,-1.1422781944274902
379,592443,592444,-0.0797043889760971,-0.00956319086253643,0.9356601238250732,4.410228252410889,7.881124496459961,0.7676375508308411,-0.7319633960723877,1.46092689037323,0.28498575091362,0.6463589668273926,0.4894196391105652,-1.1331404447555542
380,592453,592454,-0.12974505126476288,-0.033601801842451096,0.9688143134117126,-4.993536949157715,4.42990779876709,0.495486855506897,-0.7394630312919617,1.4654266834259033,0.2744862735271454,0.5030375123023987,0.48500871658325195,-1.1271181106567383
381,592463,592464,-0.13638512790203094,-0.044218651950359344,1.0151684284210205,-10.577017784118652,-1.1833645105361938,0.9736707210540771,-0.737963080406189,1.4549272060394287,0.27898603677749634,0.4170704782009125,0.4110582768917084,-1.1222283840179443
382,592473,592474,-0.1177111342549324,-0.06735657155513763,1.0258903503417969,-11.108872413635254,-6.30873966217041,2.1661901473999023,-0.7394630312919617,1.4684265851974487,0.277486115694046,0.4316285252571106,0.3173210024833679,-1.1118191480636597
383,592483,592484,-0.07941700518131256,-0.07349236309528351,1.024033784866333,-7.9816975593566895,-10.465282440185547,2.75940203666687,-0.7394630312919617,1.4684265851974487,0.277486115694046,0.5299844741821289,0.2800765931606293,-1.0901846885681152
384,592493,592494,-0.017397310584783554,-0.024309558793902397,1.0116199254989624,-7.640072345733643,-13.041272163391113,3.0599372386932373,-0.7394630312919617,1.4684265851974487,0.277486115694046,0.6972715258598328,0.28240901231765747,-1.0610016584396362
385,592503,592504,0.006802708376199007,0.06448929756879807,1.014210820198059,-4.274064064025879,-10.033888816833496,3.1649842262268066,-0.7394630312919617,1.4684265851974487,0.277486115694046,0.9020678400993347,0.14846816658973694,-1.0290440320968628
386,592513,592514,0.033991437405347824,0.13283677399158478,1.0331785678863525,-0.41067904233932495,-1.5857901573181152,3.566650629043579,-0.7319633960723877,1.4699264764785767,0.29098543524742126,0.8427274227142334,0.06614162772893906,-1.0086772441864014
387,592523,592524,0.024178406223654747,0.028659330680966377,0.977167010307312,1.265438437461853,8.9162015914917,4.3369140625,-0.7349632382392883,1.4819258451461792,0.2939853072166443,0.8738305568695068,0.04580848291516304,-0.9761366248130798
388,592533,592534,-0.03831237182021141,0.04129360616207123,1.0003421306610107,3.2067670822143555,15.913841247558594,6.0807414054870605,-0.737963080406189,1.4789260625839233,0.2939853072166443,0.8802322149276733,0.060442522168159485,-0.9312862157821655
389,592543,592544,-0.05172484740614891,0.0443711057305336,1.0218361616134644,1.5107566118240356,17.762113571166992,7.540441513061523,-0.7469626665115356,1.472926378250122,0.2939853072166443,0.620898425579071,0.10551342368125916,-0.8775500655174255
390,592553,592554,-0.04715656861662865,-0.03757551312446594,0.9970913529396057,-4.054417610168457,11.55764389038086,7.997524261474609,-0.7424628734588623,1.4834258556365967,0.2924853563308716,0.33707791566848755,0.13059139251708984,-0.8068968057632446
391,592563,592564,-0.0591733455657959,-0.10670886933803558,1.0151283740997314,-14.851776123046875,-4.5562310218811035,6.787774562835693,-0.7349632382392883,1.4789260625839233,0.2939853072166443,0.23257581889629364,0.06602412462234497,-0.7221539616584778
392,592573,592574,-0.07004277408123016,-0.11885103583335876,1.0608311891555786,-23.684818267822266,-20.538726806640625,5.282186985015869,-0.737963080406189,1.4819258451461792,0.2969851493835449,0.30615270137786865,-0.17025679349899292,-0.6440831422805786
393,592583,592584,-0.04835851490497589,-0.09672484546899796,1.0428904294967651,-27.364992141723633,-31.30293083190918,3.839792251586914,-0.7334632873535156,1.489425539970398,0.3044847846031189,0.6303309798240662,-0.3302534818649292,-0.5853031277656555
394,592593,592594,-0.02205551601946354,-0.023232299834489822,1.061640977859497,-23.32054901123047,-31.93557357788086,1.8718078136444092,-0.7289635539054871,1.4879255294799805,0.29098543524742126,0.9782589077949524,-0.7015911340713501,-0.537190854549408
395,592603,592604,0.05400840565562248,-0.01568925380706787,1.065516471862793,-19.586400985717773,-31.701698303222656,-0.6522548794746399,-0.7259637117385864,1.4819258451461792,0.28798559308052063,1.56967031955719,-0.7289363145828247,-0.5182725787162781
396,592613,592614,0.03497392684221268,-0.0627313107252121,1.0029268264770508,-12.449468612670898,-21.278194427490234,-1.0720402002334595,-0.7289635539054871,1.4819258451461792,0.28498575091362,1.4354716539382935,-0.9833824038505554,-0.5199888944625854
397,592623,592624,0.03159132972359657,0.10060634464025497,1.020872950553894,8.530789375305176,7.82332706451416,-0.7964726686477661,-0.7199639678001404,1.472926378250122,0.2969851493835449,1.7022026777267456,-1.1799798011779785,-0.5232385396957397
398,592633,592634,-0.05052307993173599,0.0882662907242775,1.032670021057129,24.32571029663086,37.949588775634766,-3.0887320041656494,-0.722963809967041,1.4819258451461792,0.28798559308052063,1.3605742454528809,-1.0608471632003784,-0.5402810573577881
399,592643,592644,-0.030757412314414978,-0.004929832648485899,1.0505861043930054,41.14999771118164,42.88888168334961,-4.257293224334717,-0.736463189125061,1.498425006866455,0.3044847846031189,1.1325310468673706,-0.6639403104782104,-0.5930294990539551
400,592653,592654,-0.05614837259054184,-0.08175114542245865,1.0498243570327759,53.5855712890625,25.81406593322754,-4.459794521331787,-0.7334632873535156,1.489425539970398,0.2954852283000946,0.6585268378257751,-0.15180587768554688,-0.6453201174736023
401,592663,592664,-0.04634122550487518,-0.13275733590126038,1.0089402198791504,53.054588317871094,11.479835510253906,-4.316940784454346,-0.7454627156257629,1.47442626953125,0.28948551416397095,0.30401960015296936,0.34762707352638245,-0.6801335215568542
402,592673,592674,0.019287243485450745,-0.1377324014902115,0.9172552824020386,36.830833435058594,1.7465360164642334,-1.4022990465164185,-0.7514623999595642,1.47442626953125,0.3014849126338959,0.400246798992157,0.706034243106842,-0.7155110239982605
403,592683,592684,0.022837257012724876,-0.13072772324085236,0.9045616984367371,7.345794200897217,-2.3606388568878174,1.0203864574432373,-0.7439627647399902,1.4639267921447754,0.28498575091362,0.4217674136161804,1.1026283502578735,-0.7395709156990051
404,592693,592694,-0.07174429297447205,-0.09232579916715622,1.023358702659607,-23.00202178955078,3.7617406845092773,0.5408127903938293,-0.7439627647399902,1.4549272060394287,0.28198590874671936,0.41582390666007996,1.176047682762146,-0.7305682897567749
405,592703,592704,-0.05775025486946106,-0.0924173966050148,1.0301700830459595,-41.425331115722656,8.486631393432617,1.6739598512649536,-0.7469626665115356,1.4489275217056274,0.29098543524742126,0.4034085273742676,0.7556568384170532,-0.7019203901290894
406,592713,592714,0.013752558268606663,-0.09675737470388412,0.9065922498703003,-46.87282180786133,11.17937183380127,3.559544801712036,-0.7454627156257629,1.459426999092102,0.277486115694046,0.25001323223114014,0.4656277298927307,-0.6933726072311401
407,592723,592724,0.029594661667943,0.008758989162743092,0.9306102991104126,-38.78611373901367,13.581816673278809,4.826752662658691,-0.7484625577926636,1.4654266834259033,0.2864856719970703,0.052117057144641876,-0.004210519604384899,-0.6632016897201538
408,592733,592734,0.07154865562915802,0.10094431787729263,1.0267337560653687,-22.04846954345703,13.6552095413208,5.704840183258057,-0.7289635539054871,1.475926160812378,0.28498575091362,-0.032055266201496124,-0.3518541157245636,-0.6217900514602661
409,592743,592744,0.0954209491610527,0.04197963327169418,0.9698978662490845,-5.601430892944336,11.479969024658203,5.782933712005615,-0.7199639678001404,1.46092689037323,0.28198590874671936,-0.1811690777540207,-0.6535666584968567,-0.5664637088775635
410,592753,592754,0.12098260223865509,0.004672898445278406,0.9674444198608398,7.439701557159424,1.8591831922531128,5.423208713531494,-0.7334632873535156,1.4564270973205566,0.2834858298301697,-0.34610462188720703,-0.6114456057548523,-0.5166990160942078
411,592763,592764,0.08734128624200821,-0.05855622887611389,0.9573583006858826,14.736270904541016,-9.09037971496582,5.394122123718262,-0.7289635539054871,1.4639267921447754,0.28498575091362,-0.3557392954826355,-0.49414610862731934,-0.4620972275733948
412,592773,592774,0.02496366761624813,-0.12703071534633636,0.9442160129547119,14.483602523803711,-16.31055450439453,5.731881618499756,-0.7274636030197144,1.4624269008636475,0.28948551416397095,-0.20102201402187347,-0.469880610704422,-0.4039941728115082
413,592783,592784,-0.031978581100702286,-0.1365201324224472,0.938632607460022,10.91305160522461,-14.859151840209961,5.96504545211792,-0.7214639186859131,1.459426999092102,0.2924853563308716,0.056369148194789886,-0.23137542605400085,-0.34547412395477295
414,592793,592794,-0.07467273622751236,-0.06952103972434998,0.9446375966072083,6.744976997375488,-6.217799186706543,6.29509162902832,-0.7334632873535156,1.4534273147583008,0.2834858298301697,0.28283002972602844,-0.19838979840278625,-0.2877477705478668
415,592803,592804,-0.04505545645952225,0.06634591519832611,0.9536919593811035,2.2628977298736572,6.887080669403076,5.97371244430542,-0.7259637117385864,1.46092689037323,0.26998651027679443,0.3615850508213043,-0.0905008316040039,-0.22808322310447693
416,592813,592814,-0.01713622361421585,0.17578533291816711,0.967411458492279,-4.127461910247803,15.18709659576416,5.77601957321167,-0.722963809967041,1.475926160812378,0.28798559308052063,0.23419180512428284,-0.059113334864377975,-0.17059226334095
417,592823,592824,-0.010505669750273228,0.19281767308712006,0.9728487730026245,-8.929340362548828,19.241994857788086,5.518918037414551,-0.7244637608528137,1.4624269008636475,0.2864856719970703,-0.026751171797513962,-0.1277613341808319,-0.11403528600931168
418,592833,592834,-0.020526286214590073,0.1488623470067978,0.9743106961250305,-9.947477340698242,17.792272567749023,5.779970169067383,-0.7394630312919617,1.4774260520935059,0.28948551416397095,-0.2721886932849884,-0.2654533088207245,-0.060277391225099564
419,592843,592844,-0.030312983319163322,0.0963253378868103,1.0380351543426514,-7.184537410736084,8.87344741821289,6.554358005523682,-0.7484625577926636,1.4654266834259033,0.2864856719970703,-0.2661305367946625,-0.349021852016449,-0.008619504049420357
420,592853,592854,-0.03833238035440445,0.005403538700193167,0.9683708548545837,-1.9105409383773804,1.2470462322235107,6.853302478790283,-0.730463445186615,1.4684265851974487,0.2924853563308716,-0.42802825570106506,-0.4598773717880249,0.05426770821213722
421,592863,592864,-0.04372658580541611,-0.00976014044135809,0.947563648223877,4.748910903930664,-8.27944564819336,6.7932209968566895,-0.7334632873535156,1.4684265851974487,0.28948551416397095,-0.4521602690219879,-0.41069144010543823,0.12599991261959076
422,592873,592874,-0.016939397901296616,0.007261051796376705,0.9641492962837219,8.481168746948242,-17.28871726989746,7.003057956695557,-0.7319633960723877,1.472926378250122,0.28498575091362,-0.3296095132827759,-0.3361164629459381,0.19483259320259094
423,592883,592884,0.007289750035852194,0.08012422919273376,0.97645103931427,10.530548095703125,-20.354013442993164,7.144608020782471,-0.7274636030197144,1.4714263677597046,0.29848507046699524,-0.06616657227277756,-0.19790084660053253,0.2639206349849701
424,592893,592894,0.027200594544410706,0.15678656101226807,0.9903846383094788,7.957218647003174,-19.38763427734375,5.711962699890137,-0.7319633960723877,1.4699264764785767,0.28798559308052063,0.10093344002962112,-0.17373773455619812,0.3291463851928711
425,592903,592904,0.006257662549614906,0.07049156725406647,1.0016281604766846,-0.5427376627922058,-15.657402992248535,2.559180498123169,-0.737963080406189,1.4669265747070312,0.28798559308052063,0.39929497241973877,-0.11892113834619522,0.3805316686630249
426,592913,592914,-0.024078866466879845,-0.016357623040676117,1.0390822887420654,-5.837986946105957,-13.79289436340332,-0.8892874121665955,-0.7259637117385864,1.4639267921447754,0.27898603677749634,0.49738407135009766,-0.04739471897482872,0.4169069528579712
427,592923,592924,-0.05428346246480942,-0.0020791972056031227,1.0760676860809326,-5.733794212341309,-7.244472503662109,-2.733543872833252,-0.7274636030197144,1.4654266834259033,0.28948551416397095,0.7011665105819702,-0.136871799826622,0.40840113162994385
428,592933,592934,-0.012895729392766953,0.03366810828447342,1.0446062088012695,-1.8356850147247314,-0.36228013038635254,-3.601750373840332,-0.7259637117385864,1.4699264764785767,0.27898603677749634,0.7289747595787048,-0.22273096442222595,0.38342806696891785
429,592943,592944,-0.0477263480424881,-0.01346358098089695,0.9944174885749817,5.484498500823975,7.788838863372803,-4.27813720703125,-0.7394630312919617,1.4684265851974487,0.2834858298301697,0.7098824381828308,-0.31674113869667053,0.34575533866882324
430,592953,592954,0.02398197539150715,-0.06311539560556412,1.0154742002487183,12.190030097961426,14.82817554473877,-4.901710510253906,-0.7274636030197144,1.4714263677597046,0.28948551416397095,0.5604833960533142,-0.15249966084957123,0.3090946078300476
431,592963,592964,-0.0021000669803470373,-0.08293595165014267,0.9759430885314941,22.749305725097656,12.053272247314453,-4.49884557723999,-0.7409629225730896,1.4669265747070312,0.28798559308052063,0.3163982629776001,-0.01569286547601223,0.26766324043273926
432,592973,592974,0.0017829803982749581,0.02566649205982685,0.993994951248169,27.25328826904297,7.927253246307373,-3.1841611862182617,-0.7469626665115356,1.4639267921447754,0.29998499155044556,0.11139874160289764,0.34726327657699585,0.23023931682109833
433,592983,592984,0.016931118443608284,0.01719495840370655,0.9409663081169128,28.45545768737793,3.3217241764068604,-1.9333970546722412,-0.7469626665115356,1.4639267921447754,0.2939853072166443,0.0463247075676918,0.427372545003891,0.19164590537548065
434,592993,592994,-0.023102745413780212,-0.03497818112373352,0.9446389079093933,23.284128189086914,-0.03481488302350044,-0.00253072427585721,-0.7544622421264648,1.4474276304244995,0.28948551416397095,0.12419714033603668,0.6796848773956299,0.16692255437374115
435,593003,593004,-0.013071123510599136,-0.019503172487020493,0.9645305275917053,11.630380630493164,-0.10592132061719894,2.445978879928589,-0.7259637117385864,1.4669265747070312,0.29098543524742126,0.10949412733316422,0.9259219765663147,0.16417579352855682
436,593013,593014,-0.0082161296159029,0.0360134094953537,0.9813718199729919,-1.0110101699829102,2.7072103023529053,5.121277332305908,-0.7349632382392883,1.4489275217056274,0.28498575091362,0.09878963977098465,1.0615143775939941,0.18583932518959045
437,593023,593024,0.034668225795030594,0.11477464437484741,0.9676699042320251,-15.357542991638184,10.472745895385742,6.628169059753418,-0.730463445186615,1.459426999092102,0.28048595786094666,0.04316134750843048,1.0519061088562012,0.23313449323177338
438,593033,593034,0.02739204280078411,0.102855384349823,0.9390767216682434,-29.949460983276367,10.82296371459961,6.194907188415527,-0.7424628734588623,1.4624269008636475,0.2834858298301697,-0.1263144165277481,0.805491030216217,0.29142722487449646
439,593043,593044,0.025116054341197014,0.0901208445429802,0.9940288662910461,-40.89935302734375,0.2077576071023941,5.2470808029174805,-0.7424628734588623,1.459426999092102,0.2924853563308716,-0.15555191040039062,0.5420400500297546,0.3576492667198181
440,593053,593054,0.02137860655784607,-0.0008885401766747236,0.9820498824119568,-45.42889404296875,-10.404314994812012,3.645265817642212,-0.7259637117385864,1.46092689037323,0.28798559308052063,-0.1666576862335205,0.1706904172897339,0.4121221601963043
441,593063,593064,-0.04863107576966286,-0.005014777183532715,1.0155003070831299,-37.535648345947266,-19.19606590270996,1.556758165359497,-0.7349632382392883,1.4849257469177246,0.28198590874671936,-0.21406568586826324,-0.4828614294528961,0.43140679597854614
442,593073,593074,-0.0847558081150055,0.08586308360099792,1.0055683851242065,-22.0269718170166,-23.933584213256836,-0.3835308849811554,-0.737963080406189,1.4819258451461792,0.2969851493835449,0.23412339389324188,-0.7180160880088806,0.47689130902290344
443,593083,593084,-0.08966916054487228,0.12309841066598892,1.035908818244934,-8.6862211227417,-18.859655380249023,-3.103834390640259,-0.7334632873535156,1.47442626953125,0.2924853563308716,0.4572845697402954,-1.0722533464431763,0.470621258020401
444,593093,593094,-0.08505929261445999,0.01758444868028164,1.0056040287017822,-3.057893753051758,-12.053749084472656,-4.314520835876465,-0.730463445186615,1.4684265851974487,0.28048595786094666,0.7525791525840759,-1.0595097541809082,0.4560737907886505
445,593103,593104,-0.11577371507883072,0.04012436047196388,0.995064914226532,5.264185905456543,1.7548885345458984,-5.590283393859863,-0.7259637117385864,1.4639267921447754,0.2939853072166443,0.848545491695404,-1.0204010009765625,0.419125497341156
446,593113,593114,-0.09965867549180984,0.10996292531490326,1.0412089824676514,13.148706436157227,14.90554141998291,-10.506945610046387,-0.7169641256332397,1.4699264764785767,0.29098543524742126,0.7917659878730774,-0.9304432272911072,0.36361661553382874
447,593123,593124,-0.08704572170972824,-0.019491957500576973,1.0164165496826172,26.293933868408203,16.432310104370117,-14.311519622802734,-0.730463445186615,1.47442626953125,0.28948551416397095,0.6751314997673035,-0.7810230255126953,0.2634369730949402
448,593133,593134,-0.06110088527202606,-0.06186607480049133,1.0547250509262085,42.19137954711914,7.941904544830322,-13.923751831054688,-0.7334632873535156,1.4714263677597046,0.277486115694046,0.600410521030426,-0.5573046207427979,0.1218557208776474
449,593143,593144,-0.02477892115712166,-0.11377082020044327,0.9182003140449524,48.74755859375,2.675802230834961,-13.221343040466309,-0.736463189125061,1.4684265851974487,0.29848507046699524,0.4346361458301544,-0.010608186945319176,-0.014189654029905796
450,593153,593154,-0.010732277296483517,0.03144098073244095,0.9387335777282715,40.05509567260742,7.456305027008057,-12.651920318603516,-0.737963080406189,1.4669265747070312,0.2969851493835449,0.5626252889633179,0.42448943853378296,-0.15366236865520477
451,593163,593164,-0.09770426899194717,0.01384441927075386,0.9104904532432556,25.776851654052734,17.230133056640625,-13.718390464782715,-0.737963080406189,1.4489275217056274,0.28798559308052063,0.4629228711128235,0.6555294990539551,-0.27880313992500305
452,593173,593174,-0.09993584454059601,0.001942229107953608,0.971515953540802,7.667508125305176,25.6116886138916,-16.324119567871094,-0.7274636030197144,1.4624269008636475,0.2834858298301697,0.20238056778907776,1.0821313858032227,-0.41110455989837646
453,593183,593184,-0.06428166478872299,0.04053295776247978,1.0106241703033447,-5.907541275024414,22.072553634643555,-17.079118728637695,-0.7334632873535156,1.4504274129867554,0.2864856719970703,-0.03730601444840431,1.1490172147750854,-0.5650425553321838
454,593193,593194,-0.007769906427711248,0.11221490055322647,0.9898374676704407,-18.105558395385742,16.235498428344727,-17.314594268798828,-0.7454627156257629,1.4474276304244995,0.29848507046699524,-0.29867005348205566,1.054915428161621,-0.7305596470832825
455,593203,593204,-0.12221730500459671,0.06027350574731827,0.9768303036689758,-24.422527313232422,11.988505363464355,-18.465560913085938,-0.7274636030197144,1.4504274129867554,0.2924853563308716,-0.6072068214416504,0.835936963558197,-0.9039670825004578
456,593213,593214,-0.024558555334806442,0.03669193759560585,1.0195306539535522,-21.1807861328125,4.882115840911865,-17.831478118896484,-0.7484625577926636,1.4654266834259033,0.277486115694046,-0.6999115347862244,0.4489287734031677,-1.0857030153274536
457,593223,593224,0.010391504503786564,-0.035473309457302094,1.0056408643722534,-8.047585487365723,-4.945949554443359,-16.0910701751709,-0.7409629225730896,1.4669265747070312,0.28198590874671936,-0.39622849225997925,0.3314109146595001,-1.243415117263794
458,593233,593234,0.051147233694791794,-0.02625305764377117,0.9941689372062683,15.440203666687012,-9.623873710632324,-14.174015045166016,-0.7409629225730896,1.4549272060394287,0.28498575091362,-0.3806370198726654,0.35472849011421204,-1.4024410247802734
459,593243,593244,0.017056811600923538,0.058138031512498856,0.9665923714637756,33.22376251220703,-11.941278457641602,-11.191967010498047,-0.7424628734588623,1.4624269008636475,0.277486115694046,-0.2766708731651306,0.5941304564476013,-1.5398496389389038
460,593253,593254,-0.04415714368224144,0.07518365234136581,1.0699045658111572,38.45808029174805,-5.378790855407715,-9.082186698913574,-0.7424628734588623,1.4414279460906982,0.2834858298301697,-0.14800146222114563,0.8346981406211853,-1.6595373153686523
461,593263,593264,-0.052595317363739014,-0.03584840148687363,0.9892033934593201,30.661203384399414,5.429653644561768,-5.785315990447998,-0.7469626665115356,1.4549272060394287,0.28498575091362,-0.12211360037326813,1.3836134672164917,-1.7431817054748535
462,593273,593274,-0.06533386558294296,-0.03845074400305748,0.9984293580055237,15.183789253234863,11.326092720031738,-3.8741800785064697,-0.7439627647399902,1.4549272060394287,0.29098543524742126,-0.18378348648548126,1.5925190448760986,-1.8114279508590698
463,593283,593284,-0.07884050160646439,-0.06725147366523743,1.0567021369934082,-11.743008613586426,24.45543098449707,-3.4197609424591064,-0.7349632382392883,1.4519274234771729,0.28198590874671936,-0.3577422499656677,1.7486603260040283,-1.8532634973526
464,593293,593294,-0.10767832398414612,-0.17030702531337738,0.9137883186340332,-29.318866729736328,26.492399215698242,-1.672080636024475,-0.7499625086784363,1.472926378250122,0.29098543524742126,-0.6495967507362366,1.5576655864715576,-1.8921232223510742
465,593303,593304,-0.06691824644804001,-0.06762143969535828,0.9643283486366272,-40.00628662109375,21.251935958862305,-0.1591312438249588,-0.7409629225730896,1.4639267921447754,0.28198590874671936,-1.1119968891143799,1.2152892351150513,-1.934614896774292
466,593313,593314,-0.1037200391292572,-0.10081622004508972,0.9557734131813049,-40.619136810302734,11.4127197265625,0.7651100754737854,-0.7454627156257629,1.4684265851974487,0.2954852283000946,-1.409777045249939,0.8460370898246765,-1.9416764974594116
467,593323,593324,-0.09309224039316177,-0.0923534408211708,1.0112947225570679,-35.67711639404297,-4.992550849914551,1.7877752780914307,-0.736463189125061,1.4654266834259033,0.2834858298301697,-1.3296749591827393,0.5341105461120605,-1.8875224590301514
468,593333,593334,-0.07518476992845535,-0.1518523246049881,1.004932165145874,-23.931774139404297,-16.069833755493164,1.7647874355316162,-0.7334632873535156,1.4624269008636475,0.2744862735271454,-1.2953773736953735,0.08137490600347519,-1.8815155029296875
469,593343,593344,-0.011661527678370476,-0.11504346877336502,1.0720133781433105,-10.23624038696289,-20.980606079101562,2.9473841190338135,-0.7394630312919617,1.459426999092102,0.2924853563308716,-1.0714192390441895,-0.1134464368224144,-1.8397295475006104
470,593353,593354,0.032539933919906616,-0.11707431823015213,0.9799855351448059,7.003408908843994,-20.9320068359375,5.467501163482666,-0.7409629225730896,1.4639267921447754,0.28798559308052063,-0.9740297198295593,-0.22834305465221405,-1.8260129690170288
471,593363,593364,-0.0033993448596447706,-0.02006104588508606,0.9801779985427856,19.31305503845215,-13.071747779846191,7.769863128662109,-0.736463189125061,1.4654266834259033,0.28948551416397095,-0.6609489917755127,-0.12821964919567108,-1.7512457370758057
472,593373,593374,-0.060726605355739594,0.028081126511096954,0.9692084789276123,19.9255428314209,-6.532965660095215,9.011165618896484,-0.7394630312919617,1.4624269008636475,0.277486115694046,-0.5389406085014343,0.16166487336158752,-1.6588667631149292
473,593383,593384,-0.05544299632310867,0.10049822926521301,1.0458184480667114,14.30756664276123,9.781976699829102,7.033381462097168,-0.737963080406189,1.4639267921447754,0.28498575091362,-0.5369566082954407,0.3185080289840698,-1.5877676010131836
474,593393,593394,-0.0700274184346199,0.017234012484550476,1.0172418355941772,12.912209510803223,20.625478744506836,3.931140184402466,-0.7409629225730896,1.475926160812378,0.28798559308052063,-0.7092947959899902,0.5370848774909973,-1.5119268894195557
475,593403,593404,0.06226103752851486,0.03058035299181938,1.0037217140197754,10.792057991027832,15.130373001098633,2.620797872543335,-0.7394630312919617,1.4654266834259033,0.28948551416397095,-0.9110659956932068,0.7204675078392029,-1.4558922052383423
