,timestamp_start,timestamp_end,acc.x,acc.y,acc.z,gyro.x,gyro.y,gyro.z,mag.x,mag.y,mag.z,stabilizer.pitch,stabilizer.roll,stabilizer.yaw
0,151872,151873,-0.1471669226884842,0.06399545073509216,1.039616346359253,-30.15178680419922,70.01638793945312,27.26060676574707,-0.7529623508453369,1.4519274234771729,0.2759861946105957,-0.17954447865486145,-0.3486359119415283,3.522369861602783
1,151882,151883,-0.066480852663517,0.08519736677408218,0.9829534888267517,-18.977529525756836,52.40352249145508,31.90158462524414,-0.7469626665115356,1.4429278373718262,0.28498575091362,-0.8877805471420288,-0.7146265506744385,3.791195869445801
2,151892,151893,-0.07065916061401367,-0.01541783008724451,0.9820826053619385,-17.064937591552734,29.30307960510254,34.97980499267578,-0.7514623999595642,1.435428261756897,0.27148643136024475,-1.4347959756851196,-0.729173481464386,4.089937686920166
3,151902,151903,-0.0730302631855011,-0.013466865755617619,1.0089635848999023,-25.008691787719727,-4.454948425292969,36.16972732543945,-0.7454627156257629,1.4414279460906982,0.28948551416397095,-1.5704433917999268,-0.8793126940727234,4.46628999710083
4,151912,151913,-0.11085612326860428,0.10016515105962753,0.9885541796684265,-47.434078216552734,-41.94115447998047,33.45063400268555,-0.7559621930122375,1.4429278373718262,0.27898603677749634,-1.2943528890609741,-1.057244062423706,4.86756706237793
5,151922,151923,-0.07113856077194214,0.08744896948337555,0.9545673131942749,-68.25017547607422,-59.72030258178711,28.912813186645508,-0.7544622421264648,1.4294284582138062,0.2864856719970703,-0.8739270567893982,-1.2908060550689697,5.205643653869629
6,151932,151933,-0.11755804717540741,0.11209207773208618,0.998644232749939,-78.8776626586914,-59.32537078857422,18.92371940612793,-0.7454627156257629,1.435428261756897,0.2744862735271454,-0.08879153430461884,-2.476731300354004,5.530690670013428
7,151942,151943,-0.08465839177370071,0.028842801228165627,0.9674303531646729,-75.39427947998047,-57.74091339111328,8.99648666381836,-0.7484625577926636,1.435428261756897,0.277486115694046,0.3877059817314148,-3.015735149383545,5.7190117835998535
8,151952,151953,-0.14366701245307922,0.02224067412316799,0.9896243214607239,-45.78449249267578,-47.366783142089844,5.9582743644714355,-0.7244637608528137,1.4414279460906982,0.277486115694046,1.118464708328247,-3.8854904174804688,5.864925384521484
9,151962,151963,-0.09238685667514801,-0.029310189187526703,0.9868045449256897,-3.921311378479004,-17.74785041809082,8.989229202270508,-0.7394630312919617,1.444427728652954,0.2864856719970703,1.4859915971755981,-4.148924350738525,5.948520183563232
10,151972,151973,-0.17042291164398193,0.08688439428806305,0.9509374499320984,34.58200454711914,9.649121284484863,7.722156524658203,-0.7349632382392883,1.4489275217056274,0.27898603677749634,1.688485026359558,-4.183916091918945,6.054275989532471
11,151982,151983,-0.12748482823371887,0.017808446660637856,0.9684540033340454,65.03650665283203,36.3248291015625,5.159316539764404,-0.7394630312919617,1.4534273147583008,0.2834858298301697,1.401153564453125,-3.5309033393859863,6.092577934265137
12,151992,151993,-0.11024642735719681,-0.006472049746662378,1.0739175081253052,81.53596496582031,55.82242202758789,5.108462333679199,-0.7469626665115356,1.445927619934082,0.28498575091362,0.9353034496307373,-2.8187360763549805,6.118999004364014
13,152002,152003,-0.12979181110858917,0.005597864277660847,1.0855743885040283,75.7628173828125,64.68788146972656,6.992164134979248,-0.7499625086784363,1.4549272060394287,0.28198590874671936,0.2482692301273346,-1.993956446647644,6.153632640838623
14,152012,152013,-0.09037299454212189,-0.023690002039074898,1.009265422821045,49.99077606201172,59.1724739074707,10.956127166748047,-0.7574620842933655,1.435428261756897,0.2864856719970703,-0.41561490297317505,-1.538599967956543,6.2435383796691895
15,152022,152023,-0.02398010343313217,0.009460458531975746,0.850653886795044,7.936605930328369,30.785377502441406,4.27037239074707,-0.7619618773460388,1.421928882598877,0.26998651027679443,-0.9358416199684143,-1.0847582817077637,6.3290300369262695
16,152032,152033,-0.0647776871919632,-0.002655226970091462,0.8173491358757019,-32.843902587890625,-3.902649164199829,-8.271236419677734,-0.7439627647399902,1.4279285669326782,0.28498575091362,-1.107102632522583,-1.103755235671997,6.3468017578125
17,152042,152043,-0.05085160583257675,0.0025735883973538876,0.8405381441116333,-43.46702194213867,-32.239906311035156,-15.748393058776855,-0.7469626665115356,1.4309284687042236,0.27898603677749634,-1.0996376276016235,-1.4912136793136597,6.266879081726074
18,152052,152053,-0.06243301182985306,0.09890149533748627,0.9032639861106873,-34.90076446533203,-64.21517181396484,-21.045495986938477,-0.7454627156257629,1.4384280443191528,0.2744862735271454,-0.5361940264701843,-1.948874592781067,6.107734203338623
19,152062,152063,-0.033928968012332916,-0.014313038438558578,1.0253344774246216,-15.442525863647461,-85.85302734375,-23.58903694152832,-0.736463189125061,1.4414279460906982,0.2744862735271454,0.29924276471138,-2.3347816467285156,5.919280052185059
20,152072,152073,-0.10104093700647354,-0.03236742317676544,1.0793229341506958,14.278904914855957,-82.10139465332031,-21.729970932006836,-0.7499625086784363,1.445927619934082,0.27898603677749634,0.9525112509727478,-2.4014902114868164,5.726185321807861
21,152082,152083,-0.15132980048656464,0.030725248157978058,1.0558462142944336,38.87547302246094,-58.67763900756836,-20.21816635131836,-0.7424628734588623,1.4504274129867554,0.2864856719970703,1.8265756368637085,-1.834903597831726,5.515281677246094
22,152092,152093,-0.1088341623544693,-0.02249952405691147,0.9364357590675354,46.43336486816406,-22.399446487426758,-20.999422073364258,-0.722963809967041,1.436928153038025,0.28498575091362,2.243720293045044,-1.5152777433395386,5.34199857711792
23,152102,152103,-0.07411832362413406,-0.009285391308367252,0.957425057888031,43.54485321044922,22.203033447265625,-23.160192489624023,-0.7259637117385864,1.436928153038025,0.2759861946105957,2.217528820037842,-0.9982388019561768,5.137798309326172
24,152112,152113,-0.14157363772392273,0.011182188987731934,1.0145505666732788,37.21718978881836,58.02780532836914,-23.390735626220703,-0.7454627156257629,1.4414279460906982,0.2834858298301697,1.9494729042053223,-0.48154351115226746,4.8894548416137695
25,152122,152123,-0.1656552404165268,0.016080183908343315,0.983494222164154,9.090620040893555,84.31023406982422,-16.75848388671875,-0.7409629225730896,1.4429278373718262,0.28498575091362,1.3972316980361938,-0.24776074290275574,4.677362442016602
26,152132,152133,-0.04519929364323616,0.020631616935133934,0.9842479825019836,-27.90346908569336,108.6080093383789,-7.489949703216553,-0.7544622421264648,1.4384280443191528,0.2744862735271454,0.2702992856502533,-0.2851950228214264,4.537195205688477
27,152142,152143,-0.052763767540454865,-0.04718794301152229,0.9936450123786926,-47.22373580932617,100.43534088134766,0.48774218559265137,-0.7709614634513855,1.4669265747070312,0.28198590874671936,-0.6849654316902161,-0.6213692426681519,4.470937728881836
28,152152,152153,-0.06535080820322037,-0.10496946424245834,0.987837016582489,-60.37251281738281,70.39166259765625,6.552209377288818,-0.7514623999595642,1.459426999092102,0.2834858298301697,-1.8039700984954834,-1.1639831066131592,4.471753120422363
29,152162,152163,-0.07228972762823105,-0.0919317677617073,0.9669691324234009,-57.92225646972656,32.44381332397461,5.82709264755249,-0.7709614634513855,1.4639267921447754,0.27898603677749634,-2.202418327331543,-1.6765962839126587,4.521236896514893
30,152172,152173,-0.1102403849363327,0.08728569746017456,1.0369789600372314,-36.75603485107422,-4.027473449707031,3.603273630142212,-0.7484625577926636,1.4294284582138062,0.27148643136024475,-2.395047903060913,-2.306891679763794,4.579325199127197
31,152182,152183,-0.06808953732252121,0.13507939875125885,1.0013242959976196,1.907767653465271,-37.581424713134766,4.118410587310791,-0.7574620842933655,1.435428261756897,0.277486115694046,-2.24611496925354,-2.4155514240264893,4.613363742828369
32,152192,152193,-0.07541836053133011,0.0773974061012268,1.0122278928756714,39.602081298828125,-58.78532409667969,9.06911563873291,-0.7514623999595642,1.4474276304244995,0.28048595786094666,-1.5812900066375732,-2.274009943008423,4.687017440795898
33,152202,152203,-0.1549936830997467,0.09478924423456192,1.0025665760040283,72.73124694824219,-57.900150299072266,16.9819278717041,-0.7619618773460388,1.4399279356002808,0.27898603677749634,-1.1010735034942627,-1.716975450515747,4.8055338859558105
34,152212,152213,-0.07254982739686966,0.10127699375152588,0.848236083984375,92.64301300048828,-53.32383346557617,23.697084426879883,-0.7469626665115356,1.4309284687042236,0.27898603677749634,-0.7153224945068359,-1.0652246475219727,4.990633487701416
35,152222,152223,-0.07212578505277634,0.09140772372484207,0.9435927271842957,82.60619354248047,-47.61020278930664,27.416000366210938,-0.7499625086784363,1.4249287843704224,0.28198590874671936,-0.05910027027130127,-0.03584345802664757,5.242247581481934
36,152232,152233,-0.11039744317531586,-0.0005453703925013542,0.8949687480926514,57.486019134521484,-45.681861877441406,26.350486755371094,-0.7469626665115356,1.4189289808273315,0.2939853072166443,0.3079901337623596,0.5209957957267761,5.500210285186768
37,152242,152243,-0.08824405819177628,0.062460627406835556,0.9004162549972534,27.05389976501465,-44.349369049072266,21.498260498046875,-0.7394630312919617,1.4234287738800049,0.2654867172241211,0.8771308660507202,1.2217576503753662,5.757483959197998
38,152252,152253,-0.10874402523040771,0.033623043447732925,1.050403118133545,-4.092136383056641,-37.88102340698242,18.416837692260742,-0.7274636030197144,1.4114294052124023,0.2834858298301697,1.2504903078079224,1.3424283266067505,5.953042030334473
39,152262,152263,-0.051269467920064926,-0.10384413599967957,0.888077974319458,-22.12860679626465,-16.883398056030273,15.642664909362793,-0.737963080406189,1.3979300260543823,0.28798559308052063,1.5646584033966064,1.1352390050888062,6.122501850128174
40,152272,152273,-0.03957812488079071,0.020255008712410927,0.8593569993972778,-33.49217224121094,6.590822219848633,10.592392921447754,-0.7334632873535156,1.408429503440857,0.28048595786094666,1.6695497035980225,0.8896499872207642,6.267004489898682
41,152282,152283,-0.0363490991294384,0.04492304101586342,1.033644437789917,-22.750831604003906,23.03205108642578,8.528407096862793,-0.7349632382392883,1.421928882598877,0.27298635244369507,1.545578956604004,0.5511549115180969,6.364596366882324
42,152292,152293,-0.01523661520332098,0.03566036373376846,0.8340924978256226,-15.741264343261719,31.861690521240234,5.524627685546875,-0.7334632873535156,1.4234287738800049,0.2744862735271454,1.1172308921813965,0.4075775146484375,6.406315803527832
43,152302,152303,-0.0019922831561416388,-0.0017852828605100513,0.9677872061729431,-18.868576049804688,28.560535430908203,2.9702210426330566,-0.7514623999595642,1.4234287738800049,0.2834858298301697,0.7037563323974609,0.3133503496646881,6.431807994842529
44,152312,152313,-0.053492769598960876,0.14022259414196014,0.9241559505462646,-23.78666877746582,13.799352645874023,2.5506885051727295,-0.7409629225730896,1.4309284687042236,0.27898603677749634,0.33456116914749146,0.061425209045410156,6.44892692565918
45,152322,152323,-0.024174517020583153,-0.0491800494492054,0.9134734869003296,-28.864540100097656,-5.396510124206543,0.49481022357940674,-0.7484625577926636,1.4264286756515503,0.277486115694046,0.19629018008708954,-0.09433746337890625,6.456949710845947
46,152332,152333,0.007610192056745291,-0.055822502821683884,0.9032309651374817,-26.14903450012207,-20.03316879272461,0.7741491198539734,-0.7409629225730896,1.4339282512664795,0.29098543524742126,0.38078001141548157,-0.30844080448150635,6.4836015701293945
47,152342,152343,-0.015510312281548977,-0.022607844322919846,1.0724997520446777,-11.499876022338867,-30.4836368560791,4.0085225105285645,-0.7439627647399902,1.436928153038025,0.2939853072166443,0.49227821826934814,-0.668319582939148,6.483290672302246
48,152352,152353,-0.06584642082452774,-0.037415191531181335,1.0313562154769897,-4.542659282684326,-27.206607818603516,6.55291223526001,-0.736463189125061,1.435428261756897,0.28048595786094666,0.8991156816482544,-0.7748318910598755,6.555902481079102
49,152362,152363,-0.0747716948390007,-0.10064905881881714,1.038674235343933,-10.419381141662598,-10.332112312316895,7.399637222290039,-0.7589620351791382,1.4339282512664795,0.29098543524742126,0.7856855988502502,-0.6064319610595703,6.515350341796875
50,152372,152373,-0.11854959279298782,0.0358751118183136,1.0067129135131836,-14.39744758605957,9.927678108215332,6.670491695404053,-0.736463189125061,1.444427728652954,0.2834858298301697,0.8907048106193542,-0.7485364079475403,6.602993965148926
51,152382,152383,-0.06621018797159195,0.0018575299764052033,1.0528663396835327,-19.17469024658203,23.613182067871094,7.187370300292969,-0.7544622421264648,1.435428261756897,0.2834858298301697,0.7007424831390381,-0.8249810338020325,6.643934726715088
52,152392,152393,-0.05636902153491974,-0.005004215519875288,1.0403521060943604,-18.80541229248047,32.28144836425781,7.331207275390625,-0.7604619860649109,1.444427728652954,0.277486115694046,0.4341330826282501,-1.0998667478561401,6.716731071472168
53,152402,152403,-0.09320978820323944,0.02876354567706585,1.162434697151184,-26.72329330444336,21.567649841308594,4.654646396636963,-0.7409629225730896,1.4489275217056274,0.28498575091362,0.013910016044974327,-1.2136784791946411,6.742309093475342
54,152412,152413,-0.07860665768384933,0.16759715974330902,1.1346304416656494,-23.068124771118164,9.342321395874023,4.830018043518066,-0.7349632382392883,1.4309284687042236,0.28198590874671936,-0.22554625570774078,-1.3837010860443115,6.772282600402832
55,152422,152423,-0.03719014301896095,-0.06383103132247925,1.1464945077896118,-11.622871398925781,1.2286180257797241,6.02730131149292,-0.7454627156257629,1.4414279460906982,0.28948551416397095,-0.269992858171463,-1.800714373588562,6.841299533843994
56,152432,152433,-0.02356046997010708,0.01584821753203869,0.9686442017555237,-5.950943946838379,-3.7744765281677246,9.423068046569824,-0.7469626665115356,1.4309284687042236,0.2939853072166443,-0.2121639996767044,-1.66319739818573,6.8918890953063965
57,152442,152443,-0.05145935341715813,0.10652937740087509,0.8537525534629822,-6.049659729003906,-6.292552471160889,5.067202568054199,-0.7334632873535156,1.4234287738800049,0.28948551416397095,-0.13939248025417328,-1.80765962600708,6.996674537658691
58,152452,152453,-0.045104969292879105,0.0702594667673111,0.9275500774383545,-7.160373687744141,-12.876962661743164,-6.093046188354492,-0.7349632382392883,1.4279285669326782,0.28798559308052063,0.030182724818587303,-1.8215769529342651,7.051729202270508
59,152462,152463,-0.07575670629739761,0.0869068130850792,1.0351910591125488,2.4365034103393555,-22.20556640625,-14.698537826538086,-0.737963080406189,1.436928153038025,0.28198590874671936,0.1184019222855568,-1.9634579420089722,6.991075038909912
60,152472,152473,-0.046472594141960144,0.05026065930724144,0.9711524248123169,21.537569046020508,-19.589826583862305,-17.877342224121094,-0.7439627647399902,1.421928882598877,0.28498575091362,0.3885176479816437,-1.8941761255264282,6.855009078979492
61,152482,152483,-0.04388802871108055,-0.14121390879154205,1.0344666242599487,35.27759552001953,-17.162548065185547,-18.858484268188477,-0.7484625577926636,1.4264286756515503,0.28048595786094666,0.35706913471221924,-1.5491341352462769,6.651705741882324
62,152492,152493,-0.17667695879936218,0.08795062452554703,0.9902277588844299,44.46681213378906,-20.093191146850586,-17.686796188354492,-0.737963080406189,1.4279285669326782,0.30898454785346985,0.6940464973449707,-1.0361886024475098,6.470130920410156
63,152502,152503,-0.08165755122900009,0.02487758919596672,0.915752112865448,38.4963264465332,-17.23745346069336,-15.839509963989258,-0.737963080406189,1.4189289808273315,0.2759861946105957,0.8715601563453674,-0.7794749736785889,6.311851501464844
64,152512,152513,-0.12944892048835754,0.014362117275595665,0.9517595767974854,26.021076202392578,-8.359721183776855,-11.293943405151367,-0.7274636030197144,1.4144293069839478,0.28048595786094666,1.0630632638931274,-0.2734166085720062,6.151008129119873
65,152522,152523,-0.12289801239967346,0.08439084887504578,0.967657744884491,9.351119995117188,9.082989692687988,-2.4628069400787354,-0.7259637117385864,1.4189289808273315,0.29098543524742126,1.1140514612197876,-0.05969579145312309,6.053017616271973
66,152532,152533,-0.07805465906858444,0.006812882609665394,0.8924331665039062,-3.9412894248962402,17.892961502075195,3.396819829940796,-0.737963080406189,1.4399279356002808,0.28498575091362,0.8141027092933655,-0.09668869525194168,6.032741546630859
67,152542,152543,-0.09853362292051315,-0.006267156917601824,0.9334033131599426,-23.52817153930664,13.921558380126953,6.931610584259033,-0.730463445186615,1.4294284582138062,0.2834858298301697,0.620485782623291,-0.2274574488401413,6.072814464569092
68,152552,152553,-0.0679439827799797,-0.025762101635336876,0.8310725688934326,-34.868221282958984,6.893354415893555,7.418979644775391,-0.7349632382392883,1.4399279356002808,0.29098543524742126,0.48741641640663147,-0.5709725618362427,6.152013301849365
69,152562,152563,-0.11435531079769135,0.14091600477695465,0.9094732999801636,-38.302528381347656,-10.63092041015625,5.08888053894043,-0.7424628734588623,1.435428261756897,0.2954852283000946,0.5037106275558472,-0.9559265375137329,6.23330545425415
70,152572,152573,-0.04491732269525528,-0.01922708936035633,0.8762831687927246,-24.08054542541504,-28.182090759277344,4.020872592926025,-0.737963080406189,1.436928153038025,0.28198590874671936,0.6458232998847961,-1.206160545349121,6.27616548538208
71,152582,152583,-0.05790019407868385,-0.09723091125488281,0.910747230052948,0.135702982544899,-38.44526290893555,2.7545230388641357,-0.736463189125061,1.444427728652954,0.2864856719970703,0.9251335859298706,-1.3509340286254883,6.312911510467529
72,152592,152593,-0.08931058645248413,0.009961145929992199,1.094066858291626,30.37618637084961,-40.60477066040039,2.4876298904418945,-0.736463189125061,1.444427728652954,0.2864856719970703,1.4044795036315918,-1.2775547504425049,6.352367401123047
73,152602,152603,-0.07770171016454697,-0.06269749253988266,1.0058542490005493,55.886558532714844,-31.183061599731445,6.4551591873168945,-0.736463189125061,1.444427728652954,0.2864856719970703,1.6540329456329346,-0.7354795336723328,6.349859714508057
74,152612,152613,-0.0817461907863617,-0.049292560666799545,1.00689697265625,56.1939811706543,-21.842771530151367,11.621018409729004,-0.736463189125061,1.444427728652954,0.2864856719970703,1.947198510169983,-0.27871057391166687,6.433987140655518
75,152622,152623,-0.09169677644968033,-0.026923462748527527,1.0796564817428589,35.42829895019531,-11.0172119140625,18.968412399291992,-0.7199639678001404,1.445927619934082,0.28198590874671936,2.22755765914917,0.33337855339050293,6.548259258270264
76,152632,152633,-0.04570820927619934,0.06473951041698456,1.0204652547836304,-7.192733287811279,1.1942651271820068,24.739439010620117,-0.7274636030197144,1.435428261756897,0.28948551416397095,2.290640354156494,0.49933525919914246,6.764890193939209
77,152642,152643,-0.06106005236506462,-0.06965317577123642,0.9800980687141418,-51.500091552734375,11.688672065734863,29.733230590820312,-0.722963809967041,1.436928153038025,0.28798559308052063,2.165680408477783,0.2277621477842331,7.032286643981934
78,152652,152653,-0.02215166762471199,0.0637483298778534,1.0107862949371338,-88.22638702392578,10.592823028564453,33.17200469970703,-0.7274636030197144,1.4474276304244995,0.2864856719970703,1.9611796140670776,-0.37009215354919434,7.336025714874268
79,152662,152663,-0.02955268695950508,-0.0004845958319492638,1.1465530395507812,-97.04396057128906,-1.8516299724578857,33.38765335083008,-0.7169641256332397,1.445927619934082,0.28498575091362,1.7458873987197876,-1.1127088069915771,7.613193035125732
80,152672,152673,-0.0511464923620224,0.0901242345571518,1.0799387693405151,-70.04928588867188,-6.54994535446167,34.02311706542969,-0.7244637608528137,1.444427728652954,0.2954852283000946,1.7232609987258911,-2.288498878479004,8.000144004821777
81,152682,152683,-0.049513183534145355,0.027121160179376602,1.1944013833999634,-27.820215225219727,-6.53206729888916,31.523115158081055,-0.7154642343521118,1.4384280443191528,0.28048595786094666,1.8523181676864624,-2.683566093444824,8.280818939208984
82,152692,152693,-0.09316138178110123,0.06617588549852371,1.0701395273208618,12.996374130249023,-5.2515764236450195,28.954105377197266,-0.7199639678001404,1.4309284687042236,0.2759861946105957,1.9148426055908203,-2.9621636867523193,8.608821868896484
83,152702,152703,-0.09226831048727036,0.0714661255478859,0.9747473001480103,37.75925827026367,-5.354650974273682,27.466575622558594,-0.7319633960723877,1.4339282512664795,0.29998499155044556,1.8571090698242188,-2.622011423110962,8.847058296203613
84,152712,152713,-0.03930838406085968,-0.012195565737783909,1.088538408279419,49.21784973144531,-8.556479454040527,26.395578384399414,-0.7274636030197144,1.4414279460906982,0.2924853563308716,1.8829025030136108,-2.1267383098602295,9.088356971740723
85,152722,152723,-0.001079543144442141,-0.031034400686621666,0.9653222560882568,41.60630798339844,-11.801054954528809,26.38975715637207,-0.7169641256332397,1.436928153038025,0.28798559308052063,2.010680675506592,-1.638800859451294,9.352031707763672
86,152732,152733,-0.004599741660058498,0.08901111781597137,0.8291833400726318,36.217777252197266,-1.692815899848938,23.77734375,-0.7169641256332397,1.4249287843704224,0.2969851493835449,2.1767706871032715,-1.355323076248169,9.6493501663208
87,152742,152743,-0.035903170704841614,0.06882625818252563,1.0596925020217896,29.355628967285156,4.215782642364502,21.372373580932617,-0.7019649147987366,1.436928153038025,0.28498575091362,2.103325843811035,-0.934449315071106,9.857429504394531
88,152752,152753,0.001114781596697867,0.03862510621547699,0.8250110745429993,3.268918037414551,2.83247709274292,19.767791748046875,-0.7154642343521118,1.4144293069839478,0.2864856719970703,2.0677192211151123,-0.9176535606384277,10.139213562011719
89,152762,152763,-0.03257294371724129,0.03334038332104683,0.8840365409851074,-28.026269912719727,0.19133226573467255,16.65796661376953,-0.7109644412994385,1.4309284687042236,0.29098543524742126,1.9890565872192383,-0.9813721179962158,10.347321510314941
90,152772,152773,-0.03647715225815773,0.05708906054496765,0.9338884949684143,-48.52544021606445,-0.3096766471862793,12.461173057556152,-0.7064646482467651,1.4324283599853516,0.2834858298301697,2.0323994159698486,-1.3643401861190796,10.528498649597168
91,152782,152783,0.02992364764213562,0.07418687641620636,0.7951768040657043,-55.39981460571289,4.738341808319092,7.388616561889648,-0.7139642834663391,1.4339282512664795,0.27898603677749634,1.8557511568069458,-1.9340418577194214,10.675539016723633
92,152792,152793,0.03795609250664711,0.020875530317425728,0.9280983209609985,-46.41328430175781,9.811751365661621,1.3872226476669312,-0.7349632382392883,1.4429278373718262,0.28198590874671936,1.7864233255386353,-2.5498905181884766,10.761984825134277
93,152802,152803,-0.010371259413659573,0.03910795971751213,0.9328282475471497,-25.534015655517578,17.581281661987305,-3.050114631652832,-0.7139642834663391,1.4549272060394287,0.2939853072166443,1.682029366493225,-2.9873054027557373,10.759608268737793
94,152812,152813,-0.07488486170768738,0.10181448608636856,0.8375730514526367,3.282205820083618,24.70638656616211,-8.589397430419922,-0.722963809967041,1.445927619934082,0.28798559308052063,1.4423125982284546,-2.9418513774871826,10.638725280761719
95,152822,152823,-0.030788734555244446,0.08383578807115555,0.8717222213745117,27.752565383911133,25.47797966003418,-14.496227264404297,-0.7244637608528137,1.4384280443191528,0.2924853563308716,1.0874226093292236,-2.9426183700561523,10.560181617736816
96,152832,152833,0.0025653280317783356,-0.01503563392907381,0.9630144834518433,35.365901947021484,4.569199085235596,-23.637466430664062,-0.7334632873535156,1.4414279460906982,0.2864856719970703,0.88144850730896,-2.647332191467285,10.391037940979004
97,152842,152843,0.01005598809570074,-0.10651419311761856,1.053626537322998,30.549840927124023,-21.072607040405273,-32.16401290893555,-0.737963080406189,1.4519274234771729,0.2969851493835449,0.8579508066177368,-2.2940568923950195,10.141694068908691
98,152852,152853,-0.057898517698049545,0.023891396820545197,0.8352130055427551,28.294414520263672,-42.06440734863281,-39.15422058105469,-0.7469626665115356,1.4519274234771729,0.29098543524742126,1.128511905670166,-2.0152587890625,9.832436561584473
99,152862,152863,-0.010922309942543507,-0.05629459768533707,1.0756189823150635,26.493078231811523,-48.05668258666992,-44.353736877441406,-0.7349632382392883,1.4519274234771729,0.29998499155044556,1.6403224468231201,-1.712060809135437,9.437248229980469
100,152872,152873,0.04321088269352913,-0.0025589745491743088,1.0540295839309692,26.244972229003906,-36.21230697631836,-48.546417236328125,-0.7184640765190125,1.4564270973205566,0.2924853563308716,2.020016670227051,-1.491902470588684,9.029757499694824
101,152882,152883,0.003253152361139655,0.012921284884214401,1.078390121459961,24.487791061401367,-17.871923446655273,-51.08722686767578,-0.7319633960723877,1.4639267921447754,0.2969851493835449,2.3867645263671875,-1.3698418140411377,8.58971881866455
102,152892,152893,0.009348465129733086,-0.1664465069770813,1.05178964138031,28.40549087524414,5.61350154876709,-53.43990707397461,-0.7439627647399902,1.4579271078109741,0.3059847056865692,2.461376428604126,-0.9166045188903809,8.043030738830566
103,152902,152903,-0.039612673223018646,0.05034400150179863,0.9562321305274963,40.12626266479492,21.719486236572266,-52.93940734863281,-0.7334632873535156,1.4654266834259033,0.30748462677001953,2.3855533599853516,-0.6977803707122803,7.539981365203857
104,152912,152913,-0.019677169620990753,-0.04643489792943001,1.049027681350708,45.78013229370117,25.56201171875,-53.502708435058594,-0.7529623508453369,1.4519274234771729,0.3029848337173462,1.9635202884674072,-0.3253943920135498,7.045925617218018
105,152922,152923,-0.05326857045292854,0.06126001104712486,0.9598584175109863,44.45798110961914,17.970584869384766,-54.37871170043945,-0.7334632873535156,1.459426999092102,0.3014849126338959,1.6598193645477295,0.08581066131591797,6.537524700164795
106,152932,152933,-0.05913379415869713,0.04770505428314209,1.1796201467514038,41.44187545776367,2.72562575340271,-52.55683898925781,-0.7484625577926636,1.4504274129867554,0.31048446893692017,1.392356038093567,0.7175147533416748,5.957243919372559
107,152942,152943,0.008288068696856499,-0.11396308988332748,1.0955203771591187,34.31465148925781,-10.98989486694336,-48.338924407958984,-0.7424628734588623,1.4324283599853516,0.3044847846031189,1.4999226331710815,1.002100944519043,5.462437152862549
108,152952,152953,0.0001675212406553328,0.03707444667816162,1.1179875135421753,22.490814208984375,-14.335148811340332,-42.889225006103516,-0.7289635539054871,1.4399279356002808,0.2969851493835449,1.5501285791397095,1.340367317199707,4.9903178215026855
109,152962,152963,-0.06472805887460709,0.045546919107437134,1.0676349401474,8.585769653320312,-1.0526225566864014,-35.75365447998047,-0.7424628734588623,1.4294284582138062,0.28948551416397095,1.7059117555618286,1.5436440706253052,4.5711469650268555
110,152972,152973,-0.034281570464372635,0.04616054892539978,1.0073522329330444,0.9696356058120728,22.900440216064453,-29.47113609313965,-0.7334632873535156,1.444427728652954,0.2954852283000946,1.6818689107894897,1.747090458869934,4.190174579620361
111,152982,152983,-0.03264394402503967,0.006997115910053253,1.0094127655029297,-7.085310459136963,35.366676330566406,-25.478294372558594,-0.7409629225730896,1.4309284687042236,0.29998499155044556,1.3391211032867432,1.5945606231689453,3.9355859756469727
112,152992,152993,-0.09330365061759949,-0.03367576375603676,1.0543171167373657,-17.6641902923584,34.43871307373047,-26.24871063232422,-0.7499625086784363,1.4399279356002808,0.28798559308052063,0.8540903329849243,1.8087424039840698,3.608701229095459
113,153002,153003,-0.11810377985239029,-0.09898378700017929,0.931381106376648,-22.777774810791016,29.4033260345459,-29.478416442871094,-0.737963080406189,1.4339282512664795,0.28498575091362,0.45337703824043274,1.6295514106750488,3.3492274284362793
114,153012,153013,-0.00970026571303606,-0.015399881638586521,0.9283435940742493,-17.263168334960938,13.184063911437988,-32.48457717895508,-0.7439627647399902,1.436928153038025,0.29998499155044556,0.07270924746990204,1.3135169744491577,3.068866729736328
115,153022,153023,0.02481875568628311,0.06215861439704895,1.0119082927703857,1.674255609512329,-15.134540557861328,-35.27912521362305,-0.730463445186615,1.435428261756897,0.29848507046699524,-0.03667197749018669,1.1639351844787598,2.752192258834839
116,153032,153033,-0.013541256077587605,0.02241755649447441,1.0728974342346191,22.13794708251953,-48.30918884277344,-35.655853271484375,-0.7499625086784363,1.4159291982650757,0.28498575091362,0.3082222044467926,1.449264407157898,2.406914710998535
117,153042,153043,-0.05901570990681648,-0.005168149713426828,1.0809375047683716,43.98495864868164,-75.34552764892578,-32.7101936340332,-0.7499625086784363,1.4249287843704224,0.28798559308052063,0.5102753043174744,1.6634368896484375,1.972981572151184
118,153052,153053,-0.10891822725534439,-0.07142548263072968,1.134117841720581,55.74364471435547,-81.7644271850586,-25.91339111328125,-0.736463189125061,1.4324283599853516,0.28948551416397095,1.4728447198867798,2.1824986934661865,1.6721127033233643
119,153062,153063,-0.08421776443719864,-0.07738491892814636,1.1349691152572632,54.40864944458008,-58.50394821166992,-15.37763786315918,-0.730463445186615,1.4174290895462036,0.28048595786094666,2.0761806964874268,2.760817527770996,1.3287192583084106
120,153072,153073,-0.02110804244875908,0.01565808802843094,1.0146496295928955,27.502113342285156,-17.953929901123047,-5.755192756652832,-0.7334632873535156,1.4114294052124023,0.30748462677001953,2.8738393783569336,3.6345410346984863,1.1790645122528076
121,153082,153083,-0.044873129576444626,-0.005820746533572674,0.9894440770149231,-14.861566543579102,30.342710494995117,-0.247243270277977,-0.7199639678001404,1.4129292964935303,0.28798559308052063,2.786550998687744,3.5812172889709473,1.0784820318222046
122,153092,153093,-0.05806922912597656,-0.009682141244411469,0.9916644096374512,-59.89387130737305,66.94772338867188,0.596748411655426,-0.7289635539054871,1.4339282512664795,0.28498575091362,2.3111729621887207,3.328836679458618,1.0467149019241333
123,153102,153103,-0.029231369495391846,0.05848222225904465,1.0135457515716553,-90.46610260009766,76.27284240722656,3.084514617919922,-0.737963080406189,1.4429278373718262,0.27298635244369507,1.4273858070373535,2.7201755046844482,1.005609393119812
124,153112,153113,-0.04571344703435898,-0.011302636004984379,0.8964937329292297,-108.15727996826172,58.47632598876953,5.1982221603393555,-0.736463189125061,1.4624269008636475,0.3044847846031189,0.6681548953056335,1.769731044769287,1.0693608522415161
125,153122,153123,0.010760736651718616,0.02777758799493313,0.9412379264831543,-102.44291687011719,25.451427459716797,4.0691423416137695,-0.736463189125061,1.4714263677597046,0.30748462677001953,0.09462833404541016,0.785239040851593,1.1168549060821533
126,153132,153133,0.0042069233022630215,0.013912947848439217,0.9242340326309204,-77.1198501586914,-4.885375499725342,1.2246257066726685,-0.7334632873535156,1.4504274129867554,0.29848507046699524,-0.025478266179561615,-0.08020947128534317,1.1995266675949097
127,153142,153143,0.004248891491442919,0.04807664453983307,0.9112016558647156,-40.55144500732422,-31.876218795776367,-1.7154608964920044,-0.7319633960723877,1.4429278373718262,0.28798559308052063,0.10375075787305832,-0.8347309231758118,1.2471387386322021
128,153152,153153,-0.02303599752485752,0.08412633836269379,1.081768274307251,0.2038123458623886,-50.96236038208008,-2.041966199874878,-0.7289635539054871,1.4429278373718262,0.2969851493835449,0.44179874658584595,-1.2914822101593018,1.2481534481048584
129,153162,153163,0.01739216409623623,0.1396217942237854,1.0351848602294922,36.794403076171875,-54.48176574707031,0.28895294666290283,-0.7349632382392883,1.4699264764785767,0.2939853072166443,1.2120064496994019,-1.2185626029968262,1.3476840257644653
130,153172,153173,-0.023363498970866203,0.05229944363236427,0.9745419025421143,54.382320404052734,-44.175785064697266,2.0159859657287598,-0.7154642343521118,1.4564270973205566,0.28948551416397095,1.4533239603042603,-0.560602605342865,1.2316868305206299
131,153182,153183,0.010844376869499683,0.05313421040773392,1.0008673667907715,51.30940628051758,-25.81996726989746,2.908686876296997,-0.730463445186615,1.4564270973205566,0.28948551416397095,1.8830615282058716,0.1345846951007843,1.245514988899231
132,153192,153193,-0.04469282925128937,0.17253486812114716,0.9918341636657715,31.327964782714844,-7.141066551208496,1.610243320465088,-0.7334632873535156,1.4504274129867554,0.277486115694046,2.026355028152466,0.6257321238517761,1.2409632205963135
133,153202,153203,-0.07607129216194153,-0.040903907269239426,0.9037210941314697,-0.7903356552124023,6.631651878356934,-0.9296518564224243,-0.7274636030197144,1.4414279460906982,0.28948551416397095,2.011592149734497,1.047998309135437,1.2206343412399292
134,153212,153213,-0.00956863071769476,0.011504520662128925,0.9676390290260315,-32.655155181884766,10.064279556274414,-3.743269443511963,-0.7199639678001404,1.421928882598877,0.28798559308052063,1.921776294708252,0.7885037660598755,1.2217423915863037
135,153222,153223,-0.0568731427192688,0.037140216678380966,1.0128724575042725,-52.93691635131836,8.213788032531738,-5.869734287261963,-0.7214639186859131,1.4414279460906982,0.277486115694046,1.7706835269927979,0.30772507190704346,1.184472918510437
136,153232,153233,-0.007262534461915493,0.040617089718580246,1.0328757762908936,-60.17200469970703,-1.6267290115356445,-7.734905242919922,-0.7424628734588623,1.4414279460906982,0.277486115694046,1.7451485395431519,-0.19473743438720703,1.1376292705535889
137,153242,153243,0.010868886485695839,-0.01613527163863182,1.121259093284607,-49.973594665527344,-15.350994110107422,-9.871481895446777,-0.7184640765190125,1.459426999092102,0.29848507046699524,1.7336359024047852,-0.7848812341690063,1.049837350845337
138,153252,153253,-0.06283923238515854,0.01600242406129837,1.1009767055511475,-21.727581024169922,-29.817928314208984,-12.391465187072754,-0.7319633960723877,1.46092689037323,0.29098543524742126,2.0277647972106934,-1.2470186948776245,0.9859657287597656
139,153262,153263,-0.06490501016378403,0.014642206020653248,1.0763366222381592,10.374585151672363,-36.64575958251953,-11.637655258178711,-0.722963809967041,1.4399279356002808,0.2939853072166443,2.3864827156066895,-1.455592155456543,0.8878241777420044
140,153272,153273,-0.05893510952591896,-0.0054733059369027615,1.0582630634307861,41.047691345214844,-35.785667419433594,-8.341134071350098,-0.7289635539054871,1.4519274234771729,0.2939853072166443,2.773325204849243,-0.9314141869544983,0.7433799505233765
141,153282,153283,-0.09389274567365646,0.018270457163453102,1.0485122203826904,57.424583435058594,-31.442785263061523,-2.4519176483154297,-0.736463189125061,1.4534273147583008,0.31048446893692017,3.2138428688049316,-0.6234244108200073,0.7055227756500244
142,153292,153293,-0.04538560286164284,0.01570432260632515,1.0167096853256226,42.374855041503906,-17.342504501342773,2.3128490447998047,-0.7199639678001404,1.46092689037323,0.3059847056865692,3.2410049438476562,0.04026975855231285,0.6319293975830078
143,153302,153303,-0.060242827981710434,-0.047602538019418716,0.9733342528343201,-6.62923002243042,-12.944660186767578,1.634835124015808,-0.7274636030197144,1.4474276304244995,0.29848507046699524,3.297619342803955,0.35605567693710327,0.6473705768585205
144,153312,153313,-0.11806200444698334,-0.046933289617300034,0.9647031426429749,-59.21107482910156,-13.43814468383789,-6.221234321594238,-0.7169641256332397,1.4489275217056274,0.29998499155044556,3.461759567260742,0.25537317991256714,0.6497460603713989
145,153322,153323,-0.05031244084239006,0.021225081756711006,0.9334034323692322,-81.46268463134766,-8.17215347290039,-11.691610336303711,-0.7064646482467651,1.459426999092102,0.28948551416397095,3.6135377883911133,-0.5569082498550415,0.6281705498695374
146,153332,153333,-0.03602004796266556,-0.030788879841566086,1.0778816938400269,-58.89973831176758,17.366069793701172,-13.939208984375,-0.7214639186859131,1.4684265851974487,0.30748462677001953,3.543062686920166,-1.3285927772521973,0.4880124628543854
147,153342,153343,-0.05273620784282684,0.05601782351732254,1.036805272102356,-15.93985652923584,46.30305480957031,-12.297372817993164,-0.7289635539054871,1.472926378250122,0.2969851493835449,3.2521369457244873,-1.866264820098877,0.33925890922546387
148,153352,153353,0.013276087120175362,0.014882395975291729,1.1169984340667725,27.716846466064453,65.0714340209961,-9.003514289855957,-0.7274636030197144,1.4804259538650513,0.3044847846031189,2.591846227645874,-1.7690168619155884,0.13376115262508392
149,153362,153363,-0.04905686900019646,-0.0035874508321285248,0.968479573726654,54.8259391784668,71.51152801513672,-3.7226672172546387,-0.7469626665115356,1.4699264764785767,0.29998499155044556,1.8741036653518677,-1.3668709993362427,0.003869318636134267
150,153372,153373,-0.015415547415614128,-0.018773317337036133,0.9565121531486511,55.1112060546875,59.301055908203125,0.09805767238140106,-0.736463189125061,1.4774260520935059,0.30748462677001953,1.171708106994629,-0.7984867691993713,-0.043200764805078506
151,153382,153383,-0.012467315420508385,0.07433868199586868,0.9482505917549133,33.079471588134766,35.03781509399414,1.7171896696090698,-0.737963080406189,1.46092689037323,0.2969851493835449,0.6333438158035278,-0.28829944133758545,-0.03907766565680504
152,153392,153393,0.018313774839043617,0.11967749893665314,0.9869784712791443,10.350912094116211,9.096091270446777,2.8288843631744385,-0.7439627647399902,1.4639267921447754,0.28498575091362,0.34974023699760437,-0.08116482198238373,0.0014142146101221442
153,153402,153403,0.017687972635030746,0.10305189341306686,0.9812501668930054,-10.370651245117188,-13.911741256713867,4.962035179138184,-0.7214639186859131,1.4684265851974487,0.2924853563308716,0.3340863287448883,-0.00989417266100645,0.036845333874225616
154,153412,153413,0.019372252747416496,0.1357482671737671,1.034379482269287,-33.44948196411133,-34.899452209472656,6.680946350097656,-0.7319633960723877,1.4579271078109741,0.29098543524742126,0.6681907773017883,-0.28620409965515137,0.11677460372447968
155,153422,153423,-0.003992632497102022,0.015421579591929913,0.9734318256378174,-47.47631072998047,-52.045875549316406,7.786572456359863,-0.7349632382392883,1.4669265747070312,0.29998499155044556,0.9774761199951172,-0.6343178749084473,0.18465760350227356
156,153432,153433,-0.03281942754983902,-0.04983280971646309,0.9959490299224854,-54.0133171081543,-56.85213088989258,9.331393241882324,-0.7334632873535156,1.459426999092102,0.29848507046699524,1.7039483785629272,-1.2062867879867554,0.28588196635246277
157,153442,153443,-0.05278037488460541,0.1015310287475586,1.0115866661071777,-46.08673095703125,-37.301551818847656,11.874316215515137,-0.7214639186859131,1.4684265851974487,0.2954852283000946,2.0947437286376953,-1.6128264665603638,0.37502408027648926
158,153452,153453,-0.08249267190694809,0.04464463144540787,0.9692907929420471,-40.862613677978516,-17.958850860595703,13.862040519714355,-0.7259637117385864,1.46092689037323,0.29998499155044556,2.5763566493988037,-2.1823387145996094,0.522655725479126
159,153462,153463,-0.06384719908237457,0.04344885051250458,0.9099337458610535,-35.59580612182617,-3.6784117221832275,14.340559959411621,-0.7139642834663391,1.4789260625839233,0.3029848337173462,2.612305164337158,-2.456763505935669,0.6502405405044556
160,153472,153473,-0.07594458013772964,0.060552895069122314,1.0556446313858032,-34.94636535644531,4.93235445022583,12.376811981201172,-0.7244637608528137,1.4714263677597046,0.29848507046699524,2.6990232467651367,-2.9363903999328613,0.8085351586341858
161,153482,153483,-0.026233790442347527,0.024919332936406136,0.9672972559928894,-25.3531436920166,12.942033767700195,11.370232582092285,-0.7289635539054871,1.475926160812378,0.29098543524742126,2.4970171451568604,-3.2262425422668457,0.9269208908081055
162,153492,153493,0.02885418012738228,-0.01742449216544628,1.0240542888641357,-9.664185523986816,21.127458572387695,8.390666961669922,-0.7334632873535156,1.4804259538650513,0.3014849126338959,2.297816038131714,-3.494252920150757,1.0364114046096802
163,153502,153503,-0.01538902334868908,0.15981744229793549,0.9135345816612244,3.8805885314941406,21.373342514038086,4.68264102935791,-0.7334632873535156,1.4804259538650513,0.3044847846031189,1.9896197319030762,-3.373053789138794,1.0822560787200928
164,153512,153513,0.1293967068195343,-0.12057621031999588,1.0969281196594238,13.651058197021484,20.78380012512207,1.3786925077438354,-0.7274636030197144,1.4654266834259033,0.2924853563308716,1.69634211063385,-3.3754003047943115,1.1328680515289307
165,153522,153523,0.04871629551053047,-0.012012967839837074,0.9508658051490784,25.603395462036133,22.483749389648438,-2.3316760063171387,-0.7349632382392883,1.4699264764785767,0.29998499155044556,1.4088971614837646,-3.136138916015625,1.1315574645996094
166,153532,153533,0.006963420193642378,-0.16245512664318085,0.9187750220298767,34.60857391357422,14.331376075744629,-6.123123645782471,-0.7439627647399902,1.475926160812378,0.30898454785346985,1.131453037261963,-2.868422031402588,1.1059118509292603
167,153542,153543,-0.015666358172893524,0.06973203271627426,0.9274536371231079,33.305335998535156,7.802179336547852,-9.98853588104248,-0.7274636030197144,1.4654266834259033,0.3014849126338959,1.1336171627044678,-2.540158748626709,1.0089117288589478
168,153552,153553,0.016874631866812706,-0.09806257486343384,0.9525682330131531,25.758398056030273,9.041500091552734,-14.355236053466797,-0.7334632873535156,1.4714263677597046,0.29848507046699524,1.0696195363998413,-2.1000442504882812,0.8870767951011658
169,153562,153563,-0.06580186635255814,-0.044646017253398895,0.9338523149490356,13.84636402130127,2.1524744033813477,-18.240528106689453,-0.7409629225730896,1.4909254312515259,0.30898454785346985,0.9352566003799438,-1.8813358545303345,0.75740647315979
170,153572,153573,-0.0691346600651741,0.03278367221355438,0.8801944851875305,-2.148442268371582,-12.43396282196045,-21.257112503051758,-0.7394630312919617,1.4954252243041992,0.3014849126338959,0.94312983751297,-1.850983738899231,0.58449786901474
171,153582,153583,-0.06031787022948265,0.15133579075336456,0.9026137590408325,-11.713720321655273,-27.43410873413086,-23.88787078857422,-0.7409629225730896,1.4999250173568726,0.3029848337173462,1.116448998451233,-1.9108186960220337,0.37448760867118835
172,153592,153593,-0.03862890228629112,-0.009329934604465961,0.9481347799301147,-17.315204620361328,-37.9429817199707,-25.3497257232666,-0.7529623508453369,1.4999250173568726,0.29098543524742126,1.5320278406143188,-2.0520453453063965,0.11733165383338928
173,153602,153603,-0.0374971404671669,-0.04585952311754227,0.932808518409729,-15.80942440032959,-37.431396484375,-25.063846588134766,-0.7544622421264648,1.5194239616394043,0.3164841830730438,1.9363840818405151,-2.1895272731781006,-0.12411029636859894
174,153612,153613,-0.03026433475315571,-0.016645580530166626,0.9675382375717163,-3.6435892581939697,-21.52434730529785,-23.012596130371094,-0.7349632382392883,1.5239237546920776,0.3209839463233948,2.1612389087677,-2.3527252674102783,-0.3164565861225128
175,153622,153623,-0.025466248393058777,-0.024599898606538773,0.9585235118865967,-0.3763813376426697,2.831075668334961,-21.371091842651367,-0.730463445186615,1.528423547744751,0.31948402523994446,2.1915316581726074,-2.326869487762451,-0.4921797215938568
176,153632,153633,-0.0033902483992278576,0.05376705527305603,0.8658553957939148,-1.0405821800231934,28.164546966552734,-20.751689910888672,-0.7409629225730896,1.5209239721298218,0.30898454785346985,2.1995456218719482,-2.382706642150879,-0.7045302391052246
177,153642,153643,0.009675366804003716,-0.0030641285702586174,1.1620076894760132,7.166722297668457,44.47840881347656,-20.33551597595215,-0.7544622421264648,1.528423547744751,0.31048446893692017,1.804099202156067,-2.3142881393432617,-0.8950766921043396
178,153652,153653,-0.0036948665510863066,0.05050615966320038,1.0284478664398193,22.670698165893555,43.21589279174805,-19.034889221191406,-0.7424628734588623,1.5164241790771484,0.31048446893692017,1.2999374866485596,-2.1713194847106934,-1.100300669670105
179,153662,153663,0.03246161714196205,-0.014027014374732971,1.0612311363220215,38.3155632019043,23.38202667236328,-16.524169921875,-0.7544622421264648,1.5194239616394043,0.30748462677001953,0.9614709615707397,-1.992694616317749,-1.324447512626648
180,153672,153673,-0.006498146336525679,-0.0325324721634388,1.0527076721191406,48.0621337890625,-2.0492165088653564,-12.011314392089844,-0.7454627156257629,1.5164241790771484,0.3014849126338959,0.6697496175765991,-1.4851983785629272,-1.482886552810669
181,153682,153683,-0.04952038452029228,0.07791540771722794,1.1145730018615723,45.05503463745117,-19.218626022338867,-7.8396830558776855,-0.7514623999595642,1.5014249086380005,0.31048446893692017,0.7198069095611572,-1.119569182395935,-1.6006406545639038
182,153692,153693,-0.005658838432282209,0.0995992124080658,1.1459324359893799,34.077301025390625,-24.175230026245117,-4.824343204498291,-0.736463189125061,1.513424277305603,0.31048446893692017,0.7488625645637512,-0.5868696570396423,-1.638436198234558
183,153702,153703,0.01042424701154232,0.017945818603038788,1.014607548713684,21.306934356689453,-20.18390464782715,-1.1710032224655151,-0.7394630312919617,1.5074245929718018,0.3044847846031189,1.0713253021240234,-0.23764412105083466,-1.7064980268478394
184,153712,153713,-0.10348530113697052,-0.07822585105895996,1.0783621072769165,8.335204124450684,-9.075496673583984,2.557372570037842,-0.7349632382392883,1.4909254312515259,0.30898454785346985,1.253671646118164,-0.10204688459634781,-1.7118772268295288
185,153722,153723,0.019656214863061905,-0.021011464297771454,1.081929326057434,-8.18497371673584,1.4143197536468506,4.877742767333984,-0.7484625577926636,1.498425006866455,0.3164841830730438,1.380656123161316,-0.11959968507289886,-1.6934515237808228
186,153732,153733,-0.0694216713309288,0.034119509160518646,1.099139928817749,-20.062837600708008,-0.32045572996139526,9.10560417175293,-0.7454627156257629,1.489425539970398,0.3044847846031189,1.2888633012771606,-0.24455831944942474,-1.6247656345367432
187,153742,153743,0.03449132293462753,0.04951966553926468,1.1321053504943848,-22.674348831176758,-3.5791409015655518,11.500605583190918,-0.7454627156257629,1.4864256381988525,0.2864856719970703,1.228125810623169,-0.42034411430358887,-1.5246039628982544
188,153752,153753,-0.024805905297398567,0.04737386479973793,1.143898367881775,-7.120667457580566,-4.456979751586914,12.702033996582031,-0.737963080406189,1.4849257469177246,0.3119843900203705,1.362218976020813,-0.7362502813339233,-1.4232558012008667
189,153762,153763,-0.03716474771499634,0.0018442138098180294,1.1032146215438843,18.16522216796875,-5.093115329742432,14.436967849731445,-0.7319633960723877,1.475926160812378,0.3059847056865692,1.2798715829849243,-0.7784056067466736,-1.2811853885650635
190,153772,153773,-0.06773751974105835,-0.07021047174930573,1.014770746231079,32.02910614013672,-7.37861967086792,16.693727493286133,-0.7169641256332397,1.4699264764785767,0.3029848337173462,1.2263895273208618,-0.5233140587806702,-1.1257351636886597
191,153782,153783,-0.023975403979420662,0.10282736271619797,1.1753411293029785,37.08393859863281,-17.771099090576172,18.362510681152344,-0.7214639186859131,1.4534273147583008,0.30748462677001953,1.171308994293213,-0.24582383036613464,-0.9440376162528992
192,153792,153793,-0.03917625546455383,-0.010554476641118526,1.0142489671707153,38.8868522644043,-30.260700225830078,19.075998306274414,-0.7334632873535156,1.4504274129867554,0.3014849126338959,1.5597065687179565,0.1057872399687767,-0.7796653509140015
193,153802,153803,-0.08245067298412323,-0.02080763317644596,1.021265983581543,41.94042205810547,-34.96599197387695,19.914730072021484,-0.722963809967041,1.4549272060394287,0.28798559308052063,1.8537205457687378,0.555648922920227,-0.5922537446022034
194,153812,153813,-0.01664472371339798,0.006155898328870535,1.0550968647003174,41.45127868652344,-31.168376922607422,21.163440704345703,-0.7214639186859131,1.4534273147583008,0.3014849126338959,2.217958927154541,1.0493841171264648,-0.3982933759689331
195,153822,153823,-0.010148977860808372,-0.008952321484684944,0.9691235423088074,40.70956802368164,-24.041641235351562,23.23992347717285,-0.7199639678001404,1.4429278373718262,0.2969851493835449,2.512691020965576,1.3244842290878296,-0.18970754742622375
196,153832,153833,-0.08758097887039185,-0.04396076500415802,1.0887707471847534,27.73584747314453,-12.438889503479004,25.048831939697266,-0.7139642834663391,1.4549272060394287,0.29998499155044556,2.8226840496063232,1.8479493856430054,0.02894495613873005
197,153842,153843,-0.053437963128089905,-0.01776554249227047,1.0549625158309937,3.433781385421753,0.8601936101913452,26.689268112182617,-0.7139642834663391,1.4639267921447754,0.3029848337173462,2.989621639251709,2.049276351928711,0.2788814902305603
198,153852,153853,0.002995803952217102,-0.02390354312956333,0.9931139349937439,-31.055187225341797,2.4593095779418945,25.047945022583008,-0.7244637608528137,1.4684265851974487,0.3014849126338959,2.899019479751587,2.0842082500457764,0.5362151265144348
199,153862,153863,-0.07281221449375153,-0.02445254847407341,1.0290553569793701,-61.252933502197266,-3.1405293941497803,22.17514991760254,-0.7184640765190125,1.4714263677597046,0.30748462677001953,2.932082414627075,1.551950216293335,0.8081238865852356
200,153872,153873,-0.13943074643611908,-0.009942620061337948,0.9642244577407837,-72.39010620117188,-10.382628440856934,18.786827087402344,-0.7244637608528137,1.47442626953125,0.2954852283000946,3.039440870285034,0.6417873501777649,1.0710653066635132
201,153882,153883,-0.0771799236536026,-0.057187944650650024,1.127255916595459,-66.64434051513672,-9.259835243225098,12.36578369140625,-0.7079645991325378,1.475926160812378,0.30898454785346985,2.8982975482940674,0.06783685833215714,1.193525791168213
202,153892,153893,-0.011925884522497654,-0.024385465309023857,0.9349552392959595,-48.073604583740234,-0.4553118050098419,1.8738763332366943,-0.7124643921852112,1.4654266834259033,0.29848507046699524,2.8928751945495605,-0.40459901094436646,1.2691936492919922
203,153902,153903,-0.043233271688222885,0.07474961131811142,1.0642776489257812,-14.13350772857666,3.8844785690307617,-7.420135974884033,-0.7124643921852112,1.4654266834259033,0.29848507046699524,2.968794345855713,-0.9450079798698425,1.3098050355911255
204,153912,153913,-0.09140656143426895,-0.033404070883989334,1.2008612155914307,31.366037368774414,7.800703525543213,-15.128273963928223,-0.7184640765190125,1.4774260520935059,0.30748462677001953,2.962627410888672,-1.0422799587249756,1.2337194681167603
205,153922,153923,-0.0764276534318924,0.1295222043991089,0.917367696762085,67.1494369506836,-4.223855018615723,-17.36843490600586,-0.7184640765190125,1.4774260520935059,0.30748462677001953,2.900707483291626,-0.47326117753982544,1.048142671585083
206,153932,153933,-0.13519278168678284,-0.016395414248108864,1.188244342803955,83.70796966552734,-17.793622970581055,-18.760732650756836,-0.7244637608528137,1.4714263677597046,0.30748462677001953,2.959547519683838,0.28215014934539795,0.8599627017974854
207,153942,153943,-0.17275771498680115,0.059256259351968765,1.133933186531067,76.88158416748047,-5.072697639465332,-20.600021362304688,-0.7199639678001404,1.4429278373718262,0.29998499155044556,3.2066538333892822,1.2226080894470215,0.6598847508430481
208,153952,153953,-0.04481210559606552,-0.13812465965747833,1.1307690143585205,57.74696350097656,28.083600997924805,-22.743724822998047,-0.7199639678001404,1.4399279356002808,0.29998499155044556,3.133655548095703,1.825582504272461,0.4714752435684204
209,153962,153963,-0.012004734016954899,-0.030599813908338547,1.1042371988296509,33.36088943481445,48.06615447998047,-22.687429428100586,-0.7079645991325378,1.4249287843704224,0.2969851493835449,2.6892528533935547,2.4149622917175293,0.23173238337039948
210,153972,153973,-0.11924894154071808,-0.013087165541946888,1.0282948017120361,3.891056776046753,48.71651077270508,-21.115509033203125,-0.7169641256332397,1.4309284687042236,0.2939853072166443,2.236599922180176,2.810169219970703,0.021085098385810852
211,153982,153983,-0.15222632884979248,-0.0067072464153170586,1.035061001777649,-29.309551239013672,41.88137435913086,-18.45098304748535,-0.7199639678001404,1.4159291982650757,0.29098543524742126,1.6931023597717285,2.848896026611328,-0.1766698807477951
212,153992,153993,-0.1007598266005516,0.024908386170864105,1.0604989528656006,-56.44412612915039,27.30567741394043,-16.778284072875977,-0.7079645991325378,1.406929612159729,0.27898603677749634,1.3354640007019043,2.4244818687438965,-0.2974918782711029
213,154002,154003,-0.023885197937488556,0.001842640107497573,0.9705289602279663,-61.69941711425781,12.309680938720703,-16.284137725830078,-0.7154642343521118,1.4114294052124023,0.2954852283000946,1.130263090133667,1.6558700799942017,-0.38945290446281433
214,154012,154013,0.039783891290426254,0.0179628636687994,0.91551673412323,-56.16655349731445,5.377963066101074,-16.660232543945312,-0.7274636030197144,1.4234287738800049,0.2834858298301697,0.9445787072181702,1.229840636253357,-0.593921959400177
215,154022,154023,0.06583625823259354,0.0508229099214077,0.9197136163711548,-35.28015899658203,-1.9388643503189087,-15.913909912109375,-0.7139642834663391,1.406929612159729,0.29098543524742126,1.0154922008514404,0.8967406153678894,-0.746052086353302
216,154032,154033,0.05735271796584129,0.04107288271188736,0.9158952236175537,-15.906408309936523,-12.072528839111328,-14.19837760925293,-0.722963809967041,1.4099295139312744,0.28798559308052063,1.054059386253357,0.4628187119960785,-0.8809567093849182
217,154042,154043,0.045904990285634995,-0.01773376204073429,0.9424205422401428,-0.3841315507888794,-12.730132102966309,-11.155280113220215,-0.7199639678001404,1.4189289808273315,0.28498575091362,1.239460825920105,0.47375059127807617,-1.015631079673767
218,154052,154053,-0.04035940021276474,-0.01883384771645069,0.9227992296218872,18.397796630859375,-5.408641338348389,-7.946477890014648,-0.7199639678001404,1.4159291982650757,0.28198590874671936,1.28475022315979,0.6153987050056458,-1.1637672185897827
219,154062,154063,-0.00914572924375534,-0.10770627111196518,0.9448050856590271,26.440631866455078,5.361670970916748,-5.546915054321289,-0.7259637117385864,1.4279285669326782,0.28498575091362,1.3496196269989014,0.877738893032074,-1.2428263425827026
220,154072,154073,0.02374556101858616,-0.07622665166854858,1.0010886192321777,28.95029640197754,7.310410976409912,-3.997798442840576,-0.722963809967041,1.4249287843704224,0.29998499155044556,1.2488176822662354,1.1165211200714111,-1.3080334663391113
221,154082,154083,-0.027290744706988335,-0.051215194165706635,0.9843629598617554,21.64558219909668,4.824395656585693,0.4949760138988495,-0.7199639678001404,1.421928882598877,0.28798559308052063,1.1990045309066772,1.4669816493988037,-1.3402314186096191
222,154092,154093,-0.08936504274606705,-0.07539136707782745,0.949518084526062,1.3955740928649902,2.298173666000366,3.796513080596924,-0.7139642834663391,1.4189289808273315,0.29998499155044556,1.1909306049346924,1.6814301013946533,-1.3231589794158936
223,154102,154103,-0.06785048544406891,0.0030066990293562412,1.0350009202957153,-19.20706558227539,5.498891353607178,4.888092041015625,-0.7154642343521118,1.4294284582138062,0.277486115694046,1.1453555822372437,1.5467016696929932,-1.2860438823699951
224,154112,154113,-0.0265752412378788,-0.041106950491666794,1.0577870607376099,-36.67568588256836,12.048150062561035,1.7639086246490479,-0.7154642343521118,1.4294284582138062,0.277486115694046,0.9617151021957397,1.4541386365890503,-1.280748724937439
225,154122,154123,0.03796287998557091,-0.08121266216039658,1.0463273525238037,-43.561851501464844,17.451839447021484,-1.1259068250656128,-0.7154642343521118,1.4294284582138062,0.277486115694046,0.9494655132293701,0.9406302571296692,-1.2175549268722534
226,154132,154133,-0.02881755121052265,-0.03834938630461693,0.9899564981460571,-41.17183303833008,16.3927059173584,-8.446993827819824,-0.7154642343521118,1.4294284582138062,0.277486115694046,0.7190461158752441,0.6059965491294861,-1.2486464977264404
227,154142,154143,-0.048882242292165756,-0.033604905009269714,0.9884541630744934,-27.22354507446289,15.194911003112793,-15.533716201782227,-0.7334632873535156,1.444427728652954,0.29848507046699524,0.5117802023887634,0.04070200026035309,-1.3474352359771729
228,154152,154153,-0.015128061175346375,-0.1326383650302887,0.9820553660392761,-7.4514851570129395,18.727130889892578,-20.730518341064453,-0.7244637608528137,1.4414279460906982,0.3044847846031189,0.3195819854736328,0.12194272130727768,-1.504896640777588
229,154162,154163,-0.0023566316813230515,-0.14416716992855072,0.9685397744178772,15.43303108215332,14.517112731933594,-21.20783805847168,-0.7274636030197144,1.4324283599853516,0.2924853563308716,0.14871878921985626,-0.055560626089572906,-1.708020806312561
230,154172,154173,-0.031238822266459465,-0.03293633460998535,0.9793099761009216,29.28569984436035,3.877243995666504,-18.28916358947754,-0.7319633960723877,1.436928153038025,0.3029848337173462,-0.01759399101138115,0.28332990407943726,-1.913530707359314
231,154182,154183,-0.03523288667201996,-0.0008278326131403446,0.9856229424476624,28.90963363647461,-4.343222141265869,-12.473611831665039,-0.7319633960723877,1.4489275217056274,0.3059847056865692,0.051962822675704956,0.6789655089378357,-2.0547454357147217
232,154192,154193,-0.013865960761904716,0.02535681053996086,0.9808967113494873,10.903237342834473,-3.784133195877075,-4.92329740524292,-0.7409629225730896,1.4399279356002808,0.2969851493835449,0.22851821780204773,0.9095233082771301,-2.1431071758270264
233,154202,154203,0.03600164130330086,0.01925261877477169,0.8783881664276123,-23.904953002929688,7.763106822967529,-2.001910924911499,-0.7394630312919617,1.444427728652954,0.28948551416397095,0.17648915946483612,0.985896110534668,-2.215775966644287
234,154212,154213,-0.00360652687959373,0.016596298664808273,0.9616848826408386,-51.04793167114258,21.273681640625,-1.3934227228164673,-0.737963080406189,1.445927619934082,0.2969851493835449,0.09940961748361588,0.6348955631256104,-2.2475266456604004
235,154222,154223,-0.022331153973937035,0.09723225980997086,1.0156406164169312,-65.78665924072266,27.284896850585938,-1.0447027683258057,-0.7349632382392883,1.4489275217056274,0.27898603677749634,-0.11102902889251709,0.14861133694648743,-2.2604854106903076
236,154232,154233,-0.001582545111887157,0.10006837546825409,1.0119209289550781,-67.56639099121094,26.878393173217773,-0.6095489263534546,-0.7349632382392883,1.472926378250122,0.3059847056865692,-0.418233722448349,-0.5008756518363953,-2.2811365127563477
237,154242,154243,-0.006679522339254618,0.02155883237719536,0.9948344230651855,-46.823280334472656,16.084850311279297,1.4519857168197632,-0.7439627647399902,1.4639267921447754,0.28798559308052063,-0.7089320421218872,-1.0878657102584839,-2.2841312885284424
238,154252,154253,-0.04024231806397438,0.02777894027531147,1.0050281286239624,-21.54313087463379,3.86383318901062,3.788054943084717,-0.7349632382392883,1.4549272060394287,0.28198590874671936,-0.967363715171814,-1.6297378540039062,-2.3078274726867676
239,154262,154263,-0.035396918654441833,0.03805401548743248,1.0015212297439575,6.330925941467285,-2.055938959121704,7.507172584533691,-0.7409629225730896,1.4579271078109741,0.2969851493835449,-0.9552195072174072,-1.6742851734161377,-2.224698305130005
240,154272,154273,-0.019375747069716454,0.0705854669213295,1.0117287635803223,24.18662452697754,-3.471741199493408,11.95787525177002,-0.7274636030197144,1.4564270973205566,0.3014849126338959,-0.8539568781852722,-1.5722953081130981,-2.125622272491455
241,154282,154283,-0.007539874408394098,0.09196008741855621,0.9957159757614136,20.29663848876953,-1.3237805366516113,19.549091339111328,-0.7319633960723877,1.4549272060394287,0.2939853072166443,-0.8095862865447998,-1.3268498182296753,-1.9991904497146606
242,154292,154293,-0.023159340023994446,0.02601240761578083,0.9033163189888,-8.354466438293457,1.9704575538635254,25.99285316467285,-0.730463445186615,1.4564270973205566,0.28948551416397095,-0.8147184252738953,-1.1164531707763672,-1.7961513996124268
243,154302,154303,-0.03128251060843468,-0.007272309623658657,0.8240799307823181,-51.10908508300781,-2.28463077545166,24.764047622680664,-0.730463445186615,1.4654266834259033,0.29848507046699524,-0.9245994687080383,-1.3359363079071045,-1.5789510011672974
244,154312,154313,0.016653187572956085,0.08150266110897064,0.8543538451194763,-85.52356719970703,-9.174111366271973,22.98811912536621,-0.7424628734588623,1.4564270973205566,0.2864856719970703,-0.8855735659599304,-1.860491156578064,-1.336236596107483
245,154322,154323,0.043295398354530334,0.04857867211103439,0.9015045166015625,-97.28699493408203,-19.388992309570312,20.762493133544922,-0.7319633960723877,1.4879255294799805,0.29098543524742126,-0.7297808527946472,-2.8988356590270996,-1.1639933586120605
246,154332,154333,0.09044384956359863,-0.07280232012271881,0.9846094250679016,-89.6994857788086,-29.160341262817383,17.886457443237305,-0.737963080406189,1.4879255294799805,0.2969851493835449,-0.5568743348121643,-3.748631238937378,-0.9108070731163025
247,154342,154343,0.05627799406647682,-0.030779380351305008,0.9363864660263062,-57.48192596435547,-27.857072830200195,15.32064437866211,-0.7289635539054871,1.4819258451461792,0.29098543524742126,-0.0872369036078453,-4.944380283355713,-0.815511167049408
248,154352,154353,0.0478733628988266,0.02375601790845394,1.0514625310897827,-14.5855131149292,-17.350059509277344,10.949878692626953,-0.7184640765190125,1.4774260520935059,0.29848507046699524,0.16728107631206512,-5.23901891708374,-0.5470336079597473
249,154362,154363,-0.020723022520542145,0.05767953395843506,1.0827139616012573,32.15582275390625,0.26794904470443726,6.403541564941406,-0.7319633960723877,1.4909254312515259,0.3059847056865692,0.23714105784893036,-5.234955310821533,-0.37440863251686096
250,154372,154373,-0.021710600703954697,0.04152524471282959,1.0185601711273193,60.20027542114258,15.03664779663086,2.106358528137207,-0.7259637117385864,1.4849257469177246,0.2939853072166443,0.04412244260311127,-4.7695207595825195,-0.2388419359922409
251,154382,154383,-0.013832907192409039,0.005477250088006258,0.9769091010093689,67.32749938964844,22.234203338623047,-1.6996592283248901,-0.7439627647399902,1.4909254312515259,0.29998499155044556,-0.13464823365211487,-4.178729057312012,-0.22730576992034912
252,154392,154393,0.009755659848451614,0.011784002184867859,1.0286037921905518,53.774742126464844,25.250581741333008,-6.410490036010742,-0.7214639186859131,1.47442626953125,0.2924853563308716,-0.3532983958721161,-3.5026025772094727,-0.25411614775657654
253,154402,154403,-0.012118934653699398,0.03194914013147354,0.9980195760726929,31.87841796875,21.116910934448242,-10.62651538848877,-0.7409629225730896,1.4789260625839233,0.3029848337173462,-0.6795642971992493,-2.9950647354125977,-0.3100554943084717
254,154412,154413,0.023359864950180054,-0.024152453988790512,0.9067057371139526,11.526688575744629,9.098122596740723,-14.22950267791748,-0.7394630312919617,1.4864256381988525,0.3044847846031189,-0.9243529438972473,-2.696950674057007,-0.4131745994091034
255,154422,154423,0.0107753099873662,0.008933553472161293,0.9650062322616577,-4.441576957702637,-10.13602066040039,-17.32947540283203,-0.7334632873535156,1.4714263677597046,0.2834858298301697,-0.9465824961662292,-2.8696203231811523,-0.6671692132949829
256,154432,154433,-0.0386684276163578,0.015009121969342232,0.9888221025466919,-1.4012523889541626,-33.61592483520508,-19.68022346496582,-0.7454627156257629,1.4714263677597046,0.2834858298301697,-0.7185479998588562,-2.9567041397094727,-0.8896341323852539
257,154442,154443,-0.027113085612654686,-0.0069220890291035175,0.9456211924552917,11.033151626586914,-52.771610260009766,-21.606674194335938,-0.736463189125061,1.4714263677597046,0.29848507046699524,-0.25746506452560425,-2.97489070892334,-1.1117572784423828
258,154452,154453,-0.04078751057386398,-0.0009705197298899293,0.9724110960960388,25.088424682617188,-56.782188415527344,-21.871952056884766,-0.7349632382392883,1.4699264764785767,0.3029848337173462,0.3382859230041504,-2.7717230319976807,-1.2955933809280396
259,154462,154463,-0.05524333938956261,0.01019118633121252,1.0121650695800781,33.532142639160156,-42.555423736572266,-19.765575408935547,-0.7214639186859131,1.4864256381988525,0.3044847846031189,0.8214114904403687,-2.4825360774993896,-1.4410370588302612
260,154472,154473,-0.041107308119535446,-0.01258630771189928,0.9749733805656433,29.621997833251953,-6.1484479904174805,-17.283321380615234,-0.7244637608528137,1.4714263677597046,0.2924853563308716,1.09933602809906,-2.1476192474365234,-1.566338300704956
261,154482,154483,-0.04514594376087189,-0.0365460105240345,0.9572769403457642,17.11973762512207,26.479175567626953,-15.689532279968262,-0.7394630312919617,1.4684265851974487,0.28948551416397095,1.0790233612060547,-1.969821810722351,-1.7383149862289429
262,154492,154493,-0.06509271264076233,-0.0004655461525544524,0.9967228174209595,3.4375784397125244,44.28163146972656,-11.615196228027344,-0.7349632382392883,1.475926160812378,0.2969851493835449,0.7676944732666016,-1.8414067029953003,-1.8901739120483398
263,154502,154503,0.002741074888035655,0.05674280971288681,1.1127899885177612,-15.19676399230957,42.12609100341797,-10.944578170776367,-0.7469626665115356,1.4879255294799805,0.29998499155044556,0.20873227715492249,-1.7938892841339111,-1.9623010158538818
264,154512,154513,-0.07020368427038193,-0.042119305580854416,0.9855863451957703,-24.11945343017578,25.230236053466797,-12.570303916931152,-0.7424628734588623,1.489425539970398,0.3044847846031189,-0.20771954953670502,-2.041384220123291,-2.104872941970825
265,154522,154523,-0.007847276516258717,0.04826949164271355,1.0872297286987305,-23.604101181030273,6.098262786865234,-15.880756378173828,-0.7424628734588623,1.4954252243041992,0.3014849126338959,-0.42320510745048523,-2.417872190475464,-2.2827389240264893
266,154532,154533,-0.047383129596710205,-0.014862456358969212,1.0311321020126343,-12.582520484924316,-14.591651916503906,-18.848501205444336,-0.7544622421264648,1.4954252243041992,0.2864856719970703,-0.46497657895088196,-2.541632890701294,-2.421673536300659
267,154542,154543,-0.03806021437048912,-0.015595067292451859,1.052558183670044,11.688133239746094,-26.331575393676758,-19.38309097290039,-0.7454627156257629,1.5074245929718018,0.3044847846031189,-0.2494760900735855,-2.6832311153411865,-2.6330809593200684
268,154552,154553,-0.011222898960113525,0.014077809639275074,1.0974968671798706,43.62609100341797,-27.5770263671875,-16.444849014282227,-0.7319633960723877,1.4969251155853271,0.3119843900203705,0.06952302157878876,-2.3908469676971436,-2.7927284240722656
269,154562,154563,0.016431424766778946,0.0613761730492115,1.1471625566482544,65.65791320800781,-17.19695472717285,-11.030767440795898,-0.7394630312919617,1.498425006866455,0.3014849126338959,0.3873952627182007,-1.7469110488891602,-2.912315607070923
270,154572,154573,-0.042805079370737076,-0.09615565836429596,1.0280723571777344,66.22418212890625,3.3619778156280518,-4.987479209899902,-0.7529623508453369,1.5059247016906738,0.30898454785346985,0.43822550773620605,-1.1430883407592773,-2.983671188354492
271,154582,154583,-0.04019317775964737,-0.05436014384031296,1.0182667970657349,42.74817657470703,21.322738647460938,0.1490016132593155,-0.7484625577926636,1.5074245929718018,0.3224838674068451,0.3666234612464905,-0.7886906266212463,-3.084726333618164
272,154592,154593,-0.06876023858785629,-0.036000337451696396,1.1279635429382324,11.350445747375488,22.4023494720459,3.5413341522216797,-0.7424628734588623,1.5014249086380005,0.3134843111038208,0.04057270660996437,-0.21708688139915466,-3.010545015335083
273,154602,154603,-0.033261511474847794,0.054765187203884125,1.0613610744476318,-16.877660751342773,10.703174591064453,4.50256872177124,-0.7559621930122375,1.514924168586731,0.3029848337173462,-0.21272505819797516,-0.1514892578125,-2.9779374599456787
274,154612,154613,-0.0642131119966507,0.09239701926708221,1.0361886024475098,-40.74122619628906,1.9972997903823853,3.6656816005706787,-0.7679615616798401,1.5059247016906738,0.29098543524742126,-0.28014057874679565,-0.47563549876213074,-2.979027509689331
275,154622,154623,-0.009508366696536541,0.04077310115098953,1.0583418607711792,-48.58225631713867,-3.156047821044922,2.41908860206604,-0.7559621930122375,1.5209239721298218,0.3059847056865692,-0.34231147170066833,-1.025579810142517,-2.9597513675689697
276,154632,154633,-0.03431892395019531,-0.0008665515924803913,1.0214691162109375,-30.039321899414062,-6.04890775680542,1.8245829343795776,-0.7469626665115356,1.526923656463623,0.29998499155044556,-0.24877679347991943,-1.6654306650161743,-2.981759786605835
277,154642,154643,0.020765410736203194,0.02004995010793209,1.066968560218811,3.522556781768799,-4.147577285766602,0.9327439665794373,-0.7514623999595642,1.5164241790771484,0.3164841830730438,-0.11699297279119492,-1.6814767122268677,-2.9203484058380127
278,154652,154653,0.036219824105501175,0.030973423272371292,1.0114891529083252,41.757137298583984,0.15873557329177856,0.43910470604896545,-0.7574620842933655,1.5104244947433472,0.31048446893692017,-0.16681961715221405,-1.5350877046585083,-2.869617223739624
279,154662,154663,0.0014880261151120067,-0.001547692110762,1.1238209009170532,66.42157745361328,4.2503981590271,-1.2090210914611816,-0.7424628734588623,1.5014249086380005,0.30748462677001953,-0.14511024951934814,-1.0709404945373535,-2.859997510910034
280,154672,154673,-0.02821158990263939,0.03218270465731621,1.0775901079177856,75.3543472290039,3.8489277362823486,-2.1151411533355713,-0.7469626665115356,1.4909254312515259,0.3059847056865692,-0.18156275153160095,-0.5663461089134216,-2.9035305976867676
281,154682,154683,-0.03470547869801521,-0.01862885057926178,1.0291799306869507,65.79645538330078,1.7819939851760864,-3.0941381454467773,-0.7544622421264648,1.4804259538650513,0.31048446893692017,-0.21048235893249512,0.4283788800239563,-2.8754498958587646
282,154692,154693,0.05805350840091705,0.005349647719413042,1.040574073791504,47.19153594970703,-1.4011775255203247,-3.694176197052002,-0.7499625086784363,1.4819258451461792,0.3029848337173462,-0.2788715660572052,0.9000975489616394,-2.933255434036255
283,154702,154703,-0.002697909018024802,-0.013946068473160267,1.041451334953308,28.72214698791504,-6.076724052429199,-2.9051477909088135,-0.7529623508453369,1.4639267921447754,0.3029848337173462,-0.21818912029266357,1.2953779697418213,-2.9907352924346924
284,154712,154713,0.021284330636262894,-0.008262394927442074,1.0662044286727905,11.968003273010254,-7.746637344360352,-1.086800217628479,-0.7334632873535156,1.4684265851974487,0.2954852283000946,-0.15314657986164093,1.6049339771270752,-3.0138518810272217
285,154722,154723,5.136547042638995e-05,0.020792312920093536,1.0168100595474243,-1.1779043674468994,-7.256265640258789,1.8043732643127441,-0.730463445186615,1.4504274129867554,0.30748462677001953,-0.0627310648560524,1.7144041061401367,-3.028970241546631
286,154732,154733,-0.0603506863117218,-0.049355942755937576,0.9908081293106079,-13.244391441345215,-2.8279201984405518,4.618015766143799,-0.7499625086784363,1.4669265747070312,0.30898454785346985,0.006292497273534536,1.6767653226852417,-3.018272876739502
287,154742,154743,-0.0011893186019733548,0.026231639087200165,1.0594731569290161,-25.433610916137695,0.7606480121612549,8.666950225830078,-0.730463445186615,1.4684265851974487,0.3014849126338959,0.005124241579324007,1.5110814571380615,-2.9780893325805664
288,154752,154753,-0.055870942771434784,0.0007525539258494973,0.9964371919631958,-34.733333587646484,1.6208217144012451,13.320075988769531,-0.7394630312919617,1.4624269008636475,0.29848507046699524,0.026385240256786346,1.1563987731933594,-2.908416748046875
289,154762,154763,0.013201271183788776,0.01818748190999031,0.9967731833457947,-39.86540985107422,0.5190222263336182,16.800857543945312,-0.7259637117385864,1.4639267921447754,0.2969851493835449,-0.1035454049706459,0.7260230183601379,-2.802708387374878
290,154772,154773,0.06216282397508621,0.0023816588800400496,0.988621175289154,-36.21284484863281,-6.239413738250732,19.249378204345703,-0.7334632873535156,1.4624269008636475,0.3044847846031189,-0.13589465618133545,0.3638862669467926,-2.6333351135253906
291,154782,154783,0.019858770072460175,-0.021456856280565262,1.054221510887146,-26.74269676208496,-18.11627769470215,20.33001136779785,-0.7319633960723877,1.4579271078109741,0.31798410415649414,-0.12665803730487823,-0.009199858643114567,-2.452699661254883
292,154792,154793,-0.020481819286942482,0.02025243081152439,0.9698560237884521,-9.776652336120605,-26.56922149658203,20.281150817871094,-0.7394630312919617,1.4624269008636475,0.29848507046699524,0.007562224753201008,-0.15411825478076935,-2.2382864952087402
293,154802,154803,0.006742942612618208,0.032542530447244644,0.9971845149993896,8.089149475097656,-28.365041732788086,18.67371368408203,-0.7274636030197144,1.459426999092102,0.29848507046699524,0.3467884957790375,-0.17069236934185028,-2.0105111598968506
294,154812,154813,-0.048888131976127625,0.0764276385307312,1.0747981071472168,23.264446258544922,-24.327863693237305,17.571773529052734,-0.7109644412994385,1.4579271078109741,0.2969851493835449,0.5694587826728821,-0.04165211692452431,-1.8272398710250854
295,154822,154823,0.05145231634378433,0.0914846658706665,0.9624451398849487,30.497737884521484,-18.642358779907227,16.228742599487305,-0.7259637117385864,1.445927619934082,0.28798559308052063,0.8718886971473694,0.38730165362358093,-1.615419626235962
296,154832,154833,-0.02228126861155033,0.01153392530977726,0.9684312343597412,27.037071228027344,-14.015375137329102,13.896474838256836,-0.7409629225730896,1.4549272060394287,0.2969851493835449,0.8029786944389343,0.49588435888290405,-1.5237584114074707
297,154842,154843,-0.0438988097012043,0.0716089978814125,1.0745537281036377,16.411741256713867,-8.456851959228516,11.647549629211426,-0.722963809967041,1.4579271078109741,0.3059847056865692,1.0884548425674438,0.7627897262573242,-1.3630341291427612
298,154852,154853,-0.0018615596927702427,-0.015202653594315052,0.9668554067611694,4.511784076690674,-6.174230575561523,8.119379997253418,-0.7274636030197144,1.4534273147583008,0.29848507046699524,1.1347671747207642,0.8470662832260132,-1.2647886276245117
299,154862,154863,-0.01904240809381008,0.017113475129008293,1.0054664611816406,0.5414278507232666,-7.519162178039551,4.523449897766113,-0.7259637117385864,1.4639267921447754,0.2969851493835449,1.2215709686279297,0.8304253220558167,-1.1873207092285156
300,154872,154873,-0.013138599693775177,-0.027054255828261375,0.9800344705581665,3.5778605937957764,-13.42853832244873,2.321768283843994,-0.7244637608528137,1.444427728652954,0.30748462677001953,1.1855218410491943,0.8265088796615601,-1.1665645837783813
301,154882,154883,-0.014762874692678452,-0.04863628372550011,0.9295358061790466,12.096321105957031,-16.486806869506836,2.055772542953491,-0.7139642834663391,1.46092689037323,0.3029848337173462,1.316387414932251,0.9437543153762817,-1.1419459581375122
302,154892,154893,-0.013040844351053238,0.07021193206310272,0.9634749889373779,20.487300872802734,-10.868765830993652,1.8638962507247925,-0.7244637608528137,1.4414279460906982,0.29848507046699524,1.4916877746582031,1.1222774982452393,-1.1187180280685425
303,154902,154903,-0.09499696642160416,0.03830748423933983,0.9807130098342896,26.494007110595703,-4.228964328765869,0.6049763560295105,-0.722963809967041,1.4579271078109741,0.29998499155044556,1.500604271888733,1.2217861413955688,-1.1253401041030884
304,154912,154913,-0.07891087234020233,0.03979463130235672,0.9902843236923218,26.64234733581543,-0.8760260939598083,-0.5208090543746948,-0.7214639186859131,1.4474276304244995,0.3044847846031189,1.6199754476547241,1.4854803085327148,-1.1028566360473633
305,154922,154923,-0.04090343415737152,-0.003902244847267866,0.9558119177818298,28.03757095336914,2.1938188076019287,-2.3907032012939453,-0.7214639186859131,1.4384280443191528,0.3044847846031189,1.4700106382369995,1.8271024227142334,-1.1509106159210205
306,154932,154933,0.016723833978176117,0.01151927001774311,0.9553982615470886,20.356901168823242,2.2538676261901855,-4.751814365386963,-0.7214639186859131,1.4324283599853516,0.2954852283000946,1.4189549684524536,2.0939009189605713,-1.1830649375915527
307,154942,154943,-0.020114008337259293,-0.03631552308797836,0.9321807622909546,1.3512704372406006,-3.6142098903656006,-5.836140155792236,-0.7124643921852112,1.459426999092102,0.3224838674068451,1.3157742023468018,2.2169249057769775,-1.2514708042144775
308,154952,154953,0.046652860939502716,-0.05953647196292877,0.9669466614723206,-25.30632781982422,-10.107416152954102,-6.1460137367248535,-0.7244637608528137,1.4534273147583008,0.29848507046699524,1.4609476327896118,2.1081013679504395,-1.2692879438400269
309,154962,154963,-0.008270344696938992,-0.09041360020637512,0.963386058807373,-40.47966384887695,-19.694110870361328,-6.7753214836120605,-0.7199639678001404,1.472926378250122,0.3029848337173462,1.5619980096817017,1.7355197668075562,-1.3234610557556152
310,154972,154973,-0.05474439263343811,0.0031237436924129725,1.0085495710372925,-41.99892807006836,-21.94724464416504,-6.821495532989502,-0.7184640765190125,1.4834258556365967,0.30748462677001953,1.6550776958465576,1.3433619737625122,-1.4298464059829712
311,154982,154983,-0.0108875697478652,0.060946930199861526,1.0602713823318481,-30.65065574645996,-17.925704956054688,-8.62012004852295,-0.7169641256332397,1.4819258451461792,0.31798410415649414,1.9963809251785278,0.7994736433029175,-1.444370985031128
312,154992,154993,-0.02723025158047676,-0.08562585711479187,1.0249571800231934,-8.13364315032959,-10.321025848388672,-11.632065773010254,-0.7259637117385864,1.4699264764785767,0.3029848337173462,2.119856357574463,0.6812151074409485,-1.5749006271362305
313,155002,155003,-0.014220497570931911,-0.03850739821791649,1.1064250469207764,16.483623504638672,-4.046804904937744,-12.869991302490234,-0.7244637608528137,1.4954252243041992,0.29848507046699524,2.3265578746795654,0.6391381025314331,-1.6579068899154663
314,155012,155013,-0.04621949791908264,0.054389260709285736,0.9791784286499023,30.109487533569336,4.342312812805176,-15.065312385559082,-0.7289635539054871,1.472926378250122,0.3059847056865692,2.1441102027893066,0.8987360000610352,-1.8799951076507568
315,155022,155023,-0.013839110732078552,-0.0277081485837698,0.9566565155982971,31.84088706970215,10.911486625671387,-19.752260208129883,-0.7214639186859131,1.4714263677597046,0.31048446893692017,2.1103615760803223,1.427769660949707,-2.065548896789551
316,155032,155033,0.013175759464502335,-0.0421578474342823,1.0050592422485352,24.600088119506836,5.391341209411621,-24.403915405273438,-0.7184640765190125,1.4654266834259033,0.2954852283000946,1.9776331186294556,1.4680103063583374,-2.2171130180358887
317,155042,155043,-0.018284091725945473,-0.07063832879066467,1.0342152118682861,21.248868942260742,-7.920572280883789,-28.050739288330078,-0.7154642343521118,1.459426999092102,0.30748462677001953,2.0145516395568848,1.7039334774017334,-2.4209272861480713
318,155052,155053,-0.000448182545369491,-0.017562352120876312,1.0993152856826782,20.62864112854004,-25.770057678222656,-28.16044807434082,-0.722963809967041,1.4699264764785767,0.3059847056865692,2.127887010574341,2.0215232372283936,-2.710477590560913
319,155062,155063,-0.023480622097849846,-0.046568430960178375,1.038272500038147,24.111967086791992,-35.34638595581055,-22.231870651245117,-0.7289635539054871,1.4579271078109741,0.3059847056865692,2.305762529373169,2.400662422180176,-3.0558087825775146
320,155072,155073,-0.06138512119650841,0.012540208175778389,1.1301276683807373,31.866426467895508,-30.465797424316406,-12.087700843811035,-0.7214639186859131,1.4504274129867554,0.29848507046699524,2.7629661560058594,2.685703992843628,-3.25292706489563
321,155082,155083,-0.05568341538310051,-0.011740496382117271,1.0634284019470215,26.73704719543457,-15.132040023803711,-2.898865222930908,-0.7139642834663391,1.4519274234771729,0.3029848337173462,3.1121890544891357,2.9945335388183594,-3.3633530139923096
322,155092,155093,0.014471938833594322,0.07779008895158768,0.9787352681159973,13.17133617401123,4.039177417755127,5.971346855163574,-0.7124643921852112,1.4384280443191528,0.31948402523994446,3.284501075744629,3.277766466140747,-3.393831491470337
323,155102,155103,-0.023631678894162178,0.016256239265203476,0.9653210043907166,-15.57665729522705,30.156665802001953,13.387090682983398,-0.7034648060798645,1.444427728652954,0.3014849126338959,3.034748077392578,3.2121834754943848,-3.3537909984588623
324,155112,155113,-0.10472482442855835,-0.057017140090465546,1.0944751501083374,-42.37052536010742,49.510284423828125,20.637102127075195,-0.7109644412994385,1.445927619934082,0.30898454785346985,2.622770309448242,2.9402711391448975,-3.2247397899627686
325,155122,155123,-0.054658446460962296,-0.03575430065393448,1.014770746231079,-64.3718032836914,48.44551086425781,26.734739303588867,-0.722963809967041,1.4639267921447754,0.28198590874671936,1.9247024059295654,2.5803263187408447,-3.1176846027374268
326,155132,155133,-0.07736824452877045,0.0482090562582016,0.9904221892356873,-78.94339752197266,24.82325553894043,27.777238845825195,-0.7169641256332397,1.4819258451461792,0.3029848337173462,1.4963966608047485,1.6529885530471802,-2.7269232273101807
327,155142,155143,-0.02803536131978035,0.04623877629637718,1.0464646816253662,-76.73505401611328,-14.110210418701172,25.78985595703125,-0.7214639186859131,1.4654266834259033,0.3044847846031189,1.477479338645935,0.7371665239334106,-2.30777907371521
328,155152,155153,-0.013713011518120766,0.007569385692477226,1.0168890953063965,-54.889366149902344,-54.719383239746094,23.38143539428711,-0.7079645991325378,1.46092689037323,0.3149842321872711,1.9297246932983398,0.3135335147380829,-2.0201306343078613
329,155162,155163,-0.020700346678495407,0.047184523195028305,0.9560790061950684,-26.433225631713867,-87.70906829833984,23.860544204711914,-0.7019649147987366,1.472926378250122,0.31798410415649414,2.8591885566711426,-0.27141886949539185,-1.6013964414596558
330,155172,155173,-0.03633028641343117,0.0834820345044136,0.9436266422271729,-16.171234130859375,-95.88387298583984,18.177783966064453,-0.6944652795791626,1.4564270973205566,0.30748462677001953,3.556459665298462,-0.3493165373802185,-1.5049664974212646
331,155182,155183,-0.04885454475879669,0.032001644372940063,0.9589337706565857,-3.208141326904297,-77.56953430175781,9.772274017333984,-0.6899654865264893,1.4579271078109741,0.3029848337173462,4.637388706207275,-0.5586500763893127,-1.2497916221618652
332,155192,155193,-0.048425257205963135,0.05243711918592453,1.0070064067840576,14.096112251281738,-37.65243911743164,4.1529059410095215,-0.683965802192688,1.4639267921447754,0.30898454785346985,5.1131205558776855,-0.532263457775116,-1.2741402387619019
333,155202,155203,-0.006578045431524515,0.059656351804733276,1.0394904613494873,31.877948760986328,20.750459671020508,1.5439581871032715,-0.7019649147987366,1.4669265747070312,0.3059847056865692,5.418745994567871,-0.30158358812332153,-1.2882031202316284
334,155212,155213,-0.0015420438721776009,-0.10455075651407242,1.0722014904022217,49.96795654296875,80.87589263916016,-1.7046558856964111,-0.7109644412994385,1.4579271078109741,0.2939853072166443,4.992846488952637,0.2138410359621048,-1.4323965311050415
335,155222,155223,-0.060011014342308044,-0.017841503024101257,1.0303096771240234,56.698238372802734,119.0348129272461,-6.288751602172852,-0.7199639678001404,1.472926378250122,0.29998499155044556,3.8918116092681885,0.6647108197212219,-1.5007244348526
336,155232,155233,0.024905934929847717,0.03286012262105942,0.9809576272964478,48.446685791015625,130.26626586914062,-10.039190292358398,-0.736463189125061,1.4834258556365967,0.3164841830730438,2.363361120223999,1.3478769063949585,-1.6791037321090698
337,155242,155243,-0.045570507645606995,0.05448225885629654,0.9994874000549316,27.218948364257812,116.40838623046875,-12.287209510803223,-0.7484625577926636,1.4804259538650513,0.31048446893692017,1.470770001411438,1.7264249324798584,-1.602124571800232
338,155252,155253,0.042314790189266205,0.036838773638010025,0.9771866798400879,-1.4725358486175537,81.7939453125,-15.723942756652832,-0.7289635539054871,1.4639267921447754,0.3059847056865692,0.1073036715388298,2.0253775119781494,-1.753251552581787
339,155262,155263,0.012869692407548428,0.0026895005721598864,0.921056866645813,-29.367977142333984,44.85495376586914,-15.708327293395996,-0.737963080406189,1.4519274234771729,0.30898454785346985,-0.19746644794940948,1.7857896089553833,-1.6668201684951782
340,155272,155273,-0.0172040443867445,-0.007863424718379974,0.9254222512245178,-45.88017272949219,9.685531616210938,-17.75921058654785,-0.7319633960723877,1.436928153038025,0.2939853072166443,-0.7830559015274048,1.2632750272750854,-1.7554316520690918
341,155282,155283,-0.019935529679059982,0.09518346935510635,0.9660860300064087,-56.25121307373047,-17.905593872070312,-20.322620391845703,-0.7274636030197144,1.4414279460906982,0.2834858298301697,-0.5915022492408752,0.9138842821121216,-1.8946510553359985
342,155292,155293,-0.03215331584215164,0.02781304158270359,0.9720724821090698,-57.31462478637695,-35.96713638305664,-22.155418395996094,-0.736463189125061,1.47442626953125,0.29848507046699524,-0.32747894525527954,0.26591506600379944,-2.0488100051879883
343,155302,155303,0.01323691662400961,0.0043319882825016975,1.015143871307373,-50.00490951538086,-36.62002182006836,-23.31035614013672,-0.736463189125061,1.4624269008636475,0.2924853563308716,0.20342989265918732,-0.1842203587293625,-2.2556586265563965
344,155312,155313,-0.042877208441495895,-0.003592262277379632,0.9715227484703064,-34.14554977416992,-26.861146926879883,-22.079492568969727,-0.7289635539054871,1.4639267921447754,0.3059847056865692,0.37848713994026184,-0.7237751483917236,-2.52254056930542
345,155322,155323,-0.020360108464956284,0.06473325937986374,1.0325953960418701,-13.361701011657715,-5.92943811416626,-18.7302188873291,-0.7334632873535156,1.4864256381988525,0.30748462677001953,0.6622743606567383,-1.0542831420898438,-2.732847213745117
346,155332,155333,-0.03191361948847771,0.025969475507736206,1.0108458995819092,8.694053649902344,15.15367603302002,-13.473937034606934,-0.7349632382392883,1.4699264764785767,0.30898454785346985,0.536102294921875,-1.1835051774978638,-2.9505484104156494
347,155342,155343,-0.04646877199411392,0.06963593512773514,1.0575571060180664,24.994491577148438,30.542312622070312,-9.177665710449219,-0.737963080406189,1.4849257469177246,0.3059847056865692,0.23179097473621368,-1.0406945943832397,-3.119891405105591
348,155352,155353,-0.07860786467790604,-0.026133010163903236,0.950895369052887,36.53575897216797,40.43767166137695,-6.360423564910889,-0.7394630312919617,1.4774260520935059,0.3014849126338959,-0.023407360538840294,-0.5614370107650757,-3.2330269813537598
349,155362,155363,0.01011804398149252,-0.026409916579723358,1.0319788455963135,34.43281173706055,41.03493881225586,-4.749176979064941,-0.7544622421264648,1.4804259538650513,0.3164841830730438,-0.6448556184768677,-0.07566571235656738,-3.326587438583374
350,155372,155373,-0.02653573825955391,-0.057453703135252,0.9777191877365112,22.01702880859375,30.61233901977539,-3.3105549812316895,-0.7394630312919617,1.4834258556365967,0.3044847846031189,-0.8238232731819153,0.07423099875450134,-3.3516759872436523
351,155382,155383,-0.06103914976119995,-0.10454029589891434,0.9844967722892761,4.682716369628906,17.10983657836914,-2.383272171020508,-0.736463189125061,1.4684265851974487,0.3014849126338959,-1.200182557106018,0.17904818058013916,-3.3862922191619873
352,155392,155393,0.002250849502161145,-0.07922924309968948,1.0052318572998047,-12.653363227844238,2.1493542194366455,-0.7616347670555115,-0.7319633960723877,1.4579271078109741,0.28798559308052063,-1.3469738960266113,0.07102756202220917,-3.4128990173339844
353,155402,155403,-0.059258993715047836,-0.06405462324619293,0.9087672829627991,-22.9764404296875,-11.365386009216309,0.5687813758850098,-0.7409629225730896,1.46092689037323,0.2969851493835449,-1.2466580867767334,-0.08766338229179382,-3.4194798469543457
354,155412,155413,-0.04682397469878197,0.05043952912092209,1.0080864429473877,-25.947797775268555,-17.649850845336914,1.8088877201080322,-0.736463189125061,1.4624269008636475,0.2954852283000946,-1.100593090057373,-0.40895146131515503,-3.4214656352996826
355,155422,155423,-0.012154688127338886,0.0013232799246907234,0.9858337044715881,-24.218992233276367,-15.1085844039917,3.7694544792175293,-0.7289635539054871,1.4669265747070312,0.2969851493835449,-0.931525707244873,-0.34579700231552124,-3.3598499298095703
356,155432,155433,0.060259561985731125,0.02639079838991165,1.0204699039459229,-18.28134536743164,-6.504796028137207,6.99185037612915,-0.736463189125061,1.4714263677597046,0.29848507046699524,-0.803111732006073,-0.7651224136352539,-3.3483362197875977
357,155442,155443,0.10381614416837692,-0.0018630236154422164,0.9854657053947449,-6.913256645202637,2.0027332305908203,9.79090404510498,-0.7289635539054871,1.4669265747070312,0.2939853072166443,-0.8040717840194702,-0.9212348461151123,-3.2735025882720947
358,155452,155453,0.014396006241440773,-0.023806245997548103,0.9696140289306641,-4.245835304260254,3.3861896991729736,11.958698272705078,-0.7319633960723877,1.4669265747070312,0.29998499155044556,-0.8630771636962891,-0.9648870825767517,-3.169894218444824
359,155462,155463,-0.04756331071257591,0.039132390171289444,0.9719839096069336,-15.548441886901855,-3.8710901737213135,14.91541576385498,-0.7334632873535156,1.4504274129867554,0.30748462677001953,-0.9307447075843811,-1.059692144393921,-3.060854434967041
360,155472,155473,-0.0647096186876297,0.05119795352220535,0.8803187012672424,-31.124374389648438,-13.493623733520508,17.29585075378418,-0.730463445186615,1.4774260520935059,0.2834858298301697,-0.8812527060508728,-1.3336764574050903,-2.941984176635742
361,155482,155483,0.03500545769929886,0.06946343928575516,0.9249169230461121,-55.45506286621094,-29.672815322875977,17.676359176635742,-0.7319633960723877,1.4789260625839233,0.29098543524742126,-0.6625356674194336,-1.7957189083099365,-2.8107333183288574
362,155492,155493,-0.060656946152448654,-0.08775626868009567,0.8792375922203064,-66.93863677978516,-44.26565170288086,19.67311668395996,-0.7244637608528137,1.4654266834259033,0.29848507046699524,-0.25961148738861084,-2.346895694732666,-2.6329398155212402
363,155502,155503,-0.0017615356482565403,0.015403908677399158,0.9692369699478149,-54.856937408447266,-44.14885711669922,20.47539520263672,-0.7214639186859131,1.47442626953125,0.3164841830730438,0.20204658806324005,-3.1851754188537598,-2.4683775901794434
364,155512,155513,0.02829025685787201,-0.10393696278333664,1.024855613708496,-29.371305465698242,-36.970516204833984,18.11564064025879,-0.7109644412994385,1.4849257469177246,0.2939853072166443,0.441585898399353,-3.5904765129089355,-2.1772327423095703
365,155522,155523,0.025837013497948647,-0.03597430884838104,1.0034806728363037,7.7231292724609375,-18.15056800842285,15.182357788085938,-0.7169641256332397,1.4819258451461792,0.3029848337173462,0.9118454456329346,-3.850579023361206,-1.9850138425827026
366,155532,155533,-0.010650137439370155,-0.004528318531811237,0.9778364896774292,42.64228057861328,-0.866418182849884,10.977688789367676,-0.7319633960723877,1.4939253330230713,0.2969851493835449,0.8614447712898254,-3.584197998046875,-1.7285549640655518
367,155542,155543,0.0336911715567112,-0.16519643366336823,1.1183894872665405,61.19872283935547,12.792956352233887,2.256091833114624,-0.736463189125061,1.5074245929718018,0.3164841830730438,0.767941415309906,-2.8520658016204834,-1.5212959051132202
368,155552,155553,-0.040534574538469315,0.037089452147483826,1.1215033531188965,73.10395812988281,31.41773223876953,-5.0139994621276855,-0.7454627156257629,1.5074245929718018,0.3134843111038208,0.6002467274665833,-2.5344953536987305,-1.556771159172058
369,155562,155563,-0.015540220774710178,-0.011223717592656612,0.941154956817627,72.81309509277344,45.89286804199219,-12.340043067932129,-0.7499625086784363,1.4999250173568726,0.3209839463233948,0.060577522963285446,-1.6012656688690186,-1.4982316493988037
370,155572,155573,-0.041421495378017426,0.08923886716365814,0.9766409397125244,66.78337860107422,47.37116622924805,-16.682674407958984,-0.7589620351791382,1.5059247016906738,0.30898454785346985,-0.3198838233947754,-0.7644304037094116,-1.6329822540283203
371,155582,155583,-0.0047666411846876144,0.09290676563978195,1.0072294473648071,59.2856559753418,41.46100616455078,-18.27566146850586,-0.7529623508453369,1.4909254312515259,0.32998350262641907,-0.7264773845672607,-0.3805593252182007,-1.8833683729171753
372,155592,155593,-0.061191998422145844,-0.033096522092819214,0.9672503471374512,49.130897521972656,27.83358383178711,-16.862438201904297,-0.7529623508453369,1.4849257469177246,0.3029848337173462,-1.1665644645690918,0.31777074933052063,-2.0281267166137695
373,155602,155603,0.05457049980759621,-0.008829837664961815,1.0186505317687988,32.46387481689453,9.983356475830078,-15.269201278686523,-0.7529623508453369,1.4849257469177246,0.3029848337173462,-1.3085176944732666,0.5519694089889526,-2.2959442138671875
374,155612,155613,-0.015579069033265114,-0.0011068445164710283,1.0772289037704468,9.441771507263184,-4.923427581787109,-13.717812538146973,-0.7529623508453369,1.4849257469177246,0.3029848337173462,-1.473215937614441,1.0361347198486328,-2.392285108566284
375,155622,155623,-0.03233114629983902,-0.10856010764837265,1.0876175165176392,-7.857518672943115,-16.481752395629883,-12.334400177001953,-0.7529623508453369,1.4849257469177246,0.3029848337173462,-1.306635856628418,0.9758329391479492,-2.6061882972717285
376,155632,155633,-0.04374048113822937,-0.07819000631570816,1.0599122047424316,-15.769089698791504,-31.655031204223633,-7.353931427001953,-0.7349632382392883,1.472926378250122,0.2969851493835449,-1.0215214490890503,0.7303193211555481,-2.8070919513702393
377,155642,155643,-0.10545744746923447,-0.049885354936122894,1.0781885385513306,-17.097822189331055,-39.23393249511719,-2.7665796279907227,-0.7289635539054871,1.4699264764785767,0.3059847056865692,-0.5824723839759827,0.5928176045417786,-2.9082467555999756
378,155652,155653,-0.02559388242661953,-0.01235590036958456,1.007693886756897,-17.07578468322754,-33.006343841552734,3.097694158554077,-0.7409629225730896,1.4699264764785767,0.3029848337173462,-0.33067378401756287,0.370293527841568,-2.9291903972625732
379,155662,155663,-0.001017694710753858,0.00016608745499979705,1.0183008909225464,-26.13326072692871,-22.262727737426758,8.738787651062012,-0.722963809967041,1.4789260625839233,0.3029848337173462,0.03289106860756874,0.12036211043596268,-2.923893451690674
380,155672,155673,-0.025600802153348923,0.02841654233634472,0.9864782094955444,-31.574222564697266,-17.827281951904297,11.418684005737305,-0.7319633960723877,1.475926160812378,0.2969851493835449,0.23354178667068481,0.019579624757170677,-2.786736249923706
381,155682,155683,-0.03969712555408478,0.07952965795993805,1.0612928867340088,-36.84987258911133,-19.577533721923828,11.353363990783691,-0.7184640765190125,1.47442626953125,0.3134843111038208,0.5169999003410339,-0.4056227505207062,-2.7138900756835938
382,155692,155693,-0.013507397845387459,0.01627262867987156,1.093824863433838,-33.88107681274414,-16.944515228271484,10.357754707336426,-0.7274636030197144,1.4714263677597046,0.3044847846031189,0.388688325881958,-0.6686302423477173,-2.5363759994506836
383,155702,155703,-0.04534177482128143,0.14078545570373535,1.045220136642456,-17.876018524169922,-9.200623512268066,10.087265014648438,-0.7154642343521118,1.4834258556365967,0.3044847846031189,0.5870104432106018,-1.0909450054168701,-2.4554443359375
384,155712,155713,-0.030856259167194366,-0.005338495597243309,0.9704658389091492,-3.746177911758423,0.6119934320449829,8.384413719177246,-0.7424628734588623,1.4774260520935059,0.3044847846031189,0.6363303065299988,-1.2319592237472534,-2.342552900314331
385,155722,155723,0.006677285302430391,0.015400374308228493,1.0611227750778198,5.479450225830078,5.576147556304932,4.7810282707214355,-0.7334632873535156,1.489425539970398,0.3044847846031189,0.6173214912414551,-1.2306588888168335,-2.25205397605896
386,155732,155733,0.0161186084151268,0.04285713657736778,1.0927793979644775,21.163040161132812,11.65934944152832,1.2227281332015991,-0.736463189125061,1.4684265851974487,0.30748462677001953,0.5125647187232971,-1.0670537948608398,-2.1835367679595947
387,155742,155743,0.011423337273299694,0.10631202906370163,1.0639506578445435,42.262535095214844,21.443506240844727,-1.7995872497558594,-0.7259637117385864,1.4789260625839233,0.3029848337173462,0.30754491686820984,-0.7864276170730591,-2.155733108520508
388,155752,155753,0.01654423214495182,0.0200911033898592,0.9888324737548828,65.78390502929688,23.902070999145508,-3.6815223693847656,-0.7349632382392883,1.472926378250122,0.3149842321872711,-0.03728563338518143,-0.00955667719244957,-2.1010820865631104
389,155762,155763,-0.04350739344954491,0.005018045660108328,1.0108765363693237,77.17266845703125,21.851652145385742,-4.476314544677734,-0.7424628734588623,1.4804259538650513,0.2954852283000946,-0.19053751230239868,0.5454591512680054,-2.168534994125366
390,155772,155773,-0.08549599349498749,0.0344822071492672,0.9858782887458801,68.62969970703125,18.8527889251709,-5.188418388366699,-0.7529623508453369,1.4849257469177246,0.3149842321872711,-0.3836308717727661,1.3890807628631592,-2.1987762451171875
391,155782,155783,-0.017904184758663177,0.062269121408462524,1.0011597871780396,45.0908317565918,21.429792404174805,-7.318145751953125,-0.7469626665115356,1.4549272060394287,0.2939853072166443,-0.61928790807724,1.6579011678695679,-2.3136184215545654
392,155792,155793,0.021006133407354355,0.10128046572208405,0.978150486946106,20.167078018188477,19.881858825683594,-9.07369327545166,-0.7259637117385864,1.4519274234771729,0.29998499155044556,-0.9502288699150085,2.1946544647216797,-2.3529231548309326
393,155802,155803,-0.008098826743662357,0.03997247666120529,1.0137672424316406,4.063379764556885,7.319299221038818,-10.549376487731934,-0.7334632873535156,1.4504274129867554,0.3014849126338959,-1.0932585000991821,2.2489266395568848,-2.467507839202881
394,155812,155813,-0.003171878168359399,0.004392124246805906,1.0169602632522583,-5.162721633911133,-6.452685832977295,-11.365494728088379,-0.7454627156257629,1.444427728652954,0.3014849126338959,-0.9709500670433044,2.3487515449523926,-2.5615224838256836
395,155822,155823,0.019933883100748062,0.0017262417823076248,0.9906997680664062,-15.648137092590332,-14.61293888092041,-11.629911422729492,-0.7319633960723877,1.436928153038025,0.28798559308052063,-0.85507732629776,2.2266523838043213,-2.690526247024536
396,155832,155833,0.035229578614234924,0.013289573602378368,0.9731805920600891,-22.568376541137695,-18.582054138183594,-11.331281661987305,-0.7319633960723877,1.4279285669326782,0.28798559308052063,-0.8226506114006042,2.0076711177825928,-2.8320884704589844
397,155842,155843,-0.03790830448269844,-0.024705417454242706,1.0107380151748657,-23.281877517700195,-18.701553344726562,-11.518407821655273,-0.7214639186859131,1.435428261756897,0.2864856719970703,-0.5141503214836121,1.6817001104354858,-2.9615304470062256
398,155852,155853,-0.028651835396885872,-0.05429670587182045,0.9432726502418518,-16.203243255615234,-18.397891998291016,-10.69124984741211,-0.722963809967041,1.4429278373718262,0.29098543524742126,-0.34912368655204773,1.504006028175354,-3.070838451385498
399,155862,155863,-0.008035899139940739,-0.049500785768032074,0.9670865535736084,-5.896331310272217,-15.913290977478027,-9.890222549438477,-0.730463445186615,1.4324283599853516,0.29848507046699524,-0.05168982222676277,1.3638604879379272,-3.160191774368286
400,155872,155873,0.02794269658625126,0.09087731689214706,0.9983665347099304,1.2796550989151,-11.299739837646484,-8.74686050415039,-0.7319633960723877,1.4399279356002808,0.2939853072166443,0.05792639032006264,1.3183894157409668,-3.2660672664642334
401,155882,155883,-0.04063345491886139,0.10259328037500381,1.0076091289520264,4.3843488693237305,-4.238755226135254,-7.666328430175781,-0.7214639186859131,1.459426999092102,0.2924853563308716,0.16080354154109955,1.3749531507492065,-3.3478496074676514
402,155892,155893,-0.00020273479458410293,0.08061926066875458,1.064504861831665,0.015337127260863781,9.920344352722168,-5.8433356285095215,-0.7244637608528137,1.4624269008636475,0.2954852283000946,0.06487781554460526,1.4701241254806519,-3.437800407409668
403,155902,155903,-0.002154936548322439,-0.010039761662483215,0.9621206521987915,-7.286661148071289,17.006755828857422,-3.5692334175109863,-0.7259637117385864,1.4519274234771729,0.3059847056865692,-0.09806545078754425,1.4755264520645142,-3.5016140937805176
404,155912,155913,-0.06926704943180084,0.011159930378198624,1.0119048357009888,-14.30291748046875,19.20221519470215,-1.292764663696289,-0.7394630312919617,1.4714263677597046,0.2954852283000946,-0.36050280928611755,1.3710259199142456,-3.557831048965454
405,155922,155923,-0.014650804921984673,0.008969069458544254,1.0019856691360474,-15.793096542358398,12.992459297180176,0.732379138469696,-0.7454627156257629,1.4864256381988525,0.2954852283000946,-0.43064361810684204,1.1571581363677979,-3.55608868598938
406,155932,155933,-0.022730499505996704,-0.050663456320762634,1.0840351581573486,-10.434305191040039,-1.4135226011276245,1.641250729560852,-0.7409629225730896,1.4909254312515259,0.3029848337173462,-0.5351762175559998,1.004866361618042,-3.541485071182251
407,155942,155943,0.01920434460043907,-0.023061705753207207,0.9992898106575012,0.04583876579999924,-15.170019149780273,2.335143566131592,-0.7424628734588623,1.4864256381988525,0.3164841830730438,-0.47857868671417236,0.9447799921035767,-3.5075292587280273
408,155952,155953,0.0355595126748085,0.2045758217573166,1.0454368591308594,12.922684669494629,-23.79326057434082,3.46321439743042,-0.737963080406189,1.4909254312515259,0.3149842321872711,-0.3496885597705841,1.0493568181991577,-3.4710628986358643
409,155962,155963,-0.03364597260951996,0.07290732860565186,1.0412400960922241,20.005474090576172,-24.625749588012695,4.468489646911621,-0.7514623999595642,1.489425539970398,0.31048446893692017,-0.15642939507961273,1.2799369096755981,-3.431804895401001
410,155972,155973,0.012345081195235252,-0.073731429874897,1.0884044170379639,17.815689086914062,-20.65538215637207,6.047645092010498,-0.7469626665115356,1.4879255294799805,0.3119843900203705,0.11029161512851715,1.5343230962753296,-3.3776376247406006
411,155982,155983,-0.0022658957168459892,-0.09225837886333466,0.9895343780517578,-0.3410571217536926,-12.937372207641602,6.895022392272949,-0.737963080406189,1.475926160812378,0.3119843900203705,0.3862595558166504,1.6551969051361084,-3.3156702518463135
412,155992,155993,-0.03096160478889942,-0.008753830567002296,1.1076363325119019,-20.22787857055664,-5.937170505523682,5.4742817878723145,-0.7274636030197144,1.4804259538650513,0.3134843111038208,0.5221119523048401,1.475093126296997,-3.279458522796631
413,156002,156003,-0.011227106675505638,0.03647274896502495,1.1182470321655273,-29.420312881469727,-0.2673395574092865,4.912703514099121,-0.7214639186859131,1.459426999092102,0.2954852283000946,0.5506473779678345,1.1462428569793701,-3.2526209354400635
414,156012,156013,-0.02952909842133522,-2.9362843633862212e-05,1.0726374387741089,-33.35751724243164,4.313567638397217,3.0751023292541504,-0.7319633960723877,1.4549272060394287,0.3029848337173462,0.488008975982666,0.890981137752533,-3.214740514755249
415,156022,156023,-0.05810850113630295,-0.05423310771584511,1.0865446329116821,-23.999069213867188,8.70528793334961,0.6085119247436523,-0.730463445186615,1.4714263677597046,0.3044847846031189,0.362386018037796,0.661292552947998,-3.1919233798980713
416,156032,156033,-0.01582001894712448,0.015230848453938961,1.0495591163635254,-11.403843879699707,10.895841598510742,-3.1441831588745117,-0.7244637608528137,1.4654266834259033,0.2924853563308716,0.23329953849315643,0.5028428435325623,-3.186141014099121
417,156042,156043,0.03128629922866821,-0.013484008610248566,1.0462902784347534,-2.145289421081543,3.9985623359680176,-8.941189765930176,-0.7319633960723877,1.4789260625839233,0.29998499155044556,0.08766353130340576,0.4695996046066284,-3.2176332473754883
418,156052,156053,0.040845196694135666,-0.0386044979095459,1.091084361076355,3.588352918624878,-7.7143144607543945,-14.982653617858887,-0.7319633960723877,1.4819258451461792,0.31798410415649414,0.06994763016700745,0.4358758330345154,-3.302616834640503
419,156062,156063,-0.0524134561419487,-0.029687069356441498,1.061363697052002,6.897013187408447,-11.829085350036621,-18.44927978515625,-0.7244637608528137,1.4834258556365967,0.3014849126338959,0.22587931156158447,0.491402268409729,-3.4316012859344482
420,156072,156073,-0.11358846724033356,-0.013704423792660236,1.0678800344467163,4.306726932525635,-10.737519264221191,-20.114118576049805,-0.7319633960723877,1.4819258451461792,0.3059847056865692,0.43417587876319885,0.5953059196472168,-3.5948646068573
421,156082,156083,-0.006736853159964085,0.04440418258309364,1.047947645187378,-3.196204423904419,-2.1993212699890137,-20.41817283630371,-0.7394630312919617,1.4684265851974487,0.30748462677001953,0.5359042882919312,0.639245331287384,-3.795388698577881
422,156092,156093,0.05998950079083443,0.06355879455804825,0.9905171394348145,-11.725394248962402,6.120768070220947,-20.77994728088379,-0.7559621930122375,1.4819258451461792,0.3059847056865692,0.4980625510215759,0.5581923723220825,-4.011801719665527
423,156102,156103,0.007839839905500412,0.02159915491938591,1.0490939617156982,-15.439896583557129,9.690254211425781,-21.595666885375977,-0.737963080406189,1.4789260625839233,0.3059847056865692,0.4041689932346344,0.48801612854003906,-4.2209296226501465
424,156112,156113,0.011315014213323593,-0.08797448873519897,1.0345089435577393,-13.660205841064453,11.769039154052734,-23.086509704589844,-0.730463445186615,1.4714263677597046,0.3134843111038208,0.2633092701435089,0.22005411982536316,-4.449408054351807
425,156122,156123,-0.029832812026143074,-0.0124724255874753,1.1011316776275635,-6.223249912261963,10.947408676147461,-21.876323699951172,-0.7349632382392883,1.4819258451461792,0.3029848337173462,0.09497752040624619,0.13935311138629913,-4.6820597648620605
426,156132,156133,-0.07234534621238708,-0.07992066442966461,1.098397970199585,10.169678688049316,6.5366644859313965,-20.57488441467285,-0.7274636030197144,1.4684265851974487,0.3014849126338959,-0.05029069632291794,0.04607640579342842,-4.905894756317139
427,156142,156143,-0.07905755937099457,-0.14215880632400513,1.088032841682434,27.625688552856445,-5.308094024658203,-17.898372650146484,-0.736463189125061,1.4864256381988525,0.3014849126338959,-0.04658004641532898,0.2934025824069977,-5.094783782958984
428,156152,156153,-0.031299129128456116,-0.009466595016419888,1.1523230075836182,40.95002746582031,-26.31743621826172,-14.101181983947754,-0.7439627647399902,1.4579271078109741,0.2939853072166443,0.013858098536729813,0.7398349046707153,-5.264042377471924
429,156162,156163,-0.11093039065599442,-0.0867980569601059,1.15965735912323,43.61628723144531,-48.9547233581543,-7.497901439666748,-0.7334632873535156,1.4624269008636475,0.30748462677001953,0.4950057566165924,1.2323038578033447,-5.3813557624816895
430,156172,156173,-0.04775131121277809,-0.17536593973636627,1.0006335973739624,21.77686882019043,-49.427066802978516,-2.3356049060821533,-0.7244637608528137,1.4654266834259033,0.3164841830730438,1.0141576528549194,1.3872624635696411,-5.473836898803711
431,156182,156183,-0.03840606287121773,-0.15797555446624756,1.013948678970337,-13.029885292053223,-19.971630096435547,-0.5144141912460327,-0.722963809967041,1.4579271078109741,0.29998499155044556,1.6506534814834595,1.600372076034546,-5.497050762176514
432,156192,156193,-0.023476792499423027,-0.03352012112736702,0.9645791053771973,-33.00425338745117,28.498239517211914,7.041332244873047,-0.7184640765190125,1.4474276304244995,0.2954852283000946,1.3988957405090332,1.3509825468063354,-5.550593376159668
433,156202,156203,-0.053395774215459824,-0.06209951266646385,1.0050597190856934,-37.44731521606445,52.85578536987305,14.876327514648438,-0.7154642343521118,1.47442626953125,0.3014849126338959,0.9354172945022583,0.793384850025177,-5.497167110443115
434,156212,156213,-0.031425874680280685,-0.1387871950864792,0.9325991868972778,-37.59892272949219,57.99436950683594,22.042837142944336,-0.722963809967041,1.46092689037323,0.3119843900203705,0.4537242650985718,0.7337417006492615,-5.3470778465271
435,156222,156223,0.006459636613726616,-0.047494109719991684,0.9472861289978027,-37.976295471191406,44.55465316772461,29.15973663330078,-0.736463189125061,1.47442626953125,0.3044847846031189,-0.22646676003932953,0.3191465437412262,-5.134912014007568
436,156232,156233,0.023115068674087524,-0.017533769831061363,0.9555664658546448,-36.30640411376953,9.15517520904541,33.66424560546875,-0.7334632873535156,1.4504274129867554,0.29848507046699524,-0.6616347432136536,-0.31967613101005554,-4.83862829208374
437,156242,156243,0.013673937879502773,-0.028835410252213478,0.9142232537269592,-34.24400329589844,-35.35549545288086,35.3855094909668,-0.7169641256332397,1.46092689037323,0.29998499155044556,-0.3670955002307892,-0.48923319578170776,-4.463997840881348
438,156252,156253,-0.04017030820250511,-0.04349151998758316,0.8574265837669373,-34.71334457397461,-61.3282356262207,37.886077880859375,-0.722963809967041,1.46092689037323,0.2969851493835449,0.24060015380382538,-0.9246912598609924,-4.077437400817871
439,156262,156263,-0.024228928610682487,0.09363673627376556,0.8867990374565125,-37.40078353881836,-76.09414672851562,39.954471588134766,-0.7124643921852112,1.4684265851974487,0.3134843111038208,0.8896222114562988,-1.0179113149642944,-3.6908202171325684
440,156272,156273,0.026478443294763565,0.09869690239429474,0.8133015632629395,-41.9787483215332,-72.69732666015625,38.70368576049805,-0.7109644412994385,1.4579271078109741,0.3059847056865692,1.7555532455444336,-1.6044185161590576,-3.266930103302002
441,156282,156283,-0.0027849157340824604,0.06060827523469925,0.9504597783088684,-33.5367431640625,-43.32683563232422,34.72547912597656,-0.7079645991325378,1.46092689037323,0.31798410415649414,2.206583261489868,-1.8847864866256714,-2.8763513565063477
442,156292,156293,0.007144870236515999,0.030947143211960793,0.9697019457817078,-13.991430282592773,-3.1751396656036377,29.86286735534668,-0.7004649639129639,1.4804259538650513,0.30748462677001953,2.6107935905456543,-2.3661651611328125,-2.5086519718170166
443,156302,156303,-0.041838519275188446,0.06576461344957352,0.9972256422042847,5.607353687286377,30.290260314941406,24.995248794555664,-0.7109644412994385,1.4819258451461792,0.2969851493835449,2.5629849433898926,-2.3640940189361572,-2.2253804206848145
444,156312,156313,-0.09966351091861725,0.11358672380447388,0.9796635508537292,31.564666748046875,58.03961181640625,20.290172576904297,-0.7079645991325378,1.4819258451461792,0.2969851493835449,1.9509879350662231,-2.1722254753112793,-1.9896551370620728
445,156322,156323,-0.07241262495517731,0.04964188113808632,0.9564002156257629,52.4732551574707,60.028282165527344,16.725419998168945,-0.7169641256332397,1.4969251155853271,0.3149842321872711,1.2512502670288086,-1.703751564025879,-1.817766785621643
446,156332,156333,-0.04836547002196312,0.05678262934088707,1.0311270952224731,69.30961608886719,48.703521728515625,15.750349998474121,-0.7439627647399902,1.4879255294799805,0.3059847056865692,0.7752956748008728,-1.1213093996047974,-1.694004774093628
447,156342,156343,-0.010570716112852097,0.029301779344677925,1.0108469724655151,63.762847900390625,33.050086975097656,17.534122467041016,-0.7334632873535156,1.4864256381988525,0.3014849126338959,0.3459017872810364,-0.3148641288280487,-1.5709006786346436
448,156352,156353,-0.036875754594802856,0.047718267887830734,1.0290212631225586,42.45335388183594,16.078773498535156,22.648616790771484,-0.736463189125061,1.4774260520935059,0.3044847846031189,0.19340242445468903,0.09045027941465378,-1.387384057044983
449,156362,156363,-0.06561630219221115,-0.008009630255401134,1.0026406049728394,9.556233406066895,8.424936294555664,25.595178604125977,-0.730463445186615,1.4834258556365967,0.3164841830730438,0.06140659749507904,0.6233202815055847,-1.1840152740478516
450,156372,156373,-0.005859454162418842,-0.016655907034873962,0.9612219333648682,-25.872467041015625,2.6754865646362305,26.143404006958008,-0.7184640765190125,1.4834258556365967,0.3044847846031189,0.06623458862304688,0.3703984022140503,-0.9023126363754272
451,156382,156383,-0.010681871324777603,0.014639083296060562,0.9928655028343201,-56.41520309448242,-5.31316614151001,24.510923385620117,-0.7394630312919617,1.4924253225326538,0.3224838674068451,0.026151416823267937,-0.1417633593082428,-0.6123809218406677
452,156392,156393,-0.04707848280668259,0.02458331547677517,1.0275405645370483,-66.9847412109375,-13.706006050109863,21.474580764770508,-0.7349632382392883,1.4879255294799805,0.2939853072166443,0.10229542851448059,-1.0112366676330566,-0.34188657999038696
453,156402,156403,0.04876255989074707,0.018054600805044174,1.0221816301345825,-55.83076095581055,-21.436298370361328,17.61804962158203,-0.730463445186615,1.4804259538650513,0.3044847846031189,0.29906004667282104,-1.5080673694610596,-0.15324698388576508
454,156412,156413,-0.02617177739739418,0.002857394050806761,0.9902665019035339,-32.90979766845703,-23.898075103759766,15.371211051940918,-0.7184640765190125,1.4774260520935059,0.29848507046699524,0.5456035733222961,-2.154782295227051,0.02933352068066597
455,156422,156423,-0.0012724583502858877,0.024525418877601624,1.0727148056030273,1.4401471614837646,-18.629867553710938,13.98300838470459,-0.7169641256332397,1.472926378250122,0.3029848337173462,0.8784328699111938,-2.1970932483673096,0.14972342550754547
456,156432,156433,-0.07991664111614227,-0.07457182556390762,1.1823055744171143,32.832828521728516,-10.913749694824219,14.332523345947266,-0.7244637608528137,1.4624269008636475,0.29848507046699524,1.25318443775177,-2.0369136333465576,0.24749885499477386
457,156442,156443,-0.10566552728414536,0.06933249533176422,1.0635135173797607,66.03329467773438,12.044689178466797,16.172893524169922,-0.7274636030197144,1.4624269008636475,0.3014849126338959,1.1560773849487305,-1.4772592782974243,0.4191276431083679
458,156452,156453,-0.07280614227056503,-0.09011821448802948,1.0591541528701782,68.67749786376953,28.431997299194336,15.253730773925781,-0.7334632873535156,1.4684265851974487,0.2864856719970703,0.72231525182724,-0.6865262985229492,0.63930743932724
459,156462,156463,-0.01188137661665678,0.04198697581887245,1.0827124118804932,62.76762771606445,44.452091217041016,15.030360221862793,-0.722963809967041,1.4549272060394287,0.2939853072166443,0.34074828028678894,-0.21959418058395386,0.8300479054450989
460,156472,156473,-0.02694791555404663,0.009128585457801819,0.983841598033905,38.04328536987305,43.7701301574707,14.766581535339355,-0.7214639186859131,1.4324283599853516,0.2954852283000946,-0.25086691975593567,0.528871476650238,1.0115371942520142
461,156482,156483,0.0017837287159636617,-0.07585855573415756,1.0022929906845093,11.178266525268555,37.937984466552734,14.558002471923828,-0.730463445186615,1.435428261756897,0.2834858298301697,-0.5533449053764343,0.7419955730438232,1.137477159500122
462,156492,156493,-0.04782944545149803,-0.11320679634809494,0.9351077675819397,-18.202531814575195,27.547151565551758,14.460752487182617,-0.7139642834663391,1.421928882598877,0.27898603677749634,-0.9659735560417175,0.7804328203201294,1.2978057861328125
463,156502,156503,0.014365948736667633,0.010938307270407677,1.0232625007629395,-39.24628829956055,14.36374282836914,13.635299682617188,-0.722963809967041,1.4309284687042236,0.27898603677749634,-1.2578532695770264,0.2955453395843506,1.4544113874435425
464,156512,156513,0.10041328519582748,-0.03354859724640846,0.9765498042106628,-49.43309783935547,-2.880100965499878,11.531717300415039,-0.7214639186859131,1.444427728652954,0.2954852283000946,-1.238564372062683,-0.280247300863266,1.5604157447814941
465,156522,156523,-0.01476970873773098,-0.01079552061855793,0.9801881313323975,-44.648277282714844,-25.669588088989258,10.604381561279297,-0.7244637608528137,1.4144293069839478,0.2924853563308716,-1.158024787902832,-0.4925931692123413,1.6823145151138306
466,156532,156533,-0.155096635222435,0.0649828091263771,0.9108361601829529,-33.983543395996094,-38.51750564575195,8.32231616973877,-0.7184640765190125,1.4264286756515503,0.2954852283000946,-0.7523316740989685,-1.0491788387298584,1.7584004402160645
467,156542,156543,-0.00014099926920607686,0.12857864797115326,0.9481079578399658,-20.762304306030273,-31.478076934814453,6.637596130371094,-0.7034648060798645,1.4414279460906982,0.28948551416397095,-0.262300044298172,-1.412010669708252,1.8241368532180786
468,156552,156553,0.0009247154812328517,-0.07143480330705643,1.0212304592132568,0.4759104251861572,-23.5628604888916,6.8439154624938965,-0.7244637608528137,1.435428261756897,0.2954852283000946,-0.019403034821152687,-1.5273784399032593,1.9129762649536133
469,156562,156563,0.05598929896950722,-0.049173347651958466,0.9980663061141968,24.96932029724121,-11.382434844970703,7.23077392578125,-0.7244637608528137,1.435428261756897,0.2834858298301697,0.17534738779067993,-1.4316993951797485,2.0010876655578613
470,156572,156573,-0.024674134328961372,-0.09996140748262405,0.9690222144126892,39.187721252441406,1.1751065254211426,7.805708885192871,-0.7319633960723877,1.4339282512664795,0.29998499155044556,0.24538350105285645,-0.9718435406684875,2.1052019596099854
471,156582,156583,-0.11376142501831055,0.11041806638240814,0.9769654273986816,43.942710876464844,21.14842987060547,7.766912460327148,-0.7184640765190125,1.4534273147583008,0.28948551416397095,0.08141482621431351,-0.3877537250518799,2.228672742843628
472,156592,156593,-0.06501216441392899,0.06752875447273254,0.9627252221107483,23.51183319091797,38.5233039855957,5.645858287811279,-0.7214639186859131,1.459426999092102,0.2954852283000946,-0.18038995563983917,-0.2733049690723419,2.284604549407959
473,156602,156603,-0.013531669974327087,-0.008646677248179913,0.93442302942276,2.0196046829223633,43.35429000854492,3.165250301361084,-0.7349632382392883,1.445927619934082,0.28498575091362,-0.6898450255393982,0.03248535096645355,2.3714852333068848
474,156612,156613,-0.04120231419801712,-0.01606295257806778,0.9310303926467896,-14.770890235900879,35.50898361206055,0.11418398469686508,-0.722963809967041,1.4429278373718262,0.29098543524742126,-1.0474631786346436,-0.0805676206946373,2.373641014099121
475,156622,156623,-0.018017372116446495,0.07089362293481827,0.9823651313781738,-25.10792350769043,21.029293060302734,-2.719743013381958,-0.730463445186615,1.4414279460906982,0.2924853563308716,-1.48224937915802,-0.3138122856616974,2.3763434886932373
476,156632,156633,0.01876908540725708,0.008521128445863724,1.0435731410980225,-26.388185501098633,6.00679349899292,-7.654201507568359,-0.7259637117385864,1.4339282512664795,0.2969851493835449,-1.5234657526016235,-0.6968473196029663,2.30014967918396
