,timestamp_start,timestamp_end,acc.x,acc.y,acc.z,gyro.x,gyro.y,gyro.z,mag.x,mag.y,mag.z,stabilizer.pitch,stabilizer.roll,stabilizer.yaw
0,19686,19687,-0.20001542568206787,-0.10108054429292679,1.0175247192382812,-1.6140739917755127,-18.428255081176758,7.997989654541016,0.8624568581581116,-0.09149542450904846,-0.21148942410945892,-0.9405050277709961,-1.9811856746673584,-3.257922649383545
1,19696,19697,-0.1461491882801056,0.05904245749115944,0.9389877915382385,7.390200138092041,-14.497512817382812,9.42265796661377,0.8729563355445862,-0.08999549597501755,-0.227988600730896,-0.7400627732276917,-2.182386636734009,-3.2273592948913574
2,19706,19707,-0.18920788168907166,0.0389765165746212,1.1058800220489502,16.42268943786621,0.44243645668029785,9.30416488647461,0.8789560198783875,-0.09299534559249878,-0.23398829996585846,-0.6492219567298889,-1.5847358703613281,-3.0171360969543457
3,19716,19717,-0.11858541518449783,0.16390597820281982,1.0494916439056396,23.824251174926758,19.573518753051758,7.615740776062012,0.8819558620452881,-0.09899504482746124,-0.227988600730896,-0.82806795835495,-1.320098638534546,-2.8881778717041016
4,19726,19727,-0.027832750231027603,0.2448137402534485,0.9817997813224792,23.525197982788086,32.610530853271484,8.206254005432129,0.8774561285972595,-0.10649467259645462,-0.22348882257938385,-1.1350603103637695,-1.1225508451461792,-2.8090152740478516
5,19736,19737,-0.12188374251127243,0.1339675784111023,1.1053526401519775,10.786189079284668,34.228057861328125,9.82979679107666,0.8639568090438843,-0.09899504482746124,-0.23098844289779663,-1.355775237083435,-1.0031629800796509,-2.773719072341919
6,19746,19747,-0.11761142313480377,0.012750806286931038,1.0273113250732422,-5.313079357147217,24.430980682373047,10.06680965423584,0.8639568090438843,-0.09899504482746124,-0.23098844289779663,-1.5594263076782227,-1.0073539018630981,-2.716142177581787
7,19756,19757,-0.10074765980243683,0.07888597249984741,0.8636326193809509,-10.603631973266602,19.390213012695312,11.05728530883789,0.8639568090438843,-0.09899504482746124,-0.23098844289779663,-1.6339472532272339,-1.1206488609313965,-2.656812906265259
8,19766,19767,-0.20169003307819366,-0.1384706199169159,0.9863662719726562,-12.268847465515137,21.14204978942871,10.643050193786621,0.8819558620452881,-0.10199490189552307,-0.22498874366283417,-1.9042984247207642,-1.1988602876663208,-2.5263900756835938
9,19776,19777,-0.3299407362937927,-0.2988007664680481,1.0287808179855347,-13.291847229003906,24.488805770874023,8.339166641235352,0.8744562864303589,-0.09149542450904846,-0.22648866474628448,-2.245818614959717,-1.467585802078247,-2.4327406883239746
10,19786,19787,-0.1607035994529724,-0.14192089438438416,0.9053909778594971,-19.237239837646484,22.626415252685547,3.610806941986084,0.8594570159912109,-0.09749512374401093,-0.22348882257938385,-2.258779525756836,-1.396099328994751,-2.3928794860839844
11,19796,19797,-0.07472379505634308,-0.04577476903796196,0.8683386445045471,-25.474750518798828,15.147958755493164,-1.196752905845642,0.8549572229385376,-0.09599519520998001,-0.2369881421327591,-2.403419017791748,-1.7160322666168213,-2.414297103881836
12,19806,19807,-0.07981421798467636,-0.0012709812726825476,0.8762671947479248,-33.60636901855469,5.64904260635376,-4.377302646636963,0.8534573316574097,-0.08249587565660477,-0.23548822104930878,-2.409045696258545,-1.8661561012268066,-2.4469828605651855
13,19816,19817,-0.08314498513936996,-0.020331917330622673,0.8719385266304016,-37.776397705078125,-1.950865387916565,-3.781148910522461,0.8624568581581116,-0.08249587565660477,-0.21448926627635956,-2.4005045890808105,-2.4108452796936035,-2.536390781402588
14,19826,19827,-0.0482451394200325,0.09701642394065857,0.8492426872253418,-36.16121292114258,1.0084550380706787,-1.443044900894165,0.8789560198783875,-0.10199490189552307,-0.23398829996585846,-2.4639651775360107,-2.5919854640960693,-2.5063772201538086
15,19836,19837,0.06224271282553673,-0.012837043963372707,0.8973426222801208,-33.53203201293945,-2.232231616973877,2.055666923522949,0.8714563846588135,-0.10949452221393585,-0.2384880781173706,-2.4893381595611572,-2.9798364639282227,-2.5070507526397705
16,19846,19847,0.000907892535906285,-0.07525531202554703,0.9242721796035767,-22.239900588989258,-22.18229866027832,4.60994815826416,0.8789560198783875,-0.09899504482746124,-0.23998799920082092,-2.3740592002868652,-3.3672332763671875,-2.4868600368499756
17,19856,19857,-0.09711599349975586,-0.016488540917634964,0.9712120294570923,-6.198390007019043,-38.30245590209961,6.7140679359436035,0.8909554481506348,-0.10199490189552307,-0.22498874366283417,-1.9607412815093994,-3.382863998413086,-2.4184932708740234
18,19866,19867,-0.11103307455778122,0.05575256422162056,0.9515905380249023,7.65303373336792,-36.08064651489258,8.01910400390625,0.8954551815986633,-0.12149392068386078,-0.2294885218143463,-1.4917175769805908,-3.2252964973449707,-2.3138844966888428
19,19876,19877,-0.1245090663433075,-0.0068274312652647495,0.9706838726997375,9.867658615112305,-9.749591827392578,7.548593521118164,0.8999549746513367,-0.12599369883537292,-0.2549872398376465,-1.287018895149231,-3.1578121185302734,-2.1981613636016846
20,19886,19887,-0.05907593294978142,0.04271050915122032,1.0381016731262207,14.37733268737793,28.4833984375,3.733632802963257,0.8894554972648621,-0.13049347698688507,-0.24448777735233307,-1.5403507947921753,-3.0461366176605225,-2.0578317642211914
21,19896,19897,-0.09652666747570038,0.0024317835923284292,0.9989970922470093,30.40108871459961,59.239742279052734,2.145360231399536,0.8744562864303589,-0.11549422144889832,-0.24148792028427124,-2.238940477371216,-2.7605903148651123,-1.9231939315795898
22,19906,19907,-0.15917900204658508,-0.20398475229740143,0.9475268125534058,39.0401611328125,60.50648880004883,2.610337018966675,0.8849557638168335,-0.11099445074796677,-0.23998799920082092,-2.6115779876708984,-2.5218663215637207,-2.0578413009643555
23,19916,19917,-0.15966755151748657,-0.2223704308271408,0.953474760055542,39.23823547363281,31.910627365112305,3.7569262981414795,0.8789560198783875,-0.1229938492178917,-0.24898754060268402,-3.178374767303467,-1.8047168254852295,-1.956025242805481
24,19926,19927,-0.19508889317512512,-0.07346952706575394,0.8918406963348389,23.380800247192383,-4.7451090812683105,4.208600044250488,0.8729563355445862,-0.12599369883537292,-0.23398829996585846,-3.178727388381958,-1.4220318794250488,-1.9930140972137451
25,19936,19937,-0.07485274225473404,0.009355238638818264,1.0126514434814453,0.2019367814064026,-37.25286102294922,6.491159915924072,0.8654567003250122,-0.13649317622184753,-0.25348731875419617,-2.906477689743042,-1.5762438774108887,-2.03905987739563
26,19946,19947,-0.1767466515302658,-0.07842689752578735,1.0562567710876465,-31.540658950805664,-58.62888717651367,8.296064376831055,0.8804559707641602,-0.1514924168586731,-0.26248687505722046,-2.235666036605835,-1.61351478099823,-2.0065526962280273
27,19956,19957,-0.1991773545742035,-0.041954051703214645,1.0839091539382935,-60.11614227294922,-58.7379035949707,8.093461990356445,0.8924553394317627,-0.13649317622184753,-0.25348731875419617,-1.75578773021698,-2.444364309310913,-1.9653204679489136
28,19966,19967,-0.12593643367290497,0.13006584346294403,1.1515542268753052,-72.18074798583984,-46.61039733886719,3.9289846420288086,0.8939552903175354,-0.1529923528432846,-0.25198739767074585,-1.017738699913025,-3.16664457321167,-1.953088641166687
29,19976,19977,-0.14351990818977356,0.06853363662958145,1.0909168720245361,-60.493812561035156,-14.110186576843262,2.9058735370635986,0.9029548168182373,-0.14099295437335968,-0.2549872398376465,-0.8951882123947144,-3.7107813358306885,-1.785601019859314
30,19986,19987,-0.17894455790519714,0.030477410182356834,1.062372088432312,-32.63789749145508,24.854595184326172,5.45622444152832,0.8954551815986633,-0.13049347698688507,-0.25348731875419617,-1.0177457332611084,-4.066627502441406,-1.678602695465088
31,19996,19997,-0.12732923030853271,0.036119796335697174,1.0167070627212524,-6.387514591217041,49.63575744628906,7.020925521850586,0.8984550833702087,-0.10949452221393585,-0.25048747658729553,-1.1518726348876953,-4.391646862030029,-1.7478350400924683
32,20006,20007,-0.11231174319982529,-0.12387028336524963,1.0270804166793823,17.002466201782227,54.98796463012695,1.6100921630859375,0.8864556550979614,-0.10349482297897339,-0.25048747658729553,-1.9610251188278198,-4.322576522827148,-1.625463843345642
33,20016,20017,-0.15300646424293518,0.04066380113363266,0.9905502796173096,47.399959564208984,34.729679107666016,-1.586076259613037,0.8699564933776855,-0.10199490189552307,-0.23998799920082092,-2.4941349029541016,-3.841594934463501,-1.600287675857544
34,20026,20027,-0.08990948647260666,0.033994223922491074,1.043578028678894,86.17498016357422,0.4579637050628662,1.2466214895248413,0.8534573316574097,-0.09749512374401093,-0.23248836398124695,-2.511568784713745,-3.0759317874908447,-1.6863489151000977
35,20036,20037,-0.036337267607450485,0.23251216113567352,1.0974606275558472,96.89388275146484,-26.41849136352539,4.749582767486572,0.8759561777114868,-0.12599369883537292,-0.23398829996585846,-2.2780039310455322,-2.162358045578003,-1.71762216091156
36,20046,20047,-0.06217871978878975,0.0018973428523167968,1.1639091968536377,87.8597412109375,-54.254302978515625,4.25251579284668,0.8669566512107849,-0.13499325513839722,-0.23998799920082092,-1.8650667667388916,-1.4160292148590088,-1.7215439081192017
37,20056,20057,-0.13071972131729126,-0.031010694801807404,1.0862046480178833,61.151451110839844,-60.12248229980469,5.994725227355957,0.8759561777114868,-0.12899354100227356,-0.23398829996585846,-1.0349576473236084,-0.6349475383758545,-1.7697672843933105
38,20066,20067,-0.13223685324192047,-0.013492452912032604,1.0389914512634277,30.61478614807129,-44.53071212768555,9.224298477172852,0.8939552903175354,-0.13499325513839722,-0.24898754060268402,-0.6701125502586365,-0.3468763530254364,-1.6474167108535767
39,20076,20077,-0.13144823908805847,0.028280483558773994,1.0154845714569092,5.484642505645752,-19.275753021240234,11.332844734191895,0.8654567003250122,-0.14249287545681,-0.2384880781173706,-0.2307116985321045,-0.13949762284755707,-1.5806653499603271
40,20086,20087,-0.11123007535934448,-0.009342688135802746,1.010748028755188,-12.69549560546875,1.7670743465423584,13.298636436462402,0.8714563846588135,-0.12149392068386078,-0.2294885218143463,-0.12197351455688477,-0.20147520303726196,-1.4683784246444702
41,20096,20097,-0.08262796700000763,0.032804589718580246,1.0887216329574585,-37.45620346069336,20.935344696044922,13.389238357543945,0.8759561777114868,-0.11099445074796677,-0.22198890149593353,-0.4126574993133545,-0.62349534034729,-1.2951366901397705
42,20106,20107,-0.06731323897838593,0.10520737618207932,1.169064998626709,-49.87539291381836,25.207317352294922,13.22266960144043,0.8879556059837341,-0.10799460113048553,-0.23398829996585846,-0.5560129284858704,-1.185013771057129,-1.2022756338119507
43,20116,20117,-0.10855890810489655,0.04552151635289192,1.0928837060928345,-43.590980529785156,26.356151580810547,13.488351821899414,0.8864556550979614,-0.10349482297897339,-0.22648866474628448,-0.619874119758606,-1.6912533044815063,-1.1218228340148926
44,20126,20127,-0.0941908061504364,0.06188425421714783,1.0938940048217773,-27.2442626953125,31.764999389648438,11.424678802490234,0.8774561285972595,-0.10049497336149216,-0.22048896551132202,-0.9545509815216064,-2.0756494998931885,-0.991560161113739
45,20136,20137,-0.1412247121334076,-0.003920297604054213,1.0979998111724854,-0.4133780300617218,51.02718734741211,3.484407424926758,0.8729563355445862,-0.09599519520998001,-0.23098844289779663,-1.5293251276016235,-2.2403552532196045,-0.8747203350067139
46,20146,20147,-0.12654195725917816,-0.012496578507125378,1.0388578176498413,28.74390411376953,70.90908813476562,-5.841612815856934,0.8654567003250122,-0.0764961764216423,-0.22648866474628448,-1.8415969610214233,-1.9286222457885742,-0.9467096328735352
47,20156,20157,-0.1261453777551651,0.04675057530403137,1.0344759225845337,49.2811164855957,80.35614013671875,-10.803601264953613,0.8474575877189636,-0.085495725274086,-0.2294885218143463,-2.817552328109741,-1.500556230545044,-1.005592942237854
48,20166,20167,-0.08649841696023941,-0.008331047371029854,0.9831465482711792,55.3901252746582,75.88088989257812,-10.534996032714844,0.8384580612182617,-0.09149542450904846,-0.2294885218143463,-3.337589979171753,-1.074992060661316,-1.197970986366272
49,20176,20177,-0.15181410312652588,-0.05609891936182976,0.8820654153823853,46.52125549316406,50.887901306152344,-12.484667778015137,0.836958110332489,-0.08699564635753632,-0.2189890444278717,-4.130860328674316,-0.5398422479629517,-1.2948801517486572
50,20186,20187,-0.09909632056951523,-0.011967252008616924,0.8747279644012451,20.4341983795166,9.993324279785156,-13.424181938171387,0.8234587907791138,-0.0764961764216423,-0.22648866474628448,-4.249083995819092,-0.25367066264152527,-1.4737718105316162
51,20196,20197,-0.09170596301555634,-0.08519495278596878,0.8597995042800903,-1.8334060907363892,-14.68950366973877,-13.449878692626953,0.8429578542709351,-0.09299534559249878,-0.2189890444278717,-4.182170867919922,-0.15616992115974426,-1.6214109659194946
52,20206,20207,-0.31894052028656006,-0.20757301151752472,0.9034004211425781,-15.214615821838379,-42.40082550048828,-13.360856056213379,0.8429578542709351,-0.08099594712257385,-0.2189890444278717,-3.7773005962371826,-0.4565514922142029,-1.817508339881897
53,20216,20217,-0.04387344792485237,0.10380405187606812,0.7788630127906799,-21.335813522338867,-67.70828247070312,-11.861076354980469,0.844457745552063,-0.0944952741265297,-0.23248836398124695,-3.259120225906372,-0.7153810858726501,-1.9445092678070068
54,20226,20227,-0.04081431403756142,0.004655181895941496,0.8134142160415649,-18.92619514465332,-89.54435729980469,-10.519401550292969,0.8639568090438843,-0.11099445074796677,-0.22198890149593353,-2.2639846801757812,-0.8278849124908447,-2.052521228790283
55,20236,20237,-0.08774382621049881,-0.03967767581343651,0.8568094372749329,-12.53632640838623,-100.50411987304688,-9.991700172424316,0.8729563355445862,-0.11999399960041046,-0.227988600730896,-1.398325800895691,-0.8668678998947144,-2.103057861328125
56,20246,20247,-0.06417569518089294,-0.028182467445731163,0.8609830141067505,-2.7900657653808594,-81.21456909179688,-11.822854042053223,0.8894554972648621,-0.13049347698688507,-0.2294885218143463,-0.6771382093429565,-0.9931055307388306,-2.188990354537964
57,20256,20257,-0.13515113294124603,-0.07932620495557785,0.9733167886734009,9.459283828735352,-47.866600036621094,-10.976632118225098,0.8804559707641602,-0.12449377030134201,-0.21448926627635956,0.008244975470006466,-0.9353857040405273,-2.2884767055511475
58,20266,20267,-0.0706760361790657,-0.17861022055149078,0.9937926530838013,37.62601089477539,1.170179009437561,-6.997598171234131,0.8714563846588135,-0.10649467259645462,-0.2174891233444214,-0.0487307608127594,-0.7389539480209351,-2.3626935482025146
59,20276,20277,-0.019321247935295105,-0.023303965106606483,0.795120894908905,73.59471893310547,34.825164794921875,-4.057469367980957,0.8744562864303589,-0.0944952741265297,-0.22048896551132202,-0.2152690887451172,0.06738612800836563,-2.384010076522827
60,20286,20287,-0.011949948035180569,0.012636993080377579,0.8473754525184631,94.703369140625,48.369911193847656,-3.1519601345062256,0.844457745552063,-0.11849407106637955,-0.22048896551132202,-0.7388060092926025,0.6784329414367676,-2.435436248779297
61,20296,20297,-0.10129492729902267,-0.02552546188235283,0.8630945086479187,94.2313232421875,53.034297943115234,-2.6208035945892334,0.8549572229385376,-0.1319933980703354,-0.23398829996585846,-1.2804094552993774,1.8001383543014526,-2.436145782470703
62,20306,20307,-0.007906450890004635,-0.027833953499794006,0.9249191284179688,80.06282806396484,50.882530212402344,0.362642377614975,0.8534573316574097,-0.12449377030134201,-0.23248836398124695,-1.7481974363327026,2.5042576789855957,-2.4469478130340576
63,20316,20317,-0.04085699841380119,-0.1059141680598259,0.8849002718925476,55.54121398925781,38.5316276550293,2.5202555656433105,0.8549572229385376,-0.12899354100227356,-0.23398829996585846,-2.246551275253296,3.2883803844451904,-2.4021246433258057
64,20326,20327,-0.07082952558994293,-0.19358667731285095,0.8211420774459839,9.96605110168457,23.39675521850586,5.530774116516113,0.8609569072723389,-0.13499325513839722,-0.23998799920082092,-2.597564935684204,3.718295097351074,-2.3446362018585205
65,20336,20337,-0.12749919295310974,-0.053131502121686935,0.9564111828804016,-35.44316101074219,9.097014427185059,7.468632221221924,0.8579570651054382,-0.1229938492178917,-0.2189890444278717,-2.763476848602295,3.4339468479156494,-2.282966375350952
66,20346,20347,-0.1273418515920639,-0.13438479602336884,0.9738637804985046,-67.7124252319336,-2.7015860080718994,7.1628499031066895,0.8534573316574097,-0.14549271762371063,-0.23548822104930878,-2.692509412765503,2.8569107055664062,-2.199673891067505
67,20356,20357,-0.1326090693473816,-0.10611944645643234,1.133893609046936,-83.07588958740234,-15.431119918823242,6.393890380859375,0.8789560198783875,-0.14699265360832214,-0.24298784136772156,-2.635308265686035,2.2086546421051025,-2.122213840484619
68,20366,20367,-0.08084515482187271,-0.012425928376615047,1.045302391052246,-77.03413391113281,-27.049776077270508,5.43740177154541,0.8819558620452881,-0.14399279654026031,-0.26098695397377014,-2.3580617904663086,1.2373790740966797,-2.06475567817688
69,20376,20377,0.061633944511413574,-0.00543274125084281,0.9015883207321167,-61.34907150268555,-25.485979080200195,4.494138717651367,0.8804559707641602,-0.1514924168586731,-0.24148792028427124,-2.1594924926757812,0.5891135334968567,-2.0321059226989746
70,20386,20387,-0.07686182856559753,0.00411020964384079,0.9894006848335266,-28.139142990112305,-20.11418914794922,4.261390209197998,0.8864556550979614,-0.1334933191537857,-0.2474876195192337,-1.914507508277893,0.3596389889717102,-1.9504705667495728
71,20396,20397,-0.10275346040725708,-0.12958481907844543,0.9102633595466614,10.735057830810547,0.6970115303993225,6.316797256469727,0.8879556059837341,-0.14099295437335968,-0.227988600730896,-2.022120237350464,0.2923875153064728,-1.9711211919784546
72,20406,20407,-0.06534495204687119,-0.028075190261006355,0.9347118735313416,39.37850570678711,33.74637222290039,6.774484634399414,0.8624568581581116,-0.13649317622184753,-0.23548822104930878,-2.185091257095337,0.7229791283607483,-1.8818672895431519
73,20416,20417,0.012516472488641739,-0.013340864330530167,0.9147310853004456,51.08713150024414,54.686248779296875,4.092800617218018,0.8549572229385376,-0.13799309730529785,-0.23998799920082092,-2.855743885040283,1.2963056564331055,-1.8684250116348267
74,20426,20427,-0.021866658702492714,0.04908202216029167,1.0040273666381836,52.07660675048828,57.82890319824219,1.6655772924423218,0.8549572229385376,-0.12899354100227356,-0.2459876984357834,-3.189361572265625,1.6680560111999512,-1.7754323482513428
75,20436,20437,0.005886046681553125,-0.008696116507053375,0.9287097454071045,46.106285095214844,46.58302307128906,-0.22738754749298096,0.8549572229385376,-0.14999249577522278,-0.2459876984357834,-3.8762614727020264,2.205324411392212,-1.787157654762268
76,20446,20447,-0.07265549898147583,-0.049477338790893555,1.0216264724731445,31.1239070892334,18.842924118041992,1.866235613822937,0.8459576964378357,-0.13799309730529785,-0.2459876984357834,-4.2583441734313965,2.7610135078430176,-1.7478913068771362
77,20456,20457,-0.11318114399909973,-0.05021638050675392,0.8946850895881653,13.384090423583984,-15.158775329589844,5.751973628997803,0.8639568090438843,-0.14999249577522278,-0.2369881421327591,-4.16432523727417,2.7619950771331787,-1.723487138748169
78,20466,20467,-0.24144531786441803,-0.195684552192688,0.8603461980819702,-7.863864421844482,-39.51256561279297,10.88306713104248,0.8639568090438843,-0.1529923528432846,-0.2459876984357834,-3.7220332622528076,2.8082313537597656,-1.593466877937317
79,20476,20477,-0.0875471979379654,-0.08715900033712387,0.8592910766601562,-20.915746688842773,-58.970523834228516,13.091870307922363,0.8579570651054382,-0.1619918942451477,-0.2369881421327591,-3.5119516849517822,2.6533987522125244,-1.6007648706436157
80,20486,20487,0.018239345401525497,0.07008928805589676,0.8429808616638184,-28.25138282775879,-77.70093536376953,15.297871589660645,0.8699564933776855,-0.1619918942451477,-0.227988600730896,-2.600712537765503,2.2502918243408203,-1.4426722526550293
81,20496,20497,0.08912733942270279,0.02765520103275776,0.966728925704956,-28.0875301361084,-90.3434829711914,18.67076301574707,0.8939552903175354,-0.170991450548172,-0.2369881421327591,-1.645025372505188,1.9878747463226318,-1.2574946880340576
82,20506,20507,-0.014792577363550663,0.00010756414849311113,1.0686087608337402,-17.996952056884766,-100.92060089111328,22.346139907836914,0.8954551815986633,-0.17249137163162231,-0.2384880781173706,-0.9894127249717712,1.7137184143066406,-1.2257319688796997
83,20516,20517,-0.08363334834575653,-0.08615116775035858,1.0036563873291016,-17.292985916137695,-98.83879089355469,25.420724868774414,0.9104544520378113,-0.17849107086658478,-0.2474876195192337,0.33359575271606445,1.656368374824524,-0.8716712594032288
84,20526,20527,-0.1373695731163025,0.01492651179432869,1.091170072555542,-20.016708374023438,-77.93124389648438,25.725208282470703,0.9149542450904846,-0.19199039041996002,-0.23398829996585846,0.6957471966743469,1.4889107942581177,-0.8666142821311951
85,20536,20537,-0.11396864056587219,-0.0030587464570999146,1.1302762031555176,-20.245784759521484,-47.79821014404297,26.82547950744629,0.911954402923584,-0.17399129271507263,-0.23098844289779663,1.4109420776367188,1.2935526371002197,-0.5882923007011414
86,20546,20547,-0.11231177300214767,-0.0025889305397868156,1.1442430019378662,-15.874780654907227,-23.16280174255371,24.016847610473633,0.9089545607566833,-0.16499175131320953,-0.23098844289779663,1.6966969966888428,1.190372109413147,-0.3720686733722687
87,20556,20557,-0.04182721674442291,0.1633133441209793,1.161285400390625,-13.535616874694824,0.35914328694343567,23.071956634521484,0.911954402923584,-0.1619918942451477,-0.22198890149593353,1.8278993368148804,0.938627302646637,-0.1409112960100174
88,20566,20567,-0.10998701304197311,-0.1053692027926445,1.2347726821899414,-25.478113174438477,21.27013397216797,19.12674903869629,0.8984550833702087,-0.14849257469177246,-0.2294885218143463,1.7297230958938599,0.6799153685569763,0.06390966475009918
89,20576,20577,-0.08441805839538574,-0.0313599556684494,1.142734408378601,-47.5557746887207,28.61903190612793,18.407115936279297,0.9059546589851379,-0.13799309730529785,-0.22498874366283417,1.305633544921875,0.3987294137477875,0.1938880980014801
90,20586,20587,-0.06765682250261307,0.11771366745233536,1.009040355682373,-57.786678314208984,28.592063903808594,12.014131546020508,0.9014549255371094,-0.11849407106637955,-0.2384880781173706,0.9754827618598938,-0.23303936421871185,0.3535671532154083
91,20596,20597,-0.058439869433641434,-0.061668526381254196,1.0942453145980835,-46.62422561645508,20.4888916015625,4.351752758026123,0.896955132484436,-0.12899354100227356,-0.2369881421327591,0.8260442018508911,-0.5408387184143066,0.4363868534564972
92,20606,20607,-0.0969938412308693,0.09570453315973282,1.0795950889587402,-26.122745513916016,14.596424102783203,1.375026822090149,0.8894554972648621,-0.11249437183141708,-0.2174891233444214,0.6313971877098083,-1.06520414352417,0.4870535731315613
93,20616,20617,-0.13232339918613434,0.08098519593477249,1.1054552793502808,-1.6994999647140503,7.303618907928467,-2.7543115615844727,0.8834558129310608,-0.10649467259645462,-0.20548972487449646,0.6263870596885681,-1.0720559358596802,0.47999024391174316
94,20626,20627,-0.23447494208812714,-0.14396297931671143,1.136439323425293,19.01595687866211,-12.708416938781738,-5.016112804412842,0.8759561777114868,-0.11999399960041046,-0.21598920226097107,0.7663233280181885,-0.8613910675048828,0.4495004415512085
95,20636,20637,-0.18784615397453308,-0.05750067159533501,1.0674453973770142,36.03322982788086,-23.915653228759766,-5.899777412414551,0.8759561777114868,-0.11999399960041046,-0.21598920226097107,0.9500521421432495,-0.47991034388542175,0.374124139547348
96,20646,20647,-0.15896041691303253,-0.015987742692232132,1.0447132587432861,42.84105682373047,-18.260944366455078,-5.739436149597168,0.8759561777114868,-0.11999399960041046,-0.21598920226097107,1.2692923545837402,-0.13577015697956085,0.35411667823791504
97,20656,20657,0.004458149895071983,0.1323426365852356,0.9280994534492493,39.374263763427734,-13.183270454406738,-6.3608245849609375,0.8759561777114868,-0.11999399960041046,-0.21598920226097107,1.4770854711532593,0.370633602142334,0.2819754183292389
98,20666,20667,-0.03130267933011055,0.06523772329092026,1.043346881866455,23.74492835998535,-8.845855712890625,-7.085124969482422,0.8849557638168335,-0.1229938492178917,-0.2099895030260086,1.3801292181015015,0.4059895873069763,0.2615194618701935
99,20676,20677,-0.08469411730766296,-0.1057940423488617,1.0067681074142456,12.276388168334961,-2.5360188484191895,-8.903586387634277,0.8714563846588135,-0.10349482297897339,-0.2084895670413971,1.3082032203674316,0.8030810356140137,0.0984223261475563
100,20686,20687,-0.12204337120056152,-0.1295766532421112,0.9166761040687561,5.368620872497559,-7.969083309173584,-4.921484470367432,0.8729563355445862,-0.11099445074796677,-0.21598920226097107,1.3672820329666138,0.8319652080535889,0.046317342668771744
101,20696,20697,-0.08645306527614594,-0.007831444963812828,0.9692306518554688,-1.9697171449661255,-28.150123596191406,2.473553419113159,0.8789560198783875,-0.09899504482746124,-0.20398980379104614,1.7400658130645752,0.9035604596138,0.041740454733371735
102,20706,20707,-0.07735347002744675,0.00572307500988245,1.0311405658721924,-6.638993740081787,-51.94438171386719,7.9818034172058105,0.8774561285972595,-0.10649467259645462,-0.20248986780643463,2.1892411708831787,0.8647130131721497,0.0991661548614502
103,20716,20717,-0.0818510428071022,0.014535553753376007,1.0406115055084229,-23.67675018310547,-58.41319274902344,6.587838172912598,0.8879556059837341,-0.11099445074796677,-0.21598920226097107,2.4868388175964355,0.6565391421318054,0.15789183974266052
104,20726,20727,-0.11004336178302765,0.030525241047143936,1.0138044357299805,-54.26473617553711,-39.98919677734375,3.7171542644500732,0.8984550833702087,-0.14249287545681,-0.21448926627635956,3.2259490489959717,0.2284432202577591,0.2586933970451355
105,20736,20737,-0.14397771656513214,0.010371780954301357,1.0093872547149658,-70.46542358398438,-2.6771886348724365,2.557081699371338,0.9134542942047119,-0.12149392068386078,-0.20548972487449646,3.428330659866333,-0.6513950228691101,0.39845162630081177
106,20746,20747,-0.12103527784347534,0.03802728280425072,0.9662336111068726,-61.29833221435547,36.50425338745117,4.933783054351807,0.911954402923584,-0.10799460113048553,-0.22198890149593353,3.2051191329956055,-1.1158709526062012,0.3184954524040222
107,20756,20757,-0.1278020739555359,0.05698411539196968,0.9855573773384094,-36.745243072509766,64.48552703857422,9.0060396194458,0.9059546589851379,-0.1049947515130043,-0.2189890444278717,2.5080056190490723,-1.5596572160720825,0.31641194224357605
108,20766,20767,-0.14233271777629852,0.04932214319705963,0.9646484851837158,-18.32900619506836,79.91172790527344,11.208113670349121,0.8984550833702087,-0.07949602603912354,-0.22048896551132202,1.8502161502838135,-1.795762300491333,0.3812389373779297
109,20776,20777,-0.06914957612752914,0.0036719576455652714,0.9121651649475098,-13.685054779052734,78.00812530517578,10.007027626037598,0.8894554972648621,-0.0944952741265297,-0.22048896551132202,1.0810633897781372,-2.0051918029785156,0.48950111865997314
110,20786,20787,-0.09519735723733902,0.04152221232652664,0.9248016476631165,-5.484972953796387,59.75275802612305,8.096238136291504,0.8729563355445862,-0.09599519520998001,-0.23098844289779663,0.4258926510810852,-2.183534860610962,0.6015708446502686
111,20796,20797,-0.09405329078435898,0.03958987817168236,0.9521297216415405,7.186802387237549,28.990589141845703,3.855806350708008,0.8759561777114868,-0.07499624788761139,-0.21598920226097107,0.4107421040534973,-2.1801648139953613,0.6525250673294067
112,20806,20807,-0.1422829031944275,-0.04059698060154915,0.9475703239440918,27.22086524963379,7.108359336853027,0.8729706406593323,0.8579570651054382,-0.09599519520998001,-0.22198890149593353,0.18539145588874817,-1.9660060405731201,0.641642689704895
113,20816,20817,-0.0546763613820076,0.049076128751039505,0.9819155335426331,56.72374725341797,-11.285948753356934,1.7397847175598145,0.8684565424919128,-0.10049497336149216,-0.22348882257938385,0.17884530127048492,-1.4952759742736816,0.611168384552002
114,20826,20827,-0.07616499811410904,0.04353780671954155,0.9920088052749634,92.21585083007812,-25.73647117614746,8.245211601257324,0.8714563846588135,-0.0944952741265297,-0.22048896551132202,0.588629424571991,-0.5885483622550964,0.5653740167617798
115,20836,20837,-0.13531120121479034,0.0033072892110794783,0.9805840849876404,106.625,-26.634885787963867,18.37313461303711,0.8699564933776855,-0.1229938492178917,-0.22198890149593353,1.0163851976394653,0.2933163642883301,0.7359623312950134
116,20846,20847,-0.07380004972219467,0.06236644089221954,0.8671397566795349,78.33369445800781,-19.489276885986328,28.479990005493164,0.8684565424919128,-0.14249287545681,-0.2294885218143463,1.2305376529693604,1.1836626529693604,1.011866807937622
117,20856,20857,-0.09267773479223251,0.025557279586791992,0.8272228837013245,12.439334869384766,-24.157514572143555,27.538829803466797,0.8639568090438843,-0.14699265360832214,-0.227988600730896,1.4994666576385498,1.4755851030349731,1.3770465850830078
118,20866,20867,-0.15918496251106262,-0.04416346549987793,0.8740435838699341,-49.671207427978516,-20.165786743164062,24.096609115600586,0.8939552903175354,-0.14399279654026031,-0.22498874366283417,1.8224096298217773,1.0836797952651978,1.7303309440612793
119,20876,20877,-0.06892126053571701,0.1350831538438797,1.0007688999176025,-89.45701599121094,6.0099897384643555,20.33245086669922,0.9014549255371094,-0.15449227392673492,-0.22348882257938385,1.7645572423934937,0.2553921639919281,2.025308609008789
120,20886,20887,-0.0516488216817379,0.060369234532117844,0.952481746673584,-105.47113037109375,27.598268508911133,20.473285675048828,0.9029548168182373,-0.14699265360832214,-0.21598920226097107,1.703203797340393,-0.39491888880729675,2.070895195007324
121,20896,20897,-0.1290988177061081,0.029459211975336075,0.9737711548805237,-90.49613189697266,36.15243911743164,20.87458610534668,0.9164541363716125,-0.12749361991882324,-0.2294885218143463,1.2592953443527222,-1.655348300933838,2.3825602531433105
122,20906,20907,-0.12622258067131042,0.07044268399477005,1.0050610303878784,-51.28898239135742,37.404876708984375,19.702163696289062,0.8984550833702087,-0.11549422144889832,-0.23548822104930878,0.7710080742835999,-2.479351758956909,2.6147634983062744
123,20916,20917,-0.06615831702947617,0.10280635207891464,0.9752523899078369,-5.238850116729736,43.49772262573242,19.020551681518555,0.8849557638168335,-0.113994300365448,-0.227988600730896,0.5656160712242126,-2.310731887817383,2.576268434524536
124,20926,20927,-0.029590364545583725,0.045692890882492065,0.9808635115623474,26.75419807434082,42.89055252075195,11.900388717651367,0.8759561777114868,-0.1049947515130043,-0.21298934519290924,0.018437815830111504,-2.314375638961792,2.76760196685791
125,20936,20937,-0.13299496471881866,0.03469391539692879,0.9385247230529785,61.41456604003906,31.280912399291992,5.529055595397949,0.8699564933776855,-0.10799460113048553,-0.22498874366283417,-0.34047678112983704,-1.7857022285461426,2.790522575378418
126,20946,20947,-0.0895305648446083,0.14431515336036682,0.9873749613761902,92.50305938720703,17.39605140686035,4.379621982574463,0.8564571738243103,-0.11849407106637955,-0.21448926627635956,-0.35544100403785706,-0.8462154269218445,2.731748342514038
127,20956,20957,0.06390880793333054,0.18144415318965912,0.922851026058197,98.88301849365234,-1.6315429210662842,7.187254428863525,0.8684565424919128,-0.1514924168586731,-0.23548822104930878,-0.4054713547229767,-0.154617041349411,2.8810033798217773
128,20966,20967,0.11371055990457535,0.14581185579299927,0.8979052305221558,73.5235366821289,-28.770666122436523,7.0942063331604,0.8804559707641602,-0.14849257469177246,-0.23248836398124695,-0.25715237855911255,0.8967912793159485,2.9004037380218506
129,20976,20977,0.15431812405586243,0.10334949195384979,0.9819130301475525,36.937278747558594,-54.30584716796875,4.962765693664551,0.8684565424919128,-0.16949152946472168,-0.2294885218143463,0.2237395942211151,1.4143331050872803,2.966179847717285
130,20986,20987,-0.05067092180252075,-0.038087524473667145,0.9841936230659485,2.7743051052093506,-83.26060485839844,-2.988581418991089,0.8879556059837341,-0.1619918942451477,-0.23398829996585846,0.8520357608795166,1.3629391193389893,3.0586326122283936
131,20996,20997,-0.0876583456993103,-0.03624188154935837,1.032326102256775,-41.30450439453125,-92.64694213867188,-10.031109809875488,0.8864556550979614,-0.16349181532859802,-0.22648866474628448,1.9156696796417236,1.0979561805725098,2.9902520179748535
132,21006,21007,-0.09552041441202164,-0.01044413074851036,1.1739143133163452,-84.37381744384766,-82.33464050292969,-15.60096263885498,0.8999549746513367,-0.15599219501018524,-0.23098844289779663,2.5100228786468506,0.5292373299598694,2.8637895584106445
133,21016,21017,-0.09822966158390045,0.020220555365085602,1.1207338571548462,-108.4337387084961,-57.916259765625,-18.792001724243164,0.9029548168182373,-0.1529923528432846,-0.22498874366283417,3.376035451889038,-0.7934637665748596,2.799203872680664
134,21026,21027,-0.13796237111091614,0.014135919511318207,1.1007472276687622,-101.4263916015625,-31.386240005493164,-18.011798858642578,0.9299534559249878,-0.13799309730529785,-0.227988600730896,3.7975661754608154,-2.1015737056732178,2.709191083908081
135,21036,21037,-0.15350306034088135,-0.027981648221611977,1.0930967330932617,-74.9054946899414,3.8551526069641113,-17.52638053894043,0.9134542942047119,-0.12449377030134201,-0.22048896551132202,3.800723075866699,-2.614590644836426,2.3908915519714355
136,21046,21047,-0.10062266886234283,0.062459953129291534,1.092270851135254,-24.887300491333008,41.40671920776367,-10.938811302185059,0.9134542942047119,-0.10649467259645462,-0.22048896551132202,3.396347761154175,-3.2058067321777344,2.263826608657837
137,21056,21057,-0.1456112265586853,-0.0044683595187962055,1.0449316501617432,38.108001708984375,67.9759292602539,-5.804304599761963,0.8909554481506348,-0.07799609750509262,-0.20398980379104614,3.057891368865967,-2.9058425426483154,2.0267860889434814
138,21066,21067,-0.07770158350467682,0.08051278442144394,1.0446759462356567,103.075927734375,86.08197784423828,-4.925812244415283,0.8774561285972595,-0.08849557489156723,-0.199490025639534,2.082232713699341,-1.9518694877624512,1.8387856483459473
139,21076,21077,-0.04418592154979706,0.03481864929199219,1.0217803716659546,161.88775634765625,99.99239349365234,-5.404072284698486,0.8699564933776855,-0.09899504482746124,-0.21598920226097107,1.5292903184890747,-0.8957347869873047,1.8156393766403198
140,21086,21087,-0.06543485820293427,-0.08750502020120621,0.9201287031173706,195.19154357910156,103.61717987060547,-6.081480503082275,0.8759561777114868,-0.113994300365448,-0.20398980379104614,0.1939597874879837,1.3358995914459229,1.6181694269180298
141,21096,21097,-0.12250018119812012,-0.07641089707612991,0.9424355030059814,192.0920867919922,104.29912567138672,-2.8972532749176025,0.8459576964378357,-0.12599369883537292,-0.23098844289779663,-1.1256753206253052,3.6849992275238037,1.5095994472503662
142,21106,21107,-0.12313421070575714,-0.031409792602062225,0.8261783123016357,164.31002807617188,110.16478729248047,-0.9442993402481079,0.8609569072723389,-0.13499325513839722,-0.23098844289779663,-1.7353498935699463,5.100539207458496,1.6439541578292847
143,21116,21117,-0.08625996857881546,-0.038124606013298035,0.8142508864402771,121.87801361083984,104.55824279785156,4.10008430480957,0.8294585347175598,-0.1334933191537857,-0.2384880781173706,-3.0827829837799072,6.688290596008301,1.7562501430511475
144,21126,21127,0.022427676245570183,0.07064659148454666,0.7632979154586792,55.35945510864258,87.23519897460938,11.021745681762695,0.8459576964378357,-0.15599219501018524,-0.23398829996585846,-3.6156842708587646,7.277810573577881,2.0332159996032715
145,21136,21137,-0.036503247916698456,0.007128546014428139,0.8158020973205566,-29.211606979370117,61.149173736572266,12.226499557495117,0.8339582681655884,-0.14699265360832214,-0.2189890444278717,-4.505736351013184,7.412738800048828,2.2521612644195557
146,21146,21147,-0.06347162276506424,0.1044578105211258,0.8780096769332886,-109.32791900634766,25.928340911865234,12.438942909240723,0.8294585347175598,-0.1334933191537857,-0.2294885218143463,-4.978326797485352,6.248225212097168,2.5129642486572266
147,21156,21157,-0.15765103697776794,0.08124270290136337,0.8416050672531128,-169.65638732910156,-22.98440170288086,7.835294246673584,0.8534573316574097,-0.14549271762371063,-0.24148792028427124,-4.777709007263184,5.046670913696289,2.6609432697296143
148,21166,21167,-0.10489055514335632,-0.015986742451786995,0.7856675386428833,-199.19808959960938,-61.34383773803711,3.20670223236084,0.8789560198783875,-0.1619918942451477,-0.2579870820045471,-4.2168803215026855,2.91517972946167,2.7435781955718994
149,21176,21177,-0.09980305284261703,-0.019258249551057816,0.8709945678710938,-202.5727081298828,-83.1557846069336,1.6202186346054077,0.8789560198783875,-0.1799909919500351,-0.23998799920082092,-3.6870806217193604,1.1880357265472412,2.6809535026550293
150,21186,21187,-0.024099694564938545,-0.006434376817196608,0.8383257985115051,-183.32139587402344,-75.64151000976562,2.295623540878296,0.8909554481506348,-0.14999249577522278,-0.25198739767074585,-2.7360005378723145,-1.1100997924804688,2.7200634479522705
151,21196,21197,-0.1274755746126175,-0.0344235897064209,0.9216733574867249,-148.994140625,-65.82778930664062,1.7222925424575806,0.8774561285972595,-0.13949301838874817,-0.23548822104930878,-2.123626470565796,-2.434903383255005,2.770536184310913
152,21206,21207,-0.09204376488924026,0.11510470509529114,0.997783899307251,-95.6419448852539,-50.581546783447266,-3.1058802604675293,0.8849557638168335,-0.12899354100227356,-0.2459876984357834,-1.4195706844329834,-3.961397171020508,2.8070602416992188
153,21216,21217,-0.06926693022251129,0.10412155091762543,1.0270403623580933,-33.84574508666992,-38.94950485229492,-6.411970615386963,0.8789560198783875,-0.1229938492178917,-0.23098844289779663,-0.9714263677597046,-4.399127960205078,2.8301429748535156
154,21226,21227,-0.07273382693529129,0.1163153126835823,1.0280468463897705,32.08160400390625,-15.70766830444336,-5.534766674041748,0.8804559707641602,-0.13049347698688507,-0.2384880781173706,-0.953239917755127,-4.270822048187256,2.749159812927246
155,21236,21237,-0.11881402879953384,-0.022739725187420845,1.0913234949111938,90.81143188476562,2.492109537124634,-1.6487646102905273,0.8684565424919128,-0.11249437183141708,-0.22348882257938385,-0.8853543400764465,-3.3443679809570312,2.7779576778411865
156,21246,21247,-0.10136205703020096,0.09964118152856827,1.025590181350708,133.02586364746094,31.982513427734375,3.2429563999176025,0.8654567003250122,-0.12449377030134201,-0.23548822104930878,-1.037376046180725,-2.4178779125213623,2.738786220550537
157,21256,21257,-0.044183045625686646,-0.07939121127128601,0.9232765436172485,139.65716552734375,53.8332633972168,5.594545364379883,0.8624568581581116,-0.14249287545681,-0.23548822104930878,-1.5230083465576172,-0.8419157266616821,2.801683187484741
158,21266,21267,-0.054622113704681396,-0.07593829184770584,0.8801926970481873,120.65090942382812,64.49270629882812,2.81848406791687,0.8564571738243103,-0.1334933191537857,-0.22648866474628448,-2.38899564743042,0.6385029554367065,2.878452777862549
159,21276,21277,-0.1680758148431778,-0.18864768743515015,0.9760421514511108,82.79900360107422,60.12476348876953,-0.7212390899658203,0.8564571738243103,-0.13949301838874817,-0.23548822104930878,-2.777381420135498,1.2014259099960327,2.7911932468414307
160,21286,21287,-0.23434987664222717,-0.1272009313106537,0.909021258354187,36.18125915527344,46.42448043823242,-3.9750542640686035,0.850457489490509,-0.13949301838874817,-0.23548822104930878,-3.2477498054504395,1.8901753425598145,2.7972469329833984
161,21296,21297,-0.15803560614585876,-0.1714080423116684,0.9180879592895508,-17.283655166625977,27.798564910888672,-7.696028232574463,0.8489575386047363,-0.11999399960041046,-0.227988600730896,-3.5399012565612793,1.846785545349121,2.7161355018615723
162,21306,21307,0.001872565713711083,0.033502571284770966,0.9500682353973389,-52.663108825683594,4.721334934234619,-11.95595645904541,0.8594570159912109,-0.13649317622184753,-0.23248836398124695,-3.790536642074585,1.2422738075256348,2.5579113960266113
163,21316,21317,0.05344037711620331,0.10949096828699112,1.0228424072265625,-70.44532775878906,-18.045408248901367,-18.465087890625,0.8654567003250122,-0.14249287545681,-0.23548822104930878,-3.6873440742492676,0.8629133701324463,2.4846274852752686
164,21326,21327,-0.030641820281744003,0.030492298305034637,1.0063444375991821,-67.28331756591797,-36.047706604003906,-25.45073699951172,0.8729563355445862,-0.13799309730529785,-0.2369881421327591,-3.5787389278411865,-0.003967219032347202,2.210613250732422
165,21336,21337,0.04971485584974289,0.07218094915151596,0.9732662439346313,-47.92927169799805,-35.41832733154297,-30.126354217529297,0.8744562864303589,-0.13049347698688507,-0.24448777735233307,-2.9911484718322754,-0.6446141600608826,1.9396058320999146
166,21346,21347,-0.06451058387756348,-0.011121091432869434,0.9896516799926758,-19.12946319580078,-23.96454620361328,-33.504947662353516,0.8744562864303589,-0.12749361991882324,-0.24148792028427124,-2.784130334854126,-0.877718985080719,1.671126365661621
167,21356,21357,-0.10377097874879837,-0.253097802400589,0.9436752796173096,26.46551513671875,-8.65087890625,-31.359121322631836,0.8534573316574097,-0.12449377030134201,-0.2384880781173706,-2.6162149906158447,-0.770570695400238,1.3877532482147217
168,21366,21367,-0.11583246290683746,-0.08118733018636703,1.0167959928512573,63.33108901977539,6.99122428894043,-24.310813903808594,0.8594570159912109,-0.12149392068386078,-0.22048896551132202,-2.6144020557403564,-0.17283989489078522,1.1584746837615967
169,21376,21377,-0.19026635587215424,-0.1471601277589798,1.0539063215255737,80.82411193847656,11.122528076171875,-17.591838836669922,0.8534573316574097,-0.13649317622184753,-0.23248836398124695,-2.7486040592193604,0.6008270978927612,0.9700005650520325
170,21386,21387,-0.26575279235839844,-0.2496713101863861,0.9554991126060486,80.11841583251953,16.592626571655273,-11.376068115234375,0.8399580121040344,-0.13799309730529785,-0.23098844289779663,-3.0545856952667236,1.5443681478500366,0.8696868419647217
171,21396,21397,-0.12285556644201279,-0.10212302207946777,0.8934283256530762,45.93543243408203,22.416385650634766,-9.359694480895996,0.8459576964378357,-0.13799309730529785,-0.2369881421327591,-3.256871223449707,1.9758617877960205,0.6766338348388672
172,21406,21407,0.02713915705680847,0.0014005841221660376,0.9640064835548401,4.9098591804504395,17.840503692626953,-7.651913642883301,0.8459576964378357,-0.1319933980703354,-0.2369881421327591,-3.4878528118133545,2.3534767627716064,0.6429395079612732
173,21416,21417,0.048670366406440735,0.22668476402759552,0.949898898601532,-31.176992416381836,0.4029681384563446,-3.4017927646636963,0.8459576964378357,-0.13499325513839722,-0.22498874366283417,-3.589860677719116,2.054384231567383,0.5185244083404541
174,21426,21427,-0.0170363150537014,0.05968211218714714,0.9120135307312012,-51.6363410949707,-21.82846450805664,1.6142909526824951,0.851957380771637,-0.12599369883537292,-0.23398829996585846,-3.3442366123199463,1.484026551246643,0.4416552782058716
175,21436,21437,-0.11845770478248596,-0.0688042938709259,0.9261173009872437,-64.08605194091797,-33.553958892822266,6.685176372528076,0.8654567003250122,-0.13049347698688507,-0.2294885218143463,-3.130349636077881,1.014237642288208,0.520808219909668
176,21446,21447,-0.1041397675871849,-0.027255045250058174,0.9544697403907776,-62.99986267089844,-35.98551559448242,13.460920333862305,0.8669566512107849,-0.14099295437335968,-0.2369881421327591,-2.787264823913574,0.3959448039531708,0.6249772906303406
177,21456,21457,-0.1854461133480072,-0.149398073554039,1.0161652565002441,-56.324134826660156,-25.364179611206055,18.51328468322754,0.8729563355445862,-0.13799309730529785,-0.2369881421327591,-2.318585157394409,-0.2746359705924988,0.7664066553115845
178,21466,21467,-0.07645130157470703,-0.06204741820693016,0.9212023615837097,-53.3816032409668,-13.65450668334961,19.707229614257812,0.8684565424919128,-0.13049347698688507,-0.23248836398124695,-2.1523425579071045,-0.7808403968811035,0.9737148880958557
179,21476,21477,-0.10201941430568695,0.08744454383850098,0.8892322778701782,-48.364471435546875,-9.874798774719238,17.683151245117188,0.8774561285972595,-0.11549422144889832,-0.22048896551132202,-2.214620351791382,-1.2562079429626465,1.1648297309875488
180,21486,21487,-0.06090490147471428,0.138427272439003,0.9508770108222961,-38.23666763305664,-6.2084808349609375,14.190569877624512,0.8744562864303589,-0.12449377030134201,-0.2294885218143463,-2.103182792663574,-1.5281755924224854,1.4023871421813965
181,21496,21497,-0.07289551943540573,0.05678372457623482,0.9317113757133484,-19.41887855529785,-2.0269417762756348,8.728281021118164,0.8684565424919128,-0.11849407106637955,-0.21448926627635956,-2.017402172088623,-1.9047155380249023,1.4924529790878296
182,21506,21507,-0.07084304094314575,0.07534299045801163,0.9772524833679199,5.57193660736084,-11.820303916931152,3.1793065071105957,0.8654567003250122,-0.11249437183141708,-0.2174891233444214,-1.9314000606536865,-1.7237380743026733,1.6705797910690308
183,21516,21517,0.006426535081118345,0.13606591522693634,1.0736522674560547,43.909488677978516,-24.039453506469727,1.3182612657546997,0.8744562864303589,-0.12149392068386078,-0.22048896551132202,-1.8438297510147095,-1.6010993719100952,1.6621836423873901
184,21526,21527,-0.023815561085939407,0.07773646712303162,1.040067434310913,84.58047485351562,-26.779170989990234,5.262747287750244,0.8744562864303589,-0.12149392068386078,-0.22048896551132202,-1.5051264762878418,-0.7713978290557861,1.7619328498840332
185,21536,21537,-0.11438850313425064,0.008020932786166668,0.996088445186615,101.03644561767578,-27.192094802856445,13.846863746643066,0.8744562864303589,-0.12149392068386078,-0.22048896551132202,-1.2280977964401245,-0.05240010842680931,1.7672202587127686
186,21546,21547,-0.07310564070940018,0.00015416361566167325,1.0085136890411377,82.45878601074219,-41.4665412902832,17.196901321411133,0.8669566512107849,-0.1529923528432846,-0.22498874366283417,-0.8332327008247375,1.176812767982483,2.0133440494537354
187,21556,21557,-0.0695623829960823,0.048153650015592575,1.0719163417816162,47.2256965637207,-58.82837677001953,13.698335647583008,0.8774561285972595,-0.16349181532859802,-0.23248836398124695,-0.1484466940164566,1.6817766427993774,2.095435857772827
188,21566,21567,-0.1488916277885437,-0.014118760824203491,1.1358939409255981,-3.081925868988037,-68.03240203857422,5.321767330169678,0.8849557638168335,-0.17399129271507263,-0.23098844289779663,0.18681210279464722,1.6481313705444336,2.109403371810913
189,21576,21577,-0.11579735577106476,0.0054624550975859165,1.0491943359375,-58.17767333984375,-53.7835693359375,-3.497795581817627,0.8864556550979614,-0.16649167239665985,-0.2294885218143463,1.2278751134872437,1.0733728408813477,2.018948554992676
190,21586,21587,-0.06093985214829445,0.006413593422621489,1.001366376876831,-97.43533325195312,-32.52315902709961,-13.978225708007812,0.9014549255371094,-0.17549122869968414,-0.24448777735233307,1.277733325958252,0.44142571091651917,1.9654030799865723
191,21596,21597,-0.06989309191703796,0.022135762497782707,1.028207540512085,-114.88040924072266,-10.762984275817871,-22.424942016601562,0.9164541363716125,-0.13949301838874817,-0.22648866474628448,1.5306919813156128,-0.8302147388458252,1.7472012042999268
192,21606,21607,-0.11436795443296432,9.469598444411531e-05,1.1533921957015991,-113.98240661621094,13.15129566192627,-27.405786514282227,0.90445476770401,-0.1334933191537857,-0.24448777735233307,1.4737929105758667,-1.8305615186691284,1.512624979019165
193,21616,21617,-0.07688675820827484,-0.008464128710329533,1.0857527256011963,-88.31243133544922,29.372549057006836,-29.196369171142578,0.9089545607566833,-0.12599369883537292,-0.23998799920082092,1.2360916137695312,-3.0210161209106445,1.2079616785049438
194,21626,21627,-0.08896323293447495,0.08808854967355728,1.030763030052185,-39.95460891723633,41.659645080566406,-29.297195434570312,0.9074546098709106,-0.11849407106637955,-0.22348882257938385,0.861484706401825,-3.6599199771881104,0.8969108462333679
195,21636,21637,-0.06316086649894714,0.04722261056303978,1.043387532234192,21.936704635620117,47.31620407104492,-34.058380126953125,0.8939552903175354,-0.10199490189552307,-0.23098844289779663,0.39253097772598267,-3.549011468887329,0.5519410967826843
196,21646,21647,-0.05697495862841606,0.02973409928381443,1.0539742708206177,73.54891204833984,39.199302673339844,-37.497703552246094,0.8744562864303589,-0.08849557489156723,-0.22048896551132202,-0.015937134623527527,-2.754781484603882,0.16626237332820892
197,21656,21657,-0.0731855109333992,0.016528289765119553,1.0654492378234863,109.42781829833984,36.11437225341797,-39.5561408996582,0.8804559707641602,-0.10049497336149216,-0.2174891233444214,-0.40379706025123596,-1.9628137350082397,-0.22763346135616302
198,21666,21667,-0.09053464978933334,0.014256702736020088,1.0547420978546143,127.69971466064453,36.98604202270508,-39.53368377685547,0.8669566512107849,-0.1229938492178917,-0.2369881421327591,-0.6305078268051147,-0.6885411739349365,-0.6576442122459412
199,21676,21677,-0.054009146988391876,-0.012914584018290043,1.0087143182754517,130.5872344970703,42.22297668457031,-37.88661575317383,0.8624568581581116,-0.12449377030134201,-0.22648866474628448,-1.1482869386672974,0.8746939897537231,-1.03269362449646
200,21686,21687,-0.10628658533096313,-0.009511725045740604,0.9959867596626282,114.4057388305664,38.60871505737305,-36.870948791503906,0.8639568090438843,-0.13499325513839722,-0.22198890149593353,-1.5418239831924438,1.8650355339050293,-1.3935582637786865
201,21696,21697,-0.1686016172170639,-0.14288945496082306,1.0302598476409912,86.3130111694336,27.833454132080078,-34.23308181762695,0.8594570159912109,-0.13049347698688507,-0.2474876195192337,-1.9393582344055176,2.8729488849639893,-1.7348414659500122
202,21706,21707,-0.05641406401991844,-0.06252894550561905,0.9374228119850159,34.83156204223633,4.084247589111328,-29.830835342407227,0.8579570651054382,-0.14399279654026031,-0.23398829996585846,-2.1681900024414062,3.0767509937286377,-2.0261385440826416
203,21716,21717,-0.05711130425333977,0.004138029180467129,0.9108840823173523,-22.354379653930664,-13.510499954223633,-24.841421127319336,0.8564571738243103,-0.1334933191537857,-0.2294885218143463,-1.9607747793197632,3.122540235519409,-2.327622413635254
204,21726,21727,-0.06911879032850266,-0.02710859850049019,0.9300148487091064,-67.57781219482422,-28.52164649963379,-23.809524536132812,0.8594570159912109,-0.12149392068386078,-0.2294885218143463,-2.034212589263916,2.5458855628967285,-2.5626473426818848
205,21736,21737,-0.04438905045390129,0.02483121119439602,0.984794557094574,-95.70093536376953,-39.26811981201172,-23.618061065673828,0.8744562864303589,-0.12449377030134201,-0.22048896551132202,-1.400557279586792,1.6045218706130981,-2.8190629482269287
206,21746,21747,-0.0787985622882843,0.00347363599576056,0.9898218512535095,-101.74530792236328,-47.788429260253906,-23.26936149597168,0.8699564933776855,-0.13499325513839722,-0.22498874366283417,-1.1336970329284668,0.43750008940696716,-3.0690555572509766
207,21756,21757,-0.035242728888988495,0.01020185649394989,1.0092793703079224,-89.94921112060547,-54.37076950073242,-24.209077835083008,0.8999549746513367,-0.1319933980703354,-0.24298784136772156,-0.6237475275993347,-0.2550084590911865,-3.3004672527313232
208,21766,21767,-0.0625608041882515,0.02187901921570301,1.037832260131836,-65.0077133178711,-52.71112823486328,-22.1961669921875,0.90445476770401,-0.13049347698688507,-0.25348731875419617,-0.01449744962155819,-1.252225399017334,-3.532352924346924
209,21776,21777,-0.04231167957186699,0.00571356201544404,1.0342222452163696,-28.187204360961914,-42.6879768371582,-18.58403778076172,0.8909554481506348,-0.1229938492178917,-0.24298784136772156,0.12703828513622284,-1.4879727363586426,-3.74777889251709
210,21786,21787,-0.0598461851477623,0.02957163006067276,1.057611107826233,10.159645080566406,-29.739917755126953,-15.079245567321777,0.8939552903175354,-0.11999399960041046,-0.23098844289779663,0.5250936150550842,-1.4707038402557373,-3.9071390628814697
211,21796,21797,-0.1000656709074974,-0.02341797575354576,1.0434224605560303,43.63125228881836,-18.387048721313477,-10.893433570861816,0.8879556059837341,-0.09599519520998001,-0.2189890444278717,0.9070637226104736,-1.1023521423339844,-4.030794143676758
212,21806,21807,-0.05541697144508362,-0.008036787621676922,0.995100736618042,66.94636535644531,-9.017823219299316,-8.109631538391113,0.8669566512107849,-0.09599519520998001,-0.21598920226097107,0.8505935668945312,-0.542813241481781,-4.121582984924316
213,21816,21817,-0.02673889696598053,0.04900003597140312,1.0058996677398682,73.71134948730469,0.9990043640136719,-6.358238220214844,0.8699564933776855,-0.10199490189552307,-0.2099895030260086,0.9227689504623413,0.36585840582847595,-4.207921504974365
214,21826,21827,-0.08803128451108932,-0.05057945474982262,0.9651644229888916,65.8604965209961,10.223220825195312,-5.330204010009766,0.8699564933776855,-0.10199490189552307,-0.22498874366283417,0.8460988402366638,0.8165590763092041,-4.235960960388184
215,21836,21837,-0.08257655799388885,-0.047374479472637177,0.9485508799552917,41.53078079223633,22.003650665283203,-5.804950714111328,0.8669566512107849,-0.113994300365448,-0.2189890444278717,0.5259960889816284,1.4786279201507568,-4.290258884429932
216,21846,21847,-0.01841278001666069,0.011848687194287777,0.9259942173957825,21.544776916503906,31.627113342285156,-5.457430362701416,0.8609569072723389,-0.10199490189552307,-0.21298934519290924,0.22830525040626526,1.6991325616836548,-4.3278727531433105
217,21856,21857,-0.024135226383805275,-0.00040771797648631036,0.9189956784248352,3.7304999828338623,32.57817459106445,-3.086566686630249,0.8699564933776855,-0.08999549597501755,-0.21298934519290924,-0.12777896225452423,1.8961137533187866,-4.372341632843018
218,21866,21867,-0.023220857605338097,-0.007849655114114285,0.9262610673904419,-13.388444900512695,15.395256042480469,-0.4648949205875397,0.8639568090438843,-0.09599519520998001,-0.2189890444278717,-0.33330151438713074,1.8143107891082764,-4.376230239868164
219,21876,21877,-0.058375436812639236,-0.11543910205364227,0.9991428852081299,-23.236413955688477,-2.085569143295288,3.1359541416168213,0.8759561777114868,-0.08699564635753632,-0.22498874366283417,-0.3486809730529785,1.5068892240524292,-4.344439506530762
220,21886,21887,-0.014173355884850025,-0.0017243212787434459,0.9331615567207336,-28.520381927490234,-23.934661865234375,4.179083347320557,0.8654567003250122,-0.10949452221393585,-0.21448926627635956,-0.20504355430603027,1.316461205482483,-4.317549228668213
221,21896,21897,-0.011786453425884247,0.039053067564964294,0.9486806988716125,-38.94545364379883,-43.529754638671875,1.1361874341964722,0.8924553394317627,-0.11849407106637955,-0.2084895670413971,-0.16629035770893097,0.8509833812713623,-4.295277118682861
222,21906,21907,-0.06897368282079697,0.012021930888295174,1.1301335096359253,-43.24431228637695,-61.37822723388672,-1.9971632957458496,0.8879556059837341,-0.11099445074796677,-0.22198890149593353,0.5426571369171143,0.3923584222793579,-4.2778849601745605
223,21916,21917,0.09822531044483185,0.20979000627994537,0.943660318851471,-34.15198516845703,-66.63800811767578,-4.775989532470703,0.8939552903175354,-0.11699414998292923,-0.22498874366283417,1.2771490812301636,-0.06000477448105812,-4.2939772605896
224,21926,21927,-0.04522576555609703,0.05396760255098343,0.9235594868659973,-24.914440155029297,-61.833152770996094,-8.529644012451172,0.8999549746513367,-0.1229938492178917,-0.23098844289779663,1.6086301803588867,-0.2002951204776764,-4.422324180603027
225,21936,21937,-0.09221814572811127,-0.02828509546816349,0.9704605340957642,-16.16691017150879,-40.26665115356445,-9.280409812927246,0.8864556550979614,-0.12749361991882324,-0.22348882257938385,2.182094097137451,-0.49527716636657715,-4.488912105560303
226,21946,21947,-0.058733291923999786,-0.015886619687080383,0.9693337678909302,-7.370715618133545,-14.791616439819336,-9.25674819946289,0.8924553394317627,-0.09749512374401093,-0.22648866474628448,2.2898175716400146,-0.6397421956062317,-4.589350700378418
227,21956,21957,-0.07000917196273804,-0.0024604753125458956,1.0049163103103638,11.75505542755127,13.646990776062012,-7.297046661376953,0.8894554972648621,-0.09749512374401093,-0.2174891233444214,2.391772985458374,-0.42011135816574097,-4.723209857940674
228,21966,21967,0.040316201746463776,0.1886596381664276,1.0220695734024048,32.294429779052734,35.205081939697266,-5.316673755645752,0.8864556550979614,-0.10349482297897339,-0.2084895670413971,2.0846190452575684,-0.1487766057252884,-4.809056282043457
229,21976,21977,-0.05329648405313492,0.06047539412975311,1.0001646280288696,41.913124084472656,39.071075439453125,-6.567502021789551,0.8954551815986633,-0.10049497336149216,-0.22048896551132202,1.5688254833221436,0.27813848853111267,-4.887104034423828
230,21986,21987,0.12705309689044952,0.02014509029686451,0.9308010339736938,42.39232635498047,31.366466522216797,-4.619451522827148,0.8849557638168335,-0.11099445074796677,-0.22198890149593353,1.1434005498886108,0.7629476189613342,-4.964975833892822
231,21996,21997,0.06545208394527435,0.04028600454330444,0.9686375260353088,32.43098449707031,1.0504539012908936,-2.556215286254883,0.8849557638168335,-0.1319933980703354,-0.2099895030260086,1.065700650215149,1.1114050149917603,-4.986789703369141
232,22006,22007,-0.11320196837186813,0.03263731673359871,1.1044684648513794,13.251184463500977,-23.730789184570312,-1.4667222499847412,0.8774561285972595,-0.13049347698688507,-0.22048896551132202,1.3561748266220093,1.3430726528167725,-4.997012138366699
233,22016,22017,-0.05650144815444946,0.013183210976421833,1.0214252471923828,-5.248073101043701,-43.63840866088867,-0.8861874341964722,0.8939552903175354,-0.11699414998292923,-0.22498874366283417,1.5046557188034058,1.307162880897522,-4.992288589477539
234,22026,22027,-0.10208926349878311,-0.021946653723716736,0.8871626853942871,-21.714143753051758,-61.03653335571289,-3.4134068489074707,0.896955132484436,-0.1229938492178917,-0.2189890444278717,2.116211414337158,1.0040026903152466,-4.950558185577393
235,22036,22037,-0.19838190078735352,-0.2920115292072296,0.8955731987953186,-30.53982925415039,-62.19301223754883,-8.257206916809082,0.9134542942047119,-0.13649317622184753,-0.22048896551132202,2.920917272567749,0.7303751111030579,-4.997337818145752
236,22046,22047,-0.040163423866033554,-0.0858364850282669,0.9594663977622986,-23.845012664794922,-66.2173843383789,-10.654540061950684,0.9149542450904846,-0.13499325513839722,-0.227988600730896,3.294438362121582,0.4557846486568451,-5.125828742980957
237,22056,22057,-0.03986959159374237,-0.0048806872218847275,0.975799560546875,-1.5805962085723877,-55.781585693359375,-10.050460815429688,0.9269536137580872,-0.12899354100227356,-0.22198890149593353,4.040381908416748,0.3737891912460327,-5.247406005859375
238,22066,22067,-0.06258893013000488,-0.011983469128608704,0.9873735308647156,21.333797454833984,-31.684537887573242,-6.43651819229126,0.9149542450904846,-0.12899354100227356,-0.22198890149593353,4.398439884185791,0.463088721036911,-5.3458685874938965
239,22076,22077,-0.04561329260468483,0.004222435876727104,0.9965144991874695,43.55840301513672,-2.2540183067321777,-0.04255447909235954,0.9089545607566833,-0.13499325513839722,-0.22198890149593353,4.4429497718811035,1.0533168315887451,-5.528146743774414
240,22086,22087,-0.06658801436424255,-0.01829492300748825,0.9888846278190613,65.69224548339844,22.33575439453125,6.423008441925049,0.9029548168182373,-0.1319933980703354,-0.2099895030260086,4.340914726257324,1.490236759185791,-5.445164680480957
241,22096,22097,-0.0702149048447609,0.00775564881041646,0.9664453864097595,63.583168029785156,42.20940399169922,10.890450477600098,0.9179540872573853,-0.13799309730529785,-0.22498874366283417,3.8570549488067627,2.3129093647003174,-5.44508695602417
242,22106,22107,0.0192498080432415,0.08341740816831589,0.8768956661224365,35.62655258178711,49.733367919921875,13.69941520690918,0.90445476770401,-0.14549271762371063,-0.2294885218143463,3.2289609909057617,2.762838125228882,-5.268528938293457
243,22116,22117,-0.015804417431354523,0.017480287700891495,0.9096140265464783,-5.928837299346924,37.159603118896484,13.074167251586914,0.911954402923584,-0.14999249577522278,-0.23098844289779663,2.953792095184326,2.8473451137542725,-5.049077987670898
244,22126,22127,-0.09919674694538116,-0.05207062512636185,0.957854151725769,-47.867950439453125,21.40457534790039,15.945208549499512,0.9134542942047119,-0.14549271762371063,-0.23248836398124695,2.6887478828430176,2.327371597290039,-4.732032299041748
245,22136,22137,-0.023615462705492973,0.02756567671895027,0.9777932167053223,-82.05607604980469,3.2918190956115723,16.322067260742188,0.9224538803100586,-0.1514924168586731,-0.22048896551132202,2.696672201156616,1.825747013092041,-4.632784843444824
246,22146,22147,-0.11380422860383987,-0.056302886456251144,1.0280020236968994,-97.10888671875,-17.378602981567383,15.179586410522461,0.9284535646438599,-0.1604919731616974,-0.23548822104930878,2.7950165271759033,0.7854477167129517,-4.400629997253418
247,22156,22157,-0.08311183005571365,-0.09918193519115448,0.9877744913101196,-94.30475616455078,-30.632373809814453,14.186575889587402,0.9464526772499084,-0.1514924168586731,-0.23548822104930878,3.140226364135742,-0.40524739027023315,-4.08250617980957
248,22166,22167,-0.14185120165348053,-0.10197281837463379,1.0704262256622314,-81.19129180908203,-39.23120880126953,8.176793098449707,0.9359531998634338,-0.14099295437335968,-0.23098844289779663,3.427173376083374,-0.9820767641067505,-4.18191385269165
249,22176,22177,-0.1166074275970459,-0.011056419461965561,1.1081578731536865,-50.37350845336914,-48.094940185546875,5.801652431488037,0.950952410697937,-0.1619918942451477,-0.24298784136772156,3.862537145614624,-1.7565370798110962,-4.0466814041137695
250,22186,22187,-0.09014271944761276,0.07920007407665253,1.147213101387024,-1.032763123512268,-64.66423797607422,6.581729412078857,0.9269536137580872,-0.170991450548172,-0.227988600730896,4.477961540222168,-1.8830474615097046,-4.084834575653076
251,22196,22197,-0.09464777261018753,0.05937790125608444,1.2098023891448975,35.135108947753906,-64.68360900878906,10.299084663391113,0.9464526772499084,-0.16949152946472168,-0.23248836398124695,5.269832611083984,-1.584070086479187,-4.09404993057251
252,22206,22207,-0.12006063759326935,0.010209215804934502,1.2730767726898193,69.59247589111328,-34.80499267578125,16.963621139526367,0.9419528841972351,-0.16499175131320953,-0.2459876984357834,5.56548547744751,-1.0614665746688843,-3.9949023723602295
253,22216,22217,-0.12928082048892975,-0.004093984141945839,1.2244741916656494,85.44937896728516,9.197846412658691,22.581676483154297,0.9404529333114624,-0.14849257469177246,-0.24148792028427124,5.783562660217285,-0.27605098485946655,-3.8093435764312744
254,22226,22227,-0.10740864276885986,0.03583865612745285,1.201626181602478,75.57388305664062,47.77116394042969,21.143712997436523,0.9284535646438599,-0.14849257469177246,-0.23248836398124695,5.3023576736450195,0.804854154586792,-3.788743734359741
255,22236,22237,-0.07655838876962662,-0.030490923672914505,1.1099809408187866,52.41145324707031,59.45106887817383,16.590072631835938,0.919454038143158,-0.13949301838874817,-0.23248836398124695,4.7986063957214355,1.0813413858413696,-3.3025782108306885
256,22246,22247,-0.07090393453836441,-0.04880039393901825,1.106031894683838,19.931119918823242,58.666385650634766,9.632084846496582,0.9164541363716125,-0.1334933191537857,-0.22348882257938385,4.149112701416016,1.6071115732192993,-3.256596326828003
257,22256,22257,0.12264753133058548,0.10618540644645691,1.0946587324142456,-22.291885375976562,55.31861877441406,9.23530101776123,0.9059546589851379,-0.12599369883537292,-0.21298934519290924,3.856741189956665,1.2690339088439941,-2.879610061645508
258,22266,22267,0.18105357885360718,0.09884589910507202,1.0564028024673462,-44.55384063720703,47.350669860839844,8.191814422607422,0.9284535646438599,-0.11549422144889832,-0.2174891233444214,3.1788811683654785,0.8938313126564026,-2.7467856407165527
259,22276,22277,0.03846804425120354,0.0494447723031044,1.0923810005187988,-54.73855972290039,41.61039733886719,3.7766027450561523,0.911954402923584,-0.113994300365448,-0.22498874366283417,2.7508864402770996,0.18157346546649933,-2.511768341064453
260,22286,22287,-0.15719443559646606,-0.04711007699370384,1.1255229711532593,-27.29291343688965,35.59074783325195,4.9163665771484375,0.9134542942047119,-0.11549422144889832,-0.22048896551132202,2.5486299991607666,-0.06045990437269211,-2.6383097171783447
261,22296,22297,-0.047910176217556,-0.1091255247592926,1.1676156520843506,9.254563331604004,26.719022750854492,9.77298641204834,0.8909554481506348,-0.09599519520998001,-0.2189890444278717,2.0248892307281494,-0.14069603383541107,-2.6319844722747803
262,22306,22307,0.0156771931797266,-0.048558205366134644,1.0611509084701538,36.84807586669922,17.28062629699707,13.246576309204102,0.90445476770401,-0.11249437183141708,-0.2174891233444214,1.9772837162017822,0.2904481887817383,-2.6560797691345215
263,22316,22317,-0.10077803581953049,-0.0043089124374091625,0.9321973919868469,52.44148635864258,12.159540176391602,13.010820388793945,0.8924553394317627,-0.12749361991882324,-0.22048896551132202,1.7774745225906372,0.881458580493927,-2.629509449005127
264,22326,22327,-0.08077947050333023,-0.03153328597545624,0.972821831703186,52.35316848754883,2.4900267124176025,9.966689109802246,0.8834558129310608,-0.13649317622184753,-0.2084895670413971,1.7452096939086914,1.5013223886489868,-2.5700244903564453
265,22336,22337,0.004842411261051893,0.006647323723882437,0.9419322609901428,43.66112518310547,-0.15221746265888214,10.140491485595703,0.8774561285972595,-0.12149392068386078,-0.2174891233444214,1.713797688484192,1.913378357887268,-2.414407253265381
266,22346,22347,-0.10162725299596786,-0.0430293083190918,0.9075238704681396,16.069034576416016,-0.33851495385169983,10.894350051879883,0.8879556059837341,-0.1319933980703354,-0.21598920226097107,1.691889762878418,2.2041497230529785,-2.281606435775757
267,22356,22357,-0.03821130096912384,0.004853361751884222,0.8839679956436157,-18.506874084472656,13.308281898498535,11.073583602905273,0.8909554481506348,-0.12599369883537292,-0.21298934519290924,1.5477029085159302,2.114788770675659,-2.105576753616333
268,22366,22367,-0.0624530054628849,-0.08743676543235779,0.8988451361656189,-53.64641571044922,28.98531723022461,12.568032264709473,0.8894554972648621,-0.11849407106637955,-0.22348882257938385,1.523992657661438,1.796469807624817,-1.9836417436599731
269,22376,22377,-0.18602760136127472,0.04495374485850334,0.9090734720230103,-72.62259674072266,44.7621955871582,15.3425931930542,0.8894554972648621,-0.11249437183141708,-0.22348882257938385,1.2385433912277222,1.0472848415374756,-1.7731226682662964
270,22386,22387,-0.14239907264709473,-0.003326194593682885,0.9352198243141174,-83.06594848632812,58.51187515258789,19.463171005249023,0.8879556059837341,-0.12599369883537292,-0.2189890444278717,0.5881190299987793,0.07849540561437607,-1.5247775316238403
271,22396,22397,-0.09589765220880508,-0.05485258251428604,0.9375320672988892,-80.818359375,70.79707336425781,22.025554656982422,0.8954551815986633,-0.11249437183141708,-0.23248836398124695,-0.3539236783981323,-0.7949477434158325,-1.3367666006088257
272,22406,22407,-0.020447351038455963,0.026650600135326385,0.9593991041183472,-67.96607971191406,75.17455291748047,23.68855094909668,0.8984550833702087,-0.11849407106637955,-0.22348882257938385,-1.0715439319610596,-1.3719383478164673,-1.1888335943222046
273,22416,22417,-0.01729484461247921,-0.07122112065553665,0.9575611352920532,-42.62855911254883,66.47773742675781,23.520078659057617,0.8984550833702087,-0.11849407106637955,-0.22348882257938385,-1.6059867143630981,-2.010985851287842,-0.9403641819953918
274,22426,22427,-0.182761549949646,-0.0872056856751442,1.0551764965057373,-10.99427318572998,44.20039367675781,21.179622650146484,0.8984550833702087,-0.11849407106637955,-0.22348882257938385,-2.0329372882843018,-2.0923030376434326,-0.7819423675537109
275,22436,22437,-0.1816655844449997,-0.06854373216629028,1.1091415882110596,13.510866165161133,17.346576690673828,15.367907524108887,0.8849557638168335,-0.11099445074796677,-0.23098844289779663,-2.387378692626953,-2.0610861778259277,-0.6081718802452087
276,22446,22447,-0.07580665498971939,0.03669845312833786,1.058025598526001,35.489784240722656,-10.201869010925293,8.140233993530273,0.8849557638168335,-0.10799460113048553,-0.23398829996585846,-2.3804707527160645,-1.658657193183899,-0.5142756104469299
277,22456,22457,-0.06250371783971786,0.027005933225154877,1.046871304512024,49.71752166748047,-40.36648941040039,5.60706090927124,0.8789560198783875,-0.12599369883537292,-0.21598920226097107,-2.1925032138824463,-1.2107590436935425,-0.4382363557815552
278,22466,22467,-0.07946649193763733,0.006869025528430939,1.0455892086029053,61.938751220703125,-61.459503173828125,8.082401275634766,0.8789560198783875,-0.13499325513839722,-0.22498874366283417,-1.4867995977401733,-0.5978305339813232,-0.3863929808139801
279,22476,22477,-0.04695332050323486,0.16061702370643616,1.0103085041046143,61.65968322753906,-65.75655364990234,10.822482109069824,0.8714563846588135,-0.1514924168586731,-0.23248836398124695,-1.0256775617599487,-0.11081943660974503,-0.2760193347930908
280,22486,22487,-0.060385167598724365,0.15368102490901947,1.0979523658752441,43.27237319946289,-49.224552154541016,16.455516815185547,0.8879556059837341,-0.1619918942451477,-0.23098844289779663,-0.2446988970041275,0.5654875040054321,-0.15703465044498444
281,22496,22497,0.011113809421658516,0.02798415720462799,1.002315878868103,15.335783958435059,-26.000713348388672,18.545711517333984,0.8894554972648621,-0.15749211609363556,-0.2294885218143463,0.03210001438856125,0.7628015875816345,0.014913508668541908
282,22506,22507,0.009159384295344353,-0.024718182161450386,0.9737342000007629,-9.971841812133789,4.6192946434021,19.571029663085938,0.8849557638168335,-0.14699265360832214,-0.2459876984357834,-0.19161860644817352,0.7405727505683899,0.24281105399131775
283,22516,22517,0.019777722656726837,0.18780072033405304,1.0521669387817383,-29.3127498626709,36.50581741333008,21.04068374633789,0.8879556059837341,-0.1229938492178917,-0.22198890149593353,-0.4059232771396637,0.3635933995246887,0.4220893979072571
284,22526,22527,-0.020665327087044716,0.059961944818496704,0.9754090309143066,-43.686424255371094,58.213741302490234,23.334196090698242,0.8864556550979614,-0.11249437183141708,-0.22348882257938385,-0.8500527739524841,0.09223169088363647,0.6574293375015259
285,22536,22537,-0.020881397649645805,0.030139535665512085,0.9549375176429749,-54.95545196533203,65.7116928100586,23.126020431518555,0.8909554481506348,-0.13499325513839722,-0.23098844289779663,-1.739811658859253,-0.47164320945739746,0.8971287608146667
286,22546,22547,0.03539383038878441,0.05588318780064583,1.0049678087234497,-65.77397155761719,56.15238952636719,20.322891235351562,0.8834558129310608,-0.11549422144889832,-0.2294885218143463,-2.087395668029785,-0.9821903109550476,1.1013784408569336
287,22556,22557,-0.014899468049407005,-0.055755335837602615,0.935066819190979,-68.3782958984375,39.26325988769531,18.2032413482666,0.8729563355445862,-0.11099445074796677,-0.22498874366283417,-2.7102575302124023,-1.7451763153076172,1.2743875980377197
288,22566,22567,-0.0758318230509758,-0.04210429638624191,0.9391044974327087,-61.71009826660156,18.77667236328125,13.891702651977539,0.8759561777114868,-0.10199490189552307,-0.23398829996585846,-2.9998626708984375,-2.5397093296051025,1.3934576511383057
289,22576,22577,-0.009893903508782387,0.07130709290504456,0.9751943349838257,-48.18683624267578,-0.5370900630950928,10.489725112915039,0.8759561777114868,-0.113994300365448,-0.24298784136772156,-3.097402572631836,-2.7985899448394775,1.6073147058486938
290,22586,22587,-0.037246156483888626,0.03414378687739372,0.9958804845809937,-14.024460792541504,-23.505714416503906,5.860356330871582,0.8699564933776855,-0.09599519520998001,-0.2369881421327591,-2.9179530143737793,-3.126492738723755,1.6846352815628052
291,22596,22597,-0.0330173633992672,0.06984641402959824,1.013663649559021,17.212202072143555,-39.21028137207031,4.910471439361572,0.8804559707641602,-0.11849407106637955,-0.22048896551132202,-2.6346051692962646,-3.057943105697632,1.7839761972427368
292,22606,22607,-0.1442275494337082,-0.12051024287939072,1.0792933702468872,47.045433044433594,-54.934661865234375,2.175657033920288,0.8744562864303589,-0.10349482297897339,-0.2294885218143463,-2.247659921646118,-2.5859599113464355,1.9305330514907837
293,22616,22617,-0.17385073006153107,-0.16444513201713562,1.025931715965271,60.98310470581055,-64.41932678222656,-0.7730156779289246,0.8804559707641602,-0.12149392068386078,-0.23248836398124695,-1.7816709280014038,-2.0544261932373047,1.9944082498550415
294,22626,22627,-0.079803965985775,4.032867946079932e-05,1.0239251852035522,58.83937072753906,-72.85873413085938,-3.150240421295166,0.8744562864303589,-0.13649317622184753,-0.23248836398124695,-0.8407233953475952,-1.5010381937026978,1.8938038349151611
295,22636,22637,-0.12798716127872467,0.017195886000990868,1.0760183334350586,41.82319259643555,-85.29060363769531,-7.2941813468933105,0.8819558620452881,-0.14399279654026031,-0.23098844289779663,0.00922040082514286,-0.8511406183242798,1.9008989334106445
296,22646,22647,-0.0353672169148922,0.00035492429742589593,1.0556056499481201,32.09336853027344,-88.7330322265625,-14.419414520263672,0.8984550833702087,-0.14849257469177246,-0.23248836398124695,0.6967595815658569,-0.6360381841659546,1.8002533912658691
297,22656,22657,-0.1014123260974884,-0.048931416124105453,1.0724512338638306,35.239601135253906,-82.67149353027344,-16.607818603515625,0.911954402923584,-0.1529923528432846,-0.2369881421327591,1.7086330652236938,-0.31628289818763733,1.60164213180542
298,22666,22667,-0.16106535494327545,-0.1377970576286316,1.1656701564788818,36.48990249633789,-73.04081726074219,-11.940107345581055,0.919454038143158,-0.15449227392673492,-0.22648866474628448,2.306741952896118,0.20467516779899597,1.557844638824463
299,22676,22677,-0.10315746068954468,-0.06900349259376526,1.069986343383789,23.15119171142578,-51.32786178588867,-5.4180121421813965,0.911954402923584,-0.14999249577522278,-0.21298934519290924,2.9319684505462646,0.19634899497032166,1.3535950183868408
300,22686,22687,-0.1051107868552208,0.052142154425382614,1.0965172052383423,2.8506782054901123,-26.646099090576172,2.8456764221191406,0.9164541363716125,-0.14549271762371063,-0.23248836398124695,3.4367363452911377,0.39036133885383606,1.3189598321914673
301,22696,22697,-0.1155242770910263,-0.14488466084003448,1.1236755847930908,-17.266857147216797,-9.442498207092285,6.514991760253906,0.9074546098709106,-0.12449377030134201,-0.21448926627635956,3.492196559906006,0.20090332627296448,1.3688591718673706
302,22706,22707,-0.10716256499290466,-0.043591130524873734,1.1072497367858887,-41.73199462890625,4.237207889556885,6.9236626625061035,0.9089545607566833,-0.1319933980703354,-0.20698964595794678,3.477315902709961,-0.30675235390663147,1.4197981357574463
303,22716,22717,-0.10817594826221466,-0.02555447816848755,1.08982515335083,-70.47653198242188,26.54070472717285,5.03557825088501,0.90445476770401,-0.10949452221393585,-0.20548972487449646,3.2404773235321045,-0.6747723817825317,1.5180740356445312
304,22726,22727,-0.10258804261684418,0.013882707804441452,1.0803948640823364,-82.93408966064453,43.536617279052734,0.8932194709777832,0.9104544520378113,-0.11849407106637955,-0.20548972487449646,2.75675892829895,-1.6068007946014404,1.5661083459854126
305,22736,22737,-0.0755254477262497,0.05472155660390854,1.0695362091064453,-75.01188659667969,56.15666198730469,-0.3112771511077881,0.9179540872573853,-0.11699414998292923,-0.22498874366283417,2.4013917446136475,-2.259704113006592,1.5262643098831177
306,22746,22747,-0.0915016233921051,0.09611295163631439,1.0825632810592651,-57.22884750366211,61.71796798706055,-0.7907306551933289,0.9224538803100586,-0.0944952741265297,-0.2174891233444214,1.6618551015853882,-3.0906007289886475,1.528568983078003
307,22756,22757,-0.10128194093704224,0.03130868077278137,1.0491605997085571,-33.557472229003906,51.74346923828125,-5.653687000274658,0.8939552903175354,-0.09299534559249878,-0.20398980379104614,0.9990890622138977,-3.511261224746704,1.484805941581726
308,22766,22767,-0.08640220761299133,0.017449378967285156,1.0193394422531128,-0.9797046184539795,43.020076751708984,-14.448694229125977,0.896955132484436,-0.08699564635753632,-0.21598920226097107,0.9940499663352966,-3.64096736907959,1.2526644468307495
309,22776,22777,-0.046507805585861206,-0.009642474353313446,0.9615269303321838,46.85688781738281,31.953638076782227,-17.99573516845703,0.8849557638168335,-0.06899654865264893,-0.2189890444278717,0.48814794421195984,-3.174457311630249,1.0714815855026245
310,22786,22787,-0.05971962586045265,0.037835463881492615,0.9518258571624756,75.95927429199219,28.447954177856445,-18.225021362304688,0.8819558620452881,-0.07799609750509262,-0.20098994672298431,0.4486014246940613,-2.5155787467956543,0.8025370836257935
311,22796,22797,-0.11544718593358994,0.1874607652425766,0.964412271976471,90.80538177490234,19.219022750854492,-18.62314224243164,0.8684565424919128,-0.09749512374401093,-0.20248986780643463,0.06420022249221802,-1.5923808813095093,0.6484595537185669
312,22806,22807,-0.0843161791563034,0.05474208667874336,0.9404554963111877,94.95684051513672,10.213346481323242,-16.070449829101562,0.8744562864303589,-0.10649467259645462,-0.22648866474628448,-0.01225180085748434,-0.4932597577571869,0.4333295524120331
313,22816,22817,-0.09326110035181046,-0.02424171008169651,1.028442144393921,97.61449432373047,-11.119878768920898,-10.486899375915527,0.8684565424919128,-0.11249437183141708,-0.2174891233444214,-0.0877019539475441,0.1771049052476883,0.33678138256073
314,22826,22827,-0.2251800000667572,-0.10163974016904831,0.8899661898612976,87.04061889648438,-21.17034149169922,-4.013082504272461,0.8639568090438843,-0.12599369883537292,-0.23098844289779663,0.27310967445373535,1.3069772720336914,0.17603230476379395
315,22836,22837,-0.1595344990491867,-0.04239705204963684,0.8805400729179382,53.947174072265625,-26.24183464050293,2.415653705596924,0.8684565424919128,-0.11549422144889832,-0.22348882257938385,0.18796369433403015,1.7369972467422485,0.26294776797294617
316,22846,22847,-0.09837684780359268,-0.01507441233843565,0.8725918531417847,13.6496000289917,-27.213165283203125,7.361262798309326,0.8774561285972595,-0.12749361991882324,-0.21148942410945892,0.5679625272750854,2.160811424255371,0.268453985452652
317,22856,22857,-0.039026882499456406,-0.003399178385734558,0.9146302342414856,-27.992746353149414,-18.83559799194336,9.22567367553711,0.8819558620452881,-0.1229938492178917,-0.20698964595794678,0.7920036911964417,1.8826522827148438,0.35219505429267883
318,22866,22867,-0.06840723752975464,-0.004863013047724962,0.9110108613967896,-52.524478912353516,-4.161858558654785,9.078969955444336,0.8909554481506348,-0.12599369883537292,-0.20698964595794678,0.9693107008934021,1.5677729845046997,0.4336839020252228
319,22876,22877,-0.05736773833632469,-0.004106339532881975,0.9128804802894592,-60.32837677001953,4.380531311035156,10.347701072692871,0.8849557638168335,-0.113994300365448,-0.227988600730896,0.882525622844696,0.7208935618400574,0.5428028106689453
320,22886,22887,-0.06617233902215958,-0.00050472526345402,0.950808048248291,-56.854515075683594,3.321500301361084,9.880338668823242,0.8984550833702087,-0.12149392068386078,-0.2174891233444214,0.8867969512939453,0.23942169547080994,0.64295494556427
321,22896,22897,-0.09529286623001099,0.05568983033299446,1.0166066884994507,-45.704898834228516,0.8985118865966797,11.058927536010742,0.8954551815986633,-0.11549422144889832,-0.21448926627635956,0.9264541864395142,-0.49034491181373596,0.7484596371650696
322,22906,22907,-0.06481517106294632,-0.010971407406032085,0.9972327947616577,-22.837427139282227,0.12940382957458496,8.158223152160645,0.8924553394317627,-0.10949452221393585,-0.2174891233444214,0.9129058718681335,-0.7311652898788452,0.8478937745094299
323,22916,22917,-0.06881772726774216,0.03213319554924965,1.007146954536438,-4.694387912750244,2.831737518310547,3.9818809032440186,0.8879556059837341,-0.11099445074796677,-0.21298934519290924,0.8134429454803467,-0.8759714365005493,0.9155394434928894
324,22926,22927,-0.09043700993061066,-0.01924338936805725,0.962992787361145,10.062736511230469,5.618488311767578,-1.1837308406829834,0.8954551815986633,-0.10649467259645462,-0.22648866474628448,0.8886175751686096,-0.7593443989753723,0.9235712885856628
325,22936,22937,-0.049911703914403915,0.0037235068157315254,0.9627349972724915,31.838197708129883,8.358920097351074,-4.085784435272217,0.8834558129310608,-0.10049497336149216,-0.22648866474628448,0.7735377550125122,-0.43490174412727356,0.8962323069572449
326,22946,22947,-0.11893395334482193,0.03045581839978695,0.9992877244949341,58.73350524902344,18.79146385192871,-7.15009069442749,0.8894554972648621,-0.11549422144889832,-0.2084895670413971,0.7683250308036804,0.2352159321308136,0.8298371434211731
327,22956,22957,-0.08204124867916107,-0.013854886405169964,0.9553049206733704,75.83303833007812,30.78783416748047,-9.07092571258545,0.8894554972648621,-0.11849407106637955,-0.20548972487449646,0.6062175035476685,0.7715609073638916,0.7531780004501343
328,22966,22967,-0.046575456857681274,0.005051603075116873,0.940720796585083,78.72113800048828,30.87969970703125,-10.808075904846191,0.8864556550979614,-0.13649317622184753,-0.22348882257938385,0.11966697871685028,1.5864505767822266,0.6592224836349487
329,22976,22977,-0.03888606280088425,0.16991271078586578,0.9901227951049805,69.62763977050781,20.13338279724121,-9.68603229522705,0.8774561285972595,-0.14249287545681,-0.2174891233444214,0.05604710057377815,2.473423719406128,0.5590425729751587
330,22986,22987,-0.09571332484483719,0.09559512883424759,0.9506230354309082,43.990089416503906,14.043722152709961,-7.994352340698242,0.8864556550979614,-0.1334933191537857,-0.22348882257938385,0.02290855534374714,2.747364044189453,0.4882526695728302
331,22996,22997,-0.37745973467826843,-0.20754127204418182,0.9889445900917053,2.5036303997039795,14.821855545043945,-6.58237361907959,0.8804559707641602,-0.14249287545681,-0.22348882257938385,-0.22162027657032013,2.899677276611328,0.4187237024307251
332,23006,23007,-0.1691925972700119,-0.09567984193563461,0.888224720954895,-37.268798828125,27.320446014404297,-4.930141448974609,0.8924553394317627,-0.14549271762371063,-0.21148942410945892,-0.5356199741363525,2.8683605194091797,0.357887327671051
333,23016,23017,-0.025795355439186096,0.016339341178536415,0.8951483964920044,-68.70625305175781,37.83372116088867,-3.889739990234375,0.8819558620452881,-0.14399279654026031,-0.2189890444278717,-0.8810071349143982,1.9662107229232788,0.31227973103523254
334,23026,23027,-0.06192746013402939,-0.03759679198265076,0.967278778553009,-86.284423828125,50.757747650146484,-2.3293044567108154,0.8984550833702087,-0.13649317622184753,-0.2294885218143463,-1.1516879796981812,1.481162190437317,0.33191627264022827
335,23036,23037,-0.047535061836242676,-0.002940325066447258,0.9342894554138184,-79.73067474365234,55.48991394042969,-1.557489037513733,0.8999549746513367,-0.13799309730529785,-0.2459876984357834,-1.9277703762054443,0.4087222218513489,0.25740259885787964
336,23046,23047,0.05596808344125748,0.10351025313138962,0.868464469909668,-54.90718078613281,56.956119537353516,-0.6250435709953308,0.8954551815986633,-0.13049347698688507,-0.2384880781173706,-2.6058919429779053,-0.20324470102787018,0.22751066088676453
337,23056,23057,0.011411855928599834,0.08059541136026382,0.9535836577415466,-24.827091217041016,44.73981475830078,0.9917062520980835,0.8864556550979614,-0.1334933191537857,-0.24148792028427124,-3.073509931564331,-0.4161014258861542,0.27081194519996643
338,23066,23067,-0.046149659901857376,0.009251321665942669,0.9997034668922424,5.241343021392822,21.248645782470703,-0.9368969798088074,0.8789560198783875,-0.13799309730529785,-0.23398829996585846,-3.3140900135040283,-0.4254692792892456,0.31427228450775146
339,23076,23077,-0.02244124375283718,-0.026218997314572334,1.0820413827896118,23.28542709350586,-9.710917472839355,-1.2673872709274292,0.8804559707641602,-0.14849257469177246,-0.25348731875419617,-3.390650510787964,-0.14519527554512024,0.3366219103336334
340,23086,23087,-0.018053488805890083,0.07729168981313705,1.0619884729385376,31.734302520751953,-43.475830078125,-0.820899248123169,0.8804559707641602,-0.1604919731616974,-0.25348731875419617,-2.927178144454956,0.1952083557844162,0.3825230598449707
341,23096,23097,-0.02696436271071434,0.03902178630232811,1.025665283203125,29.632762908935547,-72.00505065917969,-0.40070822834968567,0.8729563355445862,-0.1619918942451477,-0.23398829996585846,-2.1433804035186768,0.4201740622520447,0.37874138355255127
342,23106,23107,-0.08660418540239334,-0.01966000534594059,1.041814923286438,18.698978424072266,-90.8136978149414,-5.593503475189209,0.9014549255371094,-0.1814909279346466,-0.24148792028427124,-1.5601916313171387,0.7386007905006409,0.3316057026386261
343,23116,23117,-0.11082737147808075,-0.03311673924326897,1.0769838094711304,7.191282749176025,-91.26346588134766,-14.013908386230469,0.9104544520378113,-0.1814909279346466,-0.2474876195192337,-0.47354856133461,0.6443312764167786,0.17342576384544373
344,23126,23127,-0.04732304811477661,0.004701145458966494,1.0722241401672363,5.819441795349121,-73.08667755126953,-19.798091888427734,0.8984550833702087,-0.17249137163162231,-0.25348731875419617,0.055127352476119995,0.7581458687782288,-0.03683517500758171
345,23136,23137,-0.08121798187494278,0.020318925380706787,1.0617904663085938,5.625638484954834,-39.41637420654297,-21.51543426513672,0.9059546589851379,-0.17399129271507263,-0.24298784136772156,0.6355386972427368,0.7789024710655212,-0.26483356952667236
346,23146,23147,-0.09645408391952515,0.019632477313280106,1.0821372270584106,7.654938220977783,8.763818740844727,-21.46111488342285,0.9014549255371094,-0.14549271762371063,-0.23248836398124695,0.7326125502586365,0.8382689356803894,-0.5002966523170471
347,23156,23157,-0.0802474096417427,-0.00015585128858219832,1.0590656995773315,1.0367422103881836,44.613807678222656,-21.25159454345703,0.896955132484436,-0.1319933980703354,-0.22498874366283417,0.2388814240694046,0.796489953994751,-0.7734922170639038
348,23166,23167,-0.06786749511957169,-0.038936272263526917,1.0408587455749512,-8.214336395263672,69.99385070800781,-22.705087661743164,0.8894554972648621,-0.11849407106637955,-0.23548822104930878,-0.5180500149726868,0.8082966804504395,-0.9995507597923279
349,23176,23177,-0.05028260499238968,-0.07640822976827621,1.06505286693573,-12.619484901428223,77.05093383789062,-24.390527725219727,0.8759561777114868,-0.12599369883537292,-0.23398829996585846,-1.138671875,0.7896507382392883,-1.1816686391830444
350,23186,23187,-0.08903604745864868,-0.0390060693025589,1.0458614826202393,-13.631086349487305,58.761104583740234,-27.724010467529297,0.8804559707641602,-0.12449377030134201,-0.2384880781173706,-1.6470574140548706,0.36090776324272156,-1.4872541427612305
351,23196,23197,0.08898061513900757,0.029175741598010063,1.032187581062317,-5.974736213684082,20.575666427612305,-31.156309127807617,0.8684565424919128,-0.12149392068386078,-0.22048896551132202,-2.0171029567718506,0.28990671038627625,-1.749147653579712
352,23206,23207,0.12118223309516907,0.27735447883605957,1.0552622079849243,16.815013885498047,-38.16059875488281,-30.68095588684082,0.8714563846588135,-0.12749361991882324,-0.22348882257938385,-1.8199599981307983,0.3968193531036377,-2.014253616333008
353,23216,23217,0.0202533770352602,0.13000047206878662,1.0749473571777344,33.11564636230469,-92.72114562988281,-26.08451271057129,0.8834558129310608,-0.13949301838874817,-0.23248836398124695,-0.7993581891059875,0.7721661925315857,-2.2164742946624756
354,23226,23227,-0.0821400135755539,0.05950632318854332,1.0860610008239746,36.509071350097656,-124.02804565429688,-20.091693878173828,0.8924553394317627,-0.15449227392673492,-0.25048747658729553,0.11231695860624313,1.0150175094604492,-2.525960683822632
355,23236,23237,-0.15135502815246582,-0.062439728528261185,1.0415229797363281,34.06676483154297,-132.41587829589844,-11.400949478149414,0.8954551815986633,-0.16649167239665985,-0.23248836398124695,1.475754976272583,1.545236349105835,-2.6661829948425293
356,23246,23247,-0.0916794016957283,-0.01319113839417696,1.008423089981079,17.090559005737305,-119.30738830566406,-6.23024320602417,0.9059546589851379,-0.16499175131320953,-0.23098844289779663,2.3908917903900146,1.8221666812896729,-2.83785343170166
357,23256,23257,-0.08206633478403091,-0.07875005155801773,0.8958681225776672,-8.744863510131836,-85.30518341064453,-6.084091663360596,0.9134542942047119,-0.15749211609363556,-0.23248836398124695,3.628861904144287,1.7521730661392212,-2.9318161010742188
358,23266,23267,-0.04262969642877579,-0.09993892163038254,0.7948651909828186,-29.604366302490234,-40.37720489501953,-7.796375751495361,0.9104544520378113,-0.1514924168586731,-0.2384880781173706,3.9152302742004395,1.6360352039337158,-3.0750694274902344
359,23276,23277,-0.0622822605073452,0.004175140988081694,0.9215637445449829,-34.54216003417969,12.618387222290039,-3.315338611602783,0.9224538803100586,-0.13649317622184753,-0.22048896551132202,4.087250232696533,1.2250746488571167,-3.146929979324341
360,23286,23287,-0.06300698965787888,0.004938183352351189,0.9605761766433716,-23.23740577697754,61.933834075927734,2.189663887023926,0.9134542942047119,-0.11249437183141708,-0.2084895670413971,3.5444228649139404,0.8487330079078674,-3.183324098587036
361,23296,23297,-0.08340270817279816,0.010135054588317871,0.9537620544433594,-15.456968307495117,93.9721908569336,5.673300743103027,0.8924553394317627,-0.12149392068386078,-0.22348882257938385,2.7171876430511475,0.774964451789856,-3.146885633468628
362,23306,23307,-0.07342048734426498,0.00929974764585495,0.9551739692687988,-12.462455749511719,102.65843963623047,10.154448509216309,0.8924553394317627,-0.12149392068386078,-0.22348882257938385,1.5105537176132202,0.6973309516906738,-3.0991787910461426
363,23316,23317,-0.001856218441389501,0.027878936380147934,0.945263147354126,-13.491839408874512,93.02576446533203,13.769512176513672,0.8924553394317627,-0.12149392068386078,-0.22348882257938385,0.8473448157310486,0.47896629571914673,-2.8943235874176025
364,23326,23327,-0.053537458181381226,0.03213869035243988,0.9974872469902039,-15.068694114685059,53.45817184448242,14.336847305297852,0.8954551815986633,-0.13649317622184753,-0.23548822104930878,-0.03056977689266205,0.384537935256958,-2.772844076156616
365,23336,23337,-0.04324761778116226,0.12949208915233612,0.9582236409187317,-10.974603652954102,0.8181704878807068,13.686477661132812,0.8984550833702087,-0.13649317622184753,-0.2384880781173706,-0.18468698859214783,0.15970663726329803,-2.589020252227783
366,23346,23347,-0.07890523970127106,0.0599776953458786,1.004972219467163,-1.8447225093841553,-32.300697326660156,13.480303764343262,0.8984550833702087,-0.1334933191537857,-0.24448777735233307,0.1596963256597519,0.2052651196718216,-2.434344530105591
367,23356,23357,0.037673469632864,0.20113182067871094,1.0276519060134888,10.499584197998047,-41.202762603759766,13.46020793914795,0.9179540872573853,-0.170991450548172,-0.23998799920082092,0.773449182510376,0.20992495119571686,-2.2599611282348633
368,23366,23367,-0.003175990656018257,0.2412174642086029,1.0607763528823853,22.97520637512207,-34.58363723754883,14.435662269592285,0.8999549746513367,-0.170991450548172,-0.23098844289779663,0.9472088813781738,0.3536280691623688,-2.1529152393341064
369,23376,23377,-0.031667567789554596,0.018719404935836792,1.081315040588379,24.3009033203125,-13.502270698547363,14.795232772827148,0.9089545607566833,-0.1619918942451477,-0.2369881421327591,1.1795397996902466,0.7259162664413452,-2.0281481742858887
370,23386,23387,-0.03669406846165657,-0.17197169363498688,1.0643317699432373,17.873435974121094,10.193166732788086,13.641091346740723,0.911954402923584,-0.15899205207824707,-0.23398829996585846,1.1879215240478516,0.8518589735031128,-1.8750360012054443
371,23396,23397,-0.10156084597110748,-0.04447905346751213,1.0198869705200195,5.144415855407715,30.560401916503906,11.14954662322998,0.9014549255371094,-0.14549271762371063,-0.23548822104930878,0.8731095194816589,0.938956081867218,-1.7534782886505127
372,23406,23407,-0.07574427127838135,0.012976174242794514,1.053849220275879,-4.730941295623779,35.86980438232422,6.325139045715332,0.8819558620452881,-0.13799309730529785,-0.2459876984357834,0.44284677505493164,1.0435235500335693,-1.6813479661941528
373,23416,23417,-0.05382577329874039,0.05901043489575386,1.083430528640747,-4.482263565063477,32.26627731323242,7.010951995849609,0.8954551815986633,-0.13949301838874817,-0.2294885218143463,0.08419973403215408,0.8724954724311829,-1.598995327949524
374,23426,23427,-0.07931073009967804,0.1882769912481308,1.1996837854385376,1.7126086950302124,13.90461540222168,9.796663284301758,0.8879556059837341,-0.14099295437335968,-0.227988600730896,-0.022616099566221237,0.8326732516288757,-1.4929618835449219
375,23436,23437,0.008157297037541866,0.3053841292858124,1.260287880897522,3.8753182888031006,-12.22929573059082,11.665008544921875,0.8864556550979614,-0.1334933191537857,-0.2174891233444214,-0.009786826558411121,0.8851140737533569,-1.3811078071594238
376,23446,23447,-0.13881318271160126,0.0225064679980278,1.1448841094970703,5.050806522369385,-28.815366744995117,13.617502212524414,0.8834558129310608,-0.13649317622184753,-0.22348882257938385,0.3254573345184326,0.9502852559089661,-1.2400466203689575
377,23456,23457,-0.07515262812376022,0.10305210202932358,1.182088017463684,-5.548510551452637,-39.08164596557617,13.51417350769043,0.896955132484436,-0.14099295437335968,-0.227988600730896,0.7389518022537231,0.8408700823783875,-1.0863910913467407
378,23466,23467,-0.07791998237371445,-0.057849034667015076,1.2259536981582642,-10.047224044799805,-32.94424819946289,9.459526062011719,0.8939552903175354,-0.13799309730529785,-0.227988600730896,1.0463340282440186,0.885513961315155,-0.9956134557723999
379,23476,23477,-0.17775456607341766,-0.20634225010871887,1.1772710084915161,-12.260431289672852,-15.18065071105957,4.183420181274414,0.8954551815986633,-0.14849257469177246,-0.23248836398124695,1.3498597145080566,0.7049005031585693,-0.9137831926345825
380,23486,23487,-0.09270995855331421,-0.03750968351960182,1.1138973236083984,-22.08783531188965,4.269130706787109,-1.584661602973938,0.896955132484436,-0.12599369883537292,-0.23398829996585846,1.3904249668121338,0.5929802060127258,-0.9127931594848633
381,23496,23497,-0.0445680133998394,0.1024983823299408,1.0602294206619263,-23.3548641204834,24.846607208251953,-3.8284523487091064,0.8864556550979614,-0.11849407106637955,-0.2174891233444214,1.091557502746582,0.2881559729576111,-0.9479615688323975
382,23506,23507,-0.07084480673074722,-0.03262008726596832,1.0360255241394043,-18.258607864379883,50.22315979003906,-6.690154552459717,0.8819558620452881,-0.10199490189552307,-0.2099895030260086,0.43571439385414124,-0.0036313850432634354,-1.0253242254257202
383,23516,23517,-0.05021881312131882,0.02846102975308895,1.0018833875656128,-2.8101978302001953,75.31608581542969,-10.6336088180542,0.8849557638168335,-0.09299534559249878,-0.2099895030260086,0.07117042690515518,0.11513303965330124,-1.1049323081970215
384,23526,23527,-0.0979677364230156,-0.2063809484243393,0.9146504402160645,10.45801067352295,83.81230926513672,-12.855509757995605,0.8759561777114868,-0.09899504482746124,-0.21298934519290924,-0.9962030053138733,0.1889990270137787,-1.2520771026611328
385,23536,23537,-0.047197479754686356,-0.060399461537599564,0.93845134973526,8.953230857849121,72.19291687011719,-12.633915901184082,0.8624568581581116,-0.0944952741265297,-0.22048896551132202,-1.5203036069869995,0.2545560300350189,-1.347293734550476
386,23546,23547,0.05237909406423569,0.15365658700466156,1.0009782314300537,11.771535873413086,40.14836883544922,-12.265570640563965,0.8609569072723389,-0.09899504482746124,-0.21598920226097107,-2.1740171909332275,0.42681771516799927,-1.4739941358566284
387,23556,23557,-0.09807921946048737,0.057355571538209915,0.9885069131851196,16.875154495239258,-8.12434196472168,-9.23143196105957,0.8594570159912109,-0.085495725274086,-0.20548972487449646,-2.318222999572754,0.6456238627433777,-1.5767916440963745
388,23566,23567,-0.22250677645206451,-0.23475489020347595,0.9204273819923401,16.520835876464844,-50.616050720214844,-6.475266933441162,0.8429578542709351,-0.10199490189552307,-0.2099895030260086,-1.788108468055725,0.814145028591156,-1.6485772132873535
389,23576,23577,-0.16790428757667542,-0.07058177888393402,1.0865375995635986,11.397232055664062,-79.16914367675781,-1.8192261457443237,0.8639568090438843,-0.1229938492178917,-0.21598920226097107,-1.0293978452682495,0.9295600652694702,-1.6952667236328125
390,23586,23587,0.04430065676569939,0.27343985438346863,1.0245505571365356,6.540984153747559,-90.07584381103516,3.287558078765869,0.8774561285972595,-0.13649317622184753,-0.22048896551132202,-0.29114171862602234,1.0353590250015259,-1.7111749649047852
391,23596,23597,0.005284874700009823,0.11887100338935852,0.9991146326065063,-9.667469024658203,-82.3666000366211,9.282636642456055,0.8909554481506348,-0.14999249577522278,-0.2189890444278717,0.7588966488838196,0.9474363923072815,-1.6698588132858276
392,23606,23607,-0.22675184905529022,-0.16183406114578247,1.1313680410385132,-23.187868118286133,-61.527565002441406,15.312529563903809,0.8879556059837341,-0.14699265360832214,-0.22198890149593353,1.131304383277893,0.8936135172843933,-1.5752917528152466
393,23616,23617,-0.17649812996387482,-0.10472547262907028,1.1056008338928223,-33.07280349731445,-23.765331268310547,18.60261344909668,0.9059546589851379,-0.13499325513839722,-0.227988600730896,1.72763192653656,0.4486044943332672,-1.4225140810012817
394,23626,23627,-0.154293030500412,-0.011254235170781612,1.0120153427124023,-44.37470245361328,16.233049392700195,23.849008560180664,0.8999549746513367,-0.1229938492178917,-0.227988600730896,1.7035737037658691,-0.01861702837049961,-1.2299951314926147
395,23636,23637,-0.0910491943359375,0.08460687100887299,0.9780588746070862,-45.35688018798828,54.82395553588867,31.223173141479492,0.8909554481506348,-0.10799460113048553,-0.2189890444278717,1.3243496417999268,-0.38267841935157776,-0.9555509686470032
396,23646,23647,-0.08299476653337479,0.07117020338773727,1.1346030235290527,-36.85610580444336,79.61761474609375,35.327735900878906,0.8924553394317627,-0.10949452221393585,-0.2174891233444214,0.4532902240753174,-0.8219667673110962,-0.6426790356636047
397,23656,23657,-0.09016415476799011,0.05826960504055023,1.0120633840560913,-29.008012771606445,89.89228820800781,37.54095458984375,0.8804559707641602,-0.10049497336149216,-0.2174891233444214,-0.2888680100440979,-0.9570635557174683,-0.28392672538757324
398,23666,23667,0.009749242104589939,0.07814237475395203,0.8556516766548157,-29.82818031311035,74.46284484863281,39.801300048828125,0.8759561777114868,-0.1049947515130043,-0.22498874366283417,-0.8997491002082825,-1.4583946466445923,0.09461502730846405
399,23676,23677,0.030484775081276894,0.15002772212028503,0.8758983612060547,-41.43705749511719,57.46881103515625,38.725006103515625,0.8564571738243103,-0.10649467259645462,-0.22648866474628448,-1.4475213289260864,-1.725714921951294,0.47846677899360657
400,23686,23687,0.024164428934454918,0.1261889785528183,0.9016384482383728,-48.374210357666016,43.01322937011719,34.11600875854492,0.8684565424919128,-0.08849557489156723,-0.22648866474628448,-2.0330307483673096,-2.4236040115356445,0.8171796798706055
401,23696,23697,-0.00030653452267870307,0.047833818942308426,0.8862156867980957,-47.46268844604492,30.041425704956055,31.543821334838867,0.8639568090438843,-0.09899504482746124,-0.23098844289779663,-2.4459969997406006,-2.8623359203338623,1.1345429420471191
402,23706,23707,-0.12500974535942078,-0.055533137172460556,0.9425063729286194,-38.20371627807617,14.653703689575195,29.540794372558594,0.8759561777114868,-0.08999549597501755,-0.22198890149593353,-2.573045015335083,-3.1475656032562256,1.437470555305481
403,23716,23717,-0.04390569031238556,0.024188414216041565,0.9203864336013794,-18.63629913330078,-5.137325286865234,24.872753143310547,0.8654567003250122,-0.085495725274086,-0.23548822104930878,-2.523101568222046,-3.5934855937957764,1.6723568439483643
404,23726,23727,-0.12952861189842224,0.15101395547389984,0.9251182675361633,11.674582481384277,-14.628799438476562,22.60902214050293,0.8759561777114868,-0.113994300365448,-0.227988600730896,-2.4072680473327637,-3.4788403511047363,1.9422478675842285
405,23736,23737,-0.07658278942108154,0.10738953948020935,0.9261523485183716,39.41291427612305,-14.43269157409668,19.526826858520508,0.8714563846588135,-0.10949452221393585,-0.22348882257938385,-2.220562219619751,-3.0141196250915527,2.1977646350860596
406,23746,23747,-0.07941284775733948,0.10201965272426605,0.9693337678909302,53.661922454833984,-6.037490367889404,18.298248291015625,0.8594570159912109,-0.10949452221393585,-0.22348882257938385,-2.1885550022125244,-2.3930931091308594,2.4489798545837402
407,23756,23757,-0.1130361407995224,-0.023379094898700714,0.9196372032165527,59.69819641113281,4.012809753417969,17.378259658813477,0.8594570159912109,-0.12149392068386078,-0.2294885218143463,-2.210003614425659,-2.0387685298919678,2.5775835514068604
408,23766,23767,-0.1989857256412506,-0.157428577542305,0.952029287815094,50.76203918457031,12.32590389251709,16.68918228149414,0.8609569072723389,-0.13499325513839722,-0.2369881421327591,-2.382699728012085,-1.4120450019836426,2.791930913925171
409,23776,23777,-0.01835966296494007,0.014359916560351849,0.9094555377960205,29.736309051513672,12.983692169189453,12.046342849731445,0.8669566512107849,-0.11999399960041046,-0.23998799920082092,-2.5690457820892334,-1.143886685371399,2.90069317817688
410,23786,23787,0.028018102049827576,0.04423341527581215,0.8963556885719299,7.87546443939209,2.310551404953003,7.0409650802612305,0.8399580121040344,-0.11699414998292923,-0.2369881421327591,-2.5569138526916504,-1.075567603111267,2.9161322116851807
411,23796,23797,-0.04702507331967354,0.024942785501480103,0.9249277114868164,-10.669051170349121,-2.6455092430114746,3.318176507949829,0.8684565424919128,-0.11549422144889832,-0.22648866474628448,-2.5643863677978516,-1.1926031112670898,2.9345762729644775
412,23806,23807,-0.005866242107003927,0.033048972487449646,0.9228061437606812,-16.654979705810547,-0.2922891676425934,-0.7096355557441711,0.8759561777114868,-0.1229938492178917,-0.22198890149593353,-2.558134078979492,-1.4179972410202026,2.9200618267059326
413,23816,23817,-0.04519423842430115,0.029422638937830925,0.96512371301651,-11.421936988830566,0.9170372486114502,-3.5954067707061768,0.8609569072723389,-0.10799460113048553,-0.2369881421327591,-2.5975263118743896,-1.6375524997711182,2.885171890258789
414,23826,23827,-0.09137652069330215,0.0157522801309824,0.9758995771408081,3.1775527000427246,-11.022587776184082,-4.114548683166504,0.8789560198783875,-0.11999399960041046,-0.2189890444278717,-2.512159585952759,-1.6612088680267334,2.847336769104004
415,23836,23837,-0.0393499918282032,-0.08672881871461868,0.9800225496292114,25.22923469543457,-27.25947380065918,-5.911884784698486,0.8729563355445862,-0.1319933980703354,-0.23998799920082092,-2.244617223739624,-1.3848706483840942,2.8433420658111572
416,23846,23847,-0.07867217808961868,-0.0348031111061573,0.9977735877037048,55.135398864746094,-35.23875427246094,-0.5918932557106018,0.8804559707641602,-0.1334933191537857,-0.2294885218143463,-1.9348640441894531,-1.1488113403320312,2.7412095069885254
417,23856,23857,-0.12416333705186844,-0.02395566739141941,0.9391546845436096,75.40315246582031,-51.31997299194336,9.35662841796875,0.8789560198783875,-0.15599219501018524,-0.23998799920082092,-1.2413791418075562,-0.2809627056121826,2.785595417022705
418,23866,23867,-0.0853176862001419,0.012427108362317085,1.0139018297195435,76.11317443847656,-78.91216278076172,19.418169021606445,0.8849557638168335,-0.15899205207824707,-0.24298784136772156,-0.6201388239860535,0.6380030512809753,2.9916975498199463
419,23876,23877,-0.05069275200366974,0.12643858790397644,1.0345830917358398,56.08094787597656,-94.7064208984375,23.94460105895996,0.9059546589851379,-0.19499024748802185,-0.2459876984357834,-0.023772990331053734,1.3307790756225586,3.286935329437256
420,23886,23887,0.06080380454659462,0.2526104152202606,1.0028252601623535,1.7475053071975708,-82.99251556396484,24.552024841308594,0.9104544520378113,-0.19349032640457153,-0.25048747658729553,1.134764313697815,1.2946895360946655,3.286153554916382
421,23896,23897,-0.07264925539493561,0.0655665472149849,1.0584689378738403,-65.2807388305664,-58.09037780761719,21.44472312927246,0.9299534559249878,-0.19499024748802185,-0.2549872398376465,1.473520040512085,0.6996030211448669,3.4980642795562744
422,23906,23907,-0.06404068320989609,0.0258545633405447,1.0937618017196655,-111.45259857177734,-17.3521671295166,17.56981086730957,0.9254537224769592,-0.17249137163162231,-0.25348731875419617,1.9049863815307617,-0.36530745029449463,3.6274828910827637
423,23916,23917,-0.13707999885082245,0.110892653465271,1.083032250404358,-126.08170318603516,28.13935089111328,16.378442764282227,0.9464526772499084,-0.17549122869968414,-0.24148792028427124,1.8420579433441162,-1.2871524095535278,3.880007743835449
424,23926,23927,-0.10282769799232483,0.08986005932092667,1.0804646015167236,-121.00695037841797,71.26161193847656,13.18387222290039,0.9389530420303345,-0.15599219501018524,-0.2459876984357834,0.9595654606819153,-2.6585750579833984,4.053849697113037
425,23936,23937,-0.051055509597063065,0.10693931579589844,1.1332021951675415,-78.5163803100586,101.21049499511719,8.428645133972168,0.911954402923584,-0.1529923528432846,-0.26098695397377014,0.06654202193021774,-3.7726616859436035,4.1120476722717285
426,23946,23947,-0.09573642909526825,0.16142241656780243,1.1797922849655151,-16.721656799316406,95.13653564453125,0.17227129638195038,0.919454038143158,-0.14849257469177246,-0.25048747658729553,-0.7475295662879944,-4.019267559051514,4.106709957122803
427,23956,23957,-0.09807971864938736,0.051775094121694565,1.1722074747085571,46.75495529174805,68.42137908935547,-5.648149490356445,0.8984550833702087,-0.14849257469177246,-0.2474876195192337,-1.630221962928772,-3.632719039916992,4.067332744598389
428,23966,23967,-0.05113289877772331,0.0428699254989624,1.1404155492782593,99.43579864501953,28.243478775024414,-11.757497787475586,0.8909554481506348,-0.14099295437335968,-0.23998799920082092,-1.9244874715805054,-2.9348175525665283,3.903242349624634
429,23976,23977,-0.004062099382281303,0.04601835086941719,1.1216117143630981,142.91351318359375,-12.36217975616455,-18.27547836303711,0.8834558129310608,-0.17249137163162231,-0.24448777735233307,-1.9779932498931885,-1.6219804286956787,3.7580978870391846
430,23986,23987,0.03551776334643364,-0.004170044790953398,1.067091703414917,158.31710815429688,-46.27946472167969,-20.772565841674805,0.8774561285972595,-0.17249137163162231,-0.25348731875419617,-1.4682374000549316,0.2695199251174927,3.5530736446380615
431,23996,23997,-0.07526476681232452,-0.11123845726251602,1.061959147453308,155.45184326171875,-60.97417068481445,-24.411266326904297,0.8834558129310608,-0.18749062716960907,-0.2474876195192337,-1.1108003854751587,1.5117789506912231,3.324873447418213
432,24006,24007,-0.07843971252441406,-0.042560216039419174,0.9861814379692078,140.19024658203125,-50.31918716430664,-26.503097534179688,0.8834558129310608,-0.18449077010154724,-0.23248836398124695,-0.4779077172279358,3.0368714332580566,3.0307693481445312
433,24016,24017,-0.09331220388412476,-0.03127138689160347,0.9624201059341431,101.13496398925781,-27.27113151550293,-29.531951904296875,0.8759561777114868,-0.16799159348011017,-0.23998799920082092,-0.23424485325813293,3.8972723484039307,2.6923325061798096
434,24026,24027,-0.050901059061288834,-0.05088504031300545,0.9127159118652344,48.85765075683594,-9.019918441772461,-32.75450134277344,0.8714563846588135,-0.15749211609363556,-0.2474876195192337,-0.06392869353294373,4.640963077545166,2.352228879928589
435,24036,24037,-0.02790950983762741,-0.024337513372302055,0.8638554215431213,-6.2117533683776855,-5.899339199066162,-36.24407196044922,0.8684565424919128,-0.13649317622184753,-0.2174891233444214,-0.0806133970618248,4.70012903213501,1.9797632694244385
436,24046,24047,-0.01689065992832184,-0.02404983714222908,0.8593294620513916,-50.83677291870117,-6.073218822479248,-39.97332763671875,0.8789560198783875,-0.14399279654026031,-0.22198890149593353,0.03176505118608475,4.453954219818115,1.589808702468872
437,24056,24057,-0.044003311544656754,-0.029269974678754807,0.9112375974655151,-83.74858856201172,0.9444779753684998,-43.43630599975586,0.8879556059837341,-0.13799309730529785,-0.23398829996585846,0.04497633874416351,3.511363983154297,1.1357053518295288
438,24066,24067,-0.048642296344041824,-0.04849444329738617,0.9308608174324036,-103.47673034667969,11.3115234375,-48.48855972290039,0.8984550833702087,-0.13949301838874817,-0.22348882257938385,-0.07719109952449799,2.9193272590637207,0.7187351584434509
439,24076,24077,-0.03256039693951607,-0.032821837812662125,0.8969141244888306,-98.9539566040039,24.927106857299805,-52.347137451171875,0.8879556059837341,-0.13499325513839722,-0.23998799920082092,-0.3891803026199341,1.7409484386444092,0.18115563690662384
440,24086,24087,-0.07405409961938858,-0.018700772896409035,0.9733148217201233,-74.73870086669922,39.08296585083008,-54.00785827636719,0.8729563355445862,-0.1319933980703354,-0.227988600730896,-0.6964618563652039,1.3041998147964478,-0.2952454686164856
441,24096,24097,-0.060380011796951294,-0.027477379888296127,0.9700166583061218,-37.235015869140625,46.99678039550781,-53.57466506958008,0.8834558129310608,-0.10649467259645462,-0.2384880781173706,-1.2812354564666748,0.5908913016319275,-0.8773433566093445
442,24106,24107,-0.07246237993240356,-0.03369692340493202,0.9576131701469421,3.442864179611206,37.82076644897461,-52.72404479980469,0.8714563846588135,-0.11549422144889832,-0.22648866474628448,-1.5380111932754517,0.5966770648956299,-1.332706093788147
443,24116,24117,-0.06719671934843063,-0.011274589225649834,0.9624056816101074,42.781883239746094,16.32880973815918,-52.04011917114258,0.8744562864303589,-0.11549422144889832,-0.2294885218143463,-1.9657295942306519,0.8973240852355957,-1.8758201599121094
444,24126,24127,-0.11340077221393585,-0.08929593861103058,0.9672673940658569,69.75218963623047,-13.951285362243652,-49.58818435668945,0.8624568581581116,-0.12149392068386078,-0.2294885218143463,-1.898856520652771,1.613703727722168,-2.331583023071289
445,24136,24137,-0.05028415098786354,-0.03330913931131363,0.958128809928894,81.84486389160156,-45.68278884887695,-47.028778076171875,0.8429578542709351,-0.13799309730529785,-0.23398829996585846,-1.5178414583206177,2.2219972610473633,-2.8202104568481445
446,24146,24147,-0.0971096009016037,-0.04340957850217819,0.9327405691146851,81.5369644165039,-77.60514831542969,-42.79940414428711,0.8474575877189636,-0.12749361991882324,-0.22048896551132202,-0.9648808240890503,3.2190959453582764,-3.2808947563171387
447,24156,24157,-0.21332299709320068,-0.14384321868419647,1.0022920370101929,71.75299835205078,-101.79418182373047,-38.53281021118164,0.8579570651054382,-0.1319933980703354,-0.2189890444278717,0.248823881149292,3.991071939468384,-3.654714822769165
448,24166,24167,-0.11125045269727707,-0.04611022770404816,1.011014699935913,48.772682189941406,-127.60652923583984,-28.271846771240234,0.8684565424919128,-0.12749361991882324,-0.21448926627635956,1.1879940032958984,4.672796726226807,-4.117536544799805
449,24176,24177,-0.07523982971906662,-0.05079951509833336,1.0502299070358276,11.964719772338867,-161.37899780273438,-17.281736373901367,0.8684565424919128,-0.12749361991882324,-0.21448926627635956,2.8620989322662354,4.964301586151123,-4.379382610321045
450,24186,24187,-0.0740320160984993,-0.02116839401423931,1.0972684621810913,-46.9135856628418,-183.17813110351562,-11.658747673034668,0.8684565424919128,-0.12749361991882324,-0.21448926627635956,4.211736679077148,4.76474142074585,-4.817934989929199
451,24196,24197,-0.09438188374042511,-0.012875466607511044,1.1278003454208374,-104.11847686767578,-183.35928344726562,-10.294236183166504,0.8999549746513367,-0.14699265360832214,-0.22198890149593353,6.357612609863281,3.7482402324676514,-4.929218292236328
452,24206,24207,-0.1274929940700531,0.004608522169291973,1.1322822570800781,-132.8789825439453,-165.18533325195312,-11.638909339904785,0.9404529333114624,-0.16949152946472168,-0.20548972487449646,7.670080661773682,2.97209095954895,-5.384109973907471
453,24216,24217,-0.13166481256484985,0.01572442054748535,1.1113532781600952,-145.34890747070312,-139.13629150390625,-7.634754180908203,0.9599519968032837,-0.17699114978313446,-0.21298934519290924,9.554824829101562,1.3244781494140625,-5.311811447143555
454,24226,24227,-0.12216632068157196,0.009095143526792526,1.115053415298462,-149.4510040283203,-106.24687194824219,-1.113165020942688,0.9779511094093323,-0.15599219501018524,-0.22198890149593353,10.852958679199219,-0.43771031498908997,-5.2356648445129395
455,24236,24237,-0.10260110348463058,0.04441050812602043,1.1220271587371826,-130.31402587890625,-61.776336669921875,1.5233116149902344,0.9839507937431335,-0.13799309730529785,-0.20398980379104614,11.388131141662598,-1.508882999420166,-5.5719451904296875
456,24246,24247,-0.10707955807447433,0.06419570744037628,1.1231484413146973,-87.7409439086914,-1.3166691064834595,6.040946006774902,0.9869506359100342,-0.14399279654026031,-0.227988600730896,11.801758766174316,-2.8200433254241943,-5.382033348083496
457,24256,24257,-0.09726276993751526,0.06930399686098099,1.1092251539230347,-37.730125427246094,59.13669967651367,11.183952331542969,0.9779511094093323,-0.11999399960041046,-0.22198890149593353,11.494010925292969,-3.161294937133789,-5.5793256759643555
458,24266,24267,-0.10815409570932388,0.01973469741642475,1.0853428840637207,25.214866638183594,116.8370590209961,17.43820571899414,0.9674516320228577,-0.10649467259645462,-0.2174891233444214,10.361058235168457,-3.0890543460845947,-5.750017166137695
459,24276,24277,-0.11533591151237488,0.00738430954515934,1.0781604051589966,87.77207946777344,167.33956909179688,22.43646812438965,0.9314534068107605,-0.06449677050113678,-0.20248986780643463,8.591270446777344,-2.18046236038208,-6.09704065322876
460,24286,24287,-0.08615971356630325,0.001756190788000822,1.0419485569000244,132.36233520507812,206.82565307617188,21.422569274902344,0.9344532489776611,-0.07949602603912354,-0.21148942410945892,7.298921585083008,-1.2748017311096191,-5.646368503570557
461,24296,24297,-0.07607249915599823,0.0003000039723701775,0.9845565557479858,166.72645568847656,237.49627685546875,15.288053512573242,0.9224538803100586,-0.09749512374401093,-0.21448926627635956,4.525559902191162,0.4587913155555725,-5.850436687469482
462,24306,24307,-0.0530836246907711,-0.036503344774246216,0.9031907916069031,188.36062622070312,245.37921142578125,11.953352928161621,0.911954402923584,-0.11099445074796677,-0.2099895030260086,2.795959234237671,1.8806679248809814,-5.202346324920654
463,24316,24317,-0.08620341867208481,-0.026790127158164978,0.90794837474823,187.65228271484375,237.05889892578125,6.201176643371582,0.9104544520378113,-0.12749361991882324,-0.25048747658729553,-0.15342572331428528,4.136858940124512,-5.430251598358154
464,24326,24327,0.006487384904175997,-0.0024435643572360277,0.9236727952957153,166.9585418701172,201.28805541992188,2.5020949840545654,0.8654567003250122,-0.13649317622184753,-0.2174891233444214,-1.8762221336364746,5.479659557342529,-4.658596515655518
465,24336,24337,0.005979069974273443,-0.029933085665106773,0.877467930316925,129.21685791015625,150.42091369628906,-1.5960067510604858,0.8819558620452881,-0.16799159348011017,-0.2369881421327591,-3.7380049228668213,7.192248344421387,-4.648589611053467
466,24346,24347,-0.03235473111271858,-0.032428208738565445,0.8689384460449219,69.97703552246094,102.94114685058594,-1.1338332891464233,0.8429578542709351,-0.13499325513839722,-0.227988600730896,-5.22459602355957,8.279236793518066,-4.557704925537109
467,24356,24357,-0.01506621204316616,-0.03910857439041138,0.8263131976127625,-1.9699519872665405,58.223045349121094,1.157435655593872,0.836958110332489,-0.15899205207824707,-0.23098844289779663,-5.489627361297607,8.430386543273926,-4.116201877593994
468,24366,24367,-0.04882233217358589,-0.06508893519639969,0.7929578423500061,-85.58663940429688,19.593303680419922,5.668747425079346,0.8414579033851624,-0.1514924168586731,-0.25348731875419617,-5.831700325012207,7.712283611297607,-3.814269781112671
469,24376,24377,-0.06297965347766876,-0.008736464194953442,0.913655698299408,-159.4364013671875,-11.303885459899902,6.438374996185303,0.8429578542709351,-0.16499175131320953,-0.227988600730896,-5.923862457275391,7.044480800628662,-3.9701035022735596
470,24386,24387,-0.014873643405735493,0.01995115913450718,0.8167198300361633,-213.81932067871094,-33.695648193359375,6.928183555603027,0.8579570651054382,-0.16499175131320953,-0.2579870820045471,-5.643326282501221,4.68915319442749,-3.7539730072021484
471,24396,24397,-0.22279347479343414,-0.2634006142616272,0.8638306260108948,-244.91746520996094,-50.790428161621094,5.801881790161133,0.8639568090438843,-0.170991450548172,-0.2639867961406708,-5.025485038757324,1.9051907062530518,-3.5160932540893555
472,24406,24407,-0.02487826906144619,-0.05636254698038101,0.899039089679718,-249.71487426757812,-58.35948944091797,3.326582908630371,0.8864556550979614,-0.16949152946472168,-0.2654867172241211,-4.522149085998535,0.04858771339058876,-3.5289511680603027
473,24416,24417,-0.02176341786980629,0.05088011547923088,0.9653164148330688,-218.78529357910156,-69.65251922607422,2.3086798191070557,0.8879556059837341,-0.17399129271507263,-0.2579870820045471,-3.851625919342041,-2.776639938354492,-3.5002377033233643
474,24426,24427,-0.07982785254716873,0.013945125043392181,1.0092084407806396,-163.76153564453125,-67.46098327636719,1.572232723236084,0.8879556059837341,-0.170991450548172,-0.2549872398376465,-3.482520818710327,-3.9099185466766357,-3.520888328552246
