,timestamp_start,timestamp_end,acc.x,acc.y,acc.z,gyro.x,gyro.y,gyro.z,mag.x,mag.y,mag.z,stabilizer.pitch,stabilizer.roll,stabilizer.yaw
0,16526,16538,0.009728290140628815,-0.019512956961989403,1.079158067703247,-6.6023736000061035,-34.20229721069336,4.746030807495117,-0.7529623508453369,1.4669265747070312,0.27298635244369507,-0.7047833204269409,0.7491388320922852,1.9009228944778442
1,16536,16548,-0.019344346597790718,0.023737700656056404,0.9860062599182129,-15.997477531433105,-28.261476516723633,2.2333004474639893,-0.7484625577926636,1.504424810409546,0.2864856719970703,-0.5066521763801575,0.6630550622940063,1.92899489402771
2,16546,16558,-0.08595087379217148,-0.04256557300686836,1.120084524154663,-14.284409523010254,-25.048818588256836,-0.8718726634979248,-0.7664616703987122,1.4804259538650513,0.2744862735271454,-0.0983901098370552,0.48786816000938416,1.955788254737854
3,16556,16568,-0.0925518274307251,-0.024544978514313698,1.0860543251037598,-5.371539115905762,-22.524227142333984,-1.542018175125122,-0.7439627647399902,1.4909254312515259,0.28798559308052063,0.040776629000902176,0.369234174489975,1.9336191415786743
4,16566,16578,-0.058495089411735535,0.007951276376843452,1.0349690914154053,6.64014196395874,-21.225759506225586,1.9243597984313965,-0.7514623999595642,1.4774260520935059,0.28048595786094666,0.489244669675827,0.5129136443138123,1.964925765991211
5,16576,16588,-0.08262117952108383,0.02972840890288353,1.0535013675689697,12.156571388244629,-18.507083892822266,3.8695549964904785,-0.7349632382392883,1.4789260625839233,0.28498575091362,0.35293886065483093,0.5013750195503235,1.937913417816162
6,16586,16598,-0.13927008211612701,-0.06118205189704895,1.1034059524536133,16.558576583862305,-12.519173622131348,6.313388347625732,-0.7499625086784363,1.46092689037323,0.28498575091362,0.45687976479530334,0.5876830220222473,1.9684983491897583
7,16596,16608,-0.055772148072719574,-0.014097082428634167,1.0316355228424072,12.965447425842285,-5.515772342681885,8.071005821228027,-0.7514623999595642,1.4534273147583008,0.2834858298301697,0.5926342010498047,0.8193666338920593,2.0295112133026123
8,16606,16618,-0.07540380954742432,0.031438786536455154,1.0417181253433228,11.878549575805664,-4.1178436279296875,8.507320404052734,-0.736463189125061,1.4504274129867554,0.2744862735271454,0.7755930423736572,0.8805122971534729,2.13918137550354
9,16616,16628,-0.0862540602684021,0.0016092166770249605,1.0028722286224365,8.790600776672363,-5.5073981285095215,7.349172592163086,-0.7454627156257629,1.4564270973205566,0.277486115694046,0.9504838585853577,1.040515422821045,2.2369422912597656
10,16626,16638,-0.04508465528488159,0.007074038032442331,0.9959049224853516,6.477215766906738,-6.828603267669678,6.449265003204346,-0.736463189125061,1.4264286756515503,0.2834858298301697,1.1306581497192383,1.2227044105529785,2.3130943775177
11,16636,16648,-0.0499093160033226,0.007418291177600622,0.9914525151252747,3.7127346992492676,-10.605109214782715,5.606783866882324,-0.737963080406189,1.445927619934082,0.2759861946105957,0.7470149993896484,0.959550678730011,2.356959104537964
12,16646,16658,-0.015552498400211334,-0.03509335219860077,0.985883355140686,-1.5990184545516968,-11.106667518615723,4.219298362731934,-0.7334632873535156,1.4534273147583008,0.28048595786094666,1.0253361463546753,0.9185953140258789,2.461906909942627
13,16656,16668,-0.05310087278485298,-0.08776400238275528,0.9570004940032959,-6.380760192871094,-17.313919067382812,1.382925271987915,-0.7454627156257629,1.4384280443191528,0.27148643136024475,1.0482192039489746,1.0631601810455322,2.433300256729126
14,16666,16678,-0.08249401301145554,0.022243207320570946,0.9697107076644897,-6.851157188415527,-27.940454483032227,-1.826215147972107,-0.7289635539054871,1.4399279356002808,0.27898603677749634,1.4272096157073975,0.8885700702667236,2.5160000324249268
15,16676,16688,-0.0643053874373436,0.04189334809780121,0.9939414262771606,-6.376801490783691,-31.214679718017578,-3.3596580028533936,-0.7334632873535156,1.4294284582138062,0.28048595786094666,1.9117416143417358,0.8581421971321106,2.527376651763916
16,16686,16698,-0.07769831269979477,0.008089370094239712,0.9809995889663696,-9.223268508911133,-22.507537841796875,-5.635475158691406,-0.7214639186859131,1.4384280443191528,0.277486115694046,2.027237892150879,0.6699033379554749,2.489989757537842
17,16696,16708,-0.03239449858665466,0.019696589559316635,0.9949376583099365,-4.975857734680176,-11.772175788879395,-6.3983073234558105,-0.737963080406189,1.436928153038025,0.26998651027679443,2.3353545665740967,0.6148068904876709,2.4393346309661865
18,16706,16718,-0.0018091582460328937,0.08380221575498581,1.0039448738098145,-0.5079672932624817,-0.9309890866279602,-6.164630889892578,-0.7214639186859131,1.435428261756897,0.2864856719970703,2.4555935859680176,0.5716860890388489,2.379944324493408
19,16716,16728,-0.002786860102787614,-0.029794912785291672,1.0140748023986816,7.06251335144043,9.912315368652344,-7.091586589813232,-0.722963809967041,1.4309284687042236,0.2669866383075714,2.456669807434082,0.603175163269043,2.3049213886260986
20,16726,16738,-0.03129749000072479,-0.04869075492024422,0.9920167326927185,15.536499977111816,17.074583053588867,-8.153084754943848,-0.7334632873535156,1.4264286756515503,0.28048595786094666,2.296461582183838,0.6915072798728943,2.219594955444336
21,16736,16748,-0.058145664632320404,-0.04436962679028511,0.9344978332519531,19.08225440979004,15.810944557189941,-7.5034379959106445,-0.7319633960723877,1.4279285669326782,0.27298635244369507,2.0843594074249268,0.8872604966163635,2.1127567291259766
22,16746,16758,-0.07345174998044968,-0.00701625132933259,0.9418987035751343,15.571453094482422,15.056331634521484,-7.875514984130859,-0.736463189125061,1.435428261756897,0.27148643136024475,1.9532190561294556,1.2345718145370483,1.9625388383865356
23,16756,16768,-0.04027888551354408,0.012747317552566528,0.9792094826698303,10.916413307189941,14.48298454284668,-8.526810646057129,-0.730463445186615,1.4234287738800049,0.2834858298301697,1.9626730680465698,1.2265315055847168,2.00655198097229
24,16766,16778,-0.06460987031459808,-0.009975135326385498,0.9848554134368896,11.569794654846191,16.267539978027344,-9.83887767791748,-0.736463189125061,1.4294284582138062,0.277486115694046,1.7357456684112549,1.0549196004867554,2.060422658920288
25,16776,16788,-0.06386763602495193,-0.042264025658369064,0.9759000539779663,9.314279556274414,13.900471687316895,-9.663969039916992,-0.7274636030197144,1.4324283599853516,0.2834858298301697,1.5105304718017578,1.237094521522522,1.916724681854248
26,16786,16798,0.007456871680915356,-0.014414123259484768,0.9471887350082397,4.111948013305664,9.346100807189941,-7.072388648986816,-0.7259637117385864,1.4309284687042236,0.2669866383075714,1.4704723358154297,1.1587295532226562,1.9391305446624756
27,16796,16808,-0.051090192049741745,-0.00207467470318079,0.9489927291870117,-5.051181316375732,1.6198211908340454,-4.915933609008789,-0.7274636030197144,1.4264286756515503,0.27148643136024475,1.4473837614059448,1.2549326419830322,1.853732705116272
28,16806,16818,-0.1696905940771103,-0.0002478497917763889,0.9974135756492615,-15.947830200195312,-1.8517677783966064,-3.5983986854553223,-0.737963080406189,1.421928882598877,0.27298635244369507,1.459898829460144,1.1780892610549927,1.8198974132537842
29,16816,16828,-0.1424933671951294,-0.027272198349237442,0.9182115197181702,-19.562631607055664,-2.6279046535491943,-4.137024402618408,-0.7274636030197144,1.4114294052124023,0.2654867172241211,1.5766818523406982,0.9577874541282654,1.8334920406341553
30,16826,16838,-0.07794620096683502,0.03415147587656975,0.9582379460334778,-13.466358184814453,-3.5018961429595947,-4.504760265350342,-0.7184640765190125,1.420428991317749,0.2924853563308716,1.6335464715957642,0.7555819153785706,1.8067502975463867
31,16836,16848,0.014756042510271072,0.03313738852739334,0.9255540370941162,-3.969001293182373,-2.713665723800659,-3.498284339904785,-0.7424628734588623,1.420428991317749,0.28948551416397095,1.6868510246276855,0.7374550104141235,1.7128026485443115
32,16846,16858,0.026105061173439026,0.08218441158533096,0.9344707727432251,2.4252185821533203,1.1512153148651123,-1.1089448928833008,-0.7424628734588623,1.420428991317749,0.28948551416397095,1.701051950454712,0.7707860469818115,1.6415517330169678
33,16856,16868,0.04295350983738899,0.0032023168168962,0.9405874013900757,4.539493083953857,8.76015567779541,1.321407437324524,-0.7424628734588623,1.420428991317749,0.28948551416397095,1.6199054718017578,0.882310152053833,1.5751147270202637
34,16866,16878,-0.11785949766635895,-0.05912124738097191,0.9483449459075928,1.6692174673080444,11.712409019470215,3.7071328163146973,-0.7424628734588623,1.420428991317749,0.28948551416397095,1.4508079290390015,0.9054524302482605,1.5822087526321411
35,16876,16888,-0.10973729193210602,-0.04363366588950157,0.9262416958808899,1.9518541097640991,13.589495658874512,6.468724250793457,-0.730463445186615,1.420428991317749,0.28048595786094666,1.3238962888717651,0.9787507057189941,1.593457579612732
36,16886,16898,-0.11391298472881317,0.037265803664922714,0.8975743651390076,8.100579261779785,18.323183059692383,9.602530479431152,-0.7259637117385864,1.421928882598877,0.2669866383075714,1.4855992794036865,1.0780977010726929,1.690086841583252
37,16896,16908,-0.045597441494464874,0.04821878299117088,0.8935806155204773,12.832978248596191,22.03728675842285,11.980077743530273,-0.7409629225730896,1.4249287843704224,0.27298635244369507,1.3530492782592773,1.1394736766815186,1.8178118467330933
38,16906,16918,-0.032333798706531525,0.034288812428712845,0.8756295442581177,12.94611930847168,23.620973587036133,11.759064674377441,-0.736463189125061,1.435428261756897,0.2924853563308716,1.021750807762146,1.382361888885498,1.862754225730896
39,16916,16928,-0.05416453629732132,0.05005812644958496,0.9203290939331055,13.431653022766113,22.53594207763672,10.736430168151855,-0.7394630312919617,1.4144293069839478,0.28048595786094666,0.9597493410110474,1.3586183786392212,2.095588445663452
40,16926,16938,-0.057833801954984665,0.008426978252828121,0.9121391177177429,6.341329574584961,19.47545051574707,7.769609451293945,-0.7394630312919617,1.4234287738800049,0.26248687505722046,0.5726953744888306,1.4284693002700806,2.1936941146850586
41,16936,16948,-0.061701852828264236,0.1024094745516777,0.8636617064476013,0.720803439617157,14.72850227355957,5.3052849769592285,-0.7454627156257629,1.4174290895462036,0.28048595786094666,0.46336129307746887,1.528454065322876,2.2697837352752686
42,16946,16958,-0.046919044107198715,0.07014190405607224,0.9163347482681274,-4.266096591949463,12.027070999145508,2.804208755493164,-0.737963080406189,1.4249287843704224,0.27898603677749634,0.4097422659397125,1.5363532304763794,2.339744806289673
43,16956,16968,0.01050063781440258,-0.045324333012104034,0.9793500900268555,-3.9196219444274902,14.270330429077148,-1.4366343021392822,-0.7484625577926636,1.420428991317749,0.28048595786094666,0.4327692985534668,1.429757833480835,2.4253313541412354
44,16966,16978,-0.03014601580798626,-0.006291917059570551,0.9217653870582581,-1.0791959762573242,20.862831115722656,-6.39743185043335,-0.7394630312919617,1.4264286756515503,0.28048595786094666,0.23306389153003693,1.3404995203018188,2.4184389114379883
45,16976,16988,-0.06467718631029129,0.005785883404314518,0.8900705575942993,7.57874870300293,26.183597564697266,-10.06877613067627,-0.737963080406189,1.4279285669326782,0.28498575091362,-0.05485327169299126,1.278272032737732,2.3621034622192383
46,16986,16998,-0.07569856941699982,0.017805539071559906,0.9093649983406067,10.84205150604248,35.97240447998047,-13.056768417358398,-0.7604619860649109,1.420428991317749,0.2744862735271454,-0.3158312737941742,1.4707245826721191,2.2321226596832275
47,16996,17008,-0.06441189348697662,-0.1688881367444992,0.8797804713249207,10.461835861206055,41.39021301269531,-15.191608428955078,-0.7454627156257629,1.4384280443191528,0.27148643136024475,-0.7049914002418518,1.6710208654403687,2.075932025909424
48,17006,17018,-0.018588541075587273,-0.1757279634475708,0.9136692881584167,12.739570617675781,35.87963104248047,-15.517451286315918,-0.7544622421264648,1.4264286756515503,0.28048595786094666,-1.1263346672058105,1.592532753944397,1.9818544387817383
49,17016,17028,-0.03013324737548828,-0.03853703662753105,0.8873639106750488,14.868643760681152,18.861059188842773,-14.71004867553711,-0.7694615125656128,1.4264286756515503,0.277486115694046,-1.4563652276992798,1.8368701934814453,1.8119369745254517
50,17026,17038,-0.050171859562397,-0.03324218466877937,0.8475842475891113,12.525836944580078,3.3504059314727783,-12.539230346679688,-0.7529623508453369,1.436928153038025,0.2669866383075714,-1.5766990184783936,1.9401452541351318,1.6930780410766602
51,17036,17048,-0.10820525884628296,0.025138109922409058,0.9203802347183228,6.126389026641846,-6.696651458740234,-10.93759822845459,-0.7589620351791382,1.4339282512664795,0.27298635244369507,-1.5563201904296875,2.056396484375,1.581774115562439
52,17046,17058,-0.08978847414255142,0.06395463645458221,1.0015802383422852,-0.5528750419616699,-15.445601463317871,-9.806069374084473,-0.7619618773460388,1.4339282512664795,0.26998651027679443,-1.5153579711914062,1.989823341369629,1.4771840572357178
53,17056,17068,-0.037634242326021194,0.012224238365888596,0.9172986745834351,-5.354573726654053,-18.408000946044922,-8.327689170837402,-0.7634618282318115,1.435428261756897,0.2654867172241211,-1.3727062940597534,1.976912498474121,1.3720844984054565
54,17066,17078,-0.05926227197051048,-0.021687772125005722,0.9127900004386902,-8.715497016906738,-16.10576629638672,-6.369986534118652,-0.7634618282318115,1.4384280443191528,0.28948551416397095,-1.1383285522460938,1.9430068731307983,1.2966748476028442
55,17076,17088,-0.05692233145236969,-0.008591298945248127,0.9139479398727417,-10.39651870727539,-6.656941890716553,-3.880862236022949,-0.7619618773460388,1.445927619934082,0.27298635244369507,-0.9805281162261963,1.8765010833740234,1.2332240343093872
56,17086,17098,-0.11964969336986542,-0.05959855392575264,0.9293173551559448,-15.568455696105957,10.725826263427734,-1.8345986604690552,-0.7559621930122375,1.4189289808273315,0.2669866383075714,-1.0285056829452515,1.7480264902114868,1.1727420091629028
57,17096,17108,-0.11545689404010773,-0.09882939606904984,0.9656498432159424,-15.072308540344238,26.672643661499023,0.06775082647800446,-0.7589620351791382,1.4489275217056274,0.2759861946105957,-1.2689194679260254,1.572861909866333,1.1283081769943237
58,17106,17118,-0.04799168184399605,-0.02517484687268734,0.9124481678009033,-9.915970802307129,32.97285461425781,3.227785110473633,-0.7649617195129395,1.4489275217056274,0.2669866383075714,-1.5681759119033813,1.5646164417266846,1.1308194398880005
59,17116,17128,-0.06154945120215416,-0.10646235942840576,0.8796919584274292,1.0535883903503418,24.164213180541992,7.586465358734131,-0.7739613056182861,1.4519274234771729,0.26998651027679443,-1.8703991174697876,1.4799473285675049,1.1818857192993164
60,17126,17138,-0.041945457458496094,-0.03321213275194168,0.9030095934867859,7.770359516143799,5.026973247528076,10.501955032348633,-0.7559621930122375,1.4429278373718262,0.26998651027679443,-2.0403854846954346,1.5442560911178589,1.2804402112960815
61,17136,17148,-0.02846337854862213,0.0205815602093935,0.9519833922386169,5.369983196258545,-19.52399253845215,14.148550033569336,-0.7559621930122375,1.4489275217056274,0.2759861946105957,-1.9840456247329712,1.6541931629180908,1.4104787111282349
62,17146,17158,-0.06764066964387894,0.07525335997343063,0.9572535753250122,-3.1141748428344727,-37.995819091796875,17.224712371826172,-0.7709614634513855,1.4489275217056274,0.2759861946105957,-1.4897831678390503,1.6802325248718262,1.6140488386154175
63,17156,17168,-0.11727970838546753,0.0940890908241272,0.9499675631523132,-12.592218399047852,-42.51194763183594,19.87773323059082,-0.7619618773460388,1.4549272060394287,0.2939853072166443,-1.1450637578964233,1.6367297172546387,1.7663359642028809
64,17166,17178,-0.04784812405705452,0.04294635355472565,0.9868574142456055,-24.531110763549805,-31.930889129638672,22.374866485595703,-0.7589620351791382,1.4579271078109741,0.28198590874671936,-0.8885257840156555,1.348032832145691,1.9036628007888794
65,17176,17188,-0.023242248222231865,0.007849229499697685,0.9896930456161499,-35.07018280029297,-12.314818382263184,23.646900177001953,-0.7484625577926636,1.4654266834259033,0.277486115694046,-0.5210180282592773,1.1508029699325562,2.14530086517334
66,17186,17198,-0.015260267071425915,0.01126629114151001,0.9895452260971069,-37.150325775146484,5.986487865447998,24.288307189941406,-0.7544622421264648,1.4774260520935059,0.2744862735271454,-0.5443242788314819,0.8295117616653442,2.356029987335205
67,17196,17208,-0.08049019426107407,0.054053738713264465,1.026682734489441,-27.2044677734375,19.587074279785156,24.618722915649414,-0.7679615616798401,1.4819258451461792,0.29098543524742126,-0.7558645009994507,0.3466629683971405,2.5612566471099854
68,17206,17218,-0.024268902838230133,0.024334901943802834,1.0090250968933105,-14.737897872924805,24.776100158691406,24.015506744384766,-0.7739613056182861,1.472926378250122,0.2759861946105957,-0.9793593287467957,0.33237260580062866,2.823350667953491
69,17216,17228,-0.06728549301624298,0.02214723639190197,1.105051040649414,0.543431282043457,19.10746192932129,23.838050842285156,-0.7664616703987122,1.4924253225326538,0.26848655939102173,-1.3542877435684204,0.18029631674289703,3.03782057762146
70,17226,17238,0.03576532006263733,-0.09352941066026688,1.0873334407806396,11.728462219238281,10.234455108642578,22.644393920898438,-0.7709614634513855,1.4699264764785767,0.28798559308052063,-1.3380568027496338,0.1755712330341339,3.3071868419647217
71,17236,17248,-0.03427032008767128,-0.003650982864201069,0.973809540271759,17.250940322875977,-2.7987828254699707,20.725427627563477,-0.7634618282318115,1.4654266834259033,0.28048595786094666,-1.3807564973831177,0.3859449326992035,3.5490124225616455
72,17246,17258,-0.0016155672492459416,0.040314722806215286,1.0579912662506104,17.053911209106445,-14.013522148132324,18.018754959106445,-0.7694615125656128,1.4654266834259033,0.27148643136024475,-1.4907397031784058,0.5234925150871277,3.730149745941162
73,17256,17268,-0.09322559088468552,0.0595971904695034,0.9881646037101746,1.741061806678772,-24.80473518371582,14.782225608825684,-0.7499625086784363,1.4639267921447754,0.27298635244369507,-1.1744656562805176,0.6932428479194641,3.926440715789795
74,17266,17278,-0.12750056385993958,0.09824836999177933,1.0071598291397095,-14.728188514709473,-30.136369705200195,10.784416198730469,-0.7484625577926636,1.4684265851974487,0.28948551416397095,-0.7314110994338989,0.6127676367759705,4.077394962310791
75,17276,17288,-0.07426679879426956,-0.03255076706409454,1.0341649055480957,-29.1291446685791,-27.448705673217773,7.565547943115234,-0.7619618773460388,1.4579271078109741,0.2759861946105957,-0.6997726559638977,0.34622636437416077,4.141083717346191
76,17286,17298,-0.06810261309146881,0.02969919890165329,1.0516400337219238,-41.81273651123047,-24.974042892456055,3.9176418781280518,-0.7484625577926636,1.4654266834259033,0.27148643136024475,-0.3311814069747925,0.05738086253404617,4.222347259521484
77,17296,17308,-0.03765903785824776,-0.03742662072181702,1.1144906282424927,-36.189300537109375,-15.702220916748047,1.4798297882080078,-0.7529623508453369,1.4639267921447754,0.27298635244369507,-0.059246793389320374,-0.32084277272224426,4.26451301574707
78,17306,17318,0.022032976150512695,0.011947357095777988,0.9305661916732788,-30.650245666503906,-6.249133586883545,-0.5487256646156311,-0.7514623999595642,1.4654266834259033,0.277486115694046,-0.009626125916838646,-0.8365074396133423,4.259408473968506
79,17316,17328,0.01678934134542942,-0.06710325926542282,1.0397608280181885,-10.560914993286133,13.947662353515625,-2.129234552383423,-0.7589620351791382,1.4789260625839233,0.28198590874671936,-0.11291950941085815,-1.0625141859054565,4.251242160797119
80,17326,17338,-0.006681415252387524,-0.04310550168156624,1.0093274116516113,5.763217449188232,32.32258605957031,-2.1569695472717285,-0.7529623508453369,1.4819258451461792,0.2759861946105957,-0.36292827129364014,-1.162129521369934,4.224589824676514
81,17336,17348,-0.06891410797834396,0.020068896934390068,1.0677897930145264,22.896413803100586,42.70850372314453,-0.7297499775886536,-0.7514623999595642,1.4654266834259033,0.27148643136024475,-0.7463595867156982,-0.8011338114738464,4.215106964111328
82,17346,17358,-0.04575832188129425,0.010592645965516567,1.0100922584533691,20.370615005493164,34.98945617675781,-1.5511250495910645,-0.7559621930122375,1.4879255294799805,0.27298635244369507,-0.9503715634346008,-0.7488051056861877,4.184477806091309
83,17356,17368,-0.010638438165187836,0.010757439769804478,0.9723936319351196,8.433175086975098,17.36562156677246,-3.8477442264556885,-0.7604619860649109,1.459426999092102,0.2744862735271454,-1.406385064125061,-0.5606817603111267,4.169312953948975
84,17366,17378,-0.051111314445734024,-0.08516629785299301,1.0379858016967773,-5.29716682434082,-1.8866608142852783,-6.727476119995117,-0.7649617195129395,1.472926378250122,0.28198590874671936,-1.5544507503509521,-0.5201510787010193,4.125566482543945
85,17376,17388,-0.012053875252604485,0.006128361914306879,0.9483734369277954,-11.549556732177734,-19.3106689453125,-8.959524154663086,-0.7649617195129395,1.46092689037323,0.2669866383075714,-1.3353420495986938,-0.656520664691925,4.035780429840088
86,17386,17398,-0.03913158178329468,-0.0802193209528923,1.0295588970184326,-7.910881519317627,-27.588523864746094,-9.013887405395508,-0.7544622421264648,1.4834258556365967,0.2834858298301697,-1.3835440874099731,-0.7377461791038513,3.972827196121216
87,17396,17408,-0.06954439729452133,-0.11121660470962524,1.0405771732330322,-9.540287017822266,-24.960987091064453,-10.56448745727539,-0.7574620842933655,1.4654266834259033,0.27148643136024475,-0.9211475253105164,-0.889637291431427,3.859670877456665
88,17406,17418,-0.0749254897236824,0.02182042971253395,0.9832223057746887,-4.999225616455078,-17.66347885131836,-11.735638618469238,-0.7589620351791382,1.4789260625839233,0.2639867961406708,-0.8870517015457153,-1.0238336324691772,3.7760682106018066
89,17416,17428,-0.0833711326122284,-0.019172122702002525,1.1085925102233887,5.386529922485352,-5.08005428314209,-12.889898300170898,-0.7649617195129395,1.4789260625839233,0.27898603677749634,-0.6406338810920715,-1.0269877910614014,3.6550166606903076
90,17426,17438,-0.047497425228357315,0.07073015719652176,1.0401883125305176,8.617937088012695,4.502758502960205,-15.215118408203125,-0.7424628734588623,1.4834258556365967,0.28948551416397095,-0.5227034091949463,-0.9257206916809082,3.518723249435425
91,17436,17448,-0.01346865575760603,0.1071476861834526,1.0511013269424438,15.053356170654297,9.715845108032227,-17.552106857299805,-0.7634618282318115,1.4804259538650513,0.28948551416397095,-0.5996164679527283,-0.8754374384880066,3.3652000427246094
92,17446,17458,-0.03317473828792572,0.0127584058791399,1.0849006175994873,13.936467170715332,12.064118385314941,-21.17432403564453,-0.7499625086784363,1.4789260625839233,0.27898603677749634,-0.7524489164352417,-0.6274517774581909,3.201434373855591
93,17456,17468,-0.06454520672559738,-0.03667889162898064,1.0262508392333984,10.519734382629395,6.825811862945557,-25.252023696899414,-0.7649617195129395,1.4849257469177246,0.2759861946105957,-0.9666717052459717,-0.7031510472297668,2.9835381507873535
94,17466,17478,-0.09532468020915985,0.019067827612161636,1.0059176683425903,6.365835189819336,-7.182430267333984,-27.704492568969727,-0.7529623508453369,1.4669265747070312,0.2669866383075714,-1.0182428359985352,-0.5363600254058838,2.7331061363220215
95,17476,17488,-0.08269533514976501,0.07865062355995178,1.0641123056411743,-0.4138331413269043,-18.249313354492188,-28.648740768432617,-0.7694615125656128,1.4714263677597046,0.2744862735271454,-1.0689425468444824,-0.45592832565307617,2.4805963039398193
96,17486,17498,-0.08283206820487976,-0.022187627851963043,1.0730153322219849,-5.7796125411987305,-20.996665954589844,-30.39765739440918,-0.7649617195129395,1.4699264764785767,0.29098543524742126,-0.7709187269210815,-0.6166656613349915,2.161494016647339
97,17496,17508,-0.06558380275964737,-0.09178537130355835,1.0755006074905396,-10.388459205627441,-16.124691009521484,-32.2171630859375,-0.7664616703987122,1.4804259538650513,0.277486115694046,-0.6976674795150757,-0.7780594825744629,1.8728845119476318
98,17506,17518,-0.018916625529527664,-0.013049417175352573,1.018523931503296,-9.806280136108398,-11.691614151000977,-34.001487731933594,-0.7604619860649109,1.4624269008636475,0.26248687505722046,-0.39885401725769043,-0.7815328240394592,1.5342638492584229
99,17516,17528,-0.028027063235640526,0.006225696299225092,1.025669813156128,3.386035919189453,-6.010962963104248,-35.27678680419922,-0.7559621930122375,1.4789260625839233,0.2669866383075714,-0.4798947274684906,-0.8328976631164551,1.2296913862228394
100,17526,17538,-0.052675437182188034,0.09687569737434387,1.0289692878723145,20.348281860351562,-4.099460124969482,-35.07509231567383,-0.7634618282318115,1.4684265851974487,0.27148643136024475,-0.47108784317970276,-0.7722160220146179,0.8887410759925842
101,17536,17548,-0.04303942248225212,-0.017739510163664818,1.0030430555343628,38.3890380859375,-4.31866455078125,-32.99260330200195,-0.7649617195129395,1.4669265747070312,0.29098543524742126,-0.47841331362724304,-0.5156088471412659,0.5519399046897888
102,17546,17558,-0.033339209854602814,-0.021088453009724617,1.0106779336929321,52.648380279541016,-7.600034713745117,-30.725561141967773,-0.7544622421264648,1.47442626953125,0.2744862735271454,-0.45721331238746643,-0.1295289397239685,0.22918285429477692
103,17556,17568,-0.03002454899251461,-0.03749287128448486,0.9695529937744141,57.81214141845703,-8.077935218811035,-28.972490310668945,-0.7484625577926636,1.4624269008636475,0.277486115694046,-0.4021945297718048,0.43711328506469727,-0.07124825567007065
104,17566,17578,-0.02283276990056038,0.049566421657800674,1.0304086208343506,55.4223518371582,-8.899550437927246,-26.557998657226562,-0.7529623508453369,1.4579271078109741,0.27898603677749634,-0.3444126844406128,1.1052258014678955,-0.3532584309577942
105,17576,17588,-0.038974061608314514,-0.04316461831331253,0.9662550687789917,48.10310363769531,-13.3748779296875,-24.173879623413086,-0.7514623999595642,1.4624269008636475,0.2834858298301697,-0.18572711944580078,1.6427713632583618,-0.6301438808441162
106,17586,17598,-0.015982788056135178,-0.04484300687909126,0.9420032501220703,29.96950912475586,-19.336227416992188,-19.90580940246582,-0.7499625086784363,1.4519274234771729,0.28198590874671936,-0.15945841372013092,2.0470497608184814,-0.8572849631309509
107,17596,17608,-0.06235283985733986,0.018248090520501137,1.0776015520095825,9.412713050842285,-20.653156280517578,-16.750629425048828,-0.7499625086784363,1.4519274234771729,0.27298635244369507,0.09147076308727264,2.28265380859375,-1.0666152238845825
108,17606,17618,0.011381760239601135,0.11499590426683426,0.9253132343292236,-8.657944679260254,-20.116052627563477,-13.711246490478516,-0.7514623999595642,1.4624269008636475,0.2864856719970703,0.4136923551559448,2.337540626525879,-1.2463644742965698
109,17616,17628,-0.051498498767614365,0.04274625703692436,1.0271977186203003,-17.252246856689453,-18.23944854736328,-11.176732063293457,-0.7544622421264648,1.4684265851974487,0.2834858298301697,0.5905044078826904,2.1799333095550537,-1.3865059614181519
110,17626,17638,-0.02282623201608658,0.045817479491233826,1.0239354372024536,-21.8060302734375,-15.083245277404785,-9.57883071899414,-0.7544622421264648,1.4564270973205566,0.27148643136024475,0.6530669331550598,1.9612594842910767,-1.5024183988571167
111,17636,17648,0.017291121184825897,0.07489242404699326,0.9633883833885193,-16.015043258666992,-8.242595672607422,-6.454375743865967,-0.7454627156257629,1.4624269008636475,0.28048595786094666,0.8414261341094971,1.6668645143508911,-1.590766429901123
112,17646,17658,0.0348791629076004,0.021518921479582787,1.0647614002227783,-5.696996212005615,-4.8967108726501465,-3.520807981491089,-0.7544622421264648,1.47442626953125,0.28048595786094666,0.8261187672615051,1.6444817781448364,-1.6681907176971436
113,17656,17668,0.021127307787537575,0.027684899047017097,1.0374250411987305,4.563277244567871,7.557465553283691,-2.3135669231414795,-0.7394630312919617,1.459426999092102,0.2834858298301697,0.8119288086891174,1.686618685722351,-1.713984489440918
114,17666,17678,-0.03089355304837227,0.045349471271038055,0.9694505333900452,16.83500862121582,10.964127540588379,0.27366694808006287,-0.7619618773460388,1.4789260625839233,0.27898603677749634,0.7295879125595093,1.8464068174362183,-1.7412807941436768
115,17676,17688,-0.05645471811294556,0.05681145563721657,1.0810468196868896,27.182214736938477,7.9858527183532715,2.0858397483825684,-0.7559621930122375,1.472926378250122,0.27298635244369507,0.5753763318061829,2.119816780090332,-1.7479889392852783
116,17686,17698,-0.01894194260239601,0.012112713418900967,0.9993105530738831,27.494264602661133,5.935321807861328,2.833658456802368,-0.7589620351791382,1.4519274234771729,0.26998651027679443,0.39219585061073303,2.479701519012451,-1.7448817491531372
117,17696,17708,0.017539385706186295,0.12126576155424118,0.9570367932319641,22.544883728027344,-0.6959847807884216,4.928377628326416,-0.7544622421264648,1.4564270973205566,0.28048595786094666,0.3510044813156128,2.8221991062164307,-1.7185100317001343
118,17706,17718,-0.02935333363711834,0.06983780115842819,1.0585318803787231,4.321507930755615,-15.591395378112793,6.573197841644287,-0.7514623999595642,1.4504274129867554,0.2744862735271454,0.47184139490127563,2.9944915771484375,-1.6511938571929932
119,17716,17728,-0.07271697372198105,-0.01986977830529213,1.0280205011367798,-20.346288681030273,-24.45302391052246,6.3629679679870605,-0.7424628734588623,1.444427728652954,0.28048595786094666,0.7882882952690125,2.8837130069732666,-1.5509884357452393
120,17726,17738,-0.014859521761536598,0.07272288203239441,0.9515841603279114,-36.19927215576172,-32.48146438598633,6.139613151550293,-0.7454627156257629,1.4654266834259033,0.3014849126338959,0.8254337906837463,2.6354174613952637,-1.5399366617202759
121,17736,17748,-0.027809014543890953,0.04104199633002281,1.0012788772583008,-43.90830612182617,-36.2355842590332,5.929621696472168,-0.7394630312919617,1.4624269008636475,0.2834858298301697,1.322705626487732,2.1830008029937744,-1.444454312324524
122,17746,17758,-0.053081851452589035,-0.02915799617767334,0.9976440668106079,-45.87537384033203,-30.97768211364746,3.7129034996032715,-0.7424628734588623,1.4564270973205566,0.277486115694046,1.5224717855453491,1.8510857820510864,-1.4554365873336792
123,17756,17768,-0.06821054220199585,-0.024582495912909508,1.01906156539917,-38.70351028442383,-22.830524444580078,3.9144484996795654,-0.7349632382392883,1.4639267921447754,0.28498575091362,2.045971393585205,1.3850369453430176,-1.3724634647369385
124,17766,17778,-0.05199611932039261,0.04202769324183464,1.0536214113235474,-24.586000442504883,-13.085700035095215,4.870464324951172,-0.7424628734588623,1.4804259538650513,0.28948551416397095,2.261003017425537,1.152566909790039,-1.366499662399292
125,17776,17788,-0.0356128066778183,0.048331066966056824,1.0556365251541138,-13.722151756286621,-2.860764980316162,7.246248722076416,-0.7409629225730896,1.4849257469177246,0.29098543524742126,2.328202247619629,0.8466802835464478,-1.309452772140503
126,17786,17798,-0.04977412894368172,-0.08317695558071136,1.0373351573944092,-1.937026858329773,7.814209461212158,10.651968955993652,-0.7349632382392883,1.472926378250122,0.28498575091362,2.2959532737731934,0.8706552386283875,-1.280051350593567
127,17796,17808,-0.0804683268070221,-0.054944396018981934,1.0091674327850342,4.945941925048828,13.140320777893066,13.030611991882324,-0.7409629225730896,1.475926160812378,0.28498575091362,2.186338424682617,0.8869856595993042,-1.1842122077941895
128,17806,17818,-0.023043129593133926,0.008413760922849178,1.0046156644821167,4.995649337768555,11.970693588256836,16.94287872314453,-0.7484625577926636,1.4654266834259033,0.28048595786094666,2.0288100242614746,0.9126595258712769,-1.0433666706085205
129,17816,17828,-0.0124934958294034,0.024873856455087662,1.035845160484314,-6.475964546203613,10.628270149230957,19.4091796875,-0.7334632873535156,1.47442626953125,0.2954852283000946,1.8961052894592285,1.067734956741333,-0.9123417139053345
130,17826,17838,-0.06193377822637558,0.019688231870532036,1.0573116540908813,-20.53951644897461,4.81220817565918,22.16609764099121,-0.7289635539054871,1.4819258451461792,0.28498575091362,1.818881630897522,0.9383440613746643,-0.6957032680511475
131,17836,17848,-0.03733483701944351,-0.07918046414852142,1.0707576274871826,-32.43053436279297,-2.5216495990753174,23.870376586914062,-0.737963080406189,1.475926160812378,0.27298635244369507,1.8404186964035034,0.803932249546051,-0.4947369396686554
132,17846,17858,-0.019987013190984726,-0.03297712281346321,0.9748668074607849,-38.4058837890625,-6.697628498077393,24.647567749023438,-0.7289635539054871,1.4789260625839233,0.28498575091362,1.9396651983261108,0.21310317516326904,-0.15764422714710236
133,17856,17868,-0.015671798959374428,0.09828178584575653,1.0350755453109741,-36.70904541015625,-13.250611305236816,25.882946014404297,-0.7349632382392883,1.472926378250122,0.29098543524742126,2.1100056171417236,0.14878784120082855,-0.014314609579741955
134,17866,17878,-0.06383921205997467,0.038764290511608124,1.042975902557373,-29.071483612060547,-15.60325813293457,26.99770736694336,-0.7289635539054871,1.4789260625839233,0.3029848337173462,2.2141451835632324,-0.293159544467926,0.2656180262565613
135,17876,17888,0.01657821051776409,0.13122311234474182,0.9285706877708435,-19.59058952331543,-12.758764266967773,29.65735626220703,-0.7289635539054871,1.4849257469177246,0.2939853072166443,2.4036993980407715,-0.6549602150917053,0.5741387605667114
136,17886,17898,-0.03168364614248276,0.037035584449768066,1.053482174873352,-7.750172138214111,-4.66817045211792,32.46078872680664,-0.737963080406189,1.4879255294799805,0.27898603677749634,2.365963935852051,-0.9191982746124268,0.8903124928474426
137,17896,17908,-0.03154568746685982,0.10071339458227158,0.9353369474411011,-5.011460304260254,-0.8706039190292358,31.975112915039062,-0.7349632382392883,1.472926378250122,0.2939853072166443,2.441478967666626,-0.7705060243606567,1.1212999820709229
138,17906,17918,-0.09662088006734848,0.068650983273983,1.017769694328308,3.498504638671875,0.3901752531528473,32.19025421142578,-0.7424628734588623,1.4954252243041992,0.2924853563308716,2.4610724449157715,-0.8173210024833679,1.4419403076171875
139,17916,17928,-0.01101600844413042,0.0026778934989124537,1.0158946514129639,-3.103750228881836,2.508160352706909,30.538267135620117,-0.7319633960723877,1.4879255294799805,0.28198590874671936,2.4393253326416016,-0.8266642689704895,1.7686625719070435
140,17926,17938,-0.009414823725819588,0.053702592849731445,0.9716063141822815,-7.586224555969238,1.7849507331848145,28.898813247680664,-0.7439627647399902,1.4939253330230713,0.29098543524742126,2.404426097869873,-0.9368916749954224,2.096874475479126
141,17936,17948,-0.09874308109283447,0.04338638111948967,1.1668422222137451,-8.766883850097656,2.503023386001587,26.649070739746094,-0.7439627647399902,1.475926160812378,0.2969851493835449,2.377368450164795,-1.0099533796310425,2.3757359981536865
142,17946,17958,-0.0754808634519577,0.0837160274386406,1.034255862236023,-16.23488426208496,0.5450701117515564,24.56692886352539,-0.7319633960723877,1.4969251155853271,0.28198590874671936,2.3626580238342285,-1.235163927078247,2.692668914794922
143,17956,17968,-0.05132339894771576,-0.08965635299682617,1.1272287368774414,-14.428681373596191,6.12298583984375,21.75156593322754,-0.7334632873535156,1.489425539970398,0.277486115694046,2.3018698692321777,-1.2609338760375977,2.8819260597229004
144,17966,17978,-0.07768947631120682,-0.020433377474546432,1.0748883485794067,-27.71221160888672,8.384025573730469,16.79865264892578,-0.730463445186615,1.4774260520935059,0.2864856719970703,2.2021806240081787,-1.665358304977417,3.2031960487365723
145,17976,17988,-0.09714896231889725,0.0013955470640212297,1.2311569452285767,-28.854312896728516,16.783607482910156,12.010623931884766,-0.7274636030197144,1.4864256381988525,0.2744862735271454,1.9995008707046509,-1.9704145193099976,3.389951229095459
146,17986,17998,-0.07398282736539841,0.07144176214933395,0.9190402030944824,-32.440879821777344,18.448368072509766,8.625956535339355,-0.7439627647399902,1.4849257469177246,0.29098543524742126,1.9193637371063232,-2.0270323753356934,3.3882882595062256
147,17996,18008,-0.05852764844894409,0.019395671784877777,1.018103003501892,-17.348011016845703,17.95737075805664,6.968169212341309,-0.7454627156257629,1.4834258556365967,0.2744862735271454,1.7449195384979248,-2.303572416305542,3.4537363052368164
148,18006,18018,-0.0014215880073606968,0.13659588992595673,0.8978120684623718,-16.996353149414062,16.12479591369629,4.454132556915283,-0.730463445186615,1.4804259538650513,0.28948551416397095,1.5336600542068481,-2.526423215866089,3.538918972015381
149,18016,18028,0.013518568128347397,-0.04385867342352867,1.0210883617401123,-4.084958553314209,22.424001693725586,1.5057953596115112,-0.7334632873535156,1.4714263677597046,0.2954852283000946,1.4290916919708252,-2.7642595767974854,3.588731050491333
150,18026,18038,-0.03908511623740196,0.06727990508079529,0.9423545598983765,-1.601210355758667,22.4764461517334,-3.558260917663574,-0.7334632873535156,1.4714263677597046,0.28948551416397095,1.1886634826660156,-2.7331204414367676,3.5638391971588135
151,18036,18048,0.004841127898544073,-0.13691426813602448,1.0485645532608032,9.481612205505371,22.682159423828125,-7.588919639587402,-0.7529623508453369,1.4819258451461792,0.28198590874671936,0.7986508011817932,-2.7317776679992676,3.5600156784057617
152,18046,18058,-0.03507661074399948,0.02609500288963318,0.9970411062240601,9.28441333770752,15.7415132522583,-10.294496536254883,-0.7439627647399902,1.4789260625839233,0.2969851493835449,0.6786386966705322,-2.707411050796509,3.46321702003479
153,18056,18068,-0.0022991246078163385,-0.04879724979400635,1.0453006029129028,18.327693939208984,4.320207595825195,-10.505354881286621,-0.7559621930122375,1.4879255294799805,0.29098543524742126,0.6169732213020325,-2.5375287532806396,3.306698799133301
154,18066,18078,-0.05325401946902275,-0.14544159173965454,1.0401252508163452,14.991730690002441,-11.40379810333252,-13.142526626586914,-0.7349632382392883,1.472926378250122,0.27898603677749634,0.634225070476532,-2.2987122535705566,3.167351484298706
155,18076,18088,0.0029202124569565058,0.045548588037490845,0.9529433846473694,8.537915229797363,-23.093502044677734,-12.979272842407227,-0.7349632382392883,1.4699264764785767,0.28798559308052063,0.8229851722717285,-2.267808675765991,3.058870792388916
156,18086,18098,-0.007571050431579351,-0.019255783408880234,1.019753336906433,8.222493171691895,-22.223913192749023,-12.55815601348877,-0.7439627647399902,1.472926378250122,0.27298635244369507,1.1788716316223145,-2.3570125102996826,2.937832832336426
157,18096,18108,-0.06555123627185822,-0.05340598151087761,0.9573795199394226,1.3578306436538696,-11.322721481323242,-12.740202903747559,-0.7349632382392883,1.472926378250122,0.27298635244369507,1.3711202144622803,-2.2765328884124756,2.8280017375946045
158,18106,18118,-0.005019459407776594,0.13325706124305725,0.9246689081192017,1.7347694635391235,3.9464035034179688,-11.118781089782715,-0.7319633960723877,1.4579271078109741,0.27298635244369507,1.4317498207092285,-2.252328634262085,2.720578670501709
159,18116,18128,-0.056987784802913666,0.03625909984111786,1.1001183986663818,1.1840392351150513,25.610937118530273,-9.685617446899414,-0.7454627156257629,1.4684265851974487,0.2834858298301697,1.2083003520965576,-2.231536626815796,2.6711745262145996
160,18126,18138,-0.10330203175544739,0.04527321457862854,1.0303975343704224,-5.973824501037598,40.23491668701172,-9.661328315734863,-0.7514623999595642,1.4804259538650513,0.28948551416397095,0.9017199277877808,-2.327815294265747,2.6064674854278564
161,18136,18148,-0.09911895543336868,0.14045841991901398,1.0182156562805176,-4.403375625610352,50.13820266723633,-8.432380676269531,-0.7424628734588623,1.4834258556365967,0.2654867172241211,0.5846068263053894,-2.3984131813049316,2.45841646194458
162,18146,18158,-0.07880989462137222,0.08813096582889557,1.0226519107818604,-4.380573749542236,53.155555725097656,-8.64482593536377,-0.7499625086784363,1.4879255294799805,0.28798559308052063,0.05610149726271629,-2.400803565979004,2.3472702503204346
163,18156,18168,-0.12099732458591461,0.0034158716443926096,1.0193970203399658,0.3902374505996704,44.13791275024414,-9.86488151550293,-0.7499625086784363,1.4879255294799805,0.28798559308052063,-0.5762853622436523,-2.445373058319092,2.2872490882873535
164,18166,18178,-0.0779266208410263,0.02592124044895172,0.9840587377548218,12.101588249206543,26.867393493652344,-9.63703727722168,-0.7499625086784363,1.4879255294799805,0.28798559308052063,-1.0084223747253418,-2.429363489151001,2.1775307655334473
165,18176,18188,-0.01980738528072834,0.0955718532204628,0.9542206525802612,26.18073844909668,8.109238624572754,-8.844315528869629,-0.7499625086784363,1.4879255294799805,0.28798559308052063,-1.1424654722213745,-2.1356451511383057,2.0061893463134766
166,18186,18198,0.0003087013028562069,0.17646099627017975,0.9404071569442749,36.01612854003906,-4.360935688018799,-7.835812091827393,-0.7439627647399902,1.46092689037323,0.27298635244369507,-1.078673243522644,-1.9189516305923462,1.8596760034561157
167,18196,18208,-0.022314921021461487,0.16353432834148407,0.9857499599456787,36.48999786376953,-11.290095329284668,-8.682247161865234,-0.7574620842933655,1.4654266834259033,0.28048595786094666,-0.985196590423584,-1.5845580101013184,1.7648632526397705
168,18206,18218,-0.007217609789222479,0.07723284512758255,0.9600403308868408,28.881423950195312,-7.131946086883545,-11.33359146118164,-0.7529623508453369,1.46092689037323,0.27898603677749634,-0.9282200932502747,-1.370495319366455,1.6982957124710083
169,18216,18228,-0.06817371398210526,0.016597796231508255,0.9649856090545654,22.976198196411133,0.5831347703933716,-13.564295768737793,-0.7454627156257629,1.4564270973205566,0.2654867172241211,-0.8873366117477417,-1.180478572845459,1.5903284549713135
170,18226,18238,-0.07746103405952454,-0.0034031092654913664,0.9876111149787903,14.624200820922852,6.214227199554443,-13.51545238494873,-0.7469626665115356,1.4429278373718262,0.2669866383075714,-0.9721726775169373,-0.8892852067947388,1.4854481220245361
171,18236,18248,-0.11117161065340042,-0.0598018541932106,0.9264886379241943,12.307381629943848,6.3986897468566895,-11.090941429138184,-0.7574620842933655,1.459426999092102,0.2864856719970703,-1.0380891561508179,-0.6994043588638306,1.3546355962753296
172,18246,18258,-0.15935945510864258,0.0007359639275819063,0.9736664295196533,11.541535377502441,5.166624069213867,-6.26987886428833,-0.7589620351791382,1.4489275217056274,0.27898603677749634,-1.024074673652649,-0.6270788311958313,1.2144490480422974
173,18256,18268,-0.13159404695034027,0.0359317883849144,0.980096697807312,11.759025573730469,3.5560121536254883,-0.6310689449310303,-0.7574620842933655,1.4624269008636475,0.2834858298301697,-1.0671032667160034,-0.48289749026298523,1.1556204557418823
174,18266,18278,-0.1096920520067215,0.07320194691419601,0.9943718314170837,6.381158351898193,0.08777152001857758,4.218786239624023,-0.7529623508453369,1.4549272060394287,0.2759861946105957,-1.1392103433609009,-0.3568814992904663,1.169268012046814
175,18276,18288,-0.05951874703168869,0.07607642561197281,1.037579894065857,-8.305842399597168,-5.735601902008057,4.549711227416992,-0.7484625577926636,1.4564270973205566,0.26848655939102173,-1.0557397603988647,-0.3778160512447357,1.1794352531433105
176,18286,18298,-0.031735751777887344,-0.0024548210203647614,1.042696475982666,-14.353787422180176,-9.481410026550293,2.5754055976867676,-0.7484625577926636,1.4684265851974487,0.277486115694046,-0.9569588899612427,-0.522467315196991,1.208338737487793
177,18296,18308,-0.02482208050787449,-0.014256592839956284,1.0123419761657715,-10.345833778381348,-10.37006950378418,0.6503739356994629,-0.7439627647399902,1.4639267921447754,0.28798559308052063,-0.8800826668739319,-0.6946945190429688,1.236771583557129
178,18306,18318,-0.07132342457771301,0.12051353603601456,1.004797101020813,7.468902111053467,-7.700135231018066,1.9123650789260864,-0.7439627647399902,1.4699264764785767,0.26998651027679443,-0.7441132068634033,-0.6977070569992065,1.2526158094406128
179,18316,18328,-0.09705851972103119,0.17482095956802368,1.0226362943649292,22.193622589111328,-5.593402862548828,4.447141647338867,-0.7499625086784363,1.46092689037323,0.28498575091362,-0.65859454870224,-0.5296725630760193,1.2860817909240723
180,18326,18338,-0.06626288592815399,0.08961474150419235,1.0353742837905884,35.82881546020508,2.27125883102417,7.204693794250488,-0.737963080406189,1.4639267921447754,0.27898603677749634,-0.6649783849716187,-0.3894536793231964,1.3222157955169678
181,18336,18348,-0.09360939264297485,-0.04676402732729912,1.0319433212280273,39.1308708190918,4.929096221923828,9.309901237487793,-0.7664616703987122,1.4564270973205566,0.28048595786094666,-0.7548002004623413,-0.006301436573266983,1.413209080696106
182,18346,18358,-0.11845578998327255,-0.032233960926532745,1.042275309562683,36.87922286987305,2.1567180156707764,9.55487060546875,-0.7454627156257629,1.4564270973205566,0.2744862735271454,-0.9138178825378418,0.32829007506370544,1.5173821449279785
183,18356,18368,-0.06304821372032166,0.001105461036786437,1.0138198137283325,26.1390380859375,-0.19771775603294373,11.557771682739258,-0.7514623999595642,1.4414279460906982,0.2744862735271454,-0.9368231296539307,0.5557774901390076,1.5984517335891724
184,18366,18378,-0.020842859521508217,0.03591213747859001,0.9977322220802307,10.576569557189941,-0.8058110475540161,9.940314292907715,-0.7439627647399902,1.4489275217056274,0.27298635244369507,-0.866528332233429,0.7831586003303528,1.7018593549728394
185,18376,18388,-0.026820627972483635,0.02767796628177166,0.9780272841453552,2.8146770000457764,-2.999117612838745,7.973019599914551,-0.7544622421264648,1.4384280443191528,0.27148643136024475,-0.7827659249305725,0.6780984997749329,1.7486318349838257
186,18386,18398,-0.07629869133234024,-0.013776774518191814,1.0085092782974243,-5.108600616455078,-10.830876350402832,4.129662990570068,-0.7484625577926636,1.4324283599853516,0.28948551416397095,-0.7000613808631897,0.7473207712173462,1.8303682804107666
187,18396,18408,-0.05423164740204811,0.025470783933997154,0.9590356945991516,-14.751364707946777,-21.613563537597656,-0.6054859757423401,-0.7409629225730896,1.4339282512664795,0.26998651027679443,-0.6093284487724304,0.6698573231697083,1.8643066883087158
188,18406,18418,-0.012912693433463573,0.04333379492163658,0.962260901927948,-21.775259017944336,-29.70142936706543,-4.4875712394714355,-0.737963080406189,1.445927619934082,0.29098543524742126,-0.19968873262405396,0.5866274237632751,1.8552124500274658
189,18416,18428,-0.1285742074251175,0.05437633767724037,0.9750313758850098,-37.821292877197266,-30.16386604309082,-10.480752944946289,-0.7469626665115356,1.4639267921447754,0.27298635244369507,-0.08193635195493698,0.2414974421262741,1.7826284170150757
190,18426,18438,-0.10914893448352814,0.04684819281101227,0.9939984083175659,-46.28322219848633,-23.65144920349121,-15.44051742553711,-0.7334632873535156,1.4534273147583008,0.277486115694046,0.3409114480018616,-0.22472572326660156,1.6540170907974243
191,18436,18448,-0.08736874163150787,0.09014482796192169,0.95148766040802,-42.90211486816406,-9.592336654663086,-20.636249542236328,-0.7349632382392883,1.4669265747070312,0.2759861946105957,0.45688334107398987,-0.5605323314666748,1.512861967086792
192,18446,18458,-0.048570144921541214,0.048864707350730896,0.9754544496536255,-14.114947319030762,-1.193872094154358,-23.32181739807129,-0.736463189125061,1.459426999092102,0.2744862735271454,0.5533931255340576,-1.0499062538146973,1.2864969968795776
193,18456,18468,-0.07526346296072006,0.020978743210434914,1.0498085021972656,26.592378616333008,10.13810920715332,-22.040319442749023,-0.7424628734588623,1.4624269008636475,0.28948551416397095,0.41543251276016235,-0.925854504108429,1.0791200399398804
194,18466,18478,-0.06919509172439575,0.01233581267297268,1.0429145097732544,61.086334228515625,24.466337203979492,-19.56363296508789,-0.7544622421264648,1.4624269008636475,0.2834858298301697,0.2954102158546448,-0.6235368251800537,0.8562846779823303
195,18476,18488,-0.03368674963712692,0.12074348330497742,0.9766234159469604,81.74335479736328,39.22151184082031,-17.716936111450195,-0.7604619860649109,1.4534273147583008,0.28948551416397095,0.1383415162563324,0.2940013110637665,0.6918545365333557
196,18486,18498,-0.05134892463684082,0.14845311641693115,1.0033191442489624,91.47737121582031,47.59080505371094,-16.827312469482422,-0.7589620351791382,1.46092689037323,0.26998651027679443,-0.4403459429740906,0.9658870100975037,0.5035914182662964
197,18496,18508,-0.06038294732570648,0.11882749944925308,1.0565000772476196,81.87226104736328,48.090660095214844,-16.471921920776367,-0.7574620842933655,1.4624269008636475,0.2654867172241211,-0.9005155563354492,2.0202748775482178,0.3643074929714203
198,18506,18518,-0.05841841176152229,0.0550508126616478,1.0195131301879883,64.3368148803711,36.201332092285156,-15.798247337341309,-0.7589620351791382,1.4339282512664795,0.27298635244369507,-1.2137430906295776,2.575322389602661,0.19070792198181152
199,18516,18528,-0.05544118583202362,0.04483557119965553,0.9500465393066406,39.01824188232422,16.233367919921875,-11.517403602600098,-0.7559621930122375,1.4309284687042236,0.27298635244369507,-1.6834534406661987,3.3630917072296143,0.07834083586931229
200,18526,18538,-0.04052942618727684,0.03185475245118141,0.8708773255348206,12.846351623535156,-6.90875768661499,-5.343225955963135,-0.7544622421264648,1.4234287738800049,0.2654867172241211,-1.5226742029190063,3.4130966663360596,-0.03822322562336922
201,18536,18548,-0.08645100146532059,-0.03331194072961807,0.9366565346717834,-11.29495620727539,-19.311912536621094,-0.8592779040336609,-0.7529623508453369,1.4189289808273315,0.28198590874671936,-1.3472926616668701,3.489037275314331,-0.0766313225030899
202,18546,18558,-0.10278661549091339,-0.09331348538398743,0.9654617309570312,-28.738126754760742,-17.421117782592773,1.0879220962524414,-0.7499625086784363,1.4159291982650757,0.28498575091362,-1.2932158708572388,3.34649658203125,-0.11164774745702744
203,18556,18568,-0.10671255737543106,-0.05012092739343643,0.9567621350288391,-32.79557418823242,-6.362821578979492,3.7322092056274414,-0.7454627156257629,1.420428991317749,0.28048595786094666,-1.1813127994537354,2.962620973587036,-0.12645532190799713
204,18566,18578,-0.060351431369781494,-0.01491768378764391,0.9239175915718079,-32.903564453125,11.389229774475098,6.787158012390137,-0.7544622421264648,1.4384280443191528,0.26848655939102173,-1.2302203178405762,2.743346929550171,-0.07812932133674622
205,18576,18588,-0.019986944273114204,0.05419931933283806,0.9203630089759827,-27.27735710144043,25.961284637451172,10.617231369018555,-0.7544622421264648,1.435428261756897,0.26848655939102173,-1.1872233152389526,2.4067540168762207,0.05593087151646614
206,18586,18598,0.03325866162776947,0.0303055252879858,0.8993170857429504,-16.687576293945312,31.05046272277832,14.014301300048828,-0.7574620842933655,1.4294284582138062,0.28048595786094666,-1.6583540439605713,2.195495367050171,0.12414801865816116
207,18596,18608,0.07703142613172531,0.02706703543663025,0.8922843933105469,-5.684394359588623,32.81698226928711,15.371243476867676,-0.7544622421264648,1.4384280443191528,0.2594870328903198,-1.8929213285446167,2.085205078125,0.310282438993454
208,18606,18618,0.12211602181196213,0.05418214574456215,0.9098917841911316,2.000622034072876,28.63814926147461,14.055335998535156,-0.7664616703987122,1.4294284582138062,0.2594870328903198,-2.1723926067352295,2.073943614959717,0.4858040511608124
209,18616,18628,0.1300879418849945,0.04904741793870926,0.9094510078430176,5.535346031188965,21.397911071777344,10.08440113067627,-0.7694615125656128,1.4324283599853516,0.25048747658729553,-2.2907426357269287,2.083714723587036,0.6694040298461914
210,18626,18638,0.06663864105939865,0.0002090012567350641,0.886992335319519,5.563887596130371,10.295833587646484,4.474282264709473,-0.7634618282318115,1.4384280443191528,0.27148643136024475,-2.3541266918182373,2.1308553218841553,0.8081389665603638
211,18636,18648,0.029012586921453476,0.013129151426255703,0.9216827750205994,1.0011765956878662,-4.556602478027344,-0.10092191398143768,-0.7454627156257629,1.4384280443191528,0.2594870328903198,-2.4976515769958496,2.2110226154327393,0.8347362875938416
212,18646,18658,-0.0016639905516058207,0.024318773299455643,0.9105018973350525,-5.59745454788208,-14.855201721191406,-2.5386159420013428,-0.7694615125656128,1.444427728652954,0.2654867172241211,-2.360497236251831,2.205185651779175,0.8523056507110596
213,18656,18668,-0.06795661896467209,-0.06345982849597931,0.9331700205802917,-14.556669235229492,-19.030935287475586,-3.257183074951172,-0.7619618773460388,1.4489275217056274,0.28498575091362,-2.305753707885742,2.06787371635437,0.760040283203125
214,18666,18678,-0.06871958822011948,-0.14979766309261322,0.9698633551597595,-21.540420532226562,-16.882902145385742,-3.3490817546844482,-0.7649617195129395,1.4399279356002808,0.27898603677749634,-2.081789970397949,1.946298599243164,0.7455305457115173
215,18676,18688,-0.03578879311680794,-0.07700339704751968,0.9775699973106384,-27.394405364990234,-15.297140121459961,-2.4271297454833984,-0.7679615616798401,1.4519274234771729,0.28198590874671936,-1.8838870525360107,1.7833317518234253,0.7426168322563171
216,18686,18698,0.036814235150814056,-0.009263169020414352,0.9615293145179749,-29.778717041015625,-5.945746898651123,-0.4619951844215393,-0.7634618282318115,1.4564270973205566,0.28948551416397095,-1.8259937763214111,1.454046607017517,0.670251190662384
217,18696,18708,0.04981153830885887,0.0009675789042375982,0.9926618933677673,-30.6499080657959,9.684599876403809,1.4690210819244385,-0.7739613056182861,1.46092689037323,0.27298635244369507,-1.8012456893920898,1.1676048040390015,0.6629073619842529
218,18706,18718,-0.001530374283902347,-0.06095900386571884,1.0338109731674194,-24.626522064208984,20.342605590820312,2.5076723098754883,-0.7694615125656128,1.4654266834259033,0.2744862735271454,-2.002192497253418,0.9077216386795044,0.6587302088737488
219,18716,18728,-0.026606237515807152,-0.10328913480043411,0.9849151372909546,-13.230533599853516,17.01080894470215,4.312858581542969,-0.7664616703987122,1.4504274129867554,0.2744862735271454,-2.2823598384857178,0.788160502910614,0.696993350982666
220,18726,18738,-0.04995407909154892,0.019797438755631447,0.9876344799995422,3.9551050662994385,2.7483136653900146,6.5363545417785645,-0.7649617195129395,1.4639267921447754,0.28498575091362,-2.4459214210510254,0.6792840957641602,0.7401883006095886
221,18736,18748,-0.05161410570144653,0.12419360131025314,0.987389326095581,17.8574275970459,-14.648694038391113,9.566426277160645,-0.7544622421264648,1.4504274129867554,0.2654867172241211,-2.3637943267822266,0.8223079442977905,0.8700160384178162
222,18746,18758,-0.026859968900680542,0.16714884340763092,0.9685465693473816,24.717674255371094,-27.959020614624023,12.132043838500977,-0.7694615125656128,1.4654266834259033,0.2744862735271454,-2.0930047035217285,1.051985740661621,1.0155256986618042
223,18756,18768,-0.008074006997048855,0.09313902258872986,0.9964045286178589,26.022632598876953,-34.200313568115234,15.317285537719727,-0.7559621930122375,1.4639267921447754,0.26998651027679443,-2.065707206726074,1.1567660570144653,1.0039441585540771
224,18766,18778,-0.017131295055150986,-0.0038748160004615784,1.0019826889038086,14.798333168029785,-35.602718353271484,18.381912231445312,-0.7589620351791382,1.4489275217056274,0.27898603677749634,-1.655317783355713,1.5106507539749146,1.2056714296340942
225,18776,18788,-0.11056487262248993,-0.012374836951494217,1.047623634338379,0.5037311315536499,-34.91709518432617,20.819005966186523,-0.7574620842933655,1.4684265851974487,0.28048595786094666,-1.3884834051132202,1.650860071182251,1.360784649848938
226,18786,18798,-0.05443057417869568,0.008095219731330872,1.0177533626556396,-12.620462417602539,-29.808549880981445,22.705665588378906,-0.7619618773460388,1.4639267921447754,0.27898603677749634,-0.8871638178825378,1.559791922569275,1.5789695978164673
227,18796,18808,-0.03689209744334221,-0.03634815663099289,1.0596612691879272,-25.711048126220703,-26.089229583740234,21.834285736083984,-0.7559621930122375,1.4669265747070312,0.28798559308052063,-0.666902482509613,1.392486572265625,1.7693405151367188
228,18806,18818,-0.0771116316318512,-0.050684571266174316,1.0790412425994873,-39.230037689208984,-24.809450149536133,18.142303466796875,-0.737963080406189,1.4699264764785767,0.28198590874671936,-0.39602458477020264,1.0710009336471558,1.9631682634353638
229,18816,18828,-0.05105846747756004,0.00838966853916645,0.9883242845535278,-44.67931365966797,-21.862518310546875,17.1721248626709,-0.7559621930122375,1.475926160812378,0.29098543524742126,-0.11021271347999573,0.7329049706459045,2.169510841369629
230,18826,18838,-0.07493782043457031,-0.03791968524456024,1.1322048902511597,-35.507118225097656,-9.964150428771973,15.869283676147461,-0.7409629225730896,1.472926378250122,0.29098543524742126,-0.07788629829883575,0.24116215109825134,2.280484676361084
231,18836,18848,-0.03944503515958786,0.09829982370138168,0.9446189403533936,-32.8152961730957,-8.029961585998535,14.345885276794434,-0.7499625086784363,1.4549272060394287,0.29098543524742126,-0.02687273547053337,-0.06761074811220169,2.439392566680908
232,18846,18858,-0.050236012786626816,0.0518919937312603,1.097884178161621,-15.939009666442871,-14.3453950881958,16.006757736206055,-0.7454627156257629,1.4624269008636475,0.2744862735271454,-0.018699103966355324,-0.30426621437072754,2.5827226638793945
233,18856,18868,-0.01678987219929695,0.12398907542228699,0.9660403728485107,-10.36469841003418,-29.654098510742188,14.524358749389648,-0.7499625086784363,1.4519274234771729,0.2759861946105957,0.3765503466129303,-0.48448365926742554,2.7787294387817383
234,18866,18878,-0.056404128670692444,-0.02047484740614891,1.0971181392669678,6.292588233947754,-36.05656051635742,18.79730224609375,-0.736463189125061,1.4834258556365967,0.2864856719970703,0.3858129382133484,-0.5691038966178894,2.8800125122070312
235,18876,18888,-0.005445979069918394,-0.0398256778717041,0.9122186303138733,-0.4983046054840088,-28.950870513916016,20.88551902770996,-0.737963080406189,1.4639267921447754,0.27898603677749634,0.8590098023414612,-0.3263469636440277,3.116852283477783
236,18886,18898,-0.014484803192317486,-0.12641151249408722,1.0539723634719849,-3.082653045654297,-11.076159477233887,20.785795211791992,-0.7424628734588623,1.4654266834259033,0.28048595786094666,1.148884654045105,-0.39608508348464966,3.3266525268554688
237,18896,18908,-0.0036253677681088448,0.031338103115558624,0.922766923904419,-21.823442459106445,1.059234857559204,15.759227752685547,-0.7289635539054871,1.4699264764785767,0.28198590874671936,1.1738698482513428,-0.6056944131851196,3.511840343475342
238,18906,18918,-0.08246754854917526,-0.05290822684764862,1.0239559412002563,-30.69883155822754,6.746370315551758,11.050305366516113,-0.7454627156257629,1.4804259538650513,0.28948551416397095,1.0387904644012451,-1.0458896160125732,3.650193452835083
239,18916,18928,-0.07287260890007019,0.15074215829372406,0.9053789377212524,-44.96373748779297,6.18733549118042,4.961060523986816,-0.7424628734588623,1.4864256381988525,0.2834858298301697,1.056626319885254,-1.5145527124404907,3.755448341369629
240,18926,18938,0.004091204609721899,-0.01829514466226101,1.031092882156372,-32.217281341552734,6.8007731437683105,3.8383429050445557,-0.7394630312919617,1.4834258556365967,0.2924853563308716,0.9224541187286377,-1.7456825971603394,3.7989895343780518
241,18936,18948,0.05692313238978386,0.06617005914449692,0.9673817157745361,-23.954803466796875,0.5894272327423096,1.2574150562286377,-0.722963809967041,1.4909254312515259,0.29098543524742126,0.921471118927002,-2.2344353199005127,3.8377716541290283
242,18946,18958,0.029268423095345497,-0.09521897882223129,1.023322343826294,5.931488990783691,0.08033701032400131,0.8988434672355652,-0.7439627647399902,1.4879255294799805,0.29098543524742126,0.9903627634048462,-2.139418125152588,3.833026885986328
243,18956,18968,-0.04067676514387131,0.07904244214296341,0.9737374186515808,18.351253509521484,-5.727625370025635,-0.011523731052875519,-0.7409629225730896,1.4819258451461792,0.29098543524742126,1.0680546760559082,-2.2242271900177,3.8479666709899902
244,18966,18978,-0.03346925601363182,0.0834839940071106,1.011924386024475,40.62910842895508,-2.676830530166626,-0.4318777620792389,-0.7574620842933655,1.4774260520935059,0.28948551416397095,1.1054790019989014,-1.7611092329025269,3.8254098892211914
245,18976,18988,-0.006731300614774227,-0.012624461203813553,0.9853767156600952,41.9526481628418,-6.979074954986572,-0.5448368787765503,-0.7289635539054871,1.4909254312515259,0.3029848337173462,1.0589052438735962,-1.2838131189346313,3.8239619731903076
246,18986,18998,-0.11277971416711807,-0.0074915955774486065,1.0829235315322876,45.184532165527344,-4.065368175506592,0.2128562182188034,-0.7499625086784363,1.472926378250122,0.2759861946105957,1.1184018850326538,-0.9222437739372253,3.8296701908111572
247,18996,19008,-0.062375929206609726,0.010134422220289707,1.0672436952590942,35.399742126464844,-6.662278175354004,0.2169094681739807,-0.7484625577926636,1.4834258556365967,0.2924853563308716,1.1608593463897705,-0.515995442867279,3.8376197814941406
248,19006,19018,-0.014482274651527405,-0.01577834226191044,1.0219156742095947,23.972557067871094,-5.948030471801758,2.292160987854004,-0.7454627156257629,1.47442626953125,0.2864856719970703,1.3005942106246948,-0.00913346279412508,3.803797960281372
249,19016,19028,-0.05553876608610153,-0.028251875191926956,1.007197380065918,7.603245735168457,-4.590822696685791,3.229285955429077,-0.730463445186615,1.4774260520935059,0.277486115694046,1.1507045030593872,-0.16784676909446716,3.9294209480285645
250,19026,19038,-0.0839165672659874,0.06881541758775711,1.049752116203308,-6.576329231262207,2.9758079051971436,4.212749481201172,-0.730463445186615,1.47442626953125,0.2924853563308716,1.2218340635299683,-0.11744417250156403,3.9575493335723877
251,19036,19048,-0.1390712857246399,-0.03428799659013748,1.1531683206558228,-8.196011543273926,12.023632049560547,7.276186466217041,-0.7514623999595642,1.4774260520935059,0.2744862735271454,1.1360042095184326,-0.18058153986930847,4.006701469421387
252,19046,19058,-0.1329512745141983,-0.010282807052135468,1.0591201782226562,-7.85374641418457,12.625943183898926,10.151453971862793,-0.737963080406189,1.4819258451461792,0.2759861946105957,0.9677031636238098,-0.2980242371559143,4.1011962890625
253,19056,19068,-0.0647745281457901,0.02431764453649521,1.0440868139266968,11.696742057800293,9.897671699523926,14.590848922729492,-0.7349632382392883,1.4819258451461792,0.28198590874671936,0.823456346988678,-0.35454851388931274,4.2211151123046875
254,19066,19078,-0.05609944090247154,0.03520800918340683,1.0833631753921509,24.54031753540039,6.147989273071289,17.426828384399414,-0.7469626665115356,1.472926378250122,0.28498575091362,0.7353894710540771,-0.20921076834201813,4.369636535644531
255,19076,19088,-0.038276299834251404,0.09446831792593002,1.0397343635559082,35.663352966308594,1.3966293334960938,19.71089744567871,-0.7499625086784363,1.46092689037323,0.28798559308052063,0.7154104113578796,0.14311376214027405,4.522752285003662
256,19086,19098,-0.062098611146211624,0.07173160463571548,1.0689985752105713,41.59883117675781,-3.2256760597229004,22.595027923583984,-0.7409629225730896,1.4639267921447754,0.27898603677749634,0.8335379362106323,0.6163794994354248,4.68049955368042
257,19096,19108,-0.042107269167900085,0.04466879740357399,1.0836609601974487,36.83919906616211,-8.337414741516113,26.209238052368164,-0.7394630312919617,1.4504274129867554,0.2864856719970703,0.8990473747253418,0.8415030837059021,4.949167251586914
258,19106,19118,-0.0465201810002327,-0.001677166554145515,1.0297187566757202,21.136110305786133,-12.957239151000977,29.362600326538086,-0.7439627647399902,1.4639267921447754,0.27298635244369507,1.031561255455017,1.1394333839416504,5.220694065093994
259,19116,19128,-0.054967232048511505,0.03224613144993782,1.04887855052948,-0.8468279242515564,-19.471757888793945,30.375837326049805,-0.7409629225730896,1.4489275217056274,0.2969851493835449,1.3191779851913452,1.3537997007369995,5.491205215454102
260,19126,19138,-0.03436846658587456,0.007485019508749247,1.0343639850616455,-25.374704360961914,-25.43788719177246,29.02655601501465,-0.737963080406189,1.4519274234771729,0.27898603677749634,1.4305001497268677,0.9625940918922424,5.876150608062744
261,19136,19148,-0.05146756023168564,0.028686853125691414,1.02934992313385,-40.06977462768555,-26.70485496520996,27.691946029663086,-0.7349632382392883,1.4429278373718262,0.26998651027679443,1.6757242679595947,0.6853518486022949,6.161439895629883
262,19146,19158,-0.03988882526755333,-0.0005684315110556781,1.0091899633407593,-48.300540924072266,-21.55938720703125,26.472461700439453,-0.730463445186615,1.4534273147583008,0.2654867172241211,2.0405988693237305,0.2716796398162842,6.4278883934021
263,19156,19168,-0.020449036732316017,0.013094298541545868,1.0239988565444946,-44.84236145019531,-9.807682991027832,24.767789840698242,-0.7289635539054871,1.4489275217056274,0.2759861946105957,2.1215627193450928,-0.1409013718366623,6.673466205596924
264,19166,19178,-0.03255333751440048,0.04428882151842117,1.008226990699768,-38.77602767944336,-1.354583740234375,23.82228660583496,-0.7169641256332397,1.46092689037323,0.28498575091362,2.1672401428222656,-0.47619980573654175,6.886126518249512
265,19176,19188,-0.03439036011695862,0.08457700163125992,0.9655014872550964,-26.170459747314453,14.531527519226074,22.038898468017578,-0.730463445186615,1.4684265851974487,0.2864856719970703,2.1003577709198,-0.9483674168586731,7.152134895324707
266,19186,19198,0.04313213378190994,0.0994696319103241,0.893146276473999,-15.715152740478516,31.095855712890625,18.131746292114258,-0.7259637117385864,1.4819258451461792,0.28498575091362,1.8530350923538208,-1.231708288192749,7.376829147338867
267,19196,19208,0.047631215304136276,0.047286663204431534,1.0548155307769775,-5.318145275115967,37.407264709472656,14.645448684692383,-0.7394630312919617,1.4714263677597046,0.28048595786094666,1.5436193943023682,-1.202146291732788,7.481871604919434
268,19206,19218,-0.019772235304117203,0.08423693478107452,1.1264322996139526,3.8356680870056152,34.363731384277344,11.709128379821777,-0.730463445186615,1.47442626953125,0.277486115694046,1.2134076356887817,-1.1971570253372192,7.595248699188232
269,19216,19228,-0.05900689214468002,0.0504976250231266,0.9945842027664185,18.533065795898438,33.83702087402344,8.846329689025879,-0.7514623999595642,1.4654266834259033,0.2864856719970703,0.8759229183197021,-1.159142255783081,7.709305763244629
270,19226,19238,-0.04129888862371445,-0.03656870871782303,1.0411584377288818,25.13884925842285,21.680387496948242,6.273890972137451,-0.7349632382392883,1.475926160812378,0.2939853072166443,0.708987832069397,-1.3636736869812012,7.893826007843018
271,19236,19248,-0.009523785673081875,-0.03776342049241066,1.0307437181472778,23.848241806030273,8.577231407165527,1.4513883590698242,-0.7334632873535156,1.459426999092102,0.27148643136024475,0.4340650141239166,-0.7629469633102417,7.847945213317871
272,19246,19258,-0.043435562402009964,-0.15531612932682037,1.142320156097412,23.58533477783203,-6.185722827911377,-2.3960790634155273,-0.7454627156257629,1.4564270973205566,0.2744862735271454,0.5489220023155212,-0.619719922542572,7.856192588806152
273,19256,19268,-0.03419272601604462,-0.09891495853662491,1.0631682872772217,11.648098945617676,-18.889448165893555,-5.323360919952393,-0.7244637608528137,1.4384280443191528,0.27148643136024475,0.7126052379608154,-0.26256999373435974,7.777373790740967
274,19266,19278,-0.04143214970827103,0.011000093072652817,1.006921648979187,4.7957844734191895,-17.355424880981445,-8.114919662475586,-0.730463445186615,1.4294284582138062,0.2864856719970703,0.862108051776886,-0.4301490783691406,7.801509857177734
275,19276,19288,-0.04389965534210205,0.03688552975654602,1.0417721271514893,-3.885892391204834,-13.606767654418945,-11.814803123474121,-0.7109644412994385,1.4429278373718262,0.28798559308052063,1.085213303565979,-0.3535119295120239,7.693711757659912
276,19286,19298,-0.05734268203377724,0.0067652310244739056,1.0337108373641968,2.936537265777588,-8.129220008850098,-16.820415496826172,-0.730463445186615,1.444427728652954,0.2864856719970703,1.116203784942627,-0.3221627175807953,7.566976547241211
277,19296,19308,0.004766812548041344,-0.1429075449705124,1.1073310375213623,4.630434036254883,-11.354700088500977,-20.590795516967773,-0.7394630312919617,1.444427728652954,0.2864856719970703,1.194746494293213,-0.22943909466266632,7.377537250518799
278,19306,19318,-0.06094639375805855,0.006208703387528658,0.9953644871711731,9.325397491455078,-8.557404518127441,-25.181617736816406,-0.7319633960723877,1.4489275217056274,0.28198590874671936,1.201776385307312,-0.07004320621490479,7.15086555480957
279,19316,19328,-0.0779832974076271,-0.04725295677781105,1.0864616632461548,17.375534057617188,2.1582207679748535,-25.789220809936523,-0.737963080406189,1.445927619934082,0.28498575091362,1.2578468322753906,-0.049677666276693344,6.92228889465332
280,19326,19338,-0.06019338592886925,0.03846576064825058,0.8922314047813416,5.529842376708984,6.09622049331665,-27.34300422668457,-0.7334632873535156,1.4504274129867554,0.2864856719970703,1.1760165691375732,0.22865957021713257,6.6380720138549805
281,19336,19348,-0.11100471764802933,0.03861204534769058,1.00831937789917,-3.172029495239258,11.273331642150879,-27.067441940307617,-0.7349632382392883,1.445927619934082,0.27298635244369507,1.2275351285934448,-0.004520708229392767,6.416848659515381
282,19346,19358,-0.07858037203550339,0.014152196235954762,1.0438307523727417,-28.11461067199707,16.592559814453125,-27.00408363342285,-0.7424628734588623,1.4624269008636475,0.2834858298301697,1.0487556457519531,0.04227934405207634,6.119455337524414
283,19356,19368,-0.016935568302869797,-0.05421555042266846,1.102656364440918,-34.83818435668945,22.739906311035156,-27.49054718017578,-0.7469626665115356,1.4519274234771729,0.28498575091362,0.6345289945602417,-0.2890940308570862,5.877841472625732
284,19366,19378,0.009876330383121967,0.07825154811143875,1.0390883684158325,-31.820919036865234,13.13535213470459,-28.071928024291992,-0.730463445186615,1.4534273147583008,0.277486115694046,0.6806199550628662,-0.7824101448059082,5.61292839050293
285,19376,19388,-0.02050192840397358,-0.06259461492300034,1.0899935960769653,-15.138829231262207,-0.5523521900177002,-28.116682052612305,-0.7484625577926636,1.4504274129867554,0.277486115694046,0.5639990568161011,-0.8580797910690308,5.28864860534668
286,19386,19398,-0.008910644799470901,-0.024396514520049095,1.0180965662002563,1.515769600868225,-8.665904998779297,-30.47360610961914,-0.7349632382392883,1.4549272060394287,0.28198590874671936,0.6461377739906311,-0.9373965859413147,4.993040561676025
287,19396,19408,-0.0014104836154729128,-0.06855623424053192,1.0776175260543823,22.946313858032227,-6.626703262329102,-30.827835083007812,-0.7529623508453369,1.4549272060394287,0.2759861946105957,0.7824618220329285,-0.7246566414833069,4.656943321228027
288,19406,19418,0.009222591295838356,-0.06798884272575378,1.0919524431228638,38.80509948730469,5.701204776763916,-31.612869262695312,-0.7514623999595642,1.4534273147583008,0.26848655939102173,0.7909422516822815,-0.47877126932144165,4.35493278503418
289,19416,19428,0.04369592294096947,0.008463888429105282,1.0284215211868286,51.79804992675781,11.569703102111816,-28.693422317504883,-0.7454627156257629,1.4534273147583008,0.2864856719970703,0.6336839199066162,-0.05092984810471535,4.0590410232543945
290,19426,19438,0.06387554109096527,0.008694161660969257,1.0297316312789917,54.31120300292969,10.352208137512207,-26.88409996032715,-0.7544622421264648,1.4264286756515503,0.28048595786094666,0.5072071552276611,0.6401353478431702,3.7498974800109863
291,19436,19448,0.006969927344471216,-0.04903483763337135,1.0102159976959229,40.33322525024414,-0.010553576983511448,-27.063827514648438,-0.7409629225730896,1.4429278373718262,0.28198590874671936,0.41272076964378357,1.2958896160125732,3.4571213722229004
292,19446,19458,-0.11344633251428604,-0.024309640750288963,1.0716876983642578,22.904821395874023,-8.496855735778809,-25.76426124572754,-0.7394630312919617,1.4384280443191528,0.27148643136024475,0.45530661940574646,1.3258565664291382,3.237560749053955
293,19456,19468,-0.1271296888589859,0.01714199036359787,1.0915253162384033,-3.6731929779052734,-12.712852478027344,-21.576438903808594,-0.7424628734588623,1.4414279460906982,0.28048595786094666,0.595451831817627,1.432435393333435,2.992521047592163
294,19466,19478,-0.03490582853555679,-0.027828512713313103,1.0798771381378174,-19.029747009277344,-0.03885563462972641,-17.47199058532715,-0.7424628734588623,1.4414279460906982,0.28048595786094666,0.6874759793281555,1.3626224994659424,2.782282590866089
295,19476,19488,-0.004001645836979151,-0.09241361171007156,1.0686352252960205,-34.55588150024414,9.328764915466309,-14.323870658874512,-0.7424628734588623,1.4414279460906982,0.28048595786094666,0.6053710579872131,1.0232360363006592,2.6320836544036865
296,19486,19498,-0.05503666773438454,-0.05407780036330223,1.0495837926864624,-34.628265380859375,14.103434562683105,-11.684059143066406,-0.7424628734588623,1.4414279460906982,0.28048595786094666,0.4769177734851837,0.7710186839103699,2.484365940093994
297,19496,19508,-0.005912461783736944,0.019477713853120804,1.0896921157836914,-20.767059326171875,15.87694263458252,-9.548288345336914,-0.7394630312919617,1.4534273147583008,0.2834858298301697,0.28375139832496643,0.3929556608200073,2.3811748027801514
298,19506,19518,0.02189180999994278,-0.07194170355796814,1.0875053405761719,2.404155969619751,21.02100944519043,-8.657205581665039,-0.7499625086784363,1.4399279356002808,0.27298635244369507,0.12674008309841156,0.29848983883857727,2.282376289367676
299,19516,19528,0.0001522602397017181,-0.0916585922241211,0.9734997153282166,34.905174255371094,24.8477840423584,-7.667410373687744,-0.7499625086784363,1.4549272060394287,0.27898603677749634,0.03245536610484123,0.5313408970832825,2.189953565597534
300,19526,19538,-0.02178012579679489,0.02214190550148487,0.9056180119514465,68.35257720947266,26.44422149658203,-4.130366802215576,-0.7544622421264648,1.4564270973205566,0.277486115694046,-0.27255672216415405,1.1700540781021118,2.109074592590332
301,19536,19548,-0.019585521891713142,0.11834268271923065,0.9024645090103149,76.03657531738281,24.83802604675293,-2.685645341873169,-0.7559621930122375,1.4549272060394287,0.28798559308052063,-0.46110817790031433,1.8568276166915894,2.08286190032959
302,19546,19558,-0.010193197056651115,0.16275587677955627,0.9037091732025146,62.18964767456055,16.190975189208984,-2.5587005615234375,-0.7559621930122375,1.4309284687042236,0.28198590874671936,-0.6373039484024048,2.6531269550323486,2.065758466720581
303,19556,19568,-0.06031683087348938,0.11245869845151901,0.9201090931892395,24.370573043823242,6.811761379241943,-3.710486888885498,-0.7529623508453369,1.4279285669326782,0.27898603677749634,-0.7245614528656006,3.100813388824463,2.049435615539551
304,19566,19578,-0.06408800929784775,0.08135508000850677,0.9323321580886841,-21.04170036315918,-1.6428532600402832,-6.131171703338623,-0.7514623999595642,1.4294284582138062,0.26248687505722046,-0.8101688027381897,3.0712552070617676,2.001934051513672
305,19576,19588,-0.1126621812582016,-0.07182450592517853,0.9409282803535461,-52.1702995300293,-11.042230606079102,-7.646953582763672,-0.7394630312919617,1.4534273147583008,0.26848655939102173,-0.7493084073066711,2.6845171451568604,1.936928153038025
306,19586,19598,-0.12692582607269287,-0.07525288313627243,0.9528632760047913,-73.6717300415039,-17.689363479614258,-9.030244827270508,-0.7409629225730896,1.445927619934082,0.2759861946105957,-0.4950142502784729,1.8713011741638184,1.8709944486618042
307,19596,19608,-0.081180639564991,0.01026542391628027,1.0025134086608887,-74.88665008544922,-20.218778610229492,-10.193315505981445,-0.7424628734588623,1.4504274129867554,0.277486115694046,-0.29687967896461487,1.2238166332244873,1.7793139219284058
308,19606,19618,-0.07780560106039047,-0.051061686128377914,1.0827326774597168,-60.759437561035156,-12.888303756713867,-10.133082389831543,-0.7394630312919617,1.4504274129867554,0.28048595786094666,-0.05588717758655548,0.7430163621902466,1.6992284059524536
309,19616,19628,-0.07880056649446487,-0.03969928249716759,1.0354745388031006,-37.83518981933594,0.748116135597229,-9.065399169921875,-0.736463189125061,1.4654266834259033,0.2744862735271454,-0.009824455715715885,0.2122429609298706,1.5878136157989502
310,19626,19638,-0.06411872059106827,-0.036222442984580994,1.0585378408432007,-2.49428391456604,8.686806678771973,-5.061844348907471,-0.7499625086784363,1.4639267921447754,0.28798559308052063,0.007029797416180372,-0.16012908518314362,1.5098053216934204
311,19636,19648,-0.10216523706912994,0.011742246337234974,0.9862117767333984,25.61797523498535,9.958211898803711,-1.4088263511657715,-0.7619618773460388,1.4639267921447754,0.26098695397377014,-0.11921081691980362,0.005048274993896484,1.4656556844711304
312,19646,19658,-0.07657824456691742,0.03974466770887375,0.9500392079353333,49.456298828125,11.9632568359375,6.835806846618652,-0.7574620842933655,1.459426999092102,0.28048595786094666,-0.27401477098464966,0.38665658235549927,1.464320421218872
313,19656,19668,-0.10856401175260544,-0.013682602904736996,1.0422873497009277,47.91624450683594,21.840438842773438,13.45942497253418,-0.7664616703987122,1.4564270973205566,0.2834858298301697,-0.5170801877975464,0.9136379361152649,1.5370385646820068
314,19666,19678,-0.16411998867988586,-0.07295762002468109,1.0683897733688354,24.89774513244629,21.098474502563477,14.80234146118164,-0.7439627647399902,1.4489275217056274,0.27898603677749634,-0.5500943064689636,1.4504339694976807,1.7154581546783447
315,19676,19688,-0.06009332463145256,-0.059398625046014786,0.98158860206604,-17.66531753540039,14.00263500213623,13.555408477783203,-0.7484625577926636,1.4384280443191528,0.26848655939102173,-0.7450222969055176,1.417486310005188,1.8470089435577393
316,19686,19698,-0.03765401244163513,0.03650636970996857,1.0298184156417847,-55.483577728271484,2.050940990447998,11.258881568908691,-0.7424628734588623,1.4534273147583008,0.28048595786094666,-0.7070010304450989,1.0035778284072876,1.9908307790756226
317,19696,19708,-0.054672155529260635,0.03487569838762283,1.0169875621795654,-73.0790023803711,-13.788944244384766,7.257320880889893,-0.737963080406189,1.46092689037323,0.28198590874671936,-0.6859603524208069,0.5581214427947998,2.116649866104126
318,19706,19718,-0.08314567804336548,0.09589742869138718,0.9378600120544434,-59.80007553100586,-26.835834503173828,4.829845428466797,-0.7559621930122375,1.4639267921447754,0.27898603677749634,-0.5572655200958252,-0.22416263818740845,2.17116641998291
319,19716,19728,-0.10026099532842636,0.06842915713787079,0.9681888222694397,-39.423526763916016,-32.31358337402344,4.1325297355651855,-0.7349632382392883,1.4519274234771729,0.27898603677749634,-0.12874814867973328,-0.6661614179611206,2.258805751800537
320,19726,19738,-0.043394703418016434,0.03151972219347954,1.022092342376709,-3.287771701812744,-29.709135055541992,4.514931678771973,-0.7439627647399902,1.4549272060394287,0.26998651027679443,0.32001858949661255,-1.0953551530838013,2.3095102310180664
321,19736,19748,-0.012174607254564762,-0.01739354245364666,1.0130003690719604,39.437522888183594,-18.22401237487793,7.834675312042236,-0.7409629225730896,1.4579271078109741,0.2939853072166443,0.5267411470413208,-0.8904828429222107,2.3775947093963623
322,19746,19758,-0.03199412301182747,0.040733784437179565,1.0237337350845337,72.90696716308594,15.010765075683594,12.494161605834961,-0.7514623999595642,1.4714263677597046,0.2864856719970703,0.5487444996833801,-0.049546316266059875,2.495398998260498
323,19756,19768,-0.05797214433550835,0.04817655682563782,1.0142109394073486,81.80331420898438,45.7913818359375,15.698881149291992,-0.7634618282318115,1.4654266834259033,0.2864856719970703,0.1677791029214859,0.5134792923927307,2.6029036045074463
324,19766,19778,-0.06358857452869415,-0.010040930472314358,0.9594084024429321,57.86763000488281,78.91230010986328,19.000972747802734,-0.7634618282318115,1.4654266834259033,0.27148643136024475,-0.5868080258369446,1.3573204278945923,2.770826816558838
325,19776,19788,-0.031494710594415665,0.06056003272533417,0.9514952898025513,19.929601669311523,97.68724060058594,21.68033218383789,-0.7664616703987122,1.4714263677597046,0.277486115694046,-1.2558469772338867,1.65883469581604,2.9722371101379395
326,19786,19798,-0.007888458669185638,0.08680832386016846,0.9356144070625305,-17.82150650024414,93.51473236083984,24.07267189025879,-0.7784610390663147,1.4684265851974487,0.26248687505722046,-2.0815722942352295,1.6829115152359009,3.2175278663635254
327,19796,19808,-0.01450365036725998,0.02824142947793007,1.021401047706604,-53.16209411621094,69.73770904541016,24.300464630126953,-0.7709614634513855,1.4639267921447754,0.2579870820045471,-3.106790065765381,1.3553338050842285,3.460559844970703
328,19806,19818,-0.05852547660470009,-0.02754591964185238,0.9993211030960083,-69.87290954589844,38.141761779785156,23.82636070251465,-0.7724613547325134,1.4624269008636475,0.27148643136024475,-3.6712965965270996,0.7582821846008301,3.713050603866577
329,19816,19828,-0.01909748464822769,-0.02561527118086815,0.9644221067428589,-70.75871276855469,-3.3004050254821777,26.114715576171875,-0.7604619860649109,1.4474276304244995,0.2744862735271454,-3.86531662940979,0.0007010228582657874,3.9548563957214355
330,19826,19838,-0.03192639350891113,0.019475383684039116,0.9907732605934143,-46.41166305541992,-38.74681854248047,27.31505012512207,-0.7499625086784363,1.445927619934082,0.28198590874671936,-3.583451271057129,-0.35603415966033936,4.327256679534912
331,19836,19848,-0.07682052999734879,0.1739669144153595,0.9382897019386292,-7.873373031616211,-51.92654037475586,27.811201095581055,-0.7859606742858887,1.46092689037323,0.28498575091362,-3.1054060459136963,-0.8938997983932495,4.563747406005859
332,19846,19858,-0.04648439586162567,0.07204277813434601,0.8996476531028748,30.767168045043945,-49.681640625,30.222761154174805,-0.7664616703987122,1.4684265851974487,0.2744862735271454,-2.6040232181549072,-0.6862010955810547,4.929872512817383
333,19856,19868,-0.017667308449745178,0.0067484695464372635,0.9482169151306152,57.395992279052734,-30.262630462646484,31.745433807373047,-0.7634618282318115,1.4654266834259033,0.2744862735271454,-2.0460126399993896,-0.06716682016849518,5.333506107330322
334,19866,19878,0.008814102038741112,-0.10213354974985123,1.0116339921951294,59.719173431396484,-8.212183952331543,31.056337356567383,-0.7589620351791382,1.4519274234771729,0.2759861946105957,-1.7455530166625977,0.28494924306869507,5.555963516235352
335,19876,19888,-0.006429616827517748,-0.08970967680215836,1.0043361186981201,44.74159240722656,12.824527740478516,27.580591201782227,-0.7619618773460388,1.4519274234771729,0.27298635244369507,-2.064701557159424,0.9222071766853333,5.876728534698486
336,19886,19898,-0.020866677165031433,-0.009087655693292618,0.9449371099472046,21.94811248779297,26.723485946655273,23.00855255126953,-0.7664616703987122,1.4474276304244995,0.2744862735271454,-2.4043242931365967,1.148693561553955,6.073284149169922
337,19896,19908,-0.01754794456064701,-0.027888063341379166,0.9735994338989258,-4.643005847930908,23.667449951171875,19.023204803466797,-0.7619618773460388,1.4429278373718262,0.2669866383075714,-2.6281509399414062,1.3176794052124023,6.298408031463623
338,19906,19918,-0.027192289009690285,0.08533119410276413,0.9339815378189087,-25.972515106201172,6.304141044616699,16.10457420349121,-0.7469626665115356,1.4339282512664795,0.26998651027679443,-2.8866422176361084,1.2197794914245605,6.475724220275879
339,19916,19928,-0.027930382639169693,0.06520352512598038,0.9169108271598816,-42.38060760498047,-15.04183292388916,12.680821418762207,-0.7484625577926636,1.435428261756897,0.26248687505722046,-2.8199987411499023,0.9861867427825928,6.661860942840576
340,19926,19938,-0.061723314225673676,0.024880586192011833,0.8937016725540161,-52.557403564453125,-32.84427261352539,7.631978988647461,-0.7589620351791382,1.4429278373718262,0.2639867961406708,-2.4383673667907715,0.2473846822977066,6.656216621398926
341,19936,19948,-0.06452799588441849,0.007771182339638472,1.0164984464645386,-48.41221618652344,-43.01189422607422,5.082432746887207,-0.7319633960723877,1.4489275217056274,0.27298635244369507,-2.0577142238616943,-0.11997459083795547,6.800041675567627
342,19946,19958,-0.07590481638908386,0.07399089634418488,0.9512144923210144,-34.53268814086914,-40.99957275390625,2.016408681869507,-0.7589620351791382,1.4489275217056274,0.2639867961406708,-1.6490812301635742,-0.47799262404441833,6.885231971740723
343,19956,19968,-0.04804961010813713,-0.03375757485628128,1.0467251539230347,-15.019287109375,-26.725616455078125,-0.4086369276046753,-0.7634618282318115,1.4564270973205566,0.2744862735271454,-1.0791434049606323,-0.6714152693748474,6.965884685516357
344,19966,19978,-0.03632944077253342,-0.018945444375276566,0.9944422841072083,-2.9547770023345947,-6.779905796051025,-3.998863458633423,-0.7649617195129395,1.472926378250122,0.27298635244369507,-1.2319426536560059,-0.7808788418769836,6.945602893829346
345,19976,19988,-0.07234834879636765,0.028696399182081223,0.9682315587997437,8.791308403015137,15.740038871765137,-7.5235595703125,-0.7544622421264648,1.4684265851974487,0.2834858298301697,-1.268242359161377,-0.8140758275985718,6.891300678253174
346,19986,19998,0.0004636026278603822,0.06764161586761475,0.9096657037734985,5.618419647216797,28.325172424316406,-11.949403762817383,-0.7574620842933655,1.459426999092102,0.277486115694046,-1.4121485948562622,-0.6363565325737,6.834299087524414
347,19996,20008,0.02552911825478077,0.08829337358474731,0.9264277815818787,0.29996219277381897,31.72956657409668,-16.4847354888916,-0.7604619860649109,1.4684265851974487,0.2834858298301697,-1.8064650297164917,-0.578628420829773,6.711638927459717
348,20006,20018,0.0017405145335942507,0.052972130477428436,0.8943100571632385,-14.892704010009766,21.822128295898438,-20.84071159362793,-0.7769611477851868,1.475926160812378,0.27898603677749634,-2.106703519821167,-0.7239242196083069,6.488948345184326
349,20016,20028,-0.0027217695023864508,-0.042608845978975296,0.9521812200546265,-24.46440887451172,4.180190086364746,-22.215085983276367,-0.7679615616798401,1.475926160812378,0.27898603677749634,-2.3147518634796143,-0.9619741439819336,6.253548622131348
350,20026,20038,-0.043189894407987595,0.07849742472171783,0.9595498442649841,-27.168943405151367,-17.496734619140625,-24.97016143798828,-0.7529623508453369,1.4789260625839233,0.29998499155044556,-2.1847527027130127,-1.1409096717834473,6.048901557922363
351,20036,20048,-0.02229616418480873,0.11567611992359161,0.9823706746101379,-20.31252670288086,-34.89126968383789,-26.2844295501709,-0.7559621930122375,1.4669265747070312,0.27298635244369507,-1.8717029094696045,-1.4594180583953857,5.773996353149414
352,20046,20058,0.036810774356126785,0.008113179355859756,0.9331499338150024,-7.763149261474609,-43.02244567871094,-27.101457595825195,-0.7484625577926636,1.4774260520935059,0.2834858298301697,-1.5507622957229614,-1.4547560214996338,5.5958075523376465
353,20056,20068,-0.021986505016684532,0.07178299129009247,0.9863064885139465,2.7033591270446777,-40.98371887207031,-26.614879608154297,-0.7589620351791382,1.4639267921447754,0.27298635244369507,-1.102953553199768,-1.4894839525222778,5.344595432281494
354,20066,20078,-0.008767001330852509,-0.0014998344704508781,0.9754336476325989,13.863194465637207,-26.79183006286621,-25.765995025634766,-0.7499625086784363,1.4789260625839233,0.28198590874671936,-0.5619644522666931,-1.5527558326721191,5.027907848358154
355,20076,20088,-0.04230063036084175,0.06360378861427307,0.9397401809692383,15.88936710357666,-7.058310031890869,-24.023523330688477,-0.7649617195129395,1.4639267921447754,0.28198590874671936,-0.6546121835708618,-1.2705004215240479,4.877566814422607
356,20086,20098,-0.007627339567989111,-0.013455790467560291,1.0180574655532837,14.818278312683105,17.800447463989258,-23.132198333740234,-0.7559621930122375,1.4819258451461792,0.28798559308052063,-0.6655650734901428,-1.0678412914276123,4.660450458526611
357,20096,20108,-0.05067653954029083,0.0029660165309906006,0.9822972416877747,6.262995719909668,31.74728775024414,-22.953397750854492,-0.7739613056182861,1.4819258451461792,0.28498575091362,-1.0253766775131226,-0.994232177734375,4.435061931610107
358,20106,20118,-0.048103734850883484,0.1624637097120285,1.0373421907424927,1.0764577388763428,33.62353515625,-22.092601776123047,-0.7814609408378601,1.5014249086380005,0.28048595786094666,-1.4412639141082764,-1.0579568147659302,4.188446998596191
359,20116,20128,0.02450373023748398,0.060002535581588745,1.0324082374572754,-2.73280668258667,24.720279693603516,-21.323902130126953,-0.7724613547325134,1.4954252243041992,0.2834858298301697,-1.5828677415847778,-1.1151949167251587,3.9137749671936035
360,20126,20138,-0.05638471990823746,-0.022609274834394455,1.0587944984436035,-0.5383251905441284,3.937420129776001,-19.770431518554688,-0.7739613056182861,1.4939253330230713,0.28498575091362,-1.7962982654571533,-1.1836045980453491,3.689741373062134
361,20136,20148,-0.04215466231107712,-0.011086621321737766,1.0549061298370361,2.2081639766693115,-13.736756324768066,-19.00946617126465,-0.7604619860649109,1.4834258556365967,0.277486115694046,-1.6756037473678589,-1.1334848403930664,3.4830284118652344
362,20146,20158,-0.025701532140374184,-0.00322954379953444,1.077085256576538,7.89193058013916,-29.74884033203125,-17.848663330078125,-0.7574620842933655,1.4954252243041992,0.28048595786094666,-1.4829201698303223,-1.0929951667785645,3.2989895343780518
363,20156,20168,-0.0069969226606190205,-0.09068019688129425,1.1644861698150635,11.468016624450684,-37.79962158203125,-16.771848678588867,-0.7544622421264648,1.4804259538650513,0.28948551416397095,-1.2193734645843506,-0.9621080756187439,3.1539196968078613
364,20166,20178,-0.03468094766139984,-0.09259861707687378,1.08756422996521,7.6269145011901855,-43.67781448364258,-15.761183738708496,-0.7484625577926636,1.4834258556365967,0.2834858298301697,-0.7760715484619141,-0.8210909962654114,2.99094820022583
365,20176,20188,0.016365062445402145,-0.01963193342089653,1.0520775318145752,-2.2921142578125,-47.79974365234375,-14.891083717346191,-0.7424628734588623,1.4834258556365967,0.28048595786094666,-0.45847493410110474,-0.860306978225708,2.84930157661438
366,20186,20198,-0.03942779824137688,0.020057540386915207,1.1004008054733276,-16.9194278717041,-44.010494232177734,-15.434847831726074,-0.736463189125061,1.4774260520935059,0.2834858298301697,-0.04794418066740036,-0.9433258175849915,2.7154297828674316
367,20196,20208,-0.04952872917056084,-0.00431128079071641,1.0773768424987793,-26.471139907836914,-36.98332595825195,-15.364540100097656,-0.7439627647399902,1.4819258451461792,0.27898603677749634,0.41340282559394836,-1.2953232526779175,2.5343337059020996
368,20206,20218,-0.043087173253297806,-0.06545117497444153,1.1323190927505493,-27.77313804626465,-27.29618263244629,-16.014379501342773,-0.7454627156257629,1.4774260520935059,0.2864856719970703,0.6686297059059143,-1.3987035751342773,2.4308414459228516
369,20216,20228,0.01891946606338024,-0.08532776683568954,1.155240535736084,-17.588987350463867,-17.055038452148438,-17.169044494628906,-0.7409629225730896,1.475926160812378,0.28498575091362,0.8346582055091858,-1.7170939445495605,2.2884206771850586
370,20226,20238,-0.03871407359838486,-0.014824990183115005,1.0967998504638672,1.291731595993042,-4.438168525695801,-17.17589569091797,-0.7349632382392883,1.4849257469177246,0.29998499155044556,0.9629859924316406,-1.895695686340332,2.119396686553955
371,20236,20248,-0.01667054370045662,-0.047964900732040405,1.0671582221984863,18.667211532592773,5.278277397155762,-17.300640106201172,-0.7409629225730896,1.472926378250122,0.28498575091362,1.055048942565918,-1.74556565284729,1.9350039958953857
372,20246,20258,-0.008937614038586617,-0.08626700192689896,0.9607256650924683,32.099159240722656,15.341187477111816,-17.07672119140625,-0.7424628734588623,1.459426999092102,0.2924853563308716,0.7550320029258728,-1.3306225538253784,1.817274570465088
373,20256,20268,0.031470801681280136,0.04527679830789566,0.9172526597976685,38.47386169433594,22.01983070373535,-18.559057235717773,-0.7559621930122375,1.4699264764785767,0.28498575091362,0.682418704032898,-1.1917108297348022,1.6207605600357056
374,20266,20278,-0.009645745158195496,0.10249190032482147,1.0034035444259644,33.4011344909668,25.152393341064453,-20.416080474853516,-0.7544622421264648,1.4624269008636475,0.2954852283000946,0.39460620284080505,-0.808279275894165,1.449231505393982
375,20276,20288,-0.026237163692712784,0.04121280089020729,1.0273000001907349,28.32376480102539,17.094301223754883,-18.51105308532715,-0.7439627647399902,1.4639267921447754,0.28798559308052063,0.13689349591732025,-0.3089609742164612,1.2406280040740967
376,20286,20298,-0.040291108191013336,-0.013577166944742203,0.9995816349983215,23.603593826293945,-4.788278579711914,-14.30855655670166,-0.7424628734588623,1.4474276304244995,0.2744862735271454,0.10649268329143524,-0.10306642949581146,1.044752836227417
377,20296,20308,-0.048890698701143265,-0.010230007581412792,0.9990054368972778,16.45543670654297,-23.11220359802246,-10.901843070983887,-0.7394630312919617,1.4534273147583008,0.27148643136024475,0.1259310394525528,0.14970365166664124,0.9176254272460938
378,20306,20318,-0.11051028966903687,-0.0002189258811995387,1.0269829034805298,10.085335731506348,-36.15362548828125,-6.923490524291992,-0.737963080406189,1.4519274234771729,0.28198590874671936,0.42183971405029297,0.29227450489997864,0.8112109303474426
379,20316,20328,-0.11449648439884186,-0.0070518008433282375,0.9946022629737854,3.790412425994873,-36.39909362792969,-3.664651870727539,-0.7349632382392883,1.4519274234771729,0.28498575091362,0.7454538941383362,0.26380208134651184,0.7659497261047363
380,20326,20338,-0.05234621837735176,-0.011835715733468533,0.9532747268676758,-5.4085211753845215,-30.553974151611328,-1.1572391986846924,-0.737963080406189,1.4639267921447754,0.28798559308052063,1.0516233444213867,0.26185232400894165,0.7452679872512817
381,20336,20348,-0.06845305860042572,0.05608966201543808,0.9445280432701111,-19.376087188720703,-19.95941162109375,-1.1221038103103638,-0.736463189125061,1.4804259538650513,0.28048595786094666,1.2950921058654785,0.1487375944852829,0.7450717091560364
382,20346,20358,-0.03481866046786308,0.0026104252319782972,0.9790034294128418,-29.943283081054688,-14.06701946258545,-1.3199790716171265,-0.7274636030197144,1.459426999092102,0.2924853563308716,1.419354796409607,0.12823866307735443,0.7126564383506775
383,20356,20368,-0.03279693424701691,0.030653879046440125,0.9820880889892578,-33.32325744628906,-11.476774215698242,-1.1714056730270386,-0.730463445186615,1.4654266834259033,0.2834858298301697,1.7219452857971191,-0.3962455093860626,0.7266639471054077
384,20366,20378,-0.04539884999394417,0.06461165845394135,0.99803227186203,-28.267715454101562,-9.864744186401367,-0.6112157702445984,-0.7334632873535156,1.4654266834259033,0.28048595786094666,1.8505158424377441,-0.6882323622703552,0.7112668752670288
385,20376,20388,-0.06445156037807465,0.04636232927441597,1.0204209089279175,-6.58981990814209,-5.006994247436523,0.21743404865264893,-0.7169641256332397,1.46092689037323,0.28198590874671936,1.7049038410186768,-0.8447012901306152,0.7152140736579895
386,20386,20398,-0.037826310843229294,0.010782849974930286,0.9779245853424072,18.427104949951172,0.265692800283432,2.1495778560638428,-0.7319633960723877,1.472926378250122,0.28198590874671936,1.8476260900497437,-0.9893530607223511,0.746070384979248
387,20396,20408,-0.040973637253046036,-0.008786497637629509,0.9517166614532471,33.80066680908203,5.769532680511475,3.8404040336608887,-0.7454627156257629,1.4684265851974487,0.2864856719970703,1.8940402269363403,-0.5753136873245239,0.7004786133766174
388,20406,20418,-0.07216513156890869,0.022518524900078773,0.9694770574569702,39.07029724121094,6.504386901855469,7.603212356567383,-0.7349632382392883,1.4639267921447754,0.28198590874671936,1.872540831565857,-0.13631141185760498,0.7078060507774353
389,20416,20428,-0.00977998971939087,-0.0031288492027670145,0.9306282997131348,39.24665451049805,0.07179159671068192,12.381311416625977,-0.7289635539054871,1.4699264764785767,0.28798559308052063,1.8864409923553467,0.20918479561805725,0.8017703294754028
390,20426,20438,-0.06958097964525223,0.06587933748960495,0.9999402165412903,24.724950790405273,-11.832206726074219,15.620148658752441,-0.730463445186615,1.4534273147583008,0.2864856719970703,1.9608787298202515,0.3946971893310547,0.9919536709785461
391,20436,20448,-0.033076073974370956,0.033164989203214645,0.9471526741981506,6.701053619384766,-22.251039505004883,18.36481285095215,-0.7289635539054871,1.4519274234771729,0.2759861946105957,2.151834011077881,0.6586340665817261,1.126228928565979
392,20446,20458,-0.06378143280744553,0.058853879570961,0.9742569327354431,-13.018064498901367,-29.790624618530273,22.938600540161133,-0.7259637117385864,1.4579271078109741,0.28198590874671936,2.494887351989746,0.6162703633308411,1.3370226621627808
393,20456,20468,-0.024717528373003006,-0.027751289308071136,0.9386553168296814,-30.603567123413086,-29.824268341064453,24.62920379638672,-0.7139642834663391,1.4579271078109741,0.28798559308052063,2.6903862953186035,0.4300242066383362,1.5817962884902954
394,20466,20478,-0.06574682146310806,0.059428416192531586,1.017213225364685,-43.71805953979492,-21.960063934326172,23.047954559326172,-0.7199639678001404,1.4639267921447754,0.28198590874671936,3.0271730422973633,0.17186246812343597,1.784629464149475
395,20476,20488,-0.00037894159322604537,-0.002751115011051297,0.9398000240325928,-46.090484619140625,-16.86998748779297,18.740142822265625,-0.7274636030197144,1.4654266834259033,0.2744862735271454,3.2458667755126953,-0.35666126012802124,2.0447330474853516
396,20486,20498,-0.057563554495573044,0.06415899842977524,1.038456678390503,-45.1774787902832,-18.351573944091797,11.38005542755127,-0.722963809967041,1.4789260625839233,0.2939853072166443,3.558943510055542,-0.8991804718971252,2.259143114089966
397,20496,20508,-0.03319195657968521,0.06385146081447601,1.0403579473495483,-41.670658111572266,-29.8083438873291,4.6307902336120605,-0.7079645991325378,1.4699264764785767,0.2939853072166443,3.753840923309326,-1.2617336511611938,2.3123011589050293
398,20506,20518,-0.02203609235584736,0.0020989689510315657,1.0819318294525146,-24.196796417236328,-28.8291072845459,-4.045527935028076,-0.7184640765190125,1.4714263677597046,0.28948551416397095,4.201291561126709,-1.8448771238327026,2.4504213333129883
399,20516,20528,-0.09123550355434418,0.0693577453494072,1.0799776315689087,14.013581275939941,-13.113317489624023,-7.37000846862793,-0.7439627647399902,1.472926378250122,0.2939853072166443,4.293662071228027,-1.6790111064910889,2.2152304649353027
400,20526,20538,-0.08693965524435043,0.0505678728222847,0.9761548638343811,49.41856384277344,3.966280221939087,-7.145683765411377,-0.722963809967041,1.4939253330230713,0.2939853072166443,4.40462589263916,-1.4033498764038086,2.1044368743896484
401,20536,20548,-0.0664018765091896,-0.007214582525193691,1.0895507335662842,64.14904022216797,17.611343383789062,-8.407135009765625,-0.7274636030197144,1.4714263677597046,0.277486115694046,4.230774402618408,-0.8182227611541748,2.0073156356811523
402,20546,20558,-0.0482930988073349,-0.02943670190870762,1.0517287254333496,55.90840148925781,31.73224639892578,-8.428473472595215,-0.7334632873535156,1.459426999092102,0.277486115694046,4.061394691467285,-0.16727465391159058,1.908394694328308
403,20556,20568,-0.11524177342653275,-0.0647800862789154,1.1100791692733765,27.43315887451172,42.56711196899414,-6.947091579437256,-0.736463189125061,1.4714263677597046,0.3044847846031189,3.6058249473571777,0.42166227102279663,1.7910001277923584
404,20566,20578,-0.08558445423841476,-0.06628639996051788,1.0746583938598633,-8.77507209777832,42.26167678833008,-5.941837310791016,-0.7409629225730896,1.472926378250122,0.28198590874671936,3.3487367630004883,0.15419340133666992,2.051283836364746
405,20576,20588,-0.02228992059826851,-0.060173094272613525,0.9840906858444214,-39.62822341918945,44.98234176635742,-6.998342037200928,-0.7409629225730896,1.4849257469177246,0.2759861946105957,2.76416277885437,0.11770469695329666,1.8961882591247559
406,20586,20598,-0.027577513828873634,-0.07272697985172272,1.036370038986206,-71.70317077636719,36.44358825683594,-7.438953876495361,-0.7289635539054871,1.4909254312515259,0.28198590874671936,2.425952196121216,-0.4036768674850464,1.863610863685608
407,20596,20608,-0.051245734095573425,-0.014047298580408096,1.007705807685852,-80.5965805053711,14.53361701965332,-5.044232368469238,-0.7214639186859131,1.459426999092102,0.2864856719970703,2.226802349090576,-1.30784273147583,1.8863519430160522
408,20606,20618,-0.03835912048816681,0.03436143323779106,1.0423038005828857,-57.42826843261719,-11.204813957214355,-1.0764801502227783,-0.7214639186859131,1.47442626953125,0.28048595786094666,2.137474536895752,-2.0377163887023926,1.8124663829803467
409,20616,20628,-0.011084673926234245,0.03679177165031433,0.9110631942749023,-18.181188583374023,-30.798372268676758,2.7460720539093018,-0.7289635539054871,1.4669265747070312,0.28798559308052063,2.4297220706939697,-2.392629384994507,1.7063097953796387
410,20626,20638,0.02137872204184532,0.023493200540542603,0.9001644849777222,15.39018440246582,-39.270755767822266,5.343824863433838,-0.7199639678001404,1.46092689037323,0.29098543524742126,2.881840944290161,-2.2811224460601807,1.5910133123397827
411,20636,20648,0.025829248130321503,8.42037916299887e-05,0.9638352990150452,44.05152130126953,-36.820655822753906,7.5264811515808105,-0.7109644412994385,1.4489275217056274,0.28798559308052063,3.1736679077148438,-2.0484743118286133,1.6836968660354614
412,20646,20658,0.0003745060530491173,0.004333865363150835,0.9389954209327698,58.434234619140625,-14.913016319274902,7.062442779541016,-0.737963080406189,1.4639267921447754,0.28798559308052063,3.4991044998168945,-1.361918568611145,1.6259853839874268
413,20656,20668,-0.03790264576673508,0.08360505849123001,0.9533740878105164,64.72479248046875,17.35703468322754,3.9587759971618652,-0.7289635539054871,1.4699264764785767,0.29098543524742126,3.5113918781280518,-1.141618013381958,1.952762246131897
414,20666,20678,-0.08819304406642914,-0.03711605817079544,1.0701789855957031,60.501373291015625,53.14167022705078,-2.66737699508667,-0.7514623999595642,1.459426999092102,0.2744862735271454,3.1567187309265137,-0.15721909701824188,1.7709449529647827
415,20676,20688,0.005988701246678829,-0.04781396687030792,0.9731733202934265,47.79460525512695,71.07186126708984,-7.137127876281738,-0.737963080406189,1.4519274234771729,0.27898603677749634,2.72493314743042,0.020857645198702812,1.9678764343261719
416,20686,20698,0.01951160840690136,-0.040689609944820404,0.9908419251441956,30.10579490661621,70.7732925415039,-10.290135383605957,-0.7334632873535156,1.435428261756897,0.2924853563308716,1.9139642715454102,0.6737228035926819,1.7639124393463135
417,20696,20708,-0.000377815478714183,-0.13746194541454315,0.9189331531524658,18.906938552856445,58.24768829345703,-10.32589054107666,-0.7409629225730896,1.4399279356002808,0.27898603677749634,1.3435593843460083,0.7961519360542297,1.745914101600647
418,20706,20718,-0.006573892664164305,-0.0066928439773619175,0.9370182752609253,14.534103393554688,38.94330978393555,-8.623795509338379,-0.7319633960723877,1.436928153038025,0.27298635244369507,0.7574761509895325,1.0131075382232666,1.6304540634155273
419,20716,20728,0.011727658100426197,0.06268738210201263,0.9250009655952454,7.373219013214111,20.73714256286621,-6.447264671325684,-0.7469626665115356,1.4489275217056274,0.26998651027679443,0.5497968792915344,0.9958085417747498,1.6312445402145386
420,20726,20738,0.015344538725912571,-0.028756357729434967,0.9006841778755188,0.4904944896697998,10.685470581054688,-5.675015926361084,-0.7499625086784363,1.4489275217056274,0.27298635244369507,0.48496079444885254,1.099748969078064,1.555412769317627
421,20736,20748,-0.0029466773848980665,0.038462087512016296,0.882070779800415,-9.142894744873047,4.089592456817627,-7.2925124168396,-0.7454627156257629,1.4534273147583008,0.28048595786094666,0.34858256578445435,1.0490323305130005,1.5121899843215942
422,20746,20758,-0.03826592117547989,0.11106909811496735,0.9335479140281677,-12.97327995300293,0.47516053915023804,-9.73451042175293,-0.7484625577926636,1.4564270973205566,0.28048595786094666,0.37624114751815796,0.9517903327941895,1.4317541122436523
423,20756,20768,-0.09388209134340286,0.02386767603456974,0.9989952445030212,-8.117263793945312,6.5468220710754395,-10.617016792297363,-0.7559621930122375,1.4549272060394287,0.26998651027679443,0.3001146614551544,0.940470814704895,1.2939730882644653
424,20766,20778,-0.07300954312086105,0.02431691810488701,0.9530795812606812,-1.6300793886184692,20.667484283447266,-10.666031837463379,-0.7544622421264648,1.459426999092102,0.27148643136024475,0.21268072724342346,0.7972854971885681,1.2126588821411133
425,20776,20788,-0.04450543224811554,-0.09285406023263931,0.9343146085739136,2.8668622970581055,32.54641342163086,-11.261951446533203,-0.7679615616798401,1.4639267921447754,0.2669866383075714,-0.15875068306922913,0.8849725127220154,1.0647705793380737
426,20786,20798,0.015873605385422707,-0.11666085571050644,0.9568695425987244,5.98661470413208,44.20755386352539,-13.346450805664062,-0.7694615125656128,1.4654266834259033,0.27148643136024475,-0.3848716914653778,0.9646947979927063,0.9543046951293945
427,20796,20808,-0.020069004967808723,-0.009649881161749363,0.9320803284645081,8.389254570007324,52.31869125366211,-16.815595626831055,-0.7694615125656128,1.4654266834259033,0.27148643136024475,-1.1262450218200684,1.0720304250717163,0.7753917574882507
428,20806,20818,0.02394877001643181,-0.006049675401300192,0.9440731406211853,12.490662574768066,52.934322357177734,-19.86078643798828,-0.7694615125656128,1.4654266834259033,0.27148643136024475,-1.5591870546340942,1.1744548082351685,0.6211009621620178
429,20816,20828,0.027380896732211113,-0.1170695349574089,0.9402165412902832,11.258166313171387,43.837242126464844,-23.088172912597656,-0.7694615125656128,1.4654266834259033,0.27148643136024475,-2.0070178508758545,1.3669275045394897,0.42905476689338684
430,20826,20838,-0.0060995896346867085,-0.07419633865356445,0.9622043967247009,12.596923828125,31.202678680419922,-25.236942291259766,-0.7724613547325134,1.459426999092102,0.2744862735271454,-2.428955316543579,1.3988527059555054,0.20529961585998535
431,20836,20848,-0.03999941051006317,-0.06722123920917511,0.9153715968132019,11.471412658691406,16.05802345275879,-26.29077911376953,-0.7784610390663147,1.4684265851974487,0.2594870328903198,-2.47687029838562,1.6435106992721558,-0.0024111554957926273
432,20846,20858,-0.05322839692234993,-0.020336564630270004,0.9860692024230957,2.2319791316986084,3.157893657684326,-26.996400833129883,-0.7754611968994141,1.47442626953125,0.28048595786094666,-2.729905605316162,1.7356668710708618,-0.2848471403121948
433,20856,20868,0.023053105920553207,-0.01598110795021057,1.02846097946167,-3.7198104858398438,-0.8171330094337463,-26.920448303222656,-0.7784610390663147,1.4714263677597046,0.2654867172241211,-2.758460521697998,1.7691240310668945,-0.550894558429718
434,20866,20878,0.06332726031541824,0.030788211151957512,1.0200551748275757,-7.668907165527344,1.947717308998108,-25.35899543762207,-0.7919603586196899,1.4789260625839233,0.28198590874671936,-2.857039213180542,1.7075963020324707,-0.8399838805198669
435,20876,20888,-0.0028099792543798685,-0.030201205983757973,1.0302656888961792,-13.859142303466797,5.525026798248291,-21.854084014892578,-0.7709614634513855,1.472926378250122,0.2639867961406708,-2.8469176292419434,1.7089680433273315,-1.052883267402649
436,20886,20898,-0.052973128855228424,-0.08377621322870255,1.068003535270691,-22.53874397277832,12.392200469970703,-19.19591522216797,-0.7964601516723633,1.489425539970398,0.27148643136024475,-3.118492364883423,1.371503472328186,-1.3685468435287476
437,20896,20908,0.0038764167111366987,-0.025838978588581085,1.0039427280426025,-29.733043670654297,17.023530960083008,-17.18629264831543,-0.7844607830047607,1.489425539970398,0.26848655939102173,-3.261826753616333,0.9809721112251282,-1.607629418373108
438,20906,20918,-0.005365725141018629,0.03499890863895416,0.9347642064094543,-37.00520706176758,15.272431373596191,-15.84347152709961,-0.7784610390663147,1.498425006866455,0.27148643136024475,-3.5750679969787598,0.636819064617157,-1.8224995136260986
439,20916,20928,-0.04262711480259895,0.09910137951374054,1.0149774551391602,-41.92644500732422,7.932746410369873,-16.845861434936523,-0.7799609899520874,1.4939253330230713,0.2669866383075714,-3.439771890640259,0.3255208134651184,-1.8780193328857422
440,20926,20938,-0.054437264800071716,0.02925865538418293,1.097636103630066,-29.968278884887695,5.4684672355651855,-19.967182159423828,-0.7739613056182861,1.4879255294799805,0.27298635244369507,-3.6005971431732178,0.03008422441780567,-2.016186237335205
441,20936,20948,-0.06328342109918594,-0.03496784344315529,1.0790841579437256,-10.604973793029785,-7.574621200561523,-20.78403663635254,-0.7694615125656128,1.4774260520935059,0.27148643136024475,-3.569934368133545,-0.24270085990428925,-2.19657039642334
442,20946,20958,-0.054321080446243286,-0.00044415524462237954,1.112298607826233,9.759979248046875,-28.41302490234375,-19.734275817871094,-0.782960832118988,1.4849257469177246,0.28498575091362,-3.556720018386841,-0.325115442276001,-2.421233892440796
443,20956,20968,-0.07134612649679184,-0.04087262600660324,1.0719528198242188,23.38954734802246,-49.779808044433594,-17.44605827331543,-0.7739613056182861,1.472926378250122,0.28498575091362,-3.113562822341919,-0.11797623336315155,-2.5280849933624268
444,20966,20978,-0.04367272928357124,-0.01193055510520935,1.0759937763214111,28.903841018676758,-53.93336486816406,-20.449440002441406,-0.7619618773460388,1.4669265747070312,0.27298635244369507,-2.569183111190796,0.2505214512348175,-2.619626760482788
445,20976,20988,-0.09267954528331757,-0.04283464327454567,1.0515966415405273,26.324174880981445,-42.26945114135742,-24.5268497467041,-0.7634618282318115,1.4714263677597046,0.2744862735271454,-2.212007522583008,0.5841456651687622,-2.8283445835113525
446,20986,20998,-0.09862951189279556,-0.032119251787662506,1.0501633882522583,14.450220108032227,-30.061792373657227,-23.958364486694336,-0.7634618282318115,1.4654266834259033,0.27148643136024475,-1.9029712677001953,0.8732067942619324,-3.0599451065063477
447,20996,21008,-0.08711699396371841,-0.02514287456870079,1.065093755722046,-1.206803560256958,-29.958345413208008,-22.939332962036133,-0.7484625577926636,1.459426999092102,0.28048595786094666,-1.555763602256775,0.7942989468574524,-3.4107768535614014
448,21006,21018,-0.07013946771621704,0.009368487633764744,1.0795120000839233,-18.064882278442383,-22.309019088745117,-21.750072479248047,-0.7679615616798401,1.4669265747070312,0.27898603677749634,-1.2546674013137817,0.7631692290306091,-3.6370341777801514
449,21016,21028,-0.07230918854475021,-0.01107162144035101,1.1000455617904663,-28.8062686920166,-11.040567398071289,-20.654645919799805,-0.7709614634513855,1.4639267921447754,0.2759861946105957,-1.2994657754898071,0.5600163340568542,-3.9036684036254883
450,21026,21038,-0.06806201487779617,-0.03147372975945473,1.1137158870697021,-18.098648071289062,-0.5349002480506897,-15.186881065368652,-0.7559621930122375,1.4639267921447754,0.27898603677749634,-1.1728073358535767,0.2547691762447357,-4.120055198669434
451,21036,21048,-0.10241424292325974,-0.09895705431699753,1.1831681728363037,-11.083399772644043,10.687126159667969,-8.821764945983887,-0.7649617195129395,1.4639267921447754,0.27898603677749634,-1.2072358131408691,0.09903126955032349,-4.261054039001465
452,21046,21058,-0.030270962044596672,-0.05806652829051018,1.0306994915008545,-5.919467449188232,20.61643409729004,-2.6474106311798096,-0.7634618282318115,1.4864256381988525,0.2834858298301697,-1.3780664205551147,0.030066337436437607,-4.32425594329834
453,21056,21068,-0.08491094410419464,-0.01362568885087967,1.1018363237380981,-3.239495038986206,14.303963661193848,1.3945738077163696,-0.7694615125656128,1.4714263677597046,0.28048595786094666,-1.5717196464538574,0.04477473348379135,-4.309842109680176
454,21066,21078,-0.13207519054412842,-0.08680717647075653,1.1349964141845703,-4.365991115570068,-1.6804664134979248,5.750351905822754,-0.7544622421264648,1.4564270973205566,0.2864856719970703,-1.5377256870269775,-0.0757191926240921,-4.315510272979736
455,21076,21088,-0.14304408431053162,-0.16658161580562592,1.0834295749664307,-2.777451515197754,-22.790607452392578,8.922830581665039,-0.7529623508453369,1.4669265747070312,0.2669866383075714,-1.5008091926574707,0.09427958726882935,-4.149908542633057
456,21086,21098,-0.13146527111530304,-0.06451880931854248,1.0104196071624756,-10.138954162597656,-43.57773971557617,10.57693099975586,-0.7604619860649109,1.4684265851974487,0.2744862735271454,-1.121092677116394,-0.062385331839323044,-4.107949256896973
457,21096,21108,-0.15888333320617676,0.02531060390174389,1.0692235231399536,-18.53408432006836,-56.867637634277344,11.676724433898926,-0.7634618282318115,1.4804259538650513,0.2744862735271454,-0.6467662453651428,-0.1136765405535698,-3.97170090675354
458,21106,21118,-0.15770766139030457,0.01171815861016512,1.1069635152816772,-23.813209533691406,-52.388999938964844,7.334821701049805,-0.7469626665115356,1.4639267921447754,0.28498575091362,-0.27237996459007263,-0.233267143368721,-3.837401866912842
459,21116,21128,-0.06996617466211319,-0.027286913245916367,1.043912410736084,-22.872222900390625,-36.7193489074707,2.522372245788574,-0.7289635539054871,1.46092689037323,0.2669866383075714,0.3526965081691742,-0.542728066444397,-3.790526866912842
460,21126,21138,-0.03350204974412918,-0.05356903374195099,0.9533562064170837,-10.435351371765137,-6.040905475616455,-2.1256866455078125,-0.7424628734588623,1.4504274129867554,0.28048595786094666,0.654121458530426,-0.7451274394989014,-3.773210048675537
461,21136,21148,-0.12210119515657425,-0.018755951896309853,0.9133917689323425,4.993621826171875,21.657560348510742,-4.068516254425049,-0.737963080406189,1.4639267921447754,0.28498575091362,0.5830721259117126,-0.7323256134986877,-3.7650721073150635
462,21146,21158,-0.15873503684997559,0.009362587705254555,0.95059734582901,22.675933837890625,49.157894134521484,-5.7135467529296875,-0.7694615125656128,1.459426999092102,0.277486115694046,0.3511808514595032,-0.5803902745246887,-3.792205810546875
463,21156,21168,-0.09878133982419968,-0.03829089179635048,0.9411212801933289,31.999277114868164,59.86945343017578,-6.221550941467285,-0.7679615616798401,1.4669265747070312,0.28498575091362,-0.3486080467700958,-0.2863291800022125,-3.836923837661743
464,21166,21178,-0.027279483154416084,-0.10079047828912735,0.8744014501571655,39.62519836425781,57.39182662963867,-4.818808078765869,-0.7604619860649109,1.4654266834259033,0.2834858298301697,-0.7228098511695862,0.014211014844477177,-3.9127109050750732
465,21176,21188,0.0003052891988772899,-0.11440960317850113,0.8159931898117065,37.751888275146484,43.11309051513672,-4.111533164978027,-0.7649617195129395,1.4579271078109741,0.28198590874671936,-1.2501327991485596,0.5122448801994324,-3.9324042797088623
466,21186,21198,-0.018916184082627296,-0.06952270865440369,0.8138076663017273,14.59163761138916,26.892040252685547,-2.331930637359619,-0.7559621930122375,1.4429278373718262,0.28798559308052063,-1.5195813179016113,0.8801217675209045,-3.959200382232666
467,21196,21208,-0.04647710174322128,-0.014260469004511833,0.880020797252655,-21.42331314086914,11.01076889038086,0.3793598711490631,-0.7544622421264648,1.4534273147583008,0.2654867172241211,-1.5365442037582397,0.7651957273483276,-4.024179935455322
468,21206,21218,-0.07679926604032516,0.09344138950109482,0.9857971668243408,-60.54487991333008,-2.702113151550293,2.508776903152466,-0.7484625577926636,1.47442626953125,0.2834858298301697,-1.5413035154342651,0.25900134444236755,-4.071920871734619
469,21216,21228,-0.08025536686182022,0.12859214842319489,1.033898115158081,-84.84999084472656,-15.313223838806152,3.2484350204467773,-0.7529623508453369,1.4969251155853271,0.28498575091362,-1.4132888317108154,-0.2837519347667694,-4.008941173553467
470,21226,21238,-0.05081303045153618,0.053207993507385254,0.9870392084121704,-91.4505615234375,-23.28499984741211,2.7581167221069336,-0.7589620351791382,1.4849257469177246,0.26998651027679443,-1.19180166721344,-1.3583827018737793,-4.033650875091553
471,21236,21248,-0.08958043158054352,0.03417892009019852,0.9594056010246277,-86.39347839355469,-21.910322189331055,3.4848477840423584,-0.7574620842933655,1.4954252243041992,0.28048595786094666,-0.706130862236023,-2.097090005874634,-3.9544260501861572
472,21246,21258,-0.05048898607492447,0.12402702867984772,0.9238137006759644,-66.35900115966797,-15.455960273742676,7.059980392456055,-0.7604619860649109,1.489425539970398,0.277486115694046,-0.4276103377342224,-2.9961633682250977,-3.924931287765503
473,21256,21268,-0.026754753664135933,0.1308116614818573,0.921083390712738,-35.25898742675781,-5.545780658721924,11.835488319396973,-0.7559621930122375,1.472926378250122,0.28198590874671936,-0.42623525857925415,-3.527233600616455,-3.8082542419433594
474,21266,21278,-0.0520908497273922,-0.031262896955013275,0.9713603854179382,-0.11685808002948761,5.657145023345947,16.645219802856445,-0.7574620842933655,1.4804259538650513,0.2834858298301697,-0.46516236662864685,-3.5824246406555176,-3.6185524463653564
475,21276,21288,-0.029283573850989342,-0.05743569880723953,0.9342964887619019,29.885011672973633,16.072351455688477,20.450666427612305,-0.7724613547325134,1.504424810409546,0.2864856719970703,-0.6814937591552734,-3.402233123779297,-3.4033424854278564
476,21286,21298,0.004818961024284363,0.009387034922838211,0.8902435302734375,46.3454704284668,21.415557861328125,23.321802139282227,-0.7694615125656128,1.504424810409546,0.2834858298301697,-0.8737710118293762,-3.048288583755493,-3.1995275020599365
477,21296,21308,0.012184773571789265,0.021448975428938866,0.9981498718261719,48.64250183105469,19.956974029541016,24.903051376342773,-0.7724613547325134,1.4804259538650513,0.277486115694046,-1.1024301052093506,-2.5261127948760986,-2.9613077640533447
478,21306,21318,1.7373891751049086e-05,-0.047599874436855316,1.0160951614379883,37.079193115234375,14.990852355957031,24.31422996520996,-0.7634618282318115,1.4714263677597046,0.28948551416397095,-1.2145838737487793,-2.3601391315460205,-2.8153111934661865
479,21316,21328,-0.027684733271598816,-0.07658729702234268,0.9948497414588928,15.125346183776855,6.602851390838623,22.201805114746094,-0.7559621930122375,1.472926378250122,0.27898603677749634,-1.4445515871047974,-1.9647588729858398,-2.547297954559326
480,21326,21338,-0.02660106122493744,-0.0530533641576767,0.9476720094680786,-9.154303550720215,-4.074928283691406,17.886505126953125,-0.7604619860649109,1.4924253225326538,0.2834858298301697,-1.4933453798294067,-2.0178353786468506,-2.373161792755127
