,timestamp_start,timestamp_end,acc.x,acc.y,acc.z,gyro.x,gyro.y,gyro.z,mag.x,mag.y,mag.z,stabilizer.pitch,stabilizer.roll,stabilizer.yaw
0,137775,137776,-0.07840336859226227,0.10899706929922104,1.0187633037567139,44.11988067626953,-32.58900451660156,-24.516050338745117,-0.7529623508453369,1.4429278373718262,0.28198590874671936,0.8258697986602783,0.05439905822277069,3.4057116508483887
1,137785,137786,-0.1169842779636383,0.04706120118498802,1.143525242805481,17.06270980834961,-25.29690170288086,-20.764671325683594,-0.7679615616798401,1.4639267921447754,0.29098543524742126,1.3054964542388916,0.3273131251335144,3.1114511489868164
2,137795,137796,-0.07277506589889526,-0.08288602530956268,1.1352564096450806,-17.014240264892578,-15.381002426147461,-17.148630142211914,-0.7529623508453369,1.4579271078109741,0.28498575091362,1.262168288230896,0.2194252908229828,2.988189697265625
3,137805,137806,-0.01182343065738678,-0.014962362125515938,1.0020941495895386,-52.42784881591797,-9.052287101745605,-15.364739418029785,-0.7499625086784363,1.4699264764785767,0.2969851493835449,1.4291729927062988,-0.37400928139686584,2.853712797164917
4,137815,137816,-0.09622026979923248,0.02224424108862877,1.0475138425827026,-66.66038513183594,-9.67262077331543,-15.149360656738281,-0.7559621930122375,1.46092689037323,0.28498575091362,1.4888935089111328,-0.9598603248596191,2.7059593200683594
5,137825,137826,-0.08979102969169617,-0.028433773666620255,1.0860848426818848,-57.5974235534668,-11.83131217956543,-14.816990852355957,-0.7409629225730896,1.4879255294799805,0.2969851493835449,1.628082275390625,-1.3372981548309326,2.5042383670806885
6,137835,137836,0.011706817895174026,-0.08728029578924179,1.077528715133667,-33.43258285522461,-14.11656379699707,-14.044919967651367,-0.7514623999595642,1.4714263677597046,0.2924853563308716,1.8813072443008423,-1.889951467514038,2.365654945373535
7,137845,137846,-0.013424237258732319,0.04048291966319084,0.9819037914276123,1.4985071420669556,-12.105169296264648,-12.6149320602417,-0.737963080406189,1.4639267921447754,0.28498575091362,2.044419050216675,-1.8031785488128662,2.1925160884857178
8,137855,137856,-0.08161385357379913,0.05813973769545555,1.120962381362915,40.87308120727539,-0.47200867533683777,-8.851130485534668,-0.7499625086784363,1.4549272060394287,0.2939853072166443,1.8635010719299316,-1.4654287099838257,2.0954430103302
9,137865,137866,-0.07613424956798553,0.22071877121925354,1.0245734453201294,74.19163513183594,19.812721252441406,-2.5147955417633057,-0.7634618282318115,1.459426999092102,0.3044847846031189,1.6884812116622925,-0.68602055311203,2.0172364711761475
10,137875,137876,-0.09662289917469025,-0.040585897862911224,1.162432074546814,77.7607650756836,36.803768157958984,0.2224544733762741,-0.7559621930122375,1.4639267921447754,0.2969851493835449,1.4245816469192505,0.3114062547683716,1.9483712911605835
11,137885,137886,-0.14087893068790436,0.0025735918898135424,1.047810673713684,62.377933502197266,44.43207931518555,-1.594001054763794,-0.7574620842933655,1.4564270973205566,0.2924853563308716,1.098149061203003,0.7431496381759644,2.007114887237549
12,137895,137896,-0.08189412951469421,0.045369625091552734,0.9626690745353699,32.94437026977539,32.88092041015625,-6.2466630935668945,-0.7664616703987122,1.4414279460906982,0.2924853563308716,0.6522263288497925,1.1370493173599243,1.9957525730133057
13,137905,137906,-0.011285080574452877,0.030685890465974808,0.9452409744262695,11.80361270904541,26.136064529418945,-9.228421211242676,-0.7499625086784363,1.4249287843704224,0.27898603677749634,0.4192751944065094,1.341623306274414,1.9227162599563599
14,137915,137916,-0.07067795097827911,-0.0458623468875885,1.0558363199234009,-7.262662887573242,12.748690605163574,-11.49853515625,-0.7409629225730896,1.4159291982650757,0.27298635244369507,0.2259550243616104,1.2236862182617188,1.846850872039795
15,137925,137926,-0.07666882127523422,-0.10610423982143402,1.0691940784454346,-20.96834373474121,-6.1159563064575195,-11.940256118774414,-0.7649617195129395,1.436928153038025,0.28498575091362,0.23914994299411774,1.016804814338684,1.739593505859375
16,137935,137936,-0.12793515622615814,-0.1441202610731125,0.9887752532958984,-28.168062210083008,-20.365097045898438,-11.742376327514648,-0.7499625086784363,1.4309284687042236,0.28498575091362,0.5039122104644775,0.7928470969200134,1.6187492609024048
17,137945,137946,-0.0743105486035347,-0.04777292534708977,0.9780792593955994,-32.38976287841797,-26.684789657592773,-10.189889907836914,-0.7424628734588623,1.4174290895462036,0.28048595786094666,0.8969285488128662,0.4232795834541321,1.534746766090393
18,137955,137956,-0.057398632168769836,0.06108947470784187,1.0087833404541016,-29.732954025268555,-30.470285415649414,-9.475804328918457,-0.7409629225730896,1.4249287843704224,0.29098543524742126,0.9486256837844849,0.2064272165298462,1.3913745880126953
19,137965,137966,-0.09057196974754333,0.014113668352365494,1.0743688344955444,-17.948406219482422,-25.77047348022461,-7.222446441650391,-0.7454627156257629,1.420428991317749,0.2864856719970703,1.257081151008606,-0.16201218962669373,1.3292511701583862
20,137975,137976,-0.1691540628671646,0.06852373480796814,1.028704285621643,3.0233466625213623,-15.51893424987793,-3.2212796211242676,-0.7499625086784363,1.421928882598877,0.2759861946105957,1.4967318773269653,-0.2676270604133606,1.2955772876739502
21,137985,137986,-0.20657365024089813,0.07821276783943176,0.9688518047332764,8.948138236999512,-6.2597174644470215,-2.780961275100708,-0.7214639186859131,1.4324283599853516,0.2954852283000946,1.5604549646377563,-0.26004788279533386,1.2763612270355225
22,137995,137996,-0.15241022408008575,0.016623321920633316,1.1560739278793335,3.369938850402832,5.2024030685424805,-2.6096010208129883,-0.7424628734588623,1.4384280443191528,0.2924853563308716,1.5345780849456787,-0.11788089573383331,1.2239621877670288
23,138005,138006,-0.1544748991727829,-0.011840959079563618,1.046880841255188,5.852819919586182,20.000431060791016,-0.7271009683609009,-0.7439627647399902,1.4099295139312744,0.2759861946105957,1.2771157026290894,0.10012778639793396,1.1585760116577148
24,138015,138016,-0.07496990263462067,0.03688034415245056,1.0032029151916504,3.5425503253936768,32.82197189331055,2.296804428100586,-0.737963080406189,1.4159291982650757,0.28498575091362,0.8038161396980286,-0.16655395925045013,1.2040536403656006
25,138025,138026,-0.1177314966917038,0.016642536967992783,0.9810532927513123,-7.345624923706055,27.971858978271484,2.520040988922119,-0.7469626665115356,1.4189289808273315,0.2969851493835449,0.9561805129051208,0.10911732167005539,1.2376817464828491
26,138035,138036,-0.09759722650051117,-0.06178579851984978,0.9719599485397339,-6.983134746551514,24.677352905273438,1.6444931030273438,-0.7454627156257629,1.4264286756515503,0.2744862735271454,0.5281654000282288,-0.48674651980400085,1.3247698545455933
27,138045,138046,-0.10288513451814651,-0.051080431789159775,0.9463211894035339,-11.342309951782227,26.642011642456055,2.5507450103759766,-0.737963080406189,1.421928882598877,0.27898603677749634,-0.02030646987259388,-0.412232905626297,1.2767670154571533
28,138055,138056,-0.10045251995325089,-0.025892289355397224,0.9361510276794434,-10.800783157348633,25.334016799926758,0.3552575707435608,-0.736463189125061,1.4144293069839478,0.28048595786094666,-0.016955701634287834,-0.5702354907989502,1.3316152095794678
29,138065,138066,-0.064300537109375,-0.06236915662884712,0.9353730082511902,-0.5567018985748291,19.315162658691406,-2.7016448974609375,-0.7454627156257629,1.4174290895462036,0.2594870328903198,0.15700577199459076,-0.2795047163963318,1.3207191228866577
30,138075,138076,-0.08535479009151459,-0.01255753356963396,0.9724757671356201,17.36604881286621,8.196763038635254,-5.527540683746338,-0.7439627647399902,1.4249287843704224,0.27898603677749634,0.1151147112250328,-0.11316071450710297,1.275741696357727
31,138085,138086,-0.1442285031080246,-0.015351285226643085,0.8730827569961548,29.88883399963379,1.0781350135803223,-4.989907741546631,-0.7664616703987122,1.4174290895462036,0.2744862735271454,0.015375310555100441,0.3006662428379059,1.1981106996536255
32,138095,138096,-0.10979417711496353,-0.024535950273275375,0.891783595085144,27.112560272216797,-1.1979923248291016,-4.675239086151123,-0.7424628734588623,1.4114294052124023,0.277486115694046,-0.02734960988163948,0.6134082674980164,1.1423355340957642
33,138105,138106,-0.09699808061122894,0.06777520477771759,0.8874465227127075,6.519922256469727,-4.245645046234131,-4.8870344161987305,-0.7559621930122375,1.4189289808273315,0.27898603677749634,-0.008993343450129032,0.8108064532279968,1.0927053689956665
34,138115,138116,-0.10092674195766449,0.04185633361339569,0.9796992540359497,-14.569250106811523,1.934577465057373,-6.642971515655518,-0.736463189125061,1.4144293069839478,0.277486115694046,-0.04246637225151062,0.6590354442596436,1.0341717004776
35,138125,138126,-0.0621255598962307,0.01840795949101448,0.9910069108009338,-32.94370651245117,13.830571174621582,-7.681969165802002,-0.7559621930122375,1.4159291982650757,0.28198590874671936,-0.1773325651884079,0.3972567319869995,0.9562242031097412
36,138135,138136,-0.08743936568498611,0.0031106213573366404,0.9909953474998474,-38.86897659301758,25.743555068969727,-7.994267463684082,-0.7529623508453369,1.421928882598877,0.28198590874671936,-0.37035608291625977,-0.031009430065751076,0.8832037448883057
37,138145,138146,-0.07284276187419891,0.011970343999564648,0.9749672412872314,-38.39252471923828,36.35133361816406,-5.19694185256958,-0.7424628734588623,1.4264286756515503,0.2744862735271454,-0.40347447991371155,-0.5307291746139526,0.8627352118492126
38,138155,138156,-0.07910537719726562,0.027635201811790466,0.9826139807701111,-38.501468658447266,42.022804260253906,-3.3599801063537598,-0.7544622421264648,1.420428991317749,0.26848655939102173,-0.7045834064483643,-0.7500924468040466,0.829991340637207
39,138165,138166,0.0014711630064994097,0.03080897033214569,0.907870888710022,-41.32720184326172,38.780086517333984,-3.9691171646118164,-0.7664616703987122,1.4294284582138062,0.2744862735271454,-1.2075910568237305,-1.3583691120147705,0.7737265229225159
40,138175,138176,-0.017268691211938858,-0.02604091912508011,0.9846083521842957,-36.710243225097656,32.83536148071289,-7.131962299346924,-0.7679615616798401,1.4279285669326782,0.2759861946105957,-1.6328679323196411,-1.3952784538269043,0.7097209692001343
41,138185,138186,-0.033970415592193604,-0.023944074288010597,0.9408870935440063,-22.563430786132812,17.592439651489258,-10.721006393432617,-0.7589620351791382,1.4489275217056274,0.27898603677749634,-1.9822927713394165,-1.7331427335739136,0.5960818529129028
42,138195,138196,-0.06207595765590668,0.0001190684997709468,0.9406194686889648,-7.526144504547119,7.6597723960876465,-14.056856155395508,-0.7499625086784363,1.4309284687042236,0.2669866383075714,-1.9946415424346924,-1.8923650979995728,0.4752712845802307
43,138205,138206,-0.043597836047410965,0.008111622184515,0.961005449295044,5.921191692352295,-0.0072067659348249435,-18.766826629638672,-0.7634618282318115,1.4234287738800049,0.2654867172241211,-2.0647382736206055,-1.694917917251587,0.3263745903968811
44,138215,138216,0.03514593839645386,-0.050170160830020905,0.9170914888381958,19.438371658325195,1.1285055875778198,-22.24795913696289,-0.7694615125656128,1.4384280443191528,0.27148643136024475,-2.115546941757202,-1.510710597038269,0.12354278564453125
45,138225,138226,-0.04260626435279846,-0.019120218232274055,0.9452667236328125,37.51435852050781,6.064663887023926,-24.15436363220215,-0.7694615125656128,1.4384280443191528,0.27148643136024475,-2.1445553302764893,-1.19823157787323,-0.10673174262046814
46,138235,138236,-0.057531461119651794,-0.038414373993873596,0.913892388343811,48.50444793701172,10.891619682312012,-24.21428108215332,-0.7694615125656128,1.4384280443191528,0.27148643136024475,-2.2532923221588135,-0.5186905860900879,-0.30304282903671265
47,138245,138246,-0.051322873681783676,0.06254655122756958,0.9664958119392395,53.85026550292969,14.282557487487793,-23.839265823364258,-0.7694615125656128,1.4384280443191528,0.27148643136024475,-2.419239044189453,-0.21450141072273254,-0.5896603465080261
48,138255,138256,-0.005886501632630825,0.06356430798768997,0.940976619720459,51.50953674316406,20.15041732788086,-23.275815963745117,-0.7709614634513855,1.436928153038025,0.27898603677749634,-2.792297840118408,0.5171043872833252,-0.7728698253631592
49,138265,138266,-0.04318687692284584,0.01754680462181568,0.8804977536201477,41.862403869628906,24.13865089416504,-20.517858505249023,-0.7754611968994141,1.420428991317749,0.25348731875419617,-3.0875189304351807,0.8406859636306763,-1.0255852937698364
50,138275,138276,-0.06973141431808472,0.06245805695652962,1.000162124633789,23.030990600585938,23.258060455322266,-16.492259979248047,-0.7844607830047607,1.4144293069839478,0.2594870328903198,-3.06261944770813,0.9790617823600769,-1.2569645643234253
51,138285,138286,-0.037598662078380585,-0.131083682179451,0.8908681273460388,3.866395950317383,16.401884078979492,-10.238174438476562,-0.7619618773460388,1.4279285669326782,0.27298635244369507,-3.315394163131714,1.0950735807418823,-1.3884690999984741
52,138295,138296,-0.021996360272169113,-0.23088957369327545,0.7994981408119202,-10.960884094238281,9.366193771362305,-4.97426176071167,-0.7664616703987122,1.4174290895462036,0.27148643136024475,-3.520111322402954,1.1481907367706299,-1.4231621026992798
53,138305,138306,0.02513440139591694,-0.09037292748689651,0.7934184670448303,-19.387537002563477,1.3598849773406982,-1.9457789659500122,-0.7604619860649109,1.4024298191070557,0.26248687505722046,-3.58699369430542,0.832604169845581,-1.5121650695800781
54,138315,138316,0.04312479496002197,0.08705178648233414,0.8269532918930054,-17.170896530151367,-10.00754451751709,-0.3860742151737213,-0.7769611477851868,1.4129292964935303,0.2759861946105957,-3.472902297973633,0.6362048983573914,-1.5175888538360596
55,138325,138326,0.031864915043115616,0.11187207698822021,0.8561019897460938,-10.675450325012207,-23.896886825561523,-0.27082809805870056,-0.7619618773460388,1.3949302434921265,0.27298635244369507,-3.287088394165039,0.5276462435722351,-1.5098485946655273
56,138335,138336,-0.06707495450973511,-0.007163064554333687,0.8614639639854431,-0.6584717035293579,-33.58199691772461,1.3145958185195923,-0.7649617195129395,1.3979300260543823,0.2669866383075714,-2.979710102081299,0.6346600651741028,-1.4383984804153442
57,138345,138346,-0.06357017159461975,-0.12669596076011658,0.8443230986595154,2.3093583583831787,-29.390840530395508,4.430065631866455,-0.7679615616798401,1.4159291982650757,0.2639867961406708,-2.66910457611084,0.8292795419692993,-1.3361985683441162
58,138355,138356,-0.037418026477098465,-0.06596305966377258,0.8603994846343994,-4.482880592346191,-20.325115203857422,8.040336608886719,-0.7709614634513855,1.4129292964935303,0.28198590874671936,-2.6167385578155518,1.0045671463012695,-1.2077960968017578
59,138365,138366,-0.026304567232728004,-0.04188714921474457,0.8692565560340881,-11.569069862365723,-11.808181762695312,10.298967361450195,-0.7664616703987122,1.4144293069839478,0.2654867172241211,-2.355668067932129,0.7844855189323425,-1.1655445098876953
60,138375,138376,-0.034144409000873566,0.010720079764723778,0.8970682621002197,-20.196687698364258,-2.703859806060791,12.41586971282959,-0.7679615616798401,1.4279285669326782,0.26998651027679443,-2.4400546550750732,0.6419900059700012,-1.06525719165802
61,138385,138386,-0.004511987790465355,-0.012554301880300045,0.8898467421531677,-22.215837478637695,-0.21089902520179749,13.281950950622559,-0.7649617195129395,1.4309284687042236,0.28498575091362,-2.5920724868774414,0.6964207291603088,-0.8295789361000061
62,138395,138396,-0.008951680734753609,0.03353871405124664,0.9114364385604858,-18.43684959411621,-1.1662956476211548,14.09862995147705,-0.7694615125656128,1.444427728652954,0.26848655939102173,-2.646348714828491,0.431352823972702,-0.7337267994880676
63,138405,138406,-0.0984751433134079,0.06017438694834709,0.912138044834137,-16.39236068725586,-2.8293347358703613,15.484643936157227,-0.7769611477851868,1.4399279356002808,0.2669866383075714,-2.5398108959198,0.3550582826137543,-0.5289594531059265
64,138415,138416,-0.05897156149148941,-0.009194957092404366,0.8851325511932373,-16.23097801208496,-7.222496032714844,15.063124656677246,-0.7844607830047607,1.4384280443191528,0.2834858298301697,-2.6594884395599365,0.2188880890607834,-0.39640241861343384
65,138425,138426,-0.03516816347837448,-0.03187606483697891,0.8836140036582947,-19.990970611572266,-16.62538719177246,15.949395179748535,-0.7694615125656128,1.459426999092102,0.26848655939102173,-2.5524203777313232,0.2487962394952774,-0.15092699229717255
66,138435,138436,-0.022606730461120605,0.029506927356123924,0.8645171523094177,-27.413745880126953,-22.530601501464844,16.350717544555664,-0.7769611477851868,1.4429278373718262,0.26998651027679443,-2.4813661575317383,-0.05208536982536316,-0.03944220766425133
67,138445,138446,-0.021086882799863815,-0.006777445785701275,0.8965669870376587,-35.92857360839844,-24.98539924621582,16.407930374145508,-0.7694615125656128,1.4504274129867554,0.28048595786094666,-1.9961605072021484,-0.35415351390838623,0.17557042837142944
68,138455,138456,-0.04662484675645828,-0.008156247437000275,0.9214352369308472,-42.73273468017578,-24.37244415283203,15.17679214477539,-0.7634618282318115,1.4534273147583008,0.2654867172241211,-1.938923716545105,-0.8374848365783691,0.2650696635246277
69,138465,138466,-0.03346007689833641,-0.007742454297840595,0.9218719601631165,-45.0002326965332,-24.46111488342285,14.345405578613281,-0.7589620351791382,1.46092689037323,0.27298635244369507,-1.790748119354248,-1.1765689849853516,0.448010116815567
70,138475,138476,-0.025051871314644814,-0.06630152463912964,0.8956720232963562,-42.309104919433594,-25.238929748535156,13.572203636169434,-0.7634618282318115,1.4654266834259033,0.2654867172241211,-1.4810620546340942,-1.3499101400375366,0.7131261825561523
71,138485,138486,-0.018376052379608154,-0.03039606101810932,0.9038828015327454,-40.06261444091797,-30.67316436767578,10.908974647521973,-0.7559621930122375,1.4669265747070312,0.29098543524742126,-1.1255394220352173,-1.935158371925354,0.7836238741874695
72,138495,138496,-0.04028918594121933,0.010095003060996532,0.933812141418457,-37.27428436279297,-38.96186828613281,8.27970027923584,-0.7649617195129395,1.4669265747070312,0.28498575091362,-0.9302133321762085,-1.9594919681549072,1.013368844985962
73,138505,138506,-0.06694135814905167,0.006386259105056524,0.9584817886352539,-33.87903594970703,-45.8276252746582,5.738914489746094,-0.7589620351791382,1.4639267921447754,0.2759861946105957,-0.46026375889778137,-2.6155402660369873,0.9934309124946594
74,138515,138516,0.03763660788536072,0.06368761509656906,0.8769304752349854,-29.302976608276367,-52.91216278076172,4.128588676452637,-0.7484625577926636,1.489425539970398,0.2864856719970703,0.2594740092754364,-2.7371020317077637,1.146321415901184
75,138525,138526,-0.045377448201179504,0.019304528832435608,0.9442129135131836,-23.186553955078125,-53.014591217041016,2.671617031097412,-0.7634618282318115,1.4654266834259033,0.2834858298301697,0.5932578444480896,-3.197659492492676,1.1376248598098755
76,138535,138536,-0.03648393228650093,-0.04415877163410187,1.003443717956543,-19.681867599487305,-45.87248611450195,0.9375727772712708,-0.7589620351791382,1.4939253330230713,0.28498575091362,0.9904994368553162,-3.2987403869628906,1.215985655784607
77,138545,138546,-0.024430759251117706,-0.04258345812559128,0.9840604662895203,-8.01119327545166,-36.635841369628906,-0.953032374382019,-0.7589620351791382,1.4909254312515259,0.28498575091362,1.4529321193695068,-3.512606620788574,1.2120141983032227
78,138555,138556,-0.05600586533546448,0.03695696219801903,1.0585049390792847,5.4580559730529785,-24.423625946044922,-3.4064571857452393,-0.7484625577926636,1.5014249086380005,0.29848507046699524,1.3862125873565674,-3.379000663757324,1.2576463222503662
79,138565,138566,-0.013749273493885994,0.05510040745139122,0.8595139980316162,14.759207725524902,-11.764400482177734,-4.588975429534912,-0.7559621930122375,1.4999250173568726,0.28798559308052063,1.6260308027267456,-2.9926297664642334,1.2614710330963135
80,138575,138576,-0.030178425833582878,0.015958692878484726,1.0299650430679321,14.048690795898438,-6.232685089111328,-5.855595588684082,-0.7544622421264648,1.5164241790771484,0.3044847846031189,1.6636220216751099,-2.893873691558838,1.2106597423553467
81,138585,138586,-0.032265808433294296,0.08295317739248276,0.9910876750946045,19.929031372070312,-4.738794803619385,-4.250792980194092,-0.7529623508453369,1.511924386024475,0.3059847056865692,1.81303071975708,-2.78413724899292,1.1429786682128906
82,138595,138596,-0.07851802557706833,0.009510481730103493,1.078618049621582,20.550174713134766,-5.031461715698242,-1.0307438373565674,-0.7604619860649109,1.513424277305603,0.2834858298301697,1.5819250345230103,-2.558889627456665,1.1721194982528687
83,138605,138606,-0.06440046429634094,-0.051248952746391296,1.0715858936309814,11.196757316589355,-4.10426664352417,3.7001898288726807,-0.7544622421264648,1.5164241790771484,0.30748462677001953,1.5173780918121338,-2.374457836151123,1.2175657749176025
84,138615,138616,-0.016018250957131386,0.007849510759115219,1.0847129821777344,-1.2602858543395996,-4.805840015411377,8.851798057556152,-0.7499625086784363,1.5239237546920776,0.3029848337173462,1.6690199375152588,-2.459954023361206,1.2691289186477661
85,138625,138626,-0.051131293177604675,0.01785961724817753,1.094049096107483,-14.880328178405762,-13.433636665344238,13.791287422180176,-0.7559621930122375,1.5239237546920776,0.3119843900203705,1.7037098407745361,-2.5513968467712402,1.4025368690490723
86,138635,138636,-0.08844009041786194,0.010254845954477787,1.0858644247055054,-33.0439453125,-26.970951080322266,17.818931579589844,-0.7559621930122375,1.5179240703582764,0.29098543524742126,2.225142478942871,-3.118340253829956,1.5358275175094604
87,138645,138646,-0.05416505038738251,-0.021607954055070877,1.0779531002044678,-47.78040313720703,-40.788089752197266,19.079376220703125,-0.7634618282318115,1.5074245929718018,0.3014849126338959,2.440011978149414,-3.4252939224243164,1.755539059638977
88,138655,138656,-0.021300481632351875,0.0025599137879908085,1.0597822666168213,-53.186798095703125,-48.220726013183594,18.09699058532715,-0.7409629225730896,1.5089244842529297,0.2939853072166443,2.951212167739868,-4.137277603149414,1.9878849983215332
89,138665,138666,0.0045071858912706375,-0.14849460124969482,1.141260027885437,-47.3297233581543,-43.45405960083008,18.289365768432617,-0.736463189125061,1.504424810409546,0.2954852283000946,3.2391481399536133,-4.486173152923584,2.2084968090057373
90,138675,138676,-0.05055614560842514,-0.015244177542626858,1.0970487594604492,-29.451719284057617,-28.609758377075195,18.13370704650879,-0.730463445186615,1.498425006866455,0.2954852283000946,3.5268821716308594,-4.699888229370117,2.394958734512329
91,138685,138686,-0.036650750786066055,0.0495201051235199,1.0973169803619385,-4.1599602699279785,-8.379682540893555,17.105375289916992,-0.737963080406189,1.5029247999191284,0.29998499155044556,3.575117349624634,-4.896717071533203,2.630763053894043
92,138695,138696,0.007606398779898882,-0.1467687338590622,1.1518471240997314,18.220727920532227,10.873525619506836,13.527616500854492,-0.7334632873535156,1.5074245929718018,0.3014849126338959,3.5856173038482666,-4.831912040710449,2.7649316787719727
93,138705,138706,0.015016891993582249,-0.04890311881899834,1.0766714811325073,38.16712951660156,22.36605453491211,10.372405052185059,-0.7439627647399902,1.5059247016906738,0.29998499155044556,3.221229314804077,-4.342306613922119,2.866374969482422
94,138715,138716,-0.0035765222273766994,-0.1578773856163025,1.2286007404327393,43.61125946044922,24.863298416137695,6.798327445983887,-0.7424628734588623,1.498425006866455,0.3014849126338959,3.091949462890625,-4.023183822631836,2.918889045715332
95,138725,138726,-0.030115902423858643,-0.05622900649905205,1.0814679861068726,45.240779876708984,21.370115280151367,5.155614852905273,-0.7349632382392883,1.5029247999191284,0.2969851493835449,2.8210055828094482,-3.4793426990509033,2.9370510578155518
96,138735,138736,-0.06000490486621857,-0.03373369574546814,1.013565182685852,38.71072769165039,10.074151039123535,4.311269760131836,-0.7439627647399902,1.4939253330230713,0.3059847056865692,2.5719099044799805,-3.283635377883911,3.1161630153656006
97,138745,138746,-0.02545916847884655,0.014215102419257164,1.0386111736297607,26.717737197875977,-3.272805690765381,4.978787422180176,-0.7349632382392883,1.4939253330230713,0.2939853072166443,2.678255796432495,-2.967435121536255,3.10491943359375
98,138755,138756,-0.04710870981216431,-0.03460729867219925,1.0219390392303467,17.654142379760742,-11.147064208984375,6.291400909423828,-0.722963809967041,1.4669265747070312,0.2969851493835449,2.719036340713501,-2.8004391193389893,3.206387996673584
99,138765,138766,-0.0018447773763909936,-0.047949280589818954,0.9903606176376343,11.311357498168945,-13.93334674835205,8.9871244430542,-0.7289635539054871,1.4699264764785767,0.2969851493835449,2.6127798557281494,-2.7590346336364746,3.4394049644470215
100,138775,138776,-0.02334589511156082,0.04909166321158409,0.9235740900039673,5.886146545410156,-12.57407283782959,13.115942001342773,-0.736463189125061,1.4624269008636475,0.2954852283000946,2.9404993057250977,-2.7131190299987793,3.4910037517547607
101,138785,138786,-0.025667928159236908,0.030194224789738655,1.0037884712219238,1.9138051271438599,-7.761364459991455,16.934288024902344,-0.7409629225730896,1.472926378250122,0.3029848337173462,3.0445728302001953,-2.6707193851470947,3.6352856159210205
102,138795,138796,-0.01381019875407219,-0.012673472985625267,1.002774953842163,-3.172924280166626,-2.0653204917907715,19.695100784301758,-0.730463445186615,1.4624269008636475,0.3014849126338959,3.186452865600586,-2.638890504837036,3.756227731704712
103,138805,138806,-0.03222271054983139,0.021265914663672447,0.9946295022964478,-13.109631538391113,-2.1084482669830322,18.870220184326172,-0.722963809967041,1.472926378250122,0.3029848337173462,2.725604295730591,-2.8813929557800293,4.222963809967041
104,138815,138816,-0.03948907554149628,-0.0005180560983717442,0.9723479747772217,-22.646902084350586,-5.962199687957764,15.47566032409668,-0.7214639186859131,1.4654266834259033,0.2924853563308716,2.7666609287261963,-3.2108757495880127,4.461471080780029
105,138825,138826,-0.01190116349607706,0.041315946727991104,0.9878139495849609,-27.538606643676758,-13.308673858642578,11.248520851135254,-0.722963809967041,1.4909254312515259,0.28498575091362,2.7705018520355225,-3.412832260131836,4.604043006896973
106,138835,138836,-0.030710307881236076,0.008275117725133896,0.9814833402633667,-23.041200637817383,-21.99264144897461,8.11745548248291,-0.7139642834663391,1.4669265747070312,0.2939853072166443,3.1238622665405273,-3.659503221511841,4.633782386779785
107,138845,138846,-0.0018405108712613583,-0.010792611166834831,0.9741987586021423,-10.851546287536621,-26.465171813964844,5.594149589538574,-0.7259637117385864,1.472926378250122,0.2939853072166443,3.4105682373046875,-3.7398946285247803,4.649352073669434
108,138855,138856,0.002374915173277259,-0.030298642814159393,0.9707629680633545,10.10073184967041,-22.209562301635742,2.5605826377868652,-0.7169641256332397,1.472926378250122,0.2969851493835449,3.4616661071777344,-3.888782024383545,4.854292869567871
109,138865,138866,-0.033796243369579315,0.028516972437500954,1.0293920040130615,30.261554718017578,-11.00411605834961,-1.531328558921814,-0.7169641256332397,1.46092689037323,0.2939853072166443,3.8004822731018066,-3.5332369804382324,4.723179817199707
110,138875,138876,-0.043579887598752975,0.042452502995729446,1.062423825263977,52.844425201416016,0.09781385213136673,-5.391901016235352,-0.7094644904136658,1.4834258556365967,0.29848507046699524,3.5989105701446533,-3.242953300476074,4.868026256561279
111,138885,138886,-0.026525607332587242,0.0002506535383872688,1.0223885774612427,62.197322845458984,14.822303771972656,-9.329584121704102,-0.7199639678001404,1.4819258451461792,0.2939853072166443,3.5447542667388916,-2.4959752559661865,4.704645156860352
112,138895,138896,-0.008249777369201183,-0.004334461409598589,0.995794951915741,62.2100830078125,24.387516021728516,-11.349205017089844,-0.7169641256332397,1.4789260625839233,0.3059847056865692,3.2777130603790283,-2.124419689178467,4.762035846710205
113,138905,138906,-0.02012426219880581,-0.044150594621896744,0.9776232242584229,54.17095947265625,25.71820068359375,-14.794897079467773,-0.7349632382392883,1.4669265747070312,0.30898454785346985,3.0296900272369385,-1.3286199569702148,4.513638973236084
114,138915,138916,-0.05570317059755325,-0.07414674013853073,0.9966942667961121,43.04425811767578,26.02535629272461,-16.441692352294922,-0.7469626665115356,1.46092689037323,0.2939853072166443,2.8254544734954834,-0.9948497414588928,4.411847114562988
115,138925,138926,-0.03964141011238098,-0.04775421321392059,1.0504146814346313,32.08746337890625,18.864784240722656,-15.035735130310059,-0.7349632382392883,1.4579271078109741,0.29998499155044556,2.5599730014801025,-0.43527206778526306,4.156290054321289
116,138935,138936,-0.09105201810598373,0.05443993955850601,1.018593668937683,31.335874557495117,10.588400840759277,-12.644144058227539,-0.7319633960723877,1.4549272060394287,0.28198590874671936,2.4290623664855957,-0.1462564617395401,4.0354084968566895
117,138945,138946,-0.06838997453451157,0.09705778956413269,1.0475637912750244,30.845699310302734,3.477492094039917,-11.171662330627441,-0.7349632382392883,1.4489275217056274,0.2969851493835449,2.3385415077209473,-0.0070030163042247295,4.016046524047852
118,138955,138956,-0.02089492417871952,-0.010232429951429367,1.012166976928711,25.7667293548584,-5.424956798553467,-9.173188209533691,-0.7139642834663391,1.46092689037323,0.29098543524742126,2.3791496753692627,0.3784816861152649,3.8550350666046143
119,138965,138966,-0.018482645973563194,0.004888969473540783,1.0345686674118042,22.17319107055664,-16.259946823120117,-4.989041805267334,-0.730463445186615,1.4534273147583008,0.2954852283000946,2.433279037475586,0.5453239679336548,3.8345725536346436
120,138975,138976,-0.10266008973121643,0.04114840552210808,1.0630072355270386,16.18132209777832,-29.266157150268555,-0.5112612843513489,-0.7274636030197144,1.444427728652954,0.28948551416397095,2.9098851680755615,0.696573793888092,3.7869315147399902
121,138985,138986,-0.04461482912302017,-0.037020981311798096,1.0685937404632568,13.746149063110352,-35.95358657836914,3.890424966812134,-0.7259637117385864,1.4519274234771729,0.28798559308052063,3.1031458377838135,0.9282820224761963,3.7728610038757324
122,138995,138996,-0.05070805177092552,-0.10978897660970688,1.1355754137039185,12.400906562805176,-33.11088180541992,8.894631385803223,-0.7274636030197144,1.4474276304244995,0.2954852283000946,3.566397190093994,0.9823208451271057,3.8571584224700928
123,139005,139006,-0.067622110247612,-0.06355385482311249,1.0702481269836426,11.786065101623535,-24.814720153808594,15.080007553100586,-0.7169641256332397,1.4429278373718262,0.2969851493835449,3.9303817749023438,1.0989620685577393,3.9734251499176025
124,139015,139016,-0.05980552360415459,-0.016022806987166405,1.062091588973999,2.088153600692749,-8.599504470825195,19.93438720703125,-0.7124643921852112,1.444427728652954,0.2864856719970703,4.043558120727539,1.1099741458892822,4.176592826843262
125,139025,139026,-0.021664166823029518,0.01222249399870634,1.056422472000122,-18.502601623535156,9.377705574035645,21.868850708007812,-0.7049647569656372,1.445927619934082,0.29998499155044556,3.7501070499420166,0.9744489192962646,4.400178909301758
126,139035,139036,-0.039438169449567795,0.05007276311516762,0.8948842883110046,-42.68031692504883,24.32327651977539,21.863065719604492,-0.7124643921852112,1.444427728652954,0.2954852283000946,3.480232000350952,0.48362940549850464,4.712745666503906
127,139045,139046,-0.0767546072602272,0.013373284600675106,0.9851290583610535,-60.19207763671875,29.274555206298828,19.686813354492188,-0.7154642343521118,1.4414279460906982,0.31048446893692017,3.1442158222198486,-0.020350323989987373,4.883867263793945
128,139055,139056,-0.05253501981496811,0.039263028651475906,0.8583215475082397,-54.61738204956055,33.00746536254883,17.546743392944336,-0.7199639678001404,1.4579271078109741,0.2969851493835449,2.8130383491516113,-0.5333870053291321,5.0285563468933105
129,139065,139066,-0.08706469088792801,0.04086741805076599,0.9819972515106201,-31.834897994995117,37.19478225708008,13.470561981201172,-0.7124643921852112,1.459426999092102,0.29848507046699524,2.3526298999786377,-1.1144993305206299,5.2351508140563965
130,139075,139076,0.011522127315402031,0.10206177830696106,0.8518515825271606,-1.698218822479248,41.43743133544922,8.067776679992676,-0.7124643921852112,1.459426999092102,0.28948551416397095,1.8878165483474731,-1.0712817907333374,5.235808849334717
131,139085,139086,-0.02047657035291195,-0.15699975192546844,1.0688611268997192,23.24564552307129,38.789764404296875,2.9271652698516846,-0.730463445186615,1.4564270973205566,0.29848507046699524,1.584019660949707,-0.8471177220344543,5.236199378967285
132,139095,139096,-0.04996628314256668,-0.05796755477786064,1.0331594944000244,44.0029182434082,30.582576751708984,-1.82865309715271,-0.7169641256332397,1.4549272060394287,0.3029848337173462,1.1471623182296753,-0.2902636229991913,5.138670921325684
133,139105,139106,-0.057558588683605194,0.033741991966962814,1.005861520767212,49.348114013671875,18.2833251953125,-6.125041484832764,-0.7469626665115356,1.4639267921447754,0.3029848337173462,0.8440211415290833,0.31626564264297485,5.029303550720215
134,139115,139116,-0.027157094329595566,-0.004317313898354769,1.0056496858596802,51.37395095825195,12.597576141357422,-10.46815013885498,-0.730463445186615,1.4564270973205566,0.29848507046699524,0.8079918622970581,0.6345747709274292,5.035703182220459
135,139125,139126,-0.010180204175412655,-0.11563383787870407,1.038118839263916,37.32273483276367,-0.5112941265106201,-17.44614601135254,-0.737963080406189,1.4489275217056274,0.29098543524742126,0.9157669544219971,1.019782304763794,4.941368103027344
136,139135,139136,-0.005104832351207733,-0.06695394963026047,0.9609553217887878,13.782842636108398,-21.220489501953125,-23.012134552001953,-0.7349632382392883,1.436928153038025,0.28498575091362,1.1216157674789429,1.3539572954177856,4.714873790740967
137,139145,139146,-0.025076624006032944,0.027335258200764656,0.8989467620849609,-4.671703338623047,-33.194374084472656,-25.7509765625,-0.7289635539054871,1.4489275217056274,0.2669866383075714,1.348949909210205,1.359493374824524,4.463840007781982
138,139155,139156,-0.058810628950595856,0.08305376768112183,1.0487697124481201,-19.91693878173828,-32.68655014038086,-26.187829971313477,-0.7199639678001404,1.4429278373718262,0.30898454785346985,1.771962285041809,1.1525169610977173,4.230350971221924
139,139165,139166,-0.026166807860136032,-0.04607575386762619,1.0079282522201538,-19.88818359375,-24.485933303833008,-25.71947479248047,-0.7319633960723877,1.4429278373718262,0.28798559308052063,2.0948235988616943,0.9379227161407471,3.976287841796875
140,139175,139176,-0.003613329492509365,-0.0033822814002633095,0.9809472560882568,-11.651470184326172,-4.1109771728515625,-25.541217803955078,-0.722963809967041,1.4309284687042236,0.28798559308052063,2.203094482421875,0.9056189060211182,3.68186354637146
141,139185,139186,-0.05393104627728462,0.0028933980502188206,0.96712726354599,-1.2353912591934204,20.32387351989746,-25.11513900756836,-0.7274636030197144,1.4534273147583008,0.28948551416397095,1.9251277446746826,0.9583290815353394,3.358732223510742
142,139195,139196,-0.05023523420095444,0.08747994154691696,0.9385169744491577,8.434017181396484,41.803340911865234,-26.36349868774414,-0.7469626665115356,1.4519274234771729,0.29098543524742126,1.4552241563796997,1.0299451351165771,3.0626027584075928
143,139205,139206,-0.03755969554185867,0.1003907099366188,0.9903059601783752,11.343210220336914,61.060672760009766,-29.333799362182617,-0.737963080406189,1.4699264764785767,0.2969851493835449,0.8466176986694336,1.16495943069458,2.7652924060821533
144,139215,139216,-0.014340532012283802,0.027802739292383194,1.0127055644989014,11.452787399291992,70.82201385498047,-33.8153076171875,-0.7529623508453369,1.472926378250122,0.2939853072166443,0.16900599002838135,1.315485954284668,2.453986883163452
145,139225,139226,-0.006261130329221487,-0.02319832146167755,0.9957191944122314,3.7515766620635986,68.09501647949219,-35.08785629272461,-0.7529623508453369,1.4699264764785767,0.2969851493835449,-0.7927860617637634,1.4284650087356567,2.035031318664551
146,139235,139236,0.012196416035294533,0.020965317264199257,0.9822015166282654,-6.578772068023682,53.723304748535156,-33.36438751220703,-0.7634618282318115,1.4684265851974487,0.2954852283000946,-1.4029368162155151,1.3786836862564087,1.7087515592575073
147,139245,139246,-0.009800570085644722,-0.011420163325965405,0.9895925521850586,-17.455053329467773,32.6362419128418,-30.750686645507812,-0.7499625086784363,1.4699264764785767,0.2969851493835449,-1.9080464839935303,1.1468201875686646,1.3787367343902588
148,139255,139256,-0.022618306800723076,-0.003746550064533949,1.0218595266342163,-23.71885108947754,6.740531921386719,-28.722618103027344,-0.7574620842933655,1.4534273147583008,0.3044847846031189,-1.9252524375915527,0.8602591753005981,1.1407356262207031
149,139265,139266,-0.01994570717215538,0.014744226820766926,1.027295470237732,-20.3812198638916,-18.056941986083984,-24.702594757080078,-0.7424628734588623,1.4624269008636475,0.2924853563308716,-1.955405354499817,0.5316159129142761,0.8310182094573975
150,139275,139276,-0.02119649201631546,0.02758639119565487,1.024177074432373,-14.1377534866333,-34.188961029052734,-19.358829498291016,-0.7439627647399902,1.4669265747070312,0.2939853072166443,-1.3913822174072266,0.4454004168510437,0.7159015536308289
151,139285,139286,-0.08697915822267532,0.11240982264280319,1.0439891815185547,-4.880565166473389,-43.90281295776367,-14.177504539489746,-0.7469626665115356,1.4579271078109741,0.2939853072166443,-0.8762088418006897,0.26926547288894653,0.5776112675666809
152,139295,139296,-0.08301089704036713,0.1446032077074051,1.0383044481277466,2.272242307662964,-39.04520034790039,-9.475249290466309,-0.7514623999595642,1.4774260520935059,0.2924853563308716,-0.6585828065872192,0.3731302320957184,0.40402692556381226
153,139305,139306,-0.028203167021274567,0.002684600418433547,1.0092201232910156,6.100106239318848,-28.660017013549805,-5.7664947509765625,-0.7409629225730896,1.4579271078109741,0.28498575091362,-0.10333002358675003,0.48191502690315247,0.41718724370002747
154,139315,139316,-0.0030662850476801395,-0.014340012334287167,1.0311155319213867,8.632458686828613,-16.132579803466797,-4.013757705688477,-0.7409629225730896,1.46092689037323,0.29098543524742126,0.24412722885608673,0.7025738954544067,0.43975013494491577
155,139325,139326,-0.03472729027271271,0.020702745765447617,1.0570260286331177,11.13076114654541,-4.393056869506836,-3.7435619831085205,-0.7439627647399902,1.4669265747070312,0.29098543524742126,0.30929723381996155,0.7376714944839478,0.38228198885917664
156,139335,139336,-0.08448797464370728,-0.05744140222668648,1.047183632850647,10.1378755569458,3.7568867206573486,-4.589724063873291,-0.7559621930122375,1.472926378250122,0.2969851493835449,0.3074764907360077,0.9217668771743774,0.3530265986919403
157,139345,139346,-0.05600230023264885,-0.021140750497579575,1.030056357383728,5.774057388305664,8.267417907714844,-5.103237152099609,-0.7454627156257629,1.4654266834259033,0.2834858298301697,0.2763384282588959,1.039257526397705,0.32766610383987427
158,139355,139356,-0.01930312253534794,-0.016191909089684486,1.0090117454528809,-0.32655274868011475,5.597002029418945,-5.984169960021973,-0.7454627156257629,1.4534273147583008,0.2954852283000946,0.12089690566062927,0.9972456693649292,0.23322293162345886
159,139365,139366,-0.04297006130218506,0.04344450309872627,1.076338291168213,-8.150080680847168,1.6388299465179443,-7.104893207550049,-0.7469626665115356,1.4549272060394287,0.28798559308052063,0.10593602806329727,0.9715831279754639,0.17603597044944763
160,139375,139376,-0.037542954087257385,0.016027824953198433,1.0619428157806396,-13.864713668823242,-2.82537841796875,-8.481115341186523,-0.7454627156257629,1.4504274129867554,0.2864856719970703,0.08640779554843903,0.7022929787635803,0.05879204347729683
161,139385,139386,-0.0008029789314605296,-0.008585844188928604,0.9907427430152893,-21.24371910095215,-8.498279571533203,-9.143394470214844,-0.7349632382392883,1.4429278373718262,0.28498575091362,-0.32363659143447876,0.61528080701828,-0.16345153748989105
162,139395,139396,0.0037271715700626373,-0.031045446172356606,0.9506098628044128,-28.215023040771484,-14.114102363586426,-8.863191604614258,-0.7349632382392883,1.4339282512664795,0.2939853072166443,-0.06096842512488365,0.262017160654068,-0.23069141805171967
163,139405,139406,-0.008046908304095268,0.02183919958770275,0.9941229820251465,-26.984983444213867,-20.468172073364258,-8.448613166809082,-0.7319633960723877,1.4519274234771729,0.28198590874671936,0.0875246524810791,0.10213900357484818,-0.3007499575614929
164,139415,139416,-0.031028738245368004,0.07097071409225464,0.9773290753364563,-24.388511657714844,-28.21426773071289,-8.518743515014648,-0.7349632382392883,1.4549272060394287,0.2969851493835449,0.22268418967723846,-0.2350979745388031,-0.438029944896698
165,139425,139426,-0.012246373109519482,0.10397528856992722,1.0029574632644653,-19.664167404174805,-28.89568519592285,-8.516260147094727,-0.7259637117385864,1.4519274234771729,0.27898603677749634,0.7491549849510193,-0.5121412873268127,-0.46233659982681274
166,139435,139436,-0.018381929025053978,0.0456063486635685,1.0034031867980957,-8.023056983947754,-27.700366973876953,-8.001842498779297,-0.7274636030197144,1.444427728652954,0.277486115694046,0.6402530670166016,-0.6910470128059387,-0.6606371998786926
167,139445,139446,-0.03270599618554115,-0.016571110114455223,0.9643458127975464,4.852278709411621,-20.480602264404297,-6.425654888153076,-0.7274636030197144,1.4564270973205566,0.2864856719970703,1.0257560014724731,-0.6550424098968506,-0.6873193979263306
168,139455,139456,-0.006541939917951822,0.014085101895034313,0.9863952398300171,16.19292449951172,-9.173807144165039,-5.3898444175720215,-0.736463189125061,1.444427728652954,0.2864856719970703,1.0867290496826172,-0.4408057928085327,-0.7422570586204529
169,139465,139466,0.024751832708716393,0.04189668968319893,0.9437881112098694,23.1467342376709,4.653072357177734,-5.371695518493652,-0.737963080406189,1.4549272060394287,0.28198590874671936,1.1520363092422485,-0.15932047367095947,-0.7701952457427979
170,139475,139476,-0.0035393661819398403,0.034609105437994,0.9690807461738586,20.363506317138672,13.516766548156738,-6.0142717361450195,-0.7289635539054871,1.4549272060394287,0.28498575091362,0.7660605907440186,-0.08653279393911362,-0.9105705618858337
171,139485,139486,-0.007655007764697075,-0.00024087517522275448,0.9549511075019836,18.014541625976562,16.516708374023438,-5.383963108062744,-0.7289635539054871,1.46092689037323,0.2939853072166443,0.7318049073219299,0.0899817943572998,-0.9487519860267639
172,139495,139496,0.024593330919742584,-0.027777809649705887,0.9307844638824463,14.730005264282227,13.682408332824707,-4.5406293869018555,-0.7454627156257629,1.4294284582138062,0.2864856719970703,0.5647879838943481,0.35884982347488403,-0.9815904498100281
173,139505,139506,0.017024170607328415,-0.04537414759397507,0.9285205602645874,9.427350997924805,4.956190586090088,-4.320603847503662,-0.7394630312919617,1.444427728652954,0.2924853563308716,0.5735287070274353,0.4733661413192749,-1.008080244064331
174,139515,139516,0.0032549581956118345,-0.053351595997810364,0.9353635311126709,3.5898237228393555,-4.914364337921143,-4.6223063468933105,-0.7409629225730896,1.4339282512664795,0.28198590874671936,0.595758855342865,0.35939455032348633,-1.0747286081314087
175,139525,139526,-0.012316375970840454,-0.007160954177379608,0.9627209901809692,1.6470154523849487,-12.4435396194458,-5.1588616371154785,-0.722963809967041,1.4519274234771729,0.28198590874671936,0.5455927848815918,0.27127331495285034,-1.1630127429962158
176,139535,139536,-0.014118094928562641,-0.006095358170568943,0.9644540548324585,2.478806734085083,-17.15806007385254,-5.348504543304443,-0.7319633960723877,1.4519274234771729,0.2969851493835449,0.7315478920936584,0.20619195699691772,-1.2243775129318237
177,139545,139546,-0.015223152935504913,-0.0025874099228531122,0.9807803630828857,8.439111709594727,-22.570741653442383,-5.50056791305542,-0.7394630312919617,1.4504274129867554,0.2864856719970703,0.9980804324150085,0.26186156272888184,-1.2675784826278687
178,139555,139556,-0.023526063188910484,0.013124758377671242,1.004075050354004,15.93813419342041,-24.437274932861328,-4.653184413909912,-0.722963809967041,1.4549272060394287,0.28498575091362,1.3073937892913818,0.5114129185676575,-1.2950491905212402
179,139565,139566,-0.027664264664053917,0.009113642387092113,1.004751205444336,24.731494903564453,-22.951772689819336,-3.360602617263794,-0.736463189125061,1.4414279460906982,0.2834858298301697,1.5365424156188965,0.6853894591331482,-1.343727469444275
180,139575,139576,-0.018929827958345413,-0.05971217900514603,1.0192515850067139,30.052003860473633,-16.0295352935791,-2.6702301502227783,-0.7274636030197144,1.4474276304244995,0.2954852283000946,1.464393973350525,0.9616305828094482,-1.4164177179336548
181,139585,139586,0.016022946685552597,-0.1318432241678238,0.9824118614196777,25.541725158691406,-6.671597003936768,-2.0174169540405273,-0.7349632382392883,1.4489275217056274,0.29098543524742126,1.4939850568771362,1.0966624021530151,-1.4669020175933838
182,139595,139596,0.043223410844802856,-0.14641031622886658,0.9271621108055115,11.981036186218262,1.3848307132720947,-1.3669726848602295,-0.7244637608528137,1.4474276304244995,0.2834858298301697,1.516508936882019,1.2745544910430908,-1.4845713376998901
183,139605,139606,0.04805801063776016,-0.13352704048156738,0.8867452144622803,-6.918426990509033,1.15503990650177,-0.44600826501846313,-0.7169641256332397,1.436928153038025,0.29098543524742126,1.499896764755249,1.2961369752883911,-1.4916900396347046
184,139615,139616,0.047320786863565445,-0.08907611668109894,0.8901746273040771,-18.501413345336914,0.31025582551956177,0.9526548981666565,-0.7214639186859131,1.444427728652954,0.2864856719970703,1.5022128820419312,1.0852545499801636,-1.4904321432113647
185,139625,139626,0.051575351506471634,-0.029358530417084694,0.9136492609977722,-18.533889770507812,0.23713319003582,3.003208637237549,-0.7154642343521118,1.4504274129867554,0.277486115694046,1.5740525722503662,0.8769119381904602,-1.4564216136932373
186,139635,139636,0.05634443461894989,0.0066481828689575195,0.9375794529914856,-12.812398910522461,1.9893112182617188,4.110036373138428,-0.7214639186859131,1.4414279460906982,0.28948551416397095,1.473401665687561,0.6669602990150452,-1.4368057250976562
187,139645,139646,0.07596132904291153,0.04561451077461243,0.9786041975021362,-4.452170372009277,-0.06512615829706192,4.240716934204102,-0.730463445186615,1.4564270973205566,0.2834858298301697,1.5202218294143677,0.5885763168334961,-1.3816640377044678
188,139655,139656,0.10403049737215042,0.01911984756588936,0.9816137552261353,0.7006109952926636,-5.481296062469482,2.590820550918579,-0.730463445186615,1.4504274129867554,0.2924853563308716,1.490793228149414,0.6075817942619324,-1.3595112562179565
189,139665,139666,0.020741373300552368,0.0017875067424029112,0.9707776308059692,9.314410209655762,-12.759594917297363,2.356175422668457,-0.737963080406189,1.445927619934082,0.29098543524742126,1.7312967777252197,0.7397790551185608,-1.3125245571136475
190,139675,139676,0.027799656614661217,-0.10251934826374054,1.0297253131866455,19.222787857055664,-16.887392044067383,2.90812611579895,-0.737963080406189,1.445927619934082,0.28498575091362,1.61420476436615,0.9515508413314819,-1.342112421989441
191,139685,139686,-0.0006679922225885093,-0.14656230807304382,1.0020090341567993,28.286087036132812,-21.64301300048828,7.263564109802246,-0.722963809967041,1.4519274234771729,0.2939853072166443,1.9505645036697388,1.2543818950653076,-1.2716143131256104
192,139695,139696,-0.009745655581355095,-0.06540849059820175,0.9937631487846375,26.8518123626709,-23.588579177856445,11.525416374206543,-0.7214639186859131,1.4414279460906982,0.3014849126338959,2.167710542678833,1.5057235956192017,-1.1807514429092407
193,139705,139706,0.016299301758408546,-0.013168342411518097,0.961743175983429,14.951869010925293,-26.44647979736328,16.67437171936035,-0.7109644412994385,1.436928153038025,0.29098543524742126,2.3624303340911865,1.5649821758270264,-1.0475375652313232
194,139715,139716,0.02615254744887352,0.04849123954772949,0.9577996134757996,-3.675187110900879,-28.507678985595703,21.081396102905273,-0.7154642343521118,1.4294284582138062,0.29848507046699524,2.737581491470337,1.6254899501800537,-0.8461390733718872
195,139725,139726,-0.011923716403543949,-0.019443651661276817,0.9404438734054565,-26.212182998657227,-30.71138572692871,24.038314819335938,-0.7199639678001404,1.4279285669326782,0.28498575091362,2.732246160507202,1.3999239206314087,-0.6839516758918762
196,139735,139736,-0.03988000378012657,-0.10620664060115814,0.8865014314651489,-52.102508544921875,-32.602439880371094,26.986482620239258,-0.7079645991325378,1.4399279356002808,0.29098543524742126,3.186685800552368,0.8429965972900391,-0.387422651052475
197,139745,139746,0.04729532077908516,0.012177526950836182,0.8047374486923218,-72.11817169189453,-35.770931243896484,27.44601821899414,-0.7019649147987366,1.445927619934082,0.2969851493835449,3.6584386825561523,0.35144951939582825,-0.10584180802106857
198,139755,139756,0.033845916390419006,-0.11731130629777908,0.9351305365562439,-80.8291015625,-37.20108413696289,25.004955291748047,-0.7004649639129639,1.4534273147583008,0.2954852283000946,4.296475410461426,-0.735878586769104,0.26464933156967163
199,139765,139766,-0.006084845867007971,0.00341386953368783,0.95774906873703,-70.30399322509766,-38.14512634277344,23.83210563659668,-0.6974651217460632,1.444427728652954,0.3044847846031189,4.580241680145264,-1.2961567640304565,0.452192485332489
200,139775,139776,-0.06460417062044144,-0.10301840305328369,1.0904971361160278,-43.324913024902344,-31.88792610168457,23.807086944580078,-0.6974651217460632,1.4654266834259033,0.3014849126338959,5.167250633239746,-1.816840410232544,0.7281825542449951
201,139785,139786,-0.11766866594552994,0.17881138622760773,0.926434338092804,3.5870420932769775,-11.879146575927734,25.69725227355957,-0.7004649639129639,1.459426999092102,0.29848507046699524,5.1107659339904785,-1.926700472831726,0.9164409041404724
202,139795,139796,-0.011651073582470417,0.14831654727458954,0.9739238619804382,31.562843322753906,9.539627075195312,25.196321487426758,-0.7079645991325378,1.4699264764785767,0.2939853072166443,5.140492916107178,-1.851955771446228,1.2072185277938843
203,139805,139806,0.0008929713512770832,0.0030350482556968927,0.9728758931159973,49.7773551940918,32.745357513427734,21.634050369262695,-0.7109644412994385,1.4699264764785767,0.29098543524742126,4.785477161407471,-1.1042593717575073,1.3033665418624878
204,139815,139816,-0.03383665531873703,0.032160840928554535,0.9789111018180847,54.64243698120117,54.91531753540039,18.513301849365234,-0.7154642343521118,1.4714263677597046,0.2924853563308716,4.292904376983643,-0.9376189708709717,1.6305474042892456
205,139825,139826,0.017014941200613976,-0.1711069494485855,1.1629393100738525,38.46070098876953,75.16874694824219,13.890949249267578,-0.7169641256332397,1.4789260625839233,0.2969851493835449,3.3708741664886475,-0.26641541719436646,1.6868847608566284
206,139835,139836,-0.02681361697614193,0.06400364637374878,0.8945150375366211,21.956411361694336,81.1901626586914,12.09326457977295,-0.7169641256332397,1.4789260625839233,0.2969851493835449,2.4910404682159424,-0.2818853259086609,1.9450122117996216
207,139845,139846,-0.06416284292936325,0.05943821370601654,1.0563143491744995,-3.900298833847046,59.578826904296875,7.703329086303711,-0.7169641256332397,1.4789260625839233,0.2969851493835449,1.7765860557556152,-0.1974945217370987,2.0310280323028564
208,139855,139856,-0.01924951747059822,-0.003508347785100341,1.0416996479034424,-9.122493743896484,30.112768173217773,4.487102031707764,-0.7169641256332397,1.4789260625839233,0.2969851493835449,1.510848879814148,-0.22234094142913818,2.0662283897399902
209,139865,139866,0.038646992295980453,0.0130653977394104,1.0606589317321777,-0.7644637227058411,4.510412693023682,2.087742567062378,-0.7184640765190125,1.4864256381988525,0.3014849126338959,1.4504114389419556,-0.3134605288505554,2.113588333129883
210,139875,139876,-0.02174091897904873,-0.11275159567594528,1.0375947952270508,3.789618968963623,-14.907583236694336,-1.511805772781372,-0.7319633960723877,1.475926160812378,0.29998499155044556,1.6162751913070679,-0.3109438717365265,2.118833065032959
211,139885,139886,-0.11253754794597626,0.14548204839229584,0.9144360423088074,12.78713607788086,-23.73197364807129,-1.725411295890808,-0.7244637608528137,1.4804259538650513,0.2954852283000946,1.9550913572311401,-0.17245976626873016,2.0830912590026855
212,139895,139896,-0.052306946367025375,0.08173864334821701,1.097638487815857,18.245702743530273,-24.982616424560547,-4.035593509674072,-0.722963809967041,1.472926378250122,0.29098543524742126,2.1174304485321045,0.06848015636205673,2.0251522064208984
213,139905,139906,0.008728902786970139,0.026505937799811363,0.951499879360199,31.086814880371094,-14.005032539367676,-2.627643346786499,-0.7244637608528137,1.47442626953125,0.2954852283000946,2.1919593811035156,0.13737912476062775,2.057995557785034
214,139915,139916,0.05742458999156952,0.00813098531216383,1.0139782428741455,31.568674087524414,14.806236267089844,-2.883788585662842,-0.7334632873535156,1.4714263677597046,0.3044847846031189,2.0956008434295654,0.7080455422401428,1.9602556228637695
215,139925,139926,-0.02292269840836525,0.020534910261631012,0.9843695163726807,20.294897079467773,35.189117431640625,-1.8430070877075195,-0.7334632873535156,1.4684265851974487,0.3014849126338959,1.8990001678466797,0.7798960208892822,1.990898609161377
216,139935,139936,0.0032624041195958853,0.12310030311346054,0.9210191369056702,12.367894172668457,50.469600677490234,-1.1800636053085327,-0.730463445186615,1.47442626953125,0.2924853563308716,1.1297810077667236,0.9901074767112732,1.9768905639648438
217,139945,139946,-0.028179042041301727,-0.0335397906601429,1.010752558708191,-4.6497416496276855,52.81692123413086,-3.1373541355133057,-0.737963080406189,1.46092689037323,0.3149842321872711,0.6859452724456787,0.8096134066581726,2.0132133960723877
218,139955,139956,-0.018936382606625557,0.030234400182962418,0.9589216113090515,-11.257808685302734,38.45846176147461,-3.5024232864379883,-0.7409629225730896,1.4669265747070312,0.29098543524742126,0.5422065854072571,0.6959868669509888,1.9909898042678833
219,139965,139966,0.004108762368559837,0.1361856758594513,1.041282296180725,-10.400276184082031,15.323269844055176,-4.868879795074463,-0.7454627156257629,1.47442626953125,0.29848507046699524,0.2995217740535736,0.6247925162315369,1.9364866018295288
220,139975,139976,0.030552543699741364,-0.07991226017475128,1.0824025869369507,-1.8657859563827515,-8.50043773651123,-6.088548183441162,-0.7514623999595642,1.4504274129867554,0.2864856719970703,0.32475903630256653,0.6040728688240051,1.8727216720581055
221,139985,139986,-0.002631771843880415,-0.08695098757743835,1.1019599437713623,14.784727096557617,-28.97150993347168,-3.501739025115967,-0.7319633960723877,1.4639267921447754,0.2939853072166443,0.7008913159370422,0.684355616569519,1.8297820091247559
222,139995,139996,-0.018856728449463844,0.01684952899813652,1.0524920225143433,22.9343318939209,-32.01972961425781,-1.6627287864685059,-0.7334632873535156,1.4684265851974487,0.3044847846031189,0.9007073640823364,0.933538019657135,1.7907860279083252
223,140005,140006,-0.03551127016544342,-0.04631194844841957,1.0049158334732056,25.522361755371094,-24.10928726196289,-0.4176497757434845,-0.7349632382392883,1.4699264764785767,0.28198590874671936,1.2321066856384277,1.226300835609436,1.7721375226974487
224,140015,140016,-0.009996657259762287,0.08663570135831833,1.0184435844421387,23.251344680786133,-10.015844345092773,0.016968194395303726,-0.736463189125061,1.459426999092102,0.2954852283000946,1.27675461769104,1.2278921604156494,1.7815865278244019
225,140025,140026,0.023740697652101517,0.016385763883590698,1.0144363641738892,10.560710906982422,11.429282188415527,-2.697866916656494,-0.7334632873535156,1.4534273147583008,0.2954852283000946,1.1423219442367554,1.504920482635498,1.7517306804656982
226,140035,140036,-0.031459931284189224,-0.007721721660345793,1.048872470855713,-3.375723123550415,28.677162170410156,-5.382791996002197,-0.7274636030197144,1.4684265851974487,0.2954852283000946,0.9193367958068848,1.3970295190811157,1.721875786781311
227,140045,140046,0.013179606758058071,0.11930671334266663,0.9610064029693604,-8.595067024230957,42.196571350097656,-7.520338535308838,-0.7514623999595642,1.4834258556365967,0.29848507046699524,0.3861912190914154,1.3196955919265747,1.6504600048065186
228,140055,140056,-0.004371257033199072,-0.0027924280147999525,1.0504958629608154,-14.321741104125977,47.66642379760742,-10.234559059143066,-0.7454627156257629,1.4864256381988525,0.2834858298301697,-0.1957855373620987,1.0747261047363281,1.5580787658691406
229,140065,140066,-0.03213724121451378,-0.008081532083451748,1.080675721168518,-7.531589984893799,33.6060905456543,-9.408317565917969,-0.7514623999595642,1.4954252243041992,0.28948551416397095,-0.5392432808876038,0.9677976369857788,1.4761420488357544
230,140075,140076,0.004884911701083183,0.11269964277744293,1.0305095911026,7.3118510246276855,12.007628440856934,-8.993303298950195,-0.7544622421264648,1.4804259538650513,0.2954852283000946,-0.7897096276283264,0.9950075149536133,1.3835415840148926
231,140085,140086,0.03487083315849304,0.033268462866544724,1.0703215599060059,22.303686141967773,-12.321276664733887,-9.311884880065918,-0.7559621930122375,1.4699264764785767,0.3059847056865692,-0.6645150780677795,1.2544944286346436,1.306513786315918
232,140095,140096,-0.005250025540590286,-0.03141973912715912,1.107012391090393,38.533843994140625,-37.221412658691406,-6.246982574462891,-0.7469626665115356,1.472926378250122,0.28798559308052063,-0.26408839225769043,1.7059191465377808,1.2477917671203613
233,140105,140106,0.03322131186723709,0.024010054767131805,1.0450164079666138,52.17527389526367,-53.04463577270508,-1.7889747619628906,-0.7529623508453369,1.475926160812378,0.2939853072166443,0.21671798825263977,2.030470132827759,1.1798534393310547
234,140115,140116,-0.04520551860332489,0.034596025943756104,1.062746524810791,51.88816452026367,-51.660888671875,0.12490954250097275,-0.7394630312919617,1.47442626953125,0.2924853563308716,0.841006875038147,2.5761725902557373,1.1642745733261108
235,140125,140126,-0.1277894228696823,-0.06148483231663704,1.237168550491333,42.83146667480469,-40.20907211303711,2.0220401287078857,-0.7334632873535156,1.4714263677597046,0.29848507046699524,1.1123905181884766,2.93851375579834,1.112216591835022
236,140135,140136,-0.05002763122320175,-0.026321856305003166,1.0758488178253174,31.58896827697754,-15.597707748413086,6.497605323791504,-0.7499625086784363,1.4669265747070312,0.30898454785346985,1.4729796648025513,3.4824953079223633,1.1794097423553467
237,140145,140146,-0.035764314234256744,0.006301704794168472,1.033277153968811,12.142779350280762,10.97070026397705,8.465771675109863,-0.737963080406189,1.4519274234771729,0.3029848337173462,1.4091047048568726,3.6061980724334717,1.2284539937973022
238,140155,140156,-0.08442740142345428,-0.13828450441360474,1.1792980432510376,-15.88705062866211,30.936796188354492,10.92782974243164,-0.730463445186615,1.4474276304244995,0.2954852283000946,1.0483293533325195,3.367361545562744,1.2868406772613525
239,140165,140166,-0.005079269874840975,-0.00219615432433784,1.0236073732376099,-31.112049102783203,37.829524993896484,14.584142684936523,-0.7544622421264648,1.459426999092102,0.29848507046699524,0.6696672439575195,3.0507256984710693,1.4189304113388062
240,140175,140176,0.01447537261992693,0.02811288833618164,1.0281158685684204,-45.975486755371094,40.07880783081055,16.429975509643555,-0.7439627647399902,1.472926378250122,0.30898454785346985,0.21143408119678497,2.749260425567627,1.587720513343811
241,140185,140186,-0.06479357928037643,-0.038795553147792816,1.0165313482284546,-55.327056884765625,24.629810333251953,21.25088119506836,-0.7484625577926636,1.47442626953125,0.3134843111038208,-0.09046385437250137,2.1327927112579346,1.7871348857879639
242,140195,140196,-0.0610077790915966,-0.0014368797419592738,1.0436421632766724,-58.01844787597656,-0.3285989463329315,24.89283561706543,-0.730463445186615,1.4624269008636475,0.3014849126338959,-0.2300104796886444,1.6361948251724243,2.0261144638061523
243,140205,140206,-0.025960776954889297,0.05184243991971016,1.0833936929702759,-45.26063919067383,-25.454059600830078,28.40596580505371,-0.722963809967041,1.4489275217056274,0.2939853072166443,0.04639534652233124,0.9838256239891052,2.3164560794830322
244,140215,140216,-0.025659382343292236,0.026942899450659752,1.055753469467163,-24.720277786254883,-38.371299743652344,30.543502807617188,-0.7214639186859131,1.435428261756897,0.3044847846031189,0.6056144833564758,0.9203408360481262,2.7178406715393066
245,140225,140226,0.011340886354446411,0.020176449790596962,0.9902390241622925,-4.53354549407959,-30.265653610229492,32.5709342956543,-0.7199639678001404,1.4399279356002808,0.28198590874671936,1.1251330375671387,0.7286279201507568,3.0750315189361572
246,140235,140236,-0.04609857499599457,0.02571340650320053,1.0070583820343018,15.716693878173828,-4.617344856262207,31.719640731811523,-0.7154642343521118,1.4324283599853516,0.29848507046699524,0.9433744549751282,0.8992812037467957,3.302253246307373
247,140245,140246,-0.053539808839559555,0.03418584167957306,1.0449734926223755,30.330976486206055,22.12377166748047,31.142019271850586,-0.7334632873535156,1.4474276304244995,0.28948551416397095,0.7799682021141052,0.9689110517501831,3.575089693069458
248,140255,140256,-0.03778773546218872,-0.010103129781782627,0.9781450033187866,29.50201416015625,35.00392532348633,29.09584617614746,-0.7244637608528137,1.4474276304244995,0.2954852283000946,0.3070102632045746,1.3422492742538452,3.8484280109405518
249,140265,140266,0.008875391446053982,-0.051906783133745193,1.0621825456619263,15.013134956359863,32.44898986816406,23.93022346496582,-0.730463445186615,1.4474276304244995,0.30748462677001953,-0.11996879428625107,1.6641794443130493,4.116957664489746
250,140275,140276,0.04025677964091301,0.03994252532720566,0.8739660978317261,12.204071998596191,22.536956787109375,17.447696685791016,-0.722963809967041,1.4429278373718262,0.28498575091362,-0.40769460797309875,1.7495588064193726,4.316441535949707
251,140285,140286,-0.02518974244594574,-0.1303487867116928,1.0695070028305054,-0.49541303515434265,-5.510311126708984,12.075946807861328,-0.7349632382392883,1.4399279356002808,0.30898454785346985,-0.11169352382421494,1.7949401140213013,4.547895431518555
252,140295,140296,-0.05942736566066742,-0.043914154171943665,1.0965509414672852,-4.610771656036377,-31.658130645751953,9.637948036193848,-0.7244637608528137,1.435428261756897,0.2924853563308716,-0.09803427755832672,1.731953740119934,4.599022388458252
253,140305,140306,-0.05959941819310188,-0.04947879910469055,1.1399829387664795,-9.82872200012207,-46.21051788330078,9.682920455932617,-0.7244637608528137,1.4324283599853516,0.2834858298301697,0.5714024305343628,1.605573296546936,4.738387107849121
254,140315,140316,-0.058225467801094055,-0.023568561300635338,1.0786861181259155,-11.724926948547363,-56.43207931518555,8.559866905212402,-0.730463445186615,1.4294284582138062,0.29848507046699524,1.3430805206298828,1.5111979246139526,4.875908851623535
255,140325,140326,-0.0039280010387301445,-0.14663049578666687,1.0746285915374756,-22.656198501586914,-53.973106384277344,6.1839919090271,-0.7109644412994385,1.4309284687042236,0.2969851493835449,1.6285555362701416,1.2735124826431274,4.860237121582031
256,140335,140336,-0.0637974739074707,0.018842408433556557,0.8999584317207336,-27.807785034179688,-46.72037887573242,3.403871536254883,-0.7154642343521118,1.4384280443191528,0.3014849126338959,2.3198633193969727,1.0709506273269653,4.9498677253723145
257,140345,140346,-0.010791817680001259,-0.10275675356388092,1.0935088396072388,-46.64194107055664,-39.03887939453125,-1.4507707357406616,-0.7154642343521118,1.4324283599853516,0.2924853563308716,2.883054494857788,0.660178542137146,4.977696418762207
258,140355,140356,-0.022747037932276726,-0.08492228388786316,0.9536742568016052,-33.18166732788086,-20.454492568969727,-2.8468213081359863,-0.6929653286933899,1.4249287843704224,0.28198590874671936,3.111377000808716,0.3957335948944092,4.946228981018066
259,140365,140366,-0.012499620206654072,0.04478227347135544,0.944190263748169,-15.736936569213867,6.1140851974487305,-1.4889923334121704,-0.7289635539054871,1.4249287843704224,0.29098543524742126,3.116741180419922,0.2177615612745285,4.90840482711792
260,140375,140376,0.05461437255144119,-0.1311558187007904,1.1344130039215088,-0.4495161473751068,38.55784606933594,-1.8958224058151245,-0.7109644412994385,1.4339282512664795,0.3029848337173462,2.7306058406829834,0.18365532159805298,4.86799955368042
261,140385,140386,-0.05405355244874954,-0.00806339830160141,1.0056777000427246,19.022722244262695,58.31071472167969,-5.077256202697754,-0.730463445186615,1.4474276304244995,0.3014849126338959,2.1130213737487793,0.44640403985977173,4.814889907836914
262,140395,140396,-0.009743578732013702,-0.0425899401307106,1.0684537887573242,20.649677276611328,68.08934020996094,-6.532750606536865,-0.7184640765190125,1.4384280443191528,0.3014849126338959,1.088395118713379,0.45442649722099304,4.705653667449951
263,140405,140406,-0.04608197137713432,-0.0668291300535202,1.0688828229904175,16.242002487182617,61.90712356567383,-8.765218734741211,-0.7259637117385864,1.4549272060394287,0.28198590874671936,0.7124671936035156,0.7501361966133118,4.6686601638793945
264,140415,140416,-0.0854535922408104,-0.0714394748210907,1.093835711479187,-7.206202030181885,44.00973129272461,-9.138318061828613,-0.7409629225730896,1.4399279356002808,0.3029848337173462,0.27692899107933044,0.583748996257782,4.604682445526123
265,140425,140426,-0.12085172533988953,0.0775323286652565,0.9834668636322021,-23.72334098815918,27.921031951904297,-7.806829452514648,-0.7184640765190125,1.4324283599853516,0.28048595786094666,0.0433809757232666,0.48975852131843567,4.5331597328186035
266,140435,140436,-0.040970005095005035,0.08747856318950653,1.0154168605804443,-38.91327667236328,15.445243835449219,-7.320989608764648,-0.7319633960723877,1.4399279356002808,0.27298635244369507,-0.2057325392961502,0.16499637067317963,4.452610492706299
267,140445,140446,0.03175831213593483,-0.04424688592553139,1.1273267269134521,-41.196563720703125,8.858702659606934,-3.826327323913574,-0.7214639186859131,1.4414279460906982,0.277486115694046,-0.4323057234287262,-0.23695917427539825,4.386952877044678
268,140455,140456,-0.02350211702287197,-0.02859884686768055,1.0335791110992432,-34.42477035522461,4.156136989593506,0.016875511035323143,-0.730463445186615,1.4294284582138062,0.2954852283000946,-0.41789451241493225,-0.713468611240387,4.3739776611328125
269,140465,140466,-0.1236998587846756,-0.013049577362835407,1.0079355239868164,-28.00101089477539,1.1791720390319824,1.7035315036773682,-0.7244637608528137,1.4264286756515503,0.2744862735271454,-0.24013471603393555,-0.8023553490638733,4.410388469696045
270,140475,140476,-0.0931072011590004,-0.050511013716459274,0.9130679368972778,-16.968839645385742,3.113879442214966,1.6151841878890991,-0.722963809967041,1.4339282512664795,0.29098543524742126,-0.3499346971511841,-1.0281040668487549,4.420938491821289
271,140485,140486,-0.06477059423923492,0.02612983249127865,0.9189097285270691,-2.772545337677002,7.862823963165283,1.5017112493515015,-0.722963809967041,1.4249287843704224,0.27898603677749634,-0.3677818775177002,-1.1662845611572266,4.429480075836182
272,140495,140496,-0.026652229949831963,0.032611869275569916,0.8821417689323425,7.385774612426758,12.432212829589844,2.3881540298461914,-0.722963809967041,1.4309284687042236,0.27898603677749634,-0.4019840955734253,-1.1449028253555298,4.443074703216553
273,140505,140506,-0.03927948325872421,0.06406686455011368,0.8728737831115723,30.655954360961914,26.494909286499023,3.762310743331909,-0.7424628734588623,1.4384280443191528,0.2864856719970703,-0.7593820095062256,-0.7847937941551208,4.4975905418396
274,140515,140516,-0.02248924784362316,-0.03378743305802345,0.8791202902793884,40.46977233886719,26.040611267089844,8.25593376159668,-0.7319633960723877,1.436928153038025,0.2969851493835449,-0.7555002570152283,-0.5423698425292969,4.519362926483154
275,140525,140526,-0.07746218144893646,0.16648733615875244,0.8388669490814209,33.05059051513672,16.297000885009766,12.929418563842773,-0.7319633960723877,1.436928153038025,0.28198590874671936,-1.0909419059753418,0.017472127452492714,4.667753219604492
276,140535,140536,-0.0026815386954694986,0.055404290556907654,0.8678154945373535,8.540983200073242,14.204147338867188,13.8170747756958,-0.7409629225730896,1.4279285669326782,0.27898603677749634,-1.1222434043884277,0.20925866067409515,4.783799171447754
277,140545,140546,-0.08538318425416946,-0.09343554079532623,0.9776855111122131,-19.71585464477539,1.6567851305007935,15.283792495727539,-0.7394630312919617,1.444427728652954,0.2864856719970703,-1.2807903289794922,-1.3550580661103595e-05,4.916053771972656
278,140555,140556,-0.04671882465481758,0.03895483538508415,0.8627812266349792,-38.528106689453125,-1.8298832178115845,17.911375045776367,-0.737963080406189,1.4339282512664795,0.27898603677749634,-1.2576442956924438,-0.415253221988678,5.0574822425842285
279,140565,140566,-0.05857342481613159,0.0804726630449295,0.8817603588104248,-50.95643615722656,-0.002935104537755251,18.160402297973633,-0.7334632873535156,1.4414279460906982,0.2864856719970703,-1.1744002103805542,-0.9287389516830444,5.21707010269165
280,140575,140576,0.040861524641513824,0.03145456314086914,0.8671433329582214,-55.73420715332031,5.403433799743652,18.421510696411133,-0.7469626665115356,1.4489275217056274,0.28198590874671936,-1.3107675313949585,-1.4137928485870361,5.428183555603027
281,140585,140586,0.041238218545913696,-0.004783058073371649,0.9324661493301392,-52.38676071166992,5.030450344085693,18.570493698120117,-0.736463189125061,1.4474276304244995,0.2864856719970703,-1.4610466957092285,-2.0198404788970947,5.606646537780762
282,140595,140596,-0.09652477502822876,0.16076894104480743,0.9265176653862,-41.97211837768555,10.163143157958984,19.562223434448242,-0.7484625577926636,1.4564270973205566,0.28048595786094666,-1.3858003616333008,-2.4063732624053955,5.795249938964844
283,140605,140606,-0.010010359808802605,-0.11991985887289047,1.0336848497390747,-23.240478515625,14.33443832397461,18.646310806274414,-0.7574620842933655,1.459426999092102,0.2864856719970703,-1.525696039199829,-2.627277374267578,6.01491117477417
284,140615,140616,-0.02035830356180668,0.05278579890727997,0.9042081832885742,3.503894090652466,25.053178787231445,17.21282958984375,-0.7484625577926636,1.4624269008636475,0.28048595786094666,-1.8135370016098022,-2.7043752670288086,6.202481269836426
285,140625,140626,-0.05605185031890869,0.09315741807222366,0.9632726907730103,18.438215255737305,21.053375244140625,12.076876640319824,-0.7454627156257629,1.4774260520935059,0.2834858298301697,-2.0202834606170654,-2.620969533920288,6.316155433654785
286,140635,140636,-0.029621660709381104,0.023614175617694855,1.0457860231399536,26.255361557006836,18.549278259277344,5.226920127868652,-0.7559621930122375,1.4789260625839233,0.2939853072166443,-2.3149056434631348,-2.2070415019989014,6.47732400894165
287,140645,140646,0.023586532101035118,0.05976606532931328,0.8703370690345764,31.424840927124023,10.225614547729492,-1.0010788440704346,-0.7574620842933655,1.47442626953125,0.2924853563308716,-2.1994423866271973,-1.9537758827209473,6.4056172370910645
288,140655,140656,0.038297463208436966,-0.01583082601428032,1.083415150642395,19.934484481811523,4.44645881652832,-8.176904678344727,-0.7589620351791382,1.4789260625839233,0.28498575091362,-2.286433458328247,-1.7930500507354736,6.309981346130371
289,140665,140666,-0.022069117054343224,0.05778602883219719,0.943781316280365,23.934154510498047,4.217110633850098,-12.86121940612793,-0.7589620351791382,1.4819258451461792,0.28198590874671936,-2.268239974975586,-1.4301923513412476,6.242706775665283
290,140675,140676,-0.03765329718589783,-0.06592409312725067,1.1098028421401978,8.05853271484375,0.4907360076904297,-16.506206512451172,-0.7514623999595642,1.4804259538650513,0.2864856719970703,-2.2708992958068848,-1.5334100723266602,5.980170726776123
291,140685,140686,0.0008764506783336401,0.1415690928697586,0.9414187073707581,14.957511901855469,8.719388961791992,-17.885435104370117,-0.7544622421264648,1.4684265851974487,0.2954852283000946,-2.3627166748046875,-1.2918187379837036,5.86696720123291
292,140695,140696,0.03459049016237259,-0.03278529271483421,1.150855541229248,3.3762714862823486,9.878154754638672,-20.960527420043945,-0.7709614634513855,1.4639267921447754,0.27898603677749634,-2.4961998462677,-1.2559773921966553,5.661815643310547
293,140705,140706,-0.035381514579057693,0.002104907063767314,0.9906631112098694,8.675810813903809,16.59204864501953,-22.55554962158203,-0.7619618773460388,1.475926160812378,0.28498575091362,-2.426950693130493,-1.1468210220336914,5.398563385009766
294,140715,140716,-0.054742928594350815,-0.0324053131043911,1.1061040163040161,-4.990239143371582,14.350441932678223,-24.324342727661133,-0.7634618282318115,1.47442626953125,0.28948551416397095,-2.522096872329712,-1.2531133890151978,5.087238311767578
295,140725,140726,-0.024503877386450768,0.14517807960510254,0.9316796064376831,4.791031837463379,16.156940460205078,-23.126760482788086,-0.7574620842933655,1.4714263677597046,0.2834858298301697,-2.689176559448242,-1.2205928564071655,4.871250629425049
296,140735,140736,0.07227639853954315,-0.04960494488477707,1.052392601966858,2.7450594902038574,12.77927303314209,-25.037202835083008,-0.7664616703987122,1.4714263677597046,0.2864856719970703,-2.7454192638397217,-1.2397780418395996,4.575471878051758
297,140745,140746,0.03769084811210632,-0.07049435377120972,1.053883671760559,15.49470329284668,5.941848278045654,-24.085187911987305,-0.7634618282318115,1.4624269008636475,0.2834858298301697,-2.915839910507202,-1.1001437902450562,4.384504795074463
298,140755,140756,-0.002326439833268523,-0.03859560191631317,1.1252692937850952,20.92746353149414,4.622913360595703,-24.840513229370117,-0.7634618282318115,1.4714263677597046,0.28948551416397095,-3.0314011573791504,-0.9882802963256836,4.129263401031494
299,140765,140766,-0.03370211273431778,-0.08257099986076355,1.109283447265625,25.784921646118164,-2.346827507019043,-22.91228485107422,-0.7754611968994141,1.459426999092102,0.29848507046699524,-3.0587263107299805,-0.7096816301345825,3.9232168197631836
300,140775,140776,-0.01563252881169319,0.02269132062792778,0.9897060394287109,33.467716217041016,-5.843409061431885,-20.915719985961914,-0.7514623999595642,1.4654266834259033,0.277486115694046,-2.9428954124450684,-0.5557575225830078,3.604928731918335
301,140785,140786,-0.019382312893867493,0.06045862287282944,1.017796516418457,25.22629165649414,-6.123994827270508,-20.27215576171875,-0.7544622421264648,1.4534273147583008,0.277486115694046,-2.738752841949463,-0.077946238219738,3.463017463684082
302,140795,140796,-0.049001485109329224,0.02343735657632351,1.0258469581604004,14.268091201782227,-8.371207237243652,-19.69677734375,-0.7454627156257629,1.4534273147583008,0.2834858298301697,-2.873379707336426,-0.056036241352558136,3.229048013687134
303,140805,140806,-0.06390350311994553,0.0609704814851284,0.973229169845581,4.627326488494873,-2.018217086791992,-18.647106170654297,-0.7559621930122375,1.4639267921447754,0.27898603677749634,-2.8399627208709717,0.08291635662317276,3.072484016418457
304,140815,140816,-0.092111736536026,0.09231299161911011,1.0619193315505981,-7.546300888061523,5.247593879699707,-19.381277084350586,-0.7649617195129395,1.4549272060394287,0.2939853072166443,-2.8498523235321045,0.029863493517041206,2.866391897201538
305,140825,140826,-0.07141528278589249,0.006672138813883066,1.0900973081588745,-12.298669815063477,5.049208641052246,-18.60676383972168,-0.7559621930122375,1.46092689037323,0.28198590874671936,-2.966588020324707,-0.1396312117576599,2.6572039127349854
306,140835,140836,-0.07260270416736603,0.10771124064922333,1.0074714422225952,-4.337057590484619,1.9106416702270508,-16.65392303466797,-0.7619618773460388,1.46092689037323,0.2759861946105957,-3.041724681854248,-0.38083121180534363,2.394735813140869
307,140845,140846,-0.03411615267395973,0.03735709190368652,0.9969868063926697,0.9908298850059509,0.345863401889801,-17.538036346435547,-0.7634618282318115,1.4474276304244995,0.2834858298301697,-3.068659782409668,-0.30357298254966736,2.2900404930114746
308,140855,140856,0.0024449643678963184,-0.023725435137748718,1.0092437267303467,4.652027606964111,-6.10360860824585,-17.82758903503418,-0.7559621930122375,1.4579271078109741,0.26998651027679443,-3.0157225131988525,-0.28682610392570496,2.097830057144165
309,140865,140866,0.014946917071938515,3.635748555552709e-07,1.0054781436920166,16.183427810668945,-15.98071575164795,-17.511821746826172,-0.7529623508453369,1.4489275217056274,0.28198590874671936,-2.8157103061676025,-0.13223586976528168,1.9324898719787598
310,140875,140876,0.02728596143424511,0.04799947142601013,1.0315495729446411,16.73459815979004,-21.149621963500977,-18.58174705505371,-0.7529623508453369,1.4549272060394287,0.27898603677749634,-2.6387996673583984,0.15723544359207153,1.8332258462905884
311,140885,140886,0.026891591027379036,0.0059070647694170475,1.0228781700134277,12.30416488647461,-25.7622013092041,-18.11570930480957,-0.7559621930122375,1.4519274234771729,0.28498575091362,-2.4413764476776123,0.042699020355939865,1.504298210144043
312,140895,140896,-0.032016001641750336,0.038275618106126785,1.0445328950881958,6.095495223999023,-28.020198822021484,-16.842077255249023,-0.7574620842933655,1.4564270973205566,0.2864856719970703,-1.9893959760665894,0.05696265399456024,1.2536768913269043
313,140905,140906,-0.04382794350385666,0.0066929967142641544,1.0277540683746338,0.5690189003944397,-27.269662857055664,-16.015811920166016,-0.7454627156257629,1.4654266834259033,0.28948551416397095,-1.816147804260254,0.12873020768165588,1.1366043090820312
314,140915,140916,0.034377336502075195,-0.09668891131877899,1.0738686323165894,-1.650957703590393,-18.451318740844727,-18.547515869140625,-0.7394630312919617,1.4324283599853516,0.28048595786094666,-1.5848511457443237,0.15224070847034454,0.9834781289100647
315,140925,140926,0.03116530179977417,-0.024758636951446533,1.0682621002197266,5.5932512283325195,-11.126302719116211,-19.624282836914062,-0.7469626665115356,1.4489275217056274,0.28198590874671936,-1.4123629331588745,0.2389305680990219,0.8267918825149536
316,140935,140936,0.005382944364100695,0.021570872515439987,1.0040026903152466,16.32695960998535,-1.469831109046936,-20.500530242919922,-0.7439627647399902,1.4489275217056274,0.2939853072166443,-1.6018611192703247,0.4730065166950226,0.72567218542099
317,140945,140946,0.0034400252625346184,-0.04241319000720978,1.0627086162567139,19.696529388427734,8.127673149108887,-23.009050369262695,-0.7409629225730896,1.445927619934082,0.28798559308052063,-1.6523070335388184,0.5838450193405151,0.4728556275367737
318,140955,140956,0.022297577932476997,-0.1552589386701584,1.0549925565719604,32.3863410949707,1.1798650026321411,-21.845626831054688,-0.7514623999595642,1.4504274129867554,0.2864856719970703,-1.755121111869812,0.8430672287940979,0.2594752609729767
319,140965,140966,-0.008698247373104095,-0.14558181166648865,1.021628975868225,49.86088180541992,-9.90610408782959,-17.93309211730957,-0.7469626665115356,1.4399279356002808,0.28498575091362,-1.616351842880249,1.454668402671814,0.14079046249389648
320,140975,140976,-0.036522023379802704,-0.08108396083116531,0.9980034828186035,49.65945053100586,-14.769387245178223,-14.249300956726074,-0.7544622421264648,1.4504274129867554,0.27148643136024475,-1.5186337232589722,1.6559360027313232,-0.16354219615459442
321,140985,140986,-0.036178722977638245,-0.00879663322120905,0.9886022210121155,32.57364273071289,-17.68997573852539,-11.20325756072998,-0.7514623999595642,1.4414279460906982,0.2864856719970703,-1.2859959602355957,2.1760973930358887,-0.25171178579330444
322,140995,140996,-0.01801798865199089,0.06299642473459244,0.977575421333313,4.726802825927734,-19.13882827758789,-9.62595272064209,-0.7454627156257629,1.4264286756515503,0.28048595786094666,-1.0977462530136108,2.265439033508301,-0.3944670557975769
323,141005,141006,0.01371212862432003,0.09234755486249924,0.9582372903823853,-16.946016311645508,-16.9028263092041,-8.01401138305664,-0.7454627156257629,1.420428991317749,0.2744862735271454,-0.9230263829231262,2.174189567565918,-0.4913942515850067
324,141015,141016,0.047066301107406616,0.03711341321468353,0.9101443290710449,-31.146778106689453,-19.22023582458496,-6.016079425811768,-0.7289635539054871,1.421928882598877,0.2939853072166443,-0.7235097885131836,1.8170064687728882,-0.6044055223464966
325,141025,141026,0.049481350928545,-0.011391352862119675,0.9356675148010254,-33.81855773925781,-30.383724212646484,-3.6377389430999756,-0.737963080406189,1.4309284687042236,0.27298635244369507,-0.26160356402397156,1.3583930730819702,-0.6881998181343079
326,141035,141036,0.03138633444905281,-0.05053887516260147,0.9293785691261292,-21.76894187927246,-48.82491683959961,-2.2814786434173584,-0.7349632382392883,1.4309284687042236,0.28198590874671936,-0.16544443368911743,1.1101340055465698,-0.7426520586013794
327,141045,141046,0.0033844199497252703,0.030764441937208176,0.9213660955429077,2.353600263595581,-57.67085647583008,-1.9828473329544067,-0.7214639186859131,1.4384280443191528,0.28048595786094666,0.43471765518188477,1.0295499563217163,-0.7697812914848328
328,141055,141056,-0.02095019817352295,0.04023832455277443,0.9805193543434143,33.351802825927734,-49.06166076660156,-1.131392240524292,-0.7199639678001404,1.4309284687042236,0.28798559308052063,0.9828537106513977,1.4356200695037842,-0.7444731593132019
329,141065,141066,-0.08091217279434204,-0.03264738991856575,1.02680504322052,59.86508560180664,-30.487171173095703,2.6791436672210693,-0.7394630312919617,1.4384280443191528,0.2954852283000946,1.2088027000427246,2.003680944442749,-0.7506349682807922
330,141075,141076,-0.08492900431156158,-0.0005194101249799132,0.9809799194335938,78.62105560302734,-4.46770715713501,10.307328224182129,-0.7334632873535156,1.4294284582138062,0.277486115694046,1.2576932907104492,2.7202086448669434,-0.7043330073356628
331,141085,141086,-0.1023934856057167,0.03738526254892349,1.025058627128601,76.7640380859375,18.748233795166016,14.244609832763672,-0.736463189125061,1.435428261756897,0.2924853563308716,1.0550137758255005,3.507084846496582,-0.5867993235588074
332,141095,141096,-0.06924538314342499,0.04078395664691925,1.0799375772476196,56.25319290161133,41.922393798828125,15.544951438903809,-0.7349632382392883,1.4279285669326782,0.2939853072166443,0.6350006461143494,4.129497051239014,-0.4376792311668396
333,141105,141106,-0.009110759943723679,0.03405192866921425,1.0420141220092773,26.38410186767578,48.7225341796875,17.86774253845215,-0.7334632873535156,1.4324283599853516,0.2954852283000946,0.1725039929151535,4.44398307800293,-0.24604925513267517
334,141115,141116,0.03618023917078972,0.0278006624430418,0.9900503158569336,-8.493008613586426,39.63027572631836,19.289676666259766,-0.7409629225730896,1.4129292964935303,0.28498575091362,-0.1631195843219757,4.538971424102783,-0.0027260249480605125
335,141125,141126,0.019390743225812912,0.053176816552877426,1.0412312746047974,-37.670166015625,20.771869659423828,18.800071716308594,-0.730463445186615,1.4294284582138062,0.28048595786094666,-0.5252747535705566,4.218527317047119,0.18329806625843048
336,141135,141136,0.015478577464818954,-0.036972776055336,0.9793832302093506,-67.72327423095703,-8.017054557800293,17.048139572143555,-0.7454627156257629,1.4234287738800049,0.28048595786094666,-0.32386133074760437,3.6069180965423584,0.4428237974643707
337,141145,141146,-0.02326672151684761,-0.029573045670986176,1.0295238494873047,-83.2514877319336,-35.630252838134766,16.449785232543945,-0.7319633960723877,1.4189289808273315,0.2939853072166443,0.03500029072165489,2.5882160663604736,0.6378566026687622
338,141155,141156,-0.028659529983997345,-0.04517105594277382,1.0034656524658203,-87.60918426513672,-56.98337173461914,15.814323425292969,-0.7274636030197144,1.4114294052124023,0.28948551416397095,0.6394928097724915,1.870244026184082,0.8258111476898193
339,141165,141166,-0.07899253070354462,0.014604829251766205,1.0126299858093262,-79.34829711914062,-65.26589965820312,14.355847358703613,-0.7139642834663391,1.4249287843704224,0.2939853072166443,1.2825945615768433,1.2185924053192139,0.963829517364502
340,141175,141176,-0.08368544280529022,-0.08312415331602097,0.9829623699188232,-64.89354705810547,-59.46649169921875,13.805916786193848,-0.7244637608528137,1.4234287738800049,0.2924853563308716,1.8420722484588623,0.4847660958766937,1.0647188425064087
341,141185,141186,-0.05169348046183586,-0.09477454423904419,0.8985925912857056,-48.97224807739258,-42.11760711669922,12.841533660888672,-0.7094644904136658,1.4384280443191528,0.2834858298301697,2.326441764831543,-0.013635489158332348,1.1801605224609375
342,141195,141196,-0.08207434415817261,-0.034761324524879456,0.9896941184997559,-43.50071716308594,-26.510120391845703,11.924684524536133,-0.7124643921852112,1.4174290895462036,0.28048595786094666,2.867297649383545,-0.5817744731903076,1.3985271453857422
343,141205,141206,-0.10398810356855392,0.07296259701251984,0.9515666365623474,-24.379322052001953,-1.8781795501708984,10.629100799560547,-0.7079645991325378,1.4159291982650757,0.27298635244369507,3.0474300384521484,-0.7686701416969299,1.503761887550354
344,141215,141216,-0.08865687996149063,-0.13455718755722046,0.9254345297813416,-10.4285888671875,16.30515480041504,6.994418144226074,-0.7154642343521118,1.4414279460906982,0.2954852283000946,2.8247880935668945,-0.910205066204071,1.538246750831604
345,141225,141226,-0.06629770249128342,0.04160783067345619,0.8659934997558594,9.05933952331543,39.08976745605469,7.3099775314331055,-0.7154642343521118,1.4324283599853516,0.2864856719970703,2.459258556365967,-0.8397682309150696,1.5695985555648804
346,141235,141236,0.0450199656188488,0.036742206662893295,0.9409754872322083,19.77829360961914,58.22140884399414,2.242483377456665,-0.7349632382392883,1.445927619934082,0.27898603677749634,1.8489160537719727,-0.6045730113983154,1.5614687204360962
347,141245,141246,0.028694067150354385,-0.04080319404602051,0.9627233743667603,26.981212615966797,56.5532112121582,-0.46085691452026367,-0.7259637117385864,1.4429278373718262,0.2939853072166443,1.151275634765625,-0.30909648537635803,1.5289825201034546
348,141255,141256,-0.027753347530961037,0.026239167898893356,0.9800286293029785,29.739511489868164,48.35942840576172,-3.215442657470703,-0.730463445186615,1.444427728652954,0.2864856719970703,0.8924998641014099,-0.017466392368078232,1.5474766492843628
349,141265,141266,-0.020957697182893753,-0.007083041127771139,0.8980237245559692,22.412378311157227,28.780750274658203,-6.1796698570251465,-0.7409629225730896,1.4399279356002808,0.29998499155044556,0.6281744837760925,0.3419782221317291,1.4860635995864868
350,141275,141276,-0.020880434662103653,0.04721525311470032,0.9292854070663452,12.99878978729248,7.719259738922119,-8.558290481567383,-0.730463445186615,1.4384280443191528,0.2834858298301697,0.4206600785255432,0.4732663929462433,1.419987440109253
351,141285,141286,0.01077537052333355,0.02356366254389286,0.9585201740264893,2.1067748069763184,-5.815978050231934,-9.414163589477539,-0.722963809967041,1.4399279356002808,0.27898603677749634,0.48131033778190613,0.5005745887756348,1.3483902215957642
352,141295,141296,0.0056150839664042,-0.05287906527519226,0.9783433675765991,-9.288341522216797,-13.158134460449219,-10.800113677978516,-0.7169641256332397,1.4429278373718262,0.29098543524742126,0.6850399971008301,0.3403222858905792,1.2898494005203247
353,141305,141306,-0.07280824333429337,-0.08956928551197052,0.9330423474311829,-15.949712753295898,-15.889037132263184,-11.132320404052734,-0.7319633960723877,1.4399279356002808,0.28498575091362,0.9251589775085449,0.12894243001937866,1.2109876871109009
354,141315,141316,-0.09865707904100418,-0.05338745936751366,0.8908855319023132,-18.070035934448242,-9.805309295654297,-10.85458755493164,-0.7334632873535156,1.4414279460906982,0.2924853563308716,0.9640651345252991,0.0895153135061264,1.0533943176269531
355,141325,141326,-0.0621214397251606,0.04495445266366005,0.8694769144058228,-9.925274848937988,-0.23044300079345703,-10.154327392578125,-0.730463445186615,1.4414279460906982,0.2954852283000946,0.9952821135520935,0.04891446977853775,0.9130334854125977
356,141335,141336,-0.01500712614506483,0.15778180956840515,0.9429991245269775,0.10291449725627899,9.507393836975098,-9.25916576385498,-0.736463189125061,1.4534273147583008,0.2954852283000946,0.8629892468452454,0.02372846193611622,0.8043692708015442
357,141345,141346,0.019833369180560112,0.06354130804538727,1.0124677419662476,9.495027542114258,12.215442657470703,-7.8474626541137695,-0.7274636030197144,1.444427728652954,0.2834858298301697,0.8173062801361084,0.15570314228534698,0.7022847533226013
358,141355,141356,0.017010880634188652,-0.09694215655326843,0.9750807285308838,15.193924903869629,6.880926609039307,-5.4099321365356445,-0.737963080406189,1.4579271078109741,0.29098543524742126,0.6851264834403992,0.3343392312526703,0.6294370889663696
359,141365,141366,0.012659741565585136,-0.144799143075943,0.949985682964325,11.72539234161377,5.889333724975586,-2.4677932262420654,-0.7424628734588623,1.4504274129867554,0.28948551416397095,0.6557819247245789,0.4775628447532654,0.5946362614631653
360,141375,141376,-0.020521417260169983,-0.12556590139865875,0.959136962890625,7.170135974884033,12.419777870178223,1.296458125114441,-0.7334632873535156,1.4714263677597046,0.2924853563308716,0.47459274530410767,0.5609001517295837,0.601373553276062
361,141385,141386,-0.015603668987751007,-0.062092673033475876,0.9350578784942627,-3.056546449661255,11.61484146118164,4.082822799682617,-0.7439627647399902,1.4639267921447754,0.3029848337173462,0.2765926718711853,0.48062533140182495,0.6550166010856628
362,141395,141396,0.01640493795275688,0.01832178421318531,0.9509361386299133,-8.26041316986084,8.403677940368652,6.793949604034424,-0.7349632382392883,1.46092689037323,0.2969851493835449,0.2012912631034851,0.43155840039253235,0.7038351893424988
363,141405,141406,0.01603613793849945,0.05945034325122833,1.0174036026000977,-16.880666732788086,9.78515625,7.6559672355651855,-0.7454627156257629,1.4684265851974487,0.3014849126338959,0.12595286965370178,0.1313641369342804,0.8249659538269043
364,141415,141416,0.08708172291517258,-0.055702827870845795,0.9966304302215576,-31.932968139648438,6.622769832611084,5.89427375793457,-0.7334632873535156,1.4624269008636475,0.28948551416397095,0.01642967201769352,0.04627253860235214,0.8489384651184082
365,141425,141426,0.05249323695898056,-0.1076153963804245,1.0028096437454224,-47.8754997253418,-0.9775766730308533,4.7506537437438965,-0.7334632873535156,1.4624269008636475,0.28948551416397095,0.07672788947820663,-0.4549786150455475,0.9224596619606018
366,141435,141436,0.020024670287966728,-0.06718915700912476,1.0140489339828491,-52.70087814331055,-8.756583213806152,4.708327293395996,-0.7334632873535156,1.4624269008636475,0.28948551416397095,0.16799572110176086,-1.1566007137298584,1.0099012851715088
367,141445,141446,-0.04126806929707527,0.003492054296657443,1.054687738418579,-51.672767639160156,-13.35637378692627,3.395162582397461,-0.7334632873535156,1.4624269008636475,0.28948551416397095,0.36197328567504883,-1.4272208213806152,0.9958745241165161
368,141455,141456,-0.05327891558408737,-0.027090443298220634,1.1255327463150024,-48.842010498046875,-24.936864852905273,4.099648952484131,-0.737963080406189,1.475926160812378,0.29098543524742126,0.3399288058280945,-1.8687584400177002,1.034751534461975
369,141465,141466,-0.026904301717877388,-0.02059241384267807,1.0496535301208496,-32.10929489135742,-34.62128448486328,5.735471248626709,-0.7454627156257629,1.4804259538650513,0.3044847846031189,0.7942114472389221,-2.2542507648468018,1.0876970291137695
370,141475,141476,-0.022366337478160858,-0.04328278452157974,1.1278470754623413,-24.344446182250977,-37.96602249145508,6.168240070343018,-0.7259637117385864,1.4849257469177246,0.3059847056865692,1.102840542793274,-2.58909010887146,1.1804057359695435
371,141485,141486,-0.01058310829102993,0.11088034510612488,1.0154200792312622,-5.71103572845459,-29.804479598999023,9.557343482971191,-0.7274636030197144,1.4954252243041992,0.2924853563308716,1.5769867897033691,-2.7177371978759766,1.2534512281417847
372,141495,141496,-0.0033472534269094467,0.07396890223026276,1.043835163116455,4.79202938079834,-15.974651336669922,10.880898475646973,-0.7274636030197144,1.5014249086380005,0.3014849126338959,1.805393099784851,-2.737001895904541,1.3681769371032715
373,141505,141506,-0.037239231169223785,0.07518560439348221,0.9912353754043579,21.681175231933594,9.85357666015625,11.074533462524414,-0.7409629225730896,1.4969251155853271,0.3119843900203705,1.7495019435882568,-2.5143885612487793,1.4761284589767456
374,141515,141516,-0.0428021214902401,0.11190906912088394,0.9461289644241333,8.105817794799805,25.957420349121094,9.140815734863281,-0.7409629225730896,1.4969251155853271,0.29998499155044556,1.369235873222351,-2.4168155193328857,1.6209349632263184
375,141525,141526,-0.0019306845497339964,0.014502058736979961,0.9520474672317505,-6.918298244476318,46.5012321472168,5.836310863494873,-0.737963080406189,1.4939253330230713,0.3029848337173462,0.9082279205322266,-2.509425640106201,1.7162554264068604
376,141535,141536,0.01744134910404682,0.0692177563905716,0.9116155505180359,-17.16452407836914,51.29125213623047,5.208444118499756,-0.7529623508453369,1.5029247999191284,0.2939853072166443,0.4284570813179016,-2.563453197479248,1.7196135520935059
377,141545,141546,0.05245329812169075,0.09150274097919464,1.022746205329895,-22.359201431274414,44.46318435668945,2.430513858795166,-0.7484625577926636,1.5074245929718018,0.3014849126338959,-0.13636280596256256,-2.9463136196136475,1.801134467124939
378,141555,141556,0.06239200755953789,-0.03232405334711075,1.015701174736023,-17.323686599731445,22.49701499938965,1.3194653987884521,-0.7514623999595642,1.5194239616394043,0.2954852283000946,-0.4110558331012726,-3.0851054191589355,1.7663081884384155
379,141565,141566,0.031034380197525024,0.0632319375872612,1.024848461151123,-0.46626409888267517,-1.2866655588150024,-0.2438456267118454,-0.7619618773460388,1.5179240703582764,0.2969851493835449,-0.43655166029930115,-3.059481143951416,1.7215907573699951
380,141575,141576,-0.027872364968061447,0.020187443122267723,1.069225788116455,19.719486236572266,-17.92721939086914,-0.47978392243385315,-0.7394630312919617,1.5074245929718018,0.28948551416397095,-0.2259143888950348,-3.0115559101104736,1.6945195198059082
381,141585,141586,-0.05098823085427284,-0.018353410065174103,1.0974661111831665,33.603599548339844,-21.65925407409668,-0.06500256806612015,-0.7514623999595642,1.4954252243041992,0.2924853563308716,-0.10847693681716919,-2.7427589893341064,1.742780089378357
382,141595,141596,-0.047442466020584106,-0.020913099870085716,1.0813802480697632,47.56700897216797,-10.455317497253418,0.7278589010238647,-0.7544622421264648,1.4954252243041992,0.2954852283000946,0.11310412734746933,-2.186896562576294,1.7051244974136353
383,141605,141606,-0.013302456587553024,-0.02895475924015045,1.0788681507110596,56.194313049316406,2.3762078285217285,1.2038421630859375,-0.7334632873535156,1.498425006866455,0.2864856719970703,0.12629161775112152,-1.7560659646987915,1.7354696989059448
384,141615,141616,-0.0794922336935997,0.06853753328323364,0.9898937940597534,58.494808197021484,8.098824501037598,3.3058760166168213,-0.7334632873535156,1.4954252243041992,0.2924853563308716,0.0027615500148385763,-0.9741579294204712,1.7577862739562988
385,141625,141626,-0.036226943135261536,0.09802751988172531,1.0317213535308838,44.63235092163086,10.390604019165039,4.33156681060791,-0.7394630312919617,1.4834258556365967,0.2924853563308716,0.02993510290980339,-0.8446800112724304,1.7736135721206665
386,141635,141636,-0.04838267341256142,-0.015124844387173653,1.1025551557540894,26.285442352294922,2.969592809677124,5.986217021942139,-0.7334632873535156,1.4804259538650513,0.2924853563308716,0.06753001362085342,-0.37960490584373474,1.7661795616149902
387,141645,141646,-0.007621332537382841,-0.037164248526096344,1.084397792816162,12.638481140136719,-5.488821983337402,7.979786396026611,-0.7454627156257629,1.4654266834259033,0.2954852283000946,0.09098395705223083,-0.31722116470336914,1.8469016551971436
388,141655,141656,0.03805707395076752,-0.0974365770816803,1.1516987085342407,-1.0319486856460571,-6.61157751083374,8.64642333984375,-0.7439627647399902,1.4639267921447754,0.3059847056865692,0.1072709858417511,-0.3885878324508667,1.9662201404571533
389,141665,141666,0.0016187053406611085,-0.02968713641166687,1.044349193572998,-4.299652576446533,-8.450470924377441,11.015555381774902,-0.7439627647399902,1.4639267921447754,0.2939853072166443,0.21523386240005493,-0.4341539442539215,2.05439829826355
390,141675,141676,0.009149066172540188,0.07020771503448486,1.0030921697616577,-13.817916870117188,2.966918468475342,11.53524112701416,-0.7169641256332397,1.4549272060394287,0.2969851493835449,0.2122795432806015,-0.6122726202011108,2.1835732460021973
391,141685,141686,0.0009525454952381551,0.011347969993948936,0.9599187970161438,-20.29849624633789,9.242485046386719,13.378893852233887,-0.736463189125061,1.4564270973205566,0.28048595786094666,0.06913664937019348,-0.8871139287948608,2.3403632640838623
392,141695,141696,0.054967593401670456,-0.0004723169840872288,1.0180120468139648,-26.394800186157227,4.994394779205322,12.720198631286621,-0.737963080406189,1.4669265747070312,0.2939853072166443,0.02018330991268158,-0.9758514761924744,2.4552721977233887
393,141705,141706,0.04190235212445259,0.008761857636272907,1.0065864324569702,-25.343263626098633,-6.939905643463135,12.750905990600586,-0.7334632873535156,1.4684265851974487,0.30748462677001953,-0.02443333901464939,-1.3178271055221558,2.602818489074707
394,141715,141716,-0.023508500307798386,-0.05770109221339226,1.0812360048294067,-16.571744918823242,-17.394941329956055,12.05611801147461,-0.7334632873535156,1.459426999092102,0.2864856719970703,0.18237173557281494,-1.6013752222061157,2.7108423709869385
395,141725,141726,-0.08109723776578903,0.02082308940589428,0.9970883131027222,6.257197380065918,-21.19344139099121,13.44183349609375,-0.7319633960723877,1.46092689037323,0.28798559308052063,0.3618217408657074,-1.4777113199234009,2.842233657836914
396,141735,141736,-0.03891182690858841,0.048750139772892,1.0451221466064453,23.14711570739746,-17.92595100402832,13.678821563720703,-0.7199639678001404,1.4519274234771729,0.29098543524742126,0.5766100883483887,-1.2597404718399048,2.97277569770813
397,141745,141746,-0.00642255786806345,0.05973340943455696,0.9933967590332031,40.019771575927734,-6.780747413635254,13.684687614440918,-0.7409629225730896,1.4699264764785767,0.28198590874671936,0.7287627458572388,-0.9642233848571777,3.105445384979248
398,141755,141756,0.005031202454119921,0.059611737728118896,0.9911375045776367,31.85369110107422,-0.7492514252662659,12.466438293457031,-0.7334632873535156,1.4654266834259033,0.2954852283000946,0.6026033759117126,-0.643817126750946,3.2796435356140137
399,141765,141766,0.007124841678887606,-0.04620397835969925,1.0581257343292236,26.610116958618164,7.4433698654174805,11.895526885986328,-0.7319633960723877,1.4519274234771729,0.28798559308052063,0.6577470302581787,-0.21248479187488556,3.3706276416778564
400,141775,141776,-0.0014978221151977777,-0.0028679915703833103,0.9684092402458191,11.11275863647461,7.128398418426514,11.990135192871094,-0.7424628734588623,1.4564270973205566,0.28948551416397095,0.5181280970573425,-0.2898404896259308,3.524280071258545
401,141785,141786,-0.033598363399505615,-0.06602021306753159,1.0366650819778442,-10.538590431213379,10.56600570678711,9.253637313842773,-0.7289635539054871,1.46092689037323,0.29098543524742126,0.41920554637908936,-0.3624766767024994,3.638204336166382
402,141795,141796,-0.06540229171514511,0.048379674553871155,0.9383476972579956,-17.8997802734375,9.274918556213379,9.28226089477539,-0.7274636030197144,1.4504274129867554,0.2864856719970703,0.3160566985607147,-0.5359029173851013,3.727250576019287
403,141805,141806,-0.03456810116767883,0.08529330044984818,1.0215623378753662,-32.22098159790039,8.97612190246582,6.435858249664307,-0.7259637117385864,1.4549272060394287,0.3029848337173462,0.2885456085205078,-0.9147605895996094,3.7973473072052
404,141815,141816,0.020556868985295296,0.056335750967264175,0.9686841368675232,-17.665254592895508,16.592222213745117,4.350461959838867,-0.7274636030197144,1.4564270973205566,0.2834858298301697,0.06710422039031982,-1.1255929470062256,3.866947650909424
405,141825,141826,0.017945773899555206,-0.0023519578389823437,0.9706401228904724,-7.945918560028076,14.032244682312012,0.9854956865310669,-0.7319633960723877,1.4549272060394287,0.28798559308052063,-0.14648789167404175,-1.3786083459854126,3.9029080867767334
406,141835,141836,0.010390489362180233,-0.01622406207025051,1.058091163635254,17.64907455444336,17.91848373413086,-2.220703125,-0.736463189125061,1.459426999092102,0.3014849126338959,-0.36252444982528687,-1.1586097478866577,3.89237642288208
407,141845,141846,-0.014813130721449852,0.006065898109227419,0.9766852259635925,34.258174896240234,16.890520095825195,-4.969162940979004,-0.7394630312919617,1.444427728652954,0.28948551416397095,-0.5016407370567322,-0.9125297665596008,3.845048427581787
408,141855,141856,-0.014653707854449749,-0.10115297138690948,0.9769954085350037,46.34574508666992,11.122264862060547,-8.1350736618042,-0.7514623999595642,1.4534273147583008,0.2924853563308716,-0.575105607509613,-0.27912047505378723,3.763498067855835
409,141865,141866,-0.04324723780155182,0.04188605770468712,0.9501029253005981,48.50181579589844,0.7622731328010559,-8.958487510681152,-0.7439627647399902,1.445927619934082,0.28798559308052063,-0.6613857746124268,0.12507589161396027,3.678407669067383
410,141875,141876,-0.034271739423274994,0.12833058834075928,0.9777762293815613,39.23455047607422,-3.0675783157348633,-11.493974685668945,-0.7484625577926636,1.4564270973205566,0.29848507046699524,-0.6374780535697937,0.5230609178543091,3.570783853530884
411,141885,141886,0.022718800231814384,-0.01248360238969326,1.0205602645874023,25.901103973388672,-7.170046806335449,-12.350115776062012,-0.7484625577926636,1.4504274129867554,0.28948551416397095,-0.47181931138038635,0.9280084371566772,3.4335274696350098
412,141895,141896,0.02196565270423889,-0.025307193398475647,0.9485355019569397,18.08916664123535,-4.847269535064697,-12.712536811828613,-0.7424628734588623,1.4504274129867554,0.28948551416397095,-0.5277247428894043,0.8058276772499084,3.3135368824005127
413,141905,141906,0.008144743740558624,-0.11776436865329742,1.0345481634140015,-3.2112300395965576,1.2596672773361206,-15.279939651489258,-0.7439627647399902,1.4399279356002808,0.2939853072166443,-0.5179531574249268,0.9459490180015564,3.1788413524627686
414,141915,141916,0.00751772616058588,-0.0791601613163948,1.0100512504577637,-7.703383445739746,7.1045331954956055,-14.414527893066406,-0.7409629225730896,1.445927619934082,0.28498575091362,-0.6075432896614075,0.88591068983078,3.0339102745056152
415,141925,141926,-0.023610886186361313,0.019337011501193047,1.0231889486312866,-11.493305206298828,10.131446838378906,-15.452460289001465,-0.7424628734588623,1.4414279460906982,0.28948551416397095,-0.7637850046157837,0.774191677570343,2.888880968093872
416,141935,141936,-0.021222319453954697,-0.01128068845719099,1.0486756563186646,-8.114177703857422,7.125083923339844,-15.294404983520508,-0.7394630312919617,1.4504274129867554,0.2954852283000946,-0.8490538001060486,0.6134352087974548,2.7279415130615234
417,141945,141946,-0.031391389667987823,0.09589952230453491,0.9291188716888428,4.539852619171143,6.17562198638916,-15.056079864501953,-0.7394630312919617,1.4504274129867554,0.2834858298301697,-0.8192549347877502,0.7004931569099426,2.581496000289917
418,141955,141956,-0.08983378857374191,0.0799381211400032,1.016595721244812,16.103185653686523,2.3685801029205322,-16.05520248413086,-0.7514623999595642,1.444427728652954,0.2834858298301697,-0.8775739669799805,0.9783646464347839,2.4421019554138184
419,141965,141966,-0.017818382009863853,-0.07085933536291122,0.9951465129852295,26.9569034576416,-1.5780295133590698,-15.683082580566406,-0.737963080406189,1.4399279356002808,0.28198590874671936,-0.8691123723983765,1.0642224550247192,2.2692933082580566
420,141975,141976,-0.026846472173929214,-0.018930017948150635,0.9982817769050598,32.80445098876953,-2.3210182189941406,-14.926114082336426,-0.7559621930122375,1.4339282512664795,0.2939853072166443,-0.7535812258720398,1.3498940467834473,2.1172478199005127
421,141985,141986,0.03364328667521477,-0.08084627985954285,1.0759748220443726,28.54899024963379,-3.548926830291748,-15.00143051147461,-0.7469626665115356,1.436928153038025,0.28798559308052063,-0.7031382918357849,1.6102415323257446,1.9637110233306885
422,141995,141996,0.05690084025263786,-0.14007174968719482,1.0419566631317139,19.77606201171875,-3.707643508911133,-14.898500442504883,-0.737963080406189,1.4279285669326782,0.29098543524742126,-0.8042287826538086,1.8151143789291382,1.7987797260284424
423,142005,142006,-0.0016822213074192405,-0.06542890518903732,0.9752611517906189,10.953946113586426,-1.9085229635238647,-15.354018211364746,-0.737963080406189,1.4279285669326782,0.29098543524742126,-0.7705507278442383,1.874498724937439,1.6373693943023682
424,142015,142016,-0.040073417127132416,-0.011551513336598873,1.0157948732376099,2.728219509124756,-2.252352476119995,-17.259578704833984,-0.7439627647399902,1.4129292964935303,0.28498575091362,-0.7384415864944458,1.9384663105010986,1.4771454334259033
425,142025,142026,-0.029118867591023445,-0.08075150102376938,1.0754873752593994,5.963924407958984,-5.057483673095703,-18.61619758605957,-0.7274636030197144,1.4144293069839478,0.2834858298301697,-0.6699252724647522,1.9995981454849243,1.3016364574432373
426,142035,142036,-0.019913706928491592,-0.0929783508181572,1.0811740159988403,15.18692398071289,-8.741438865661621,-19.036645889282227,-0.7409629225730896,1.4249287843704224,0.2939853072166443,-0.5532296299934387,2.1273305416107178,1.1206601858139038
427,142045,142046,0.026994504034519196,-0.10008416324853897,0.9890135526657104,26.447965621948242,-11.886258125305176,-18.67193031311035,-0.7289635539054871,1.421928882598877,0.2939853072166443,-0.45717254281044006,2.485773801803589,0.9478275179862976
428,142055,142056,-0.02028891257941723,0.011472330428659916,1.0195294618606567,32.14628601074219,-13.8534517288208,-16.319616317749023,-0.736463189125061,1.4234287738800049,0.3014849126338959,-0.45936647057533264,2.7548835277557373,0.7349297404289246
429,142065,142066,-0.02774718590080738,0.02017887681722641,1.0351821184158325,29.134021759033203,-12.268146514892578,-12.106744766235352,-0.7334632873535156,1.408429503440857,0.277486115694046,-0.2495422512292862,3.1402571201324463,0.6214967966079712
430,142075,142076,-0.02923291176557541,-0.01777239516377449,0.9963931441307068,18.120677947998047,-9.638219833374023,-1.3079590797424316,-0.722963809967041,1.4159291982650757,0.27298635244369507,-0.16355063021183014,3.247201681137085,0.5320048332214355
431,142085,142086,-0.022533614188432693,-0.0673542320728302,0.9640599489212036,3.957782506942749,-6.883520603179932,6.6412577629089355,-0.7154642343521118,1.405429720878601,0.2924853563308716,-0.0391584113240242,3.3373069763183594,0.5785556435585022
432,142095,142096,-0.035962529480457306,-0.0741729885339737,0.9291602969169617,-12.765028953552246,-13.698623657226562,10.957327842712402,-0.736463189125061,1.4024298191070557,0.28048595786094666,0.08556348830461502,3.2296485900878906,0.6687029600143433
433,142105,142106,-0.04873935505747795,-0.02932353876531124,0.9268711805343628,-25.489303588867188,-16.31584358215332,13.863945007324219,-0.722963809967041,1.4189289808273315,0.27898603677749634,0.14962591230869293,2.956211805343628,0.7411219477653503
434,142115,142116,-0.00045811900054104626,0.042189810425043106,0.930915117263794,-27.443340301513672,-16.287378311157227,15.460281372070312,-0.7259637117385864,1.4039298295974731,0.27898603677749634,0.35366782546043396,2.669905185699463,0.8971788883209229
435,142125,142126,0.024851670488715172,0.057308997958898544,0.9488394260406494,-16.77446174621582,-15.709951400756836,16.827808380126953,-0.7349632382392883,1.4129292964935303,0.27898603677749634,0.6269193291664124,2.517866849899292,1.1041686534881592
436,142135,142136,-0.0236157588660717,0.061785370111465454,1.01264488697052,-10.609336853027344,-26.100568771362305,19.2174015045166,-0.7319633960723877,1.4189289808273315,0.28198590874671936,0.9134774804115295,2.342390537261963,1.3067694902420044
437,142145,142146,-0.015411279164254665,0.0020628238562494516,0.9385590553283691,-4.281660079956055,-36.86725616455078,20.695493698120117,-0.7259637117385864,1.4189289808273315,0.28798559308052063,1.378811240196228,2.316225528717041,1.5602624416351318
438,142155,142156,-0.04973118379712105,-0.017233574762940407,0.9732566475868225,-3.4615979194641113,-43.266578674316406,20.04962921142578,-0.7139642834663391,1.4189289808273315,0.27898603677749634,1.6370266675949097,2.2866179943084717,1.676849603652954
439,142165,142166,-0.07576274126768112,-0.10652706772089005,1.0386313199996948,-4.645073413848877,-44.15855026245117,19.234472274780273,-0.7139642834663391,1.4039298295974731,0.3029848337173462,1.9301022291183472,2.307695150375366,1.785170078277588
440,142175,142176,-0.05157303065061569,-0.09114634245634079,0.9310916066169739,-16.991657257080078,-29.94594383239746,17.23843765258789,-0.7064646482467651,1.4114294052124023,0.2954852283000946,2.457498550415039,2.1797080039978027,2.017364025115967
441,142185,142186,-0.06581108272075653,-0.030880032107234,1.0093218088150024,-56.512569427490234,-8.1419095993042,10.338712692260742,-0.691465437412262,1.3994300365447998,0.2864856719970703,2.6025962829589844,1.697824478149414,2.147033452987671
442,142195,142196,-0.031221427023410797,-0.02013872005045414,0.9340783357620239,-86.42423248291016,18.798246383666992,4.470938205718994,-0.7064646482467651,1.4264286756515503,0.2864856719970703,2.4980413913726807,1.2363221645355225,2.162595510482788
443,142205,142206,0.006595994345843792,0.01560506597161293,0.9135504961013794,-95.77131652832031,51.39900588989258,2.0317513942718506,-0.7154642343521118,1.444427728652954,0.29848507046699524,1.950000286102295,-0.043260641396045685,2.1630501747131348
444,142215,142216,0.007135175168514252,0.06607695668935776,0.9901281595230103,-84.15670776367188,67.42752075195312,0.08310353755950928,-0.7439627647399902,1.4489275217056274,0.28498575091362,1.271436095237732,-0.7198780179023743,2.1022043228149414
445,142225,142226,-0.00983459409326315,0.07077232003211975,1.0395722389221191,-56.399253845214844,67.02129364013672,-2.6608662605285645,-0.722963809967041,1.4549272060394287,0.2939853072166443,0.3804095983505249,-1.5209825038909912,2.0029661655426025
446,142235,142236,-0.00505531020462513,0.06076052039861679,1.035672664642334,-24.85865592956543,58.77293014526367,-5.622774124145508,-0.7424628734588623,1.459426999092102,0.28048595786094666,-0.04879887029528618,-1.9531958103179932,2.023052453994751
447,142245,142246,0.042818181216716766,-0.01986049860715866,0.983772337436676,18.070087432861328,44.50577163696289,-6.734891891479492,-0.7424628734588623,1.4534273147583008,0.2834858298301697,-0.82698655128479,-1.7326648235321045,1.8112043142318726
448,142255,142256,-0.007317949552088976,-0.01236794050782919,0.9654199481010437,48.96787643432617,29.988126754760742,-5.793850421905518,-0.7334632873535156,1.444427728652954,0.2864856719970703,-0.9592209458351135,-1.3110594749450684,1.7923442125320435
449,142265,142266,-0.030212460085749626,0.03307121992111206,0.9579105973243713,61.59159851074219,12.980156898498535,-4.525374889373779,-0.7439627647399902,1.4489275217056274,0.28198590874671936,-1.1198108196258545,-0.5090349316596985,1.724171757698059
450,142275,142276,0.004804815165698528,-0.0031721421983093023,0.9398267269134521,52.60773849487305,-12.102237701416016,-4.627952575683594,-0.7469626665115356,1.4399279356002808,0.29098543524742126,-0.9110251069068909,-0.025062058120965958,1.7257153987884521
451,142285,142286,-0.026042822748422623,-0.010412105359137058,0.9245938658714294,22.965696334838867,-33.44171905517578,-6.660225868225098,-0.737963080406189,1.4309284687042236,0.28498575091362,-0.6985122561454773,0.13519169390201569,1.6794893741607666
452,142295,142296,0.0014279164606705308,0.03845098242163658,0.9424551725387573,-6.506342887878418,-41.75728988647461,-8.447188377380371,-0.7214639186859131,1.4324283599853516,0.277486115694046,-0.19385451078414917,0.16855694353580475,1.6154342889785767
453,142305,142306,0.04289679974317551,-0.03719590976834297,0.9562366604804993,-33.442508697509766,-37.53192138671875,-9.583870887756348,-0.7289635539054871,1.4339282512664795,0.28198590874671936,0.003817964345216751,-0.045285243541002274,1.5003771781921387
454,142315,142316,-0.015838230028748512,-0.08563511073589325,0.9752165675163269,-47.353057861328125,-24.260473251342773,-6.83717679977417,-0.7289635539054871,1.4399279356002808,0.28198590874671936,0.4451955258846283,-0.6191260814666748,1.437792420387268
455,142325,142326,-0.06092676892876625,0.007785498164594173,0.9118058681488037,-50.853633880615234,-5.88979434967041,-4.8617401123046875,-0.7214639186859131,1.444427728652954,0.29848507046699524,0.6313921213150024,-1.0953749418258667,1.3853191137313843
456,142335,142336,-0.04470459744334221,0.007599355652928352,0.9602057933807373,-43.86138153076172,13.320294380187988,-3.015655517578125,-0.7349632382392883,1.445927619934082,0.28798559308052063,0.49060285091400146,-1.6949412822723389,1.3441661596298218
457,142345,142346,0.02824484556913376,0.024640025570988655,0.9521775841712952,-21.001209259033203,29.777606964111328,-1.3811649084091187,-0.7169641256332397,1.4549272060394287,0.2969851493835449,0.07420766353607178,-1.8844339847564697,1.3016256093978882
458,142355,142356,0.06454828381538391,0.012611107900738716,0.934156596660614,3.8811867237091064,39.55654525756836,-1.8083384037017822,-0.7484625577926636,1.4654266834259033,0.3014849126338959,-0.3311261832714081,-1.8548862934112549,1.273748517036438
459,142365,142366,0.016804683953523636,0.04547015577554703,1.0242204666137695,31.156251907348633,43.97837829589844,-2.4872171878814697,-0.7454627156257629,1.4684265851974487,0.3014849126338959,-0.8149506449699402,-1.6245816946029663,1.2356133460998535
460,142375,142376,-0.02228490822017193,0.1343616098165512,0.9876299500465393,51.492374420166016,42.419105529785156,-2.469296455383301,-0.7499625086784363,1.4699264764785767,0.28798559308052063,-1.3585301637649536,-1.22731614112854,1.211326241493225
461,142385,142386,-0.007003083825111389,0.02079257369041443,1.0194209814071655,59.47943115234375,35.78668975830078,-2.2931137084960938,-0.7499625086784363,1.4669265747070312,0.28198590874671936,-1.619111180305481,-0.5575165748596191,1.1699682474136353
462,142395,142396,-0.07516021281480789,0.003408665768802166,0.9722521901130676,56.88959884643555,20.67072868347168,-0.66790771484375,-0.7544622421264648,1.4534273147583008,0.2864856719970703,-1.8140071630477905,-0.03224712237715721,1.140181064605713
463,142405,142406,0.01483552623540163,-0.058444246649742126,0.9370884299278259,42.37089538574219,6.1770124435424805,-0.24451103806495667,-0.7619618773460388,1.46092689037323,0.28198590874671936,-1.919148325920105,0.6049310564994812,1.1412359476089478
464,142415,142416,-0.009041205048561096,-0.07851658016443253,0.9374784231185913,22.756816864013672,-10.101810455322266,0.5401570200920105,-0.7514623999595642,1.4504274129867554,0.28948551416397095,-1.8239892721176147,0.5708844661712646,1.105482816696167
465,142425,142426,-0.024895763024687767,0.021258024498820305,0.9528624415397644,2.4056200981140137,-21.910594940185547,1.3213253021240234,-0.7484625577926636,1.4534273147583008,0.28048595786094666,-1.45062255859375,0.727486252784729,1.0941308736801147
466,142435,142436,-0.04651998355984688,0.13855919241905212,0.9797300696372986,-12.273771286010742,-24.500574111938477,1.8401833772659302,-0.7334632873535156,1.4504274129867554,0.2924853563308716,-1.3461049795150757,0.6126529574394226,1.1154041290283203
467,142445,142446,-0.041526857763528824,0.05673762038350105,0.9705665111541748,-20.840885162353516,-21.601530075073242,2.2939035892486572,-0.7454627156257629,1.4684265851974487,0.2864856719970703,-0.9730498194694519,0.326520711183548,1.1066391468048096
468,142455,142456,-0.02427583746612072,-0.027948793023824692,0.96750807762146,-22.62542724609375,-17.889253616333008,1.7217293977737427,-0.7394630312919617,1.4654266834259033,0.28948551416397095,-0.8165085315704346,0.19283825159072876,1.1427263021469116
469,142465,142466,-0.015517180785536766,-0.04279659315943718,0.9639630913734436,-21.459848403930664,-14.444489479064941,-0.04408794268965721,-0.7334632873535156,1.4564270973205566,0.28948551416397095,-0.641399085521698,0.06964646279811859,1.1677942276000977
470,142475,142476,-0.036177974194288254,-0.03684674948453903,1.0364190340042114,-18.763227462768555,-13.031073570251465,-2.246798276901245,-0.7439627647399902,1.46092689037323,0.2969851493835449,-0.42586788535118103,-0.23009304702281952,1.1351076364517212
471,142485,142486,-0.03246862813830376,-0.03212492913007736,0.9870426654815674,-9.884746551513672,-11.126935958862305,-4.252110004425049,-0.7319633960723877,1.472926378250122,0.2939853072166443,-0.3238981366157532,-0.4300653040409088,1.0904579162597656
472,142495,142496,-0.08909754455089569,0.14378443360328674,1.0004488229751587,-0.11582206189632416,-5.224128246307373,-5.987337112426758,-0.7559621930122375,1.4579271078109741,0.28198590874671936,-0.35215991735458374,-0.44959765672683716,1.0507367849349976
473,142505,142506,-0.02820771373808384,-0.020070787519216537,1.0217390060424805,11.312714576721191,-0.6466065645217896,-7.736518859863281,-0.7454627156257629,1.4624269008636475,0.2864856719970703,-0.3212437629699707,-0.30234989523887634,0.9936046600341797
474,142515,142516,-0.03640854358673096,0.016895942389965057,1.0342075824737549,25.81774139404297,3.001455545425415,-8.346261024475098,-0.7409629225730896,1.4789260625839233,0.3029848337173462,-0.48114922642707825,-0.016224730759859085,0.9397909641265869
475,142525,142526,0.012199976481497288,-0.08089790493249893,1.0646885633468628,27.957597732543945,9.604708671569824,-9.717771530151367,-0.7514623999595642,1.459426999092102,0.2834858298301697,-0.2301711142063141,0.18610672652721405,0.8122349977493286
476,142535,142536,0.009845191612839699,-0.07389988005161285,1.0645902156829834,25.426877975463867,17.63976287841797,-10.154927253723145,-0.7349632382392883,1.4549272060394287,0.2939853072166443,-0.4955242872238159,0.4827389717102051,0.7243333458900452
