,timestamp_start,timestamp_end,acc.x,acc.y,acc.z,gyro.x,gyro.y,gyro.z,mag.x,mag.y,mag.z,stabilizer.pitch,stabilizer.roll,stabilizer.yaw
0,191355,191356,-0.022192658856511116,-0.004333901684731245,1.0192747116088867,-9.578402519226074,-5.680380821228027,-2.995551586151123,1.2539372444152832,2.5348732471466064,4.65576696395874,0.5799198746681213,0.5016329288482666,1.5887044668197632
1,191365,191366,-0.06650442630052567,-0.04366395249962807,1.021321415901184,-6.847675800323486,-0.3135267496109009,-2.246549606323242,1.2374380826950073,2.5333733558654785,4.663266658782959,0.6533740162849426,0.34298714995384216,1.5802804231643677
2,191375,191376,0.010081782937049866,-0.0974431112408638,1.0203057527542114,0.15209220349788666,7.94475793838501,-1.6267391443252563,1.244937777519226,2.543872833251953,4.667766571044922,0.6874175071716309,0.27628156542778015,1.569006323814392
3,191385,191386,-0.05229075998067856,-0.11421611905097961,1.0436787605285645,5.357284069061279,13.077692985534668,-0.8249563574790955,1.2509374618530273,2.5558722019195557,4.679765701293945,0.6050878167152405,0.8381080627441406,1.4000498056411743
4,191395,191396,-0.09518563002347946,-0.06762334704399109,1.0457770824432373,9.368266105651855,15.726935386657715,0.2607496678829193,1.2509374618530273,2.573871374130249,4.6767659187316895,0.7207421064376831,1.0397768020629883,1.3611276149749756
5,191405,191406,-0.13578040897846222,-0.05136873945593834,1.0507951974868774,2.476039171218872,15.424532890319824,0.9143444895744324,1.244937777519226,2.549872398376465,4.670766353607178,0.451487272977829,1.0813069343566895,1.3768815994262695
6,191415,191416,-0.1335306465625763,-0.0041785407811403275,1.0404826402664185,-9.934171676635742,13.801212310791016,-0.37344104051589966,1.2419378757476807,2.543872833251953,4.66176700592041,0.2039896845817566,1.1025736331939697,1.3674139976501465
7,191425,191426,-0.08518742024898529,-0.026413656771183014,1.0441832542419434,-21.64764404296875,10.874951362609863,-1.8594789505004883,1.2359381914138794,2.5378730297088623,4.667766571044922,-0.0008457610383629799,0.7773715257644653,1.409299373626709
8,191435,191436,-0.08271551132202148,0.009195483289659023,1.0532472133636475,-29.97811508178711,2.1845827102661133,-2.5845696926116943,1.2404379844665527,2.5333733558654785,4.666266441345215,-0.10821425169706345,0.3058048486709595,1.4468635320663452
9,191445,191446,-0.03772156313061714,-0.009983953088521957,1.0350086688995361,-30.86463737487793,-6.368819713592529,-2.1662330627441406,1.2434377670288086,2.542372941970825,4.654267311096191,-0.0068812016397714615,0.29005998373031616,1.3391635417938232
10,191455,191456,-0.03922664001584053,-0.014210348948836327,1.0452724695205688,-24.284231185913086,-14.8477783203125,-0.7330425977706909,1.2584370374679565,2.5273735523223877,4.663266658782959,0.1622500866651535,0.10842905193567276,1.2987037897109985
11,191465,191466,0.010384795255959034,-0.024008022621273994,1.0114315748214722,-18.8612117767334,-16.549148559570312,0.9010280966758728,1.2509374618530273,2.516874074935913,4.65576696395874,0.28378111124038696,0.016569292172789574,1.2611380815505981
12,191475,191476,0.07239033281803131,-0.027314111590385437,1.019677758216858,-14.286038398742676,-16.312747955322266,1.919662356376648,1.2509374618530273,2.522873878479004,4.658766746520996,0.5603297352790833,-0.2806780934333801,1.3159701824188232
13,191485,191486,0.029410874471068382,-0.004337158519774675,1.0218658447265625,-10.130844116210938,-13.988543510437012,1.5292041301727295,1.2434377670288086,2.521373987197876,4.663266658782959,0.5452999472618103,-0.4245160222053528,1.3341615200042725
14,191495,191496,-0.012193994596600533,-0.021068284288048744,0.9848231673240662,-9.776355743408203,-8.385104179382324,1.3202979564666748,1.247937560081482,2.5138742923736572,4.640768051147461,0.7415191531181335,-0.5253066420555115,1.3525813817977905
15,191505,191506,-0.08025816828012466,0.015018850564956665,0.9999962449073792,-8.313044548034668,-2.1529393196105957,0.9687188863754272,1.247937560081482,2.5108745098114014,4.65576696395874,0.8316197991371155,-0.7516051530838013,1.4019973278045654
16,191515,191516,-0.17130857706069946,0.042245253920555115,1.062633752822876,-4.842893600463867,5.576640605926514,1.6249912977218628,1.2434377670288086,2.521373987197876,4.6482672691345215,0.6775532364845276,-0.5210822224617004,1.3314299583435059
17,191525,191526,-0.1237332671880722,0.01972583308815956,1.0611159801483154,-3.734720230102539,11.678211212158203,1.7658307552337646,1.2554372549057007,2.518373966217041,4.6482672691345215,0.7390820980072021,-0.6734120845794678,1.3759077787399292
18,191535,191536,-0.10848665982484818,-0.04458761587738991,0.9946011304855347,-4.428199768066406,13.874624252319336,1.3280733823776245,1.2584370374679565,2.5093743801116943,4.636268138885498,0.45459431409835815,-0.6833188533782959,1.3862978219985962
19,191545,191546,-0.16264092922210693,-0.07310028374195099,0.9607051610946655,-7.379684925079346,14.431695938110352,1.0562987327575684,1.2554372549057007,2.5063745975494385,4.630268573760986,0.22608739137649536,-0.7089088559150696,1.3955167531967163
20,191555,191556,-0.1726994663476944,-0.04814416915178299,0.9634009003639221,-13.955771446228027,9.894410133361816,-0.4361664652824402,1.2419378757476807,2.5018749237060547,4.6497673988342285,0.024075020104646683,-0.9504645466804504,1.4422091245651245
21,191565,191566,-0.09318465739488602,-0.03340983763337135,0.9256172776222229,-21.37413787841797,3.2424819469451904,-2.6404850482940674,1.244937777519226,2.495875120162964,4.631768226623535,-0.011746840551495552,-1.2267365455627441,1.4515798091888428
22,191575,191576,-0.05802931636571884,-0.019440198317170143,0.8666297197341919,-22.855152130126953,-6.304022312164307,-4.880213260650635,1.2509374618530273,2.486875534057617,4.625768661499023,0.07710255682468414,-1.3830064535140991,1.3902533054351807
23,191585,191586,-0.10210754722356796,0.059383295476436615,0.898131787776947,-19.781444549560547,-16.767812728881836,-6.1822896003723145,1.2494374513626099,2.494375228881836,4.615269184112549,0.2611125409603119,-1.3979984521865845,1.2807822227478027
24,191595,191596,-0.07991696149110794,0.07202035933732986,0.9110585451126099,-13.914406776428223,-22.096290588378906,-7.214503288269043,1.247937560081482,2.492875337600708,4.628768444061279,0.5737666487693787,-1.6176862716674805,1.2165130376815796
25,191605,191606,-0.10250581055879593,0.07329549640417099,0.9608690738677979,-10.380416870117188,-19.603342056274414,-7.3422675132751465,1.2569371461868286,2.489875555038452,4.631768226623535,0.7179002165794373,-1.804111123085022,1.1773933172225952
26,191615,191616,-0.08547325432300568,0.009917555376887321,0.9728016257286072,-6.348546028137207,-11.577713012695312,-7.275423049926758,1.2524373531341553,2.5003750324249268,4.6212687492370605,0.8420915007591248,-1.941502332687378,1.1290427446365356
27,191625,191626,-0.04274667426943779,-0.036662615835666656,0.903160572052002,-0.6492863297462463,1.760045051574707,-7.307839393615723,1.2434377670288086,2.49137544631958,4.6212687492370605,0.7222744822502136,-2.051564931869507,1.1051534414291382
28,191635,191636,-0.06844638288021088,0.006768031045794487,0.8805210590362549,2.122500419616699,13.818544387817383,-8.137348175048828,1.2629368305206299,2.492875337600708,4.625768661499023,0.6918282508850098,-1.9560871124267578,0.9971583485603333
29,191645,191646,-0.09997501969337463,-0.005990300793200731,0.9114800095558167,5.107267379760742,20.651662826538086,-8.66288948059082,1.247937560081482,2.4988749027252197,4.625768661499023,0.49507325887680054,-1.9543012380599976,0.9218865036964417
30,191655,191656,-0.13552860915660858,-0.017957080155611038,0.9584437608718872,11.576516151428223,23.514455795288086,-8.768278121948242,1.2539372444152832,2.489875555038452,4.631768226623535,0.1381993591785431,-1.8776237964630127,0.8547825813293457
31,191665,191666,-0.06827188283205032,-0.04013485088944435,0.9202913045883179,18.7741641998291,20.424846649169922,-8.772128105163574,1.2524373531341553,2.497375011444092,4.633268356323242,-0.13933676481246948,-1.8102307319641113,0.7908203601837158
32,191675,191676,-0.016609061509370804,0.023973073810338974,0.9152668714523315,23.368484497070312,12.936094284057617,-8.387722969055176,1.2359381914138794,2.4988749027252197,4.634768009185791,-0.25481629371643066,-1.5181903839111328,0.6649406552314758
33,191685,191686,-0.05649794265627861,0.005679858382791281,0.9361587166786194,27.163602828979492,5.824191093444824,-7.661930561065674,1.246437668800354,2.488375425338745,4.630268573760986,-0.25715646147727966,-1.2171698808670044,0.5476565957069397
34,191695,191696,-0.12084505707025528,-0.08454331755638123,0.9492676854133606,27.96584129333496,-0.8167129755020142,-6.472201824188232,1.2539372444152832,2.5018749237060547,4.625768661499023,-0.22036853432655334,-0.8020983934402466,0.4317226707935333
35,191705,191706,-0.1584806889295578,-0.1479509174823761,0.9004218578338623,22.36794090270996,-4.950051307678223,-4.856757164001465,1.247937560081482,2.486875534057617,4.631768226623535,-0.18085196614265442,-0.6346597671508789,0.38708680868148804
36,191715,191716,-0.09105367958545685,-0.08530857414007187,0.8617955446243286,14.832887649536133,-7.0280961990356445,-3.2843377590179443,1.2584370374679565,2.5003750324249268,4.64226770401001,-0.08917568624019623,-0.5022417902946472,0.3462504744529724
37,191725,191726,-0.00680324574932456,0.05135567486286163,0.8654256463050842,4.1863250732421875,-9.473714828491211,-1.0844610929489136,1.244937777519226,2.489875555038452,4.625768661499023,-0.01658015511929989,-0.3721039295196533,0.32006996870040894
38,191735,191736,0.07488393783569336,0.07919343560934067,0.8364934921264648,-7.446391582489014,-9.600493431091309,0.8354364037513733,1.2434377670288086,2.4853756427764893,4.630268573760986,-0.04416282847523689,-0.15322795510292053,0.30828800797462463
39,191745,191746,-0.08652213960886002,0.06514248996973038,0.9565978050231934,-16.704484939575195,-8.346299171447754,3.101752281188965,1.246437668800354,2.4823758602142334,4.630268573760986,-0.005411132238805294,-0.45398834347724915,0.3697192668914795
40,191755,191756,-0.12312302738428116,-0.014026066288352013,0.9247437715530396,-22.76573371887207,-4.928719997406006,4.723844051361084,1.244937777519226,2.4988749027252197,4.625768661499023,0.11828168481588364,-0.7409458160400391,0.41282159090042114
41,191765,191766,-0.12637031078338623,-0.007002975791692734,0.8879932761192322,-23.55459213256836,0.20928707718849182,6.308390140533447,1.2569371461868286,2.5018749237060547,4.631768226623535,0.16508057713508606,-1.0126867294311523,0.46841102838516235
42,191775,191776,-0.1294097751379013,0.05634070560336113,0.9029865264892578,-19.431812286376953,2.431225299835205,8.466992378234863,1.2404379844665527,2.5093743801116943,4.633268356323242,0.22424229979515076,-1.3996601104736328,0.5525878071784973
43,191785,191786,-0.13096775114536285,0.040868327021598816,0.8946042060852051,-10.880518913269043,1.5354719161987305,9.415030479431152,1.2494374513626099,2.5123744010925293,4.645267486572266,0.19489018619060516,-1.4709006547927856,0.6297334432601929
44,191795,191796,-0.12133508175611496,0.007738336455076933,0.9481571316719055,1.19178307056427,0.8424984812736511,10.191694259643555,1.2434377670288086,2.524373769760132,4.6482672691345215,0.1709776222705841,-1.5791386365890503,0.737307071685791
45,191805,191806,-0.032681047916412354,0.027524372562766075,1.003190279006958,11.540606498718262,-2.1498005390167236,9.722212791442871,1.2419378757476807,2.5258736610412598,4.646767616271973,0.10673446953296661,-1.6217148303985596,0.8646373152732849
46,191815,191816,-0.0008440080564469099,0.013501518405973911,0.914040744304657,17.45704460144043,-4.173862457275391,9.688407897949219,1.2509374618530273,2.522873878479004,4.652767181396484,0.14602896571159363,-1.3178699016571045,0.9360153675079346
47,191825,191826,0.01278570294380188,0.0674026608467102,0.9299675226211548,15.02777099609375,-6.995650291442871,9.238090515136719,1.246437668800354,2.5333733558654785,4.64226770401001,0.5305147171020508,-1.189085602760315,0.9717272520065308
48,191835,191836,0.08535891771316528,0.05788900703191757,0.9218698740005493,4.299655914306641,-4.556230545043945,8.3025484085083,1.246437668800354,2.5333733558654785,4.657267093658447,0.7633288502693176,-1.0893971920013428,1.0292147397994995
49,191845,191846,-0.005878094118088484,-0.0009050025837495923,0.9700484275817871,-4.370995044708252,0.9641897082328796,7.335569381713867,1.247937560081482,2.5288734436035156,4.658766746520996,0.8493040204048157,-1.0938550233840942,1.0973893404006958
50,191855,191856,-0.06343716382980347,-0.10891801118850708,1.0101039409637451,-11.500960350036621,8.964447975158691,4.903128623962402,1.2374380826950073,2.5333733558654785,4.630268573760986,0.9512255787849426,-1.1508948802947998,1.1302655935287476
51,191865,191866,-0.10196998715400696,-0.1561943143606186,0.9707205891609192,-15.719088554382324,21.288660049438477,2.607635021209717,1.2554372549057007,2.5363731384277344,4.64226770401001,-0.7022294402122498,-1.380199670791626,1.4719798564910889
52,191875,191876,-0.06128546595573425,-0.11513564735651016,0.9531078338623047,-15.212103843688965,28.8206787109375,-0.014431538991630077,1.2404379844665527,2.5273735523223877,4.645267486572266,-1.0442794561386108,-1.6295450925827026,1.5057512521743774
53,191885,191886,-0.017771584913134575,-0.036933641880750656,0.9409064650535583,-13.196756362915039,20.688457489013672,-0.2943688631057739,1.2269386053085327,2.5588719844818115,4.664766788482666,-1.2533071041107178,-1.5877361297607422,1.4639896154403687
54,191895,191896,0.020201819017529488,0.05980660393834114,0.9756461977958679,-8.743830680847168,4.064332008361816,-0.31687667965888977,1.231438398361206,2.5573720932006836,4.660266876220703,-1.2682234048843384,-1.782051920890808,1.4398119449615479
55,191905,191906,-0.025495950132608414,0.024629471823573112,1.0138208866119385,0.8973846435546875,-16.435314178466797,-0.7626996040344238,1.2374380826950073,2.5513722896575928,4.660266876220703,-1.1101148128509521,-1.8474817276000977,1.4164758920669556
56,191915,191916,-0.03474992513656616,-0.035018011927604675,0.9866433143615723,10.205018043518066,-28.934755325317383,-0.2950733006000519,1.246437668800354,2.545372724533081,4.660266876220703,-0.8111212253570557,-1.7442504167556763,1.4009507894515991
57,191925,191926,-0.07806701213121414,-0.02608061209321022,1.0465291738510132,15.75631332397461,-32.73604965209961,-0.1614537537097931,1.232938289642334,2.5558722019195557,4.65576696395874,-0.3158375322818756,-1.5292317867279053,1.3663452863693237
58,191935,191936,-0.128572478890419,-0.08532451093196869,1.0795060396194458,18.80426788330078,-29.472816467285156,-0.015099248848855495,1.244937777519226,2.5618717670440674,4.6497673988342285,0.10024168342351913,-1.2384990453720093,1.34683096408844
59,191945,191946,-0.11062639951705933,-0.13341838121414185,1.0196229219436646,14.52220630645752,-21.347003936767578,-0.5562770962715149,1.2509374618530273,2.5618717670440674,4.658766746520996,0.3485499322414398,-1.0269802808761597,1.352647304534912
60,191955,191956,-0.06264906376600266,-0.11769694834947586,1.0036382675170898,7.203083515167236,-7.5099053382873535,-2.0957465171813965,1.2524373531341553,2.5573720932006836,4.657267093658447,0.49429062008857727,-0.9794904589653015,1.3474262952804565
61,191965,191966,0.016164368018507957,-0.07964210957288742,1.0235507488250732,-0.37262415885925293,5.984752655029297,-3.5179953575134277,1.2494374513626099,2.548372507095337,4.669266223907471,0.559970498085022,-0.9183963537216187,1.3086446523666382
62,191975,191976,0.03926130011677742,-0.11133423447608948,0.9413139224052429,-4.232422351837158,13.805123329162598,-4.54559326171875,1.246437668800354,2.542372941970825,4.6482672691345215,0.4399670362472534,-0.8855594992637634,1.2681914567947388
63,191985,191986,-0.04738207161426544,-0.026601692661643028,1.0186537504196167,-6.2464118003845215,12.41635799407959,-6.388582229614258,1.244937777519226,2.549872398376465,4.652767181396484,0.2390468716621399,-0.9723820686340332,1.2260359525680542
64,191995,191996,-0.006341828033328056,-0.001372692408040166,1.0145058631896973,-5.41976261138916,14.973153114318848,-8.326233863830566,1.2569371461868286,2.543872833251953,4.646767616271973,0.11247526854276657,-1.0772695541381836,1.1492942571640015
65,192005,192006,0.04515107348561287,-0.028286561369895935,0.9562466740608215,0.6927967071533203,8.661370277404785,-9.685510635375977,1.2494374513626099,2.5393729209899902,4.657267093658447,0.08905653655529022,-0.9804419279098511,1.03192937374115
66,192015,192016,-0.01898411475121975,-0.02623138390481472,0.9788022041320801,7.444184303283691,0.5384678840637207,-11.06621265411377,1.246437668800354,2.5393729209899902,4.639267921447754,0.03195452317595482,-0.9262378215789795,0.9280866980552673
67,192025,192026,-0.04884612187743187,-0.04276852682232857,0.9846112132072449,14.601509094238281,-8.33655071258545,-12.153005599975586,1.2374380826950073,2.542372941970825,4.654267311096191,0.12396065890789032,-0.7573525905609131,0.7993924617767334
68,192035,192036,-0.07844817638397217,-0.0739721730351448,0.9830576777458191,21.069177627563477,-15.402668952941895,-13.063965797424316,1.246437668800354,2.542372941970825,4.657267093658447,0.33757638931274414,-0.6922267079353333,0.6680654883384705
69,192045,192046,-0.11649081110954285,-0.0683855265378952,1.0143177509307861,27.880369186401367,-15.82928466796875,-13.677213668823242,1.2434377670288086,2.542372941970825,4.663266658782959,0.5353673100471497,-0.43650123476982117,0.5274542570114136
70,192055,192056,-0.021515386179089546,-0.09694098681211472,0.9373277425765991,31.045289993286133,-12.770426750183105,-12.860600471496582,1.2509374618530273,2.543872833251953,4.667766571044922,0.7144444584846497,-0.22854553163051605,0.3975316286087036
71,192065,192066,0.008770154789090157,-0.09790145605802536,0.9139720797538757,29.91574478149414,-7.131150722503662,-11.808650970458984,1.2584370374679565,2.5513722896575928,4.654267311096191,0.8295157551765442,0.2823217511177063,0.2530842125415802
72,192075,192076,-0.03071495145559311,-0.054765913635492325,0.980218231678009,24.666574478149414,-1.0395396947860718,-10.784584999084473,1.2419378757476807,2.549872398376465,4.6497673988342285,0.920962929725647,0.5230487585067749,0.1372620165348053
73,192085,192086,-0.03954000771045685,-0.052050285041332245,0.9990193843841553,16.32240104675293,8.967168807983398,-9.835866928100586,1.2539372444152832,2.540872812271118,4.66176700592041,0.8733895421028137,0.5232400298118591,0.057930298149585724
74,192095,192096,-0.11347723007202148,-0.02675025537610054,1.0215867757797241,5.485331058502197,18.847246170043945,-8.690590858459473,1.247937560081482,2.5558722019195557,4.652767181396484,0.6685003638267517,0.7373024821281433,-0.04046645388007164
75,192105,192106,-0.15375162661075592,-0.07669089734554291,1.0784313678741455,-4.399640083312988,25.954137802124023,-6.560331344604492,1.2434377670288086,2.548372507095337,4.669266223907471,0.4453485310077667,0.7010540962219238,-0.11029694229364395
76,192115,192116,-0.10521328449249268,-0.15429319441318512,1.0306941270828247,-14.9452543258667,26.600725173950195,-3.8787732124328613,1.2404379844665527,2.5573720932006836,4.6512675285339355,0.21394968032836914,0.5641294717788696,-0.15827253460884094
77,192125,192126,-0.02451092004776001,-0.0557032935321331,1.0116286277770996,-23.10245132446289,22.615102767944336,-1.0093392133712769,1.2419378757476807,2.5588719844818115,4.65576696395874,-0.20057335495948792,0.40408632159233093,-0.18262389302253723
78,192135,192136,-0.0960119217634201,-0.10190314054489136,0.995275616645813,-23.557966232299805,15.781518936157227,1.4182730913162231,1.2404379844665527,2.5633718967437744,4.660266876220703,-0.23692528903484344,0.2330283522605896,-0.1884550005197525
79,192145,192146,-0.05389371141791344,-0.05335938557982445,1.0269898176193237,-19.466047286987305,7.496850967407227,3.316840648651123,1.2374380826950073,2.5573720932006836,4.672266483306885,-0.43127384781837463,-0.12171491235494614,-0.15257762372493744
80,192155,192156,-0.01109930407255888,-0.02425173670053482,1.0320758819580078,-8.303741455078125,0.559777557849884,5.139343738555908,1.2374380826950073,2.5573720932006836,4.645267486572266,-0.49010100960731506,-0.2717093527317047,-0.11053062975406647
81,192165,192166,-0.04544062167406082,0.024862216785550117,0.9887077212333679,3.7629024982452393,-1.8265796899795532,6.9298577308654785,1.2404379844665527,2.5633718967437744,4.657267093658447,-0.4692905843257904,-0.23769772052764893,-0.05631455406546593
82,192175,192176,-0.04935244470834732,0.04933535307645798,0.9857437610626221,11.64681625366211,-2.779498815536499,8.557095527648926,1.2404379844665527,2.5543723106384277,4.660266876220703,-0.2747158706188202,0.029125789180397987,0.012168113142251968
83,192185,192186,-0.042135972529649734,0.03128185495734215,0.9803388714790344,14.725631713867188,-2.97290301322937,9.774561882019043,1.2389379739761353,2.5648717880249023,4.66176700592041,-0.29393231868743896,0.1795540302991867,0.1010528951883316
84,192195,192196,-0.14557351171970367,0.020384255796670914,0.9888005256652832,14.120981216430664,-1.9766900539398193,10.645004272460938,1.2374380826950073,2.5603718757629395,4.660266876220703,-0.25122278928756714,0.4191693663597107,0.19809378683567047
85,192205,192206,-0.148307666182518,0.06380654871463776,1.0445529222488403,8.309072494506836,0.31479382514953613,11.701150894165039,1.2374380826950073,2.5633718967437744,4.666266441345215,-0.25579994916915894,0.5330901145935059,0.3098229169845581
86,192215,192216,-0.18539756536483765,-0.027954280376434326,1.006059169769287,-0.22677254676818848,6.978940963745117,12.286334037780762,1.2344383001327515,2.5543723106384277,4.669266223907471,-0.34362196922302246,0.5094456672668457,0.4331096112728119
87,192225,192226,-0.06627141684293747,-0.05559968948364258,0.9859099388122559,-13.251744270324707,11.119613647460938,12.452466011047363,1.2374380826950073,2.572371244430542,4.663266658782959,-0.49412888288497925,0.39110511541366577,0.5561073422431946
88,192235,192236,-0.035313088446855545,0.051408376544713974,1.026845097541809,-19.856014251708984,7.9525837898254395,11.889756202697754,1.2359381914138794,2.573871374130249,4.667766571044922,-0.5765929222106934,0.18545690178871155,0.6809771060943604
89,192245,192246,-0.07396308332681656,0.09224803745746613,1.0255112648010254,-23.23530387878418,4.796350479125977,10.940590858459473,1.2359381914138794,2.573871374130249,4.679765701293945,-0.7632508873939514,-0.036873623728752136,0.7881495952606201
90,192255,192256,-0.03557072952389717,0.009070347994565964,1.012316107749939,-22.497066497802734,1.5873627662658691,11.064608573913574,1.2389379739761353,2.5618717670440674,4.679765701293945,-0.6695377826690674,-0.06649373471736908,0.9097411036491394
91,192265,192266,-0.06092618778347969,0.03440487012267113,1.0128260850906372,-16.502962112426758,-5.2555155754089355,10.141400337219238,1.2254387140274048,2.5603718757629395,4.666266441345215,-0.6420348286628723,-0.05787738040089607,1.0194345712661743
92,192275,192276,-0.07241910696029663,0.026512105017900467,0.9729130864143372,-8.142417907714844,-6.897684097290039,8.842034339904785,1.2419378757476807,2.5648717880249023,4.673766136169434,-0.612167477607727,-0.2902791202068329,1.1122244596481323
93,192285,192286,-0.050902366638183594,-0.004116484895348549,1.0138633251190186,2.6110897064208984,-5.432080268859863,7.3981475830078125,1.231438398361206,2.5603718757629395,4.660266876220703,-0.5713508129119873,-0.2853485643863678,1.1934312582015991
94,192295,192296,-0.031384795904159546,0.04474332556128502,1.0294526815414429,9.481422424316406,-5.892642021179199,6.214080810546875,1.2389379739761353,2.5558722019195557,4.667766571044922,-0.46776509284973145,-0.2103681117296219,1.267343282699585
95,192305,192306,-0.0033110741060227156,0.07129190862178802,1.0371307134628296,12.470270156860352,-5.52305269241333,5.823213577270508,1.2359381914138794,2.5558722019195557,4.667766571044922,-0.510004997253418,-0.11361657828092575,1.318703293800354
96,192315,192316,0.04522079601883888,0.02122693881392479,0.9863371253013611,9.703577995300293,-3.945631265640259,5.0423808097839355,1.2269386053085327,2.5618717670440674,4.673766136169434,-0.4057946503162384,0.052607160061597824,1.3792076110839844
97,192325,192326,0.006162793375551701,-0.023696165531873703,0.9630221128463745,3.1848649978637695,-4.870081424713135,4.329751014709473,1.2404379844665527,2.5663716793060303,4.654267311096191,-0.3717498481273651,0.14185458421707153,1.425854206085205
98,192335,192336,0.0038461594376713037,-0.03441551700234413,0.9662775993347168,-5.86286735534668,-6.164809226989746,3.9229626655578613,1.247937560081482,2.5558722019195557,4.66176700592041,-0.32359233498573303,0.15626758337020874,1.4663432836532593
99,192345,192346,-0.027538960799574852,-0.05970318987965584,0.9661063551902771,-13.74515151977539,-7.206243515014648,3.2132394313812256,1.247937560081482,2.546872615814209,4.664766788482666,-0.1924426257610321,-0.03664771094918251,1.50296950340271
100,192355,192356,0.01218961551785469,-0.03869607672095299,0.9840406179428101,-19.374406814575195,-7.4007568359375,3.369520664215088,1.2374380826950073,2.5513722896575928,4.657267093658447,-0.1162831261754036,-0.334990918636322,1.5298283100128174
101,192365,192366,-0.007360225543379784,-0.052827633917331696,0.9713944792747498,-23.25929069519043,-6.501155853271484,3.8637077808380127,1.232938289642334,2.546872615814209,4.65576696395874,-0.18300698697566986,-0.36009737849235535,1.5595933198928833
102,192375,192376,-0.018621763214468956,-0.07730088382959366,0.9937639832496643,-22.50344467163086,-8.274845123291016,4.213583946228027,1.2419378757476807,2.5528724193573,4.652767181396484,-0.03935692831873894,-0.7014038562774658,1.604424238204956
103,192385,192386,-0.09541754424571991,-0.1278143674135208,0.9924770593643188,-22.855688095092773,-7.9585113525390625,4.550660133361816,1.247937560081482,2.549872398376465,4.65576696395874,-0.01797119341790676,-0.8098374009132385,1.6482981443405151
104,192395,192396,-0.05789420008659363,-0.08793345093727112,1.0243611335754395,-21.016130447387695,-7.468106746673584,3.1029210090637207,1.247937560081482,2.546872615814209,4.66176700592041,-0.13388845324516296,-1.1967836618423462,1.6715898513793945
105,192405,192406,-0.03583028167486191,-0.07301263511180878,1.0082734823226929,-17.336288452148438,-5.5217061042785645,1.3967124223709106,1.246437668800354,2.548372507095337,4.6512675285339355,0.09901536256074905,-1.2632982730865479,1.7100621461868286
106,192415,192416,0.03227899596095085,-0.07322846353054047,1.0211853981018066,-7.633215427398682,-6.297407150268555,0.3240507245063782,1.2434377670288086,2.542372941970825,4.654267311096191,0.17485807836055756,-1.3702993392944336,1.7198539972305298
107,192425,192426,-0.011356963776051998,-0.02761448174715042,1.026687741279602,2.4860734939575195,-4.915340423583984,-0.6069135665893555,1.2359381914138794,2.5528724193573,4.65576696395874,0.23823048174381256,-1.307114839553833,1.7213345766067505
108,192435,192436,-0.028508005663752556,-0.021928660571575165,1.002663016319275,11.791037559509277,0.5237022638320923,-1.733728051185608,1.246437668800354,2.542372941970825,4.645267486572266,0.3039661645889282,-1.2272979021072388,1.7121175527572632
109,192445,192446,-0.04892643541097641,-0.036018069833517075,0.9899905323982239,15.171537399291992,4.86899471282959,-3.258594274520874,1.2359381914138794,2.5588719844818115,4.646767616271973,0.08564186841249466,-1.1679458618164062,1.6879503726959229
110,192455,192456,-0.03597192466259003,-0.02611054852604866,0.9923241138458252,16.132911682128906,6.518733501434326,-4.704172134399414,1.2419378757476807,2.540872812271118,4.643767833709717,0.10501660406589508,-1.0109297037124634,1.64494788646698
111,192465,192466,-0.0341268815100193,-0.035644009709358215,0.9704536199569702,16.269210815429688,4.134607791900635,-5.036475658416748,1.2344383001327515,2.5363731384277344,4.6482672691345215,-0.01924230344593525,-0.7695699334144592,1.596240758895874
112,192475,192476,-0.023406608030200005,-0.026983676478266716,0.9778706431388855,15.541759490966797,-0.9336600303649902,-5.209746360778809,1.2419378757476807,2.5378730297088623,4.652767181396484,0.06497640907764435,-0.7508615851402283,1.5406694412231445
113,192485,192486,-0.024099690839648247,0.05189685896039009,0.9879276156425476,15.767868041992188,-7.234838008880615,-4.095482349395752,1.2419378757476807,2.5288734436035156,4.631768226623535,0.021466681733727455,-0.5781733393669128,1.4959481954574585
114,192495,192496,-0.03158033639192581,0.006162566598504782,0.9747208952903748,15.925625801086426,-8.356329917907715,-2.803502321243286,1.2419378757476807,2.543872833251953,4.658766746520996,0.18719440698623657,-0.4764862358570099,1.4587645530700684
115,192505,192506,-0.003512247698381543,0.07997236400842667,0.9999033212661743,12.270003318786621,-11.77698040008545,-2.1827943325042725,1.246437668800354,2.5393729209899902,4.6512675285339355,0.031100217252969742,-0.40092819929122925,1.4444681406021118
116,192515,192516,-0.042528439313173294,-0.024572793394327164,0.9609445929527283,10.483620643615723,-11.522074699401855,-1.6555254459381104,1.2434377670288086,2.5363731384277344,4.6512675285339355,0.2647058367729187,-0.22238746285438538,1.420897364616394
117,192525,192526,-0.03809843584895134,-0.055880118161439896,0.9652024507522583,9.163805961608887,-11.799254417419434,-0.797859787940979,1.246437668800354,2.5393729209899902,4.6512675285339355,0.5097341537475586,-0.06598962098360062,1.401938557624817
118,192535,192536,0.03556174412369728,0.014351233839988708,1.0013798475265503,5.572534084320068,-10.563241958618164,-1.4820928573608398,1.2389379739761353,2.543872833251953,4.643767833709717,0.5961767435073853,-0.026747437193989754,1.3938677310943604
119,192545,192546,0.014495091512799263,0.005302626173943281,0.9878758788108826,2.8551526069641113,-7.313723087310791,-1.9811404943466187,1.246437668800354,2.5513722896575928,4.636268138885498,0.5714089274406433,0.033162325620651245,1.3797845840454102
120,192555,192556,0.07167185842990875,-0.02336474135518074,0.9680333137512207,1.0128452777862549,-3.721491575241089,-3.0325498580932617,1.2434377670288086,2.545372724533081,4.657267093658447,0.6454558968544006,-0.016971630975604057,1.3585155010223389
121,192565,192566,0.010774380527436733,-0.04213855043053627,0.9584097862243652,-0.736566424369812,-6.591414928436279,-3.5227348804473877,1.247937560081482,2.5288734436035156,4.646767616271973,0.7704845666885376,-0.03317546099424362,1.3254494667053223
122,192575,192576,-0.021448591724038124,-0.03899567201733589,0.9737874865531921,-0.9404062628746033,-7.495002269744873,-3.468320369720459,1.2494374513626099,2.548372507095337,4.660266876220703,0.9233561754226685,-0.05082431435585022,1.2903510332107544
123,192585,192586,-0.04688160866498947,-0.04747357964515686,0.9802420735359192,-2.072840690612793,-7.699856758117676,-4.102653980255127,1.2554372549057007,2.5333733558654785,4.6512675285339355,0.8002722263336182,-0.08399751782417297,1.2539236545562744
124,192595,192596,-0.030737655237317085,0.021931150928139687,1.0014623403549194,-2.242072582244873,-8.298030853271484,-4.819944858551025,1.2494374513626099,2.5393729209899902,4.6512675285339355,0.9718316197395325,-0.11647242307662964,1.210599660873413
125,192605,192606,-0.01300033088773489,0.020052367821335793,1.0155137777328491,-1.5749058723449707,-5.343288421630859,-5.632564544677734,1.2494374513626099,2.545372724533081,4.645267486572266,1.0477877855300903,-0.14647415280342102,1.160208821296692
126,192615,192616,-0.035120610147714615,-0.046830616891384125,0.9841971397399902,-2.3044228553771973,-1.8808127641677856,-6.735789775848389,1.2524373531341553,2.542372941970825,4.645267486572266,1.074383020401001,-0.17448106408119202,1.1007546186447144
127,192625,192626,-0.040206242352724075,0.021656475961208344,1.0110130310058594,-0.8105673789978027,-1.1920887231826782,-8.27980899810791,1.2539372444152832,2.5588719844818115,4.652767181396484,1.1308302879333496,-0.12929117679595947,1.0210624933242798
128,192635,192636,-0.04227963462471962,-0.010217887349426746,0.992651104927063,1.2834808826446533,6.304787635803223,-9.795069694519043,1.246437668800354,2.542372941970825,4.6482672691345215,0.9036331176757812,-0.05741260573267937,0.9194994568824768
129,192645,192646,-0.0559232197701931,-0.07630438357591629,1.0328246355056763,2.50039005279541,9.979701042175293,-11.408763885498047,1.2344383001327515,2.5513722896575928,4.6482672691345215,0.8075270056724548,-0.03714161366224289,0.8134650588035583
130,192655,192656,-0.014238318428397179,-0.1401173174381256,1.0060441493988037,3.6432533264160156,13.24296760559082,-13.115506172180176,1.2494374513626099,2.5543723106384277,4.654267311096191,0.5808531045913696,0.0034775971435010433,0.6869617700576782
131,192665,192666,-0.025785276666283607,-0.18077434599399567,0.9421097636222839,5.13163948059082,10.00910758972168,-14.147089958190918,1.2434377670288086,2.5513722896575928,4.6482672691345215,0.4287620782852173,0.06356959789991379,0.5487041473388672
132,192675,192676,-0.06267149746417999,-0.1540803462266922,0.931098997592926,5.132631301879883,0.19917471706867218,-15.870612144470215,1.2569371461868286,2.543872833251953,4.640768051147461,0.38225919008255005,0.13052105903625488,0.39637312293052673
133,192685,192686,-0.04362909868359566,-0.06923418492078781,0.9467052817344666,2.217846155166626,-10.71119499206543,-17.2919921875,1.2524373531341553,2.548372507095337,4.645267486572266,0.4989723563194275,0.17146793007850647,0.23196324706077576
134,192695,192696,-0.027545863762497902,-0.018206961452960968,0.9657382965087891,1.255288004875183,-18.14607048034668,-18.207780838012695,1.247937560081482,2.5348732471466064,4.6497673988342285,0.6948839426040649,0.19336555898189545,0.056237805634737015
135,192705,192706,-0.007014331873506308,-0.044197361916303635,0.9362322092056274,0.9360734820365906,-19.42739486694336,-18.025501251220703,1.2419378757476807,2.543872833251953,4.6497673988342285,0.832909107208252,0.19794118404388428,-0.12947475910186768
136,192715,192716,0.01109372079372406,-0.10771484673023224,0.8652294278144836,1.8061649799346924,-18.965478897094727,-16.957191467285156,1.2509374618530273,2.543872833251953,4.65576696395874,1.1403471231460571,0.0713854730129242,-0.2830274701118469
137,192725,192726,-0.023351145908236504,-0.06704867631196976,0.9193005561828613,1.3210772275924683,-16.0737247467041,-15.793720245361328,1.2494374513626099,2.542372941970825,4.6512675285339355,1.2009401321411133,0.027118699625134468,-0.44849053025245667
138,192735,192736,-0.004817635286599398,0.017216358333826065,0.9487148523330688,0.6586839556694031,-10.165237426757812,-15.792202949523926,1.2434377670288086,2.548372507095337,4.6512675285339355,1.3867542743682861,0.18732765316963196,-0.6241323351860046
139,192745,192746,-0.030842410400509834,-0.02230084501206875,0.9419548511505127,2.3135085105895996,-2.7052736282348633,-15.768779754638672,1.2599369287490845,2.546872615814209,4.646767616271973,1.4519379138946533,0.20408844947814941,-0.783153772354126
140,192755,192756,-0.024057354778051376,-0.031891196966171265,0.9559343457221985,3.2057857513427734,0.667590320110321,-15.061442375183105,1.244937777519226,2.5558722019195557,4.66176700592041,1.2809041738510132,0.3225829005241394,-0.9645349383354187
141,192765,192766,-0.020796505734324455,-0.023568369448184967,0.9665423035621643,3.3419013023376465,2.230907440185547,-14.663908004760742,1.2374380826950073,2.572371244430542,4.663266658782959,1.2098422050476074,0.3635381758213043,-1.1174068450927734
142,192775,192776,-0.0405939482152462,-0.1162421926856041,0.950208842754364,5.133077621459961,-0.14036919176578522,-14.162423133850098,1.2434377670288086,2.572371244430542,4.663266658782959,1.229697585105896,0.4821907877922058,-1.2732598781585693
143,192785,192786,0.030562570318579674,-0.11524708569049835,0.8608191609382629,8.237071990966797,-7.438263893127441,-13.374043464660645,1.244937777519226,2.570871353149414,4.66176700592041,1.345787763595581,0.563335120677948,-1.410302996635437
144,192795,192796,-0.023568278178572655,-0.05192966386675835,0.8782528638839722,9.6181058883667,-17.232471466064453,-12.065600395202637,1.244937777519226,2.567871570587158,4.664766788482666,1.5260504484176636,0.6842774748802185,-1.5425280332565308
145,192805,192806,-0.02473907731473446,-0.044262755662202835,0.9688370823860168,10.259708404541016,-25.20086097717285,-10.661332130432129,1.2419378757476807,2.5558722019195557,4.66176700592041,1.7631638050079346,0.8271223902702332,-1.6651254892349243
146,192815,192816,-0.07494622468948364,-0.010853682644665241,1.0329408645629883,5.695210933685303,-28.310808181762695,-9.209341049194336,1.247937560081482,2.5828707218170166,4.682765960693359,2.075176954269409,0.8698193430900574,-1.7570242881774902
147,192825,192826,-0.04410884156823158,-0.021901624277234077,1.0398199558258057,-0.83933424949646,-21.759721755981445,-7.380710601806641,1.246437668800354,2.5843708515167236,4.687265396118164,2.2847747802734375,0.8999696969985962,-1.8476802110671997
148,192835,192836,-0.11225777864456177,-0.11466606706380844,1.005208134651184,-10.538413047790527,-14.41948413848877,-5.385570526123047,1.2599369287490845,2.5918703079223633,4.673766136169434,2.392780065536499,0.7987561821937561,-1.9117822647094727
149,192845,192846,-0.08796171098947525,-0.12543880939483643,1.0099384784698486,-19.89813995361328,1.6789270639419556,-3.2220547199249268,1.261436939239502,2.596370220184326,4.684265613555908,2.53460693359375,0.5910124182701111,-1.9360332489013672
150,192855,192856,-0.05968788266181946,-0.12266720831394196,1.0128414630889893,-23.515933990478516,17.049415588378906,-2.1568374633789062,1.2419378757476807,2.60086989402771,4.688765525817871,2.4981367588043213,0.4936794936656952,-1.9897266626358032
151,192865,192866,0.003146945731714368,-0.022908668965101242,1.0329887866973877,-27.212055206298828,31.195302963256836,-0.014885170385241508,1.2599369287490845,2.5918703079223633,4.664766788482666,2.067028760910034,0.12805460393428802,-1.9987043142318726
152,192875,192876,-0.0007915083551779389,-0.015174126252532005,1.0115437507629395,-30.563289642333984,40.89763259887695,2.4633359909057617,1.2539372444152832,2.597870111465454,4.673766136169434,1.6413097381591797,0.06546279042959213,-2.0605759620666504
153,192885,192886,-0.04694497212767601,-0.011276339180767536,1.0799434185028076,-30.98986053466797,36.81928634643555,4.244139194488525,1.2359381914138794,2.606869697570801,4.694765090942383,1.3515949249267578,-0.4835919439792633,-1.9447910785675049
154,192895,192896,-0.03787964954972267,-0.0342886745929718,1.0394030809402466,-29.319047927856445,27.815216064453125,4.435261249542236,1.2539372444152832,2.621868848800659,4.679765701293945,0.9511758089065552,-0.5142413973808289,-1.9888437986373901
155,192905,192906,-0.09827357530593872,-0.036439672112464905,1.0538913011550903,-21.857507705688477,17.836864471435547,3.975801944732666,1.2434377670288086,2.6173691749572754,4.69626522064209,0.7176195979118347,-0.923168957233429,-1.9073889255523682
156,192915,192916,-0.16241110861301422,-0.06635769456624985,1.053298830986023,-9.790549278259277,10.752689361572266,3.367300510406494,1.2509374618530273,2.594870090484619,4.664766788482666,0.6833811402320862,-1.0268938541412354,-1.8789091110229492
157,192925,192926,-0.12011510878801346,-0.07848188281059265,1.0624301433563232,4.055931568145752,3.8355860710144043,3.2907540798187256,1.2404379844665527,2.596370220184326,4.660266876220703,0.560710608959198,-0.9853753447532654,-1.8719600439071655
158,192935,192936,-0.03828974813222885,-0.08419844508171082,1.0349000692367554,15.20801067352295,-0.6301809549331665,4.444702625274658,1.2389379739761353,2.567871570587158,4.673766136169434,0.5483328104019165,-0.8101943731307983,-1.8560107946395874
159,192945,192946,-0.015866577625274658,-0.04415126517415047,1.023324728012085,17.854923248291016,-5.868453025817871,5.4764580726623535,1.2494374513626099,2.5603718757629395,4.666266441345215,0.610357403755188,-0.6461650729179382,-1.8040987253189087
160,192955,192956,0.029692305251955986,0.0032129210885614157,0.9917052984237671,14.602590560913086,-8.904759407043457,6.033599853515625,1.246437668800354,2.572371244430542,4.660266876220703,0.7451497912406921,-0.559514045715332,-1.7252557277679443
161,192965,192966,0.06943181157112122,-0.032273076474666595,0.9808803200721741,5.186755657196045,-8.2346773147583,5.28828239440918,1.2374380826950073,2.5633718967437744,4.675266265869141,0.910891056060791,-0.42377448081970215,-1.6703121662139893
162,192975,192976,0.02826368808746338,-0.038450099527835846,0.9895150661468506,-4.602921009063721,-5.96181583404541,3.8922102451324463,1.2674366235733032,2.569371461868286,4.669266223907471,0.9743779897689819,-0.5144239068031311,-1.6038283109664917
163,192985,192986,-0.0011913839261978865,-0.012961020693182945,0.9783607721328735,-13.758602142333984,2.115636110305786,2.198697805404663,1.2389379739761353,2.576871156692505,4.667766571044922,1.0158215761184692,-0.6863086223602295,-1.555722951889038
164,192995,192996,-0.012901440262794495,-0.06327016651630402,0.9228113889694214,-17.643394470214844,8.991666793823242,1.3483376502990723,1.2524373531341553,2.569371461868286,4.6482672691345215,0.9959932565689087,-0.6990771889686584,-1.5659500360488892
165,193005,193006,0.006012424826622009,-0.008576726540923119,0.9307262897491455,-14.088603019714355,14.13126277923584,0.8046417236328125,1.2419378757476807,2.573871374130249,4.6497673988342285,0.7987067699432373,-0.9323428869247437,-1.5459065437316895
166,193015,193016,-0.020313547924160957,0.060457244515419006,0.9929803013801575,-6.820969581604004,15.300325393676758,0.5740627646446228,1.2509374618530273,2.576871156692505,4.670766353607178,0.5584588646888733,-1.068350911140442,-1.5387986898422241
167,193025,193026,0.05035051703453064,0.10815446078777313,1.0623071193695068,2.9003536701202393,13.68117904663086,0.3413178026676178,1.2419378757476807,2.573871374130249,4.65576696395874,0.3321387469768524,-0.9839363098144531,-1.5511382818222046
168,193035,193036,0.07274971902370453,0.022798888385295868,1.0174829959869385,10.999300956726074,11.018733024597168,-0.0184401273727417,1.2374380826950073,2.5813708305358887,4.669266223907471,0.28934991359710693,-0.8909863233566284,-1.5547590255737305
169,193045,193046,0.05886412411928177,0.01161656342446804,0.9804063439369202,11.50072956085205,5.915839672088623,-0.32845181226730347,1.2359381914138794,2.570871353149414,4.670766353607178,0.30152612924575806,-0.8009909987449646,-1.5557984113693237
170,193055,193056,-0.005791109055280685,-0.029652202501893044,0.9752125144004822,7.377840995788574,-0.6744746565818787,-1.439120888710022,1.2509374618530273,2.5558722019195557,4.670766353607178,0.2563141882419586,-0.6594423055648804,-1.56832754611969
171,193065,193066,0.0019794264808297157,-0.029426150023937225,0.9768382906913757,-0.14985285699367523,-3.8223283290863037,-1.765107274055481,1.2599369287490845,2.546872615814209,4.667766571044922,0.36000946164131165,-0.6159037947654724,-1.587868332862854
172,193075,193076,0.023386036977171898,-0.009428019635379314,0.9754232168197632,-9.820859909057617,-7.109456539154053,-3.029895067214966,1.2434377670288086,2.5573720932006836,4.660266876220703,0.44743335247039795,-0.7158126831054688,-1.6068922281265259
173,193085,193086,0.006400842685252428,0.054497554898262024,1.007079005241394,-18.360639572143555,-4.9536213874816895,-4.126321315765381,1.2434377670288086,2.5603718757629395,4.6482672691345215,0.4005225598812103,-0.9094812870025635,-1.6337085962295532
174,193095,193096,0.033818259835243225,0.11586291342973709,1.0548675060272217,-20.23155403137207,1.6348410844802856,-4.075066089630127,1.2434377670288086,2.572371244430542,4.654267311096191,0.4272570312023163,-1.179955244064331,-1.6687198877334595
175,193105,193106,0.028385136276483536,0.04204286262392998,1.01827871799469,-15.639887809753418,5.360889434814453,-3.7035086154937744,1.244937777519226,2.570871353149414,4.664766788482666,0.3691596984863281,-1.2124459743499756,-1.7173490524291992
176,193115,193116,-0.004780482966452837,0.027168331667780876,0.9909893274307251,-8.35766887664795,7.030616283416748,-2.9892547130584717,1.2509374618530273,2.5558722019195557,4.646767616271973,0.2551192045211792,-1.4364722967147827,-1.7423582077026367
177,193125,193126,-0.101299948990345,-0.022140437737107277,1.002543568611145,-0.9334501624107361,7.308892726898193,-2.708535671234131,1.2554372549057007,2.578371047973633,4.660266876220703,0.1778334379196167,-1.5275280475616455,-1.7698384523391724
178,193135,193136,-0.11297783255577087,-0.0053848326206207275,1.1169310808181763,3.9878127574920654,3.648942232131958,-3.981735944747925,1.246437668800354,2.572371244430542,4.672266483306885,0.04616239666938782,-1.5014475584030151,-1.797856330871582
179,193145,193146,-0.07103656977415085,-0.06720656156539917,1.0721303224563599,5.262450695037842,-1.209782361984253,-5.631664752960205,1.2404379844665527,2.5663716793060303,4.663266658782959,0.0037182241212576628,-1.4307711124420166,-1.8437631130218506
180,193155,193156,-0.08137033879756927,-0.06133104860782623,1.03007972240448,7.251275539398193,-5.893215179443359,-8.341360092163086,1.2389379739761353,2.5798709392547607,4.682765960693359,0.05279657989740372,-1.3438911437988281,-1.9140304327011108
181,193165,193166,-0.07396765798330307,-0.07237744331359863,1.0248652696609497,6.445710182189941,-7.296422958374023,-11.494830131530762,1.2509374618530273,2.576871156692505,4.667766571044922,0.17288905382156372,-1.2364892959594727,-2.015350818634033
182,193175,193176,0.041634801775217056,-0.11798419058322906,0.9776745438575745,1.508103609085083,-6.554917335510254,-13.026296615600586,1.247937560081482,2.5798709392547607,4.6767659187316895,0.3177780210971832,-1.184409499168396,-2.1458466053009033
183,193185,193186,0.04117564111948013,-0.06847169995307922,0.9346435070037842,2.299496650695801,-2.836838960647583,-13.983308792114258,1.2524373531341553,2.575371265411377,4.657267093658447,0.4266785681247711,-1.1835601329803467,-2.2838294506073
184,193195,193196,0.061286672949790955,0.012564471922814846,0.9784194231033325,7.359255790710449,6.818830490112305,-13.810561180114746,1.2509374618530273,2.5828707218170166,4.667766571044922,0.4245701730251312,-1.1284797191619873,-2.424159526824951
185,193205,193206,0.01338972058147192,-0.034952420741319656,0.9899161458015442,16.57316780090332,16.030385971069336,-12.406717300415039,1.244937777519226,2.5858707427978516,4.66176700592041,0.3098525404930115,-0.9398139119148254,-2.5563175678253174
186,193215,193216,-0.03609733656048775,-0.0381159670650959,1.0601340532302856,25.861083984375,20.738370895385742,-11.948318481445312,1.2389379739761353,2.5918703079223633,4.670766353607178,0.06195439398288727,-0.7466681599617004,-2.671954870223999
187,193225,193226,-0.02879527024924755,-0.10385124385356903,1.0767260789871216,31.519405364990234,26.10369873046875,-11.971247673034668,1.244937777519226,2.594870090484619,4.685765743255615,-0.3334939777851105,-0.42737534642219543,-2.774573802947998
188,193235,193236,-0.013928239233791828,-0.1301218867301941,1.025087833404541,29.31154441833496,25.71872329711914,-11.989350318908691,1.2419378757476807,2.5888705253601074,4.667766571044922,-0.6934480667114258,-0.0633058175444603,-2.8833374977111816
189,193245,193246,-0.04057959467172623,-0.12589064240455627,0.9741834402084351,17.474172592163086,18.77382469177246,-12.167548179626465,1.2179391384124756,2.594870090484619,4.679765701293945,-0.5675998330116272,0.04096856340765953,-3.0571517944335938
190,193255,193256,-0.05412890762090683,-0.15380549430847168,0.961020827293396,-0.7243152260780334,10.971953392028809,-10.499643325805664,1.2344383001327515,2.5903704166412354,4.663266658782959,-0.7559080123901367,0.1811629682779312,-3.165799856185913
191,193265,193266,-0.10097965598106384,-0.14648687839508057,0.9515887498855591,-13.111116409301758,5.245238780975342,-9.719285011291504,1.2419378757476807,2.5798709392547607,4.673766136169434,-0.8346104025840759,0.051469530910253525,-3.2735533714294434
192,193275,193276,-0.0997658371925354,-0.17817877233028412,0.9520113468170166,-16.955196380615234,1.001387357711792,-9.205340385437012,1.2269386053085327,2.5828707218170166,4.670766353607178,-0.8993881344795227,-0.15420609712600708,-3.369582176208496
193,193285,193286,-0.007154809311032295,-0.14716309309005737,0.9529047012329102,-12.794937133789062,-4.725395202636719,-8.901654243469238,1.2299385070800781,2.594870090484619,4.670766353607178,-0.8645138740539551,-0.20999623835086823,-3.451655864715576
194,193295,193296,0.0632922351360321,-0.06676679849624634,0.9686381816864014,-6.586618900299072,-7.105802059173584,-9.062347412109375,1.2299385070800781,2.5828707218170166,4.66176700592041,-0.7412354946136475,-0.39336520433425903,-3.5522425174713135
195,193305,193306,0.05933466926217079,-0.0744764506816864,0.9877781867980957,0.5912574529647827,-5.048525333404541,-8.970520973205566,1.246437668800354,2.578371047973633,4.672266483306885,-0.7495935559272766,-0.3885679543018341,-3.632167100906372
196,193315,193316,0.08199983835220337,0.020420311018824577,1.0296961069107056,8.236873626708984,-1.8469517230987549,-9.974040031433105,1.2374380826950073,2.578371047973633,4.660266876220703,-0.6502162218093872,-0.32919833064079285,-3.724395275115967
197,193325,193326,0.11915049701929092,0.056638218462467194,1.024375081062317,11.616450309753418,1.5145865678787231,-10.94559097290039,1.247937560081482,2.570871353149414,4.667766571044922,-0.689723014831543,-0.1635057032108307,-3.8163671493530273
198,193335,193336,0.08956577628850937,0.040351752191782,1.0162811279296875,12.88624382019043,4.624695301055908,-11.018773078918457,1.2299385070800781,2.5828707218170166,4.6767659187316895,-0.647942841053009,-0.1783689260482788,-3.949589967727661
199,193345,193346,-0.013571880757808685,0.04672403633594513,1.0606954097747803,10.699395179748535,10.455390930175781,-11.692503929138184,1.232938289642334,2.576871156692505,4.670766353607178,-0.7691390514373779,-0.04103177785873413,-4.0581793785095215
200,193355,193356,-0.04337088391184807,0.00809445884078741,1.1072510480880737,5.644628524780273,13.49697208404541,-12.351944923400879,1.2284384965896606,2.5873706340789795,4.666266441345215,-0.9769108891487122,0.10953956097364426,-4.165997505187988
201,193365,193366,-0.08913636207580566,-0.03726523742079735,1.048059344291687,-0.961786687374115,9.81275749206543,-13.41303825378418,1.2389379739761353,2.5798709392547607,4.679765701293945,-1.1153534650802612,0.08098946511745453,-4.306495666503906
202,193375,193376,-0.15387080609798431,-0.07391342520713806,1.028299331665039,-5.740407466888428,5.869579315185547,-13.565864562988281,1.2359381914138794,2.5798709392547607,4.658766746520996,-1.327229380607605,0.020046044141054153,-4.446257591247559
203,193385,193386,-0.16828759014606476,-0.08850882947444916,1.0060852766036987,-12.799331665039062,0.1486588716506958,-12.567477226257324,1.2404379844665527,2.578371047973633,4.672266483306885,-1.3651942014694214,-0.08746153116226196,-4.576840400695801
204,193395,193396,-0.037227973341941833,-0.06766311079263687,0.9495683312416077,-14.228043556213379,-3.119966983795166,-10.671977996826172,1.232938289642334,2.567871570587158,4.658766746520996,-1.3029546737670898,-0.18477967381477356,-4.684902191162109
205,193405,193406,0.07204458862543106,-0.007314041256904602,0.9758687615394592,-12.627192497253418,-11.697793960571289,-7.745245456695557,1.2254387140274048,2.575371265411377,4.663266658782959,-1.1154987812042236,-0.2669770419597626,-4.76520299911499
206,193415,193416,0.1602431982755661,0.05029575154185295,0.9614201188087463,-10.066805839538574,-24.690526962280273,-5.4057416915893555,1.2359381914138794,2.5798709392547607,4.658766746520996,-0.8232570290565491,-0.4370589554309845,-4.844078063964844
207,193425,193426,0.07534826546907425,0.07235373556613922,1.0647691488265991,-6.684664726257324,-33.40142822265625,-5.4504499435424805,1.2194390296936035,2.572371244430542,4.666266441345215,-0.6266301870346069,-0.566971480846405,-4.906280994415283
208,193435,193436,-0.03873984515666962,-0.03954474255442619,1.04417085647583,-3.5702805519104004,-31.882183074951172,-4.084567546844482,1.2299385070800781,2.573871374130249,4.658766746520996,-0.44223400950431824,-0.6429247856140137,-4.961176872253418
209,193445,193446,-0.09407598525285721,-0.042979754507541656,0.9693445563316345,-3.07409930229187,-23.585206985473633,-3.0958645343780518,1.232938289642334,2.573871374130249,4.66176700592041,-0.02777717448771,-0.6995577812194824,-4.998443603515625
210,193455,193456,-0.06336559355258942,-0.020067963749170303,0.9774109125137329,-4.734123229980469,-14.384592056274414,-1.3980740308761597,1.2344383001327515,2.572371244430542,4.675266265869141,0.09893380850553513,-0.6776736974716187,-5.006572246551514
211,193465,193466,-0.090966135263443,0.0036345694679766893,1.0272119045257568,-7.766819000244141,-7.791024208068848,-0.18586570024490356,1.2494374513626099,2.5843708515167236,4.666266441345215,0.19960901141166687,-0.7639794945716858,-5.0175461769104
212,193475,193476,-0.14857056736946106,-0.015147611498832703,1.0301151275634766,-11.39883041381836,3.9178335666656494,-0.05654588341712952,1.2359381914138794,2.573871374130249,4.658766746520996,0.011699861846864223,-0.8509276509284973,-5.016308307647705
213,193485,193486,-0.09892870485782623,0.020851463079452515,0.9380446672439575,-12.990215301513672,12.432226181030273,-0.7849141955375671,1.247937560081482,2.594870090484619,4.670766353607178,-0.09350084513425827,-0.9107611775398254,-5.008441925048828
214,193495,193496,-0.06235988810658455,0.02055889181792736,0.9410772323608398,-13.663765907287598,13.65600872039795,-2.8203110694885254,1.2494374513626099,2.575371265411377,4.669266223907471,-0.025199223309755325,-1.1216071844100952,-5.043597221374512
215,193505,193506,-0.01223551295697689,-0.08416608721017838,0.9972386360168457,-9.184765815734863,10.134785652160645,-4.145248889923096,1.2359381914138794,2.576871156692505,4.667766571044922,-0.2337561398744583,-1.2964937686920166,-5.0889482498168945
216,193515,193516,-0.026024173945188522,-0.11898580193519592,0.9939743876457214,-4.427331924438477,7.279186725616455,-5.174349784851074,1.2434377670288086,2.575371265411377,4.660266876220703,-0.3448026180267334,-1.331272840499878,-5.133392333984375
217,193525,193526,-0.04810531064867973,-0.018359404057264328,0.9579493403434753,-0.9313713908195496,-1.6040786504745483,-5.952756881713867,1.244937777519226,2.5828707218170166,4.670766353607178,-0.3515016734600067,-1.2992663383483887,-5.1790771484375
218,193535,193536,-0.06160024181008339,0.042875710874795914,1.0209709405899048,2.8272690773010254,-8.653746604919434,-5.884919166564941,1.232938289642334,2.567871570587158,4.658766746520996,-0.26252037286758423,-1.3969216346740723,-5.255836009979248
219,193545,193546,-0.11015979945659637,-0.07528167217969894,1.0376092195510864,7.341082572937012,-9.51164436340332,-4.1130051612854,1.231438398361206,2.5663716793060303,4.672266483306885,-0.2529371380805969,-1.2190181016921997,-5.282919406890869
220,193555,193556,-0.08597958087921143,-0.0986919105052948,0.9531664252281189,7.163406848907471,-5.033531665802002,-3.06904935836792,1.2284384965896606,2.572371244430542,4.669266223907471,-0.23508413136005402,-1.223091721534729,-5.326758861541748
221,193565,193566,-0.0160713791847229,-0.02089596539735794,0.9379804730415344,-1.6728359460830688,-3.8832428455352783,-2.5034542083740234,1.2419378757476807,2.567871570587158,4.652767181396484,-0.12552709877490997,-1.1552361249923706,-5.353060245513916
222,193575,193576,0.0030190274119377136,0.00395576236769557,0.9880065321922302,-4.324750900268555,-2.830526351928711,-0.41535645723342896,1.246437668800354,2.578371047973633,4.666266441345215,-0.12229039520025253,-1.1914172172546387,-5.3666510581970215
223,193585,193586,-0.03754112496972084,-0.02648395672440529,1.0013327598571777,-1.2606161832809448,-4.833593845367432,2.3732876777648926,1.247937560081482,2.5858707427978516,4.670766353607178,-0.09723256528377533,-1.3637398481369019,-5.374007701873779
224,193595,193596,-0.04742758348584175,0.0472191646695137,0.984877347946167,3.751934766769409,-8.544184684753418,5.0819878578186035,1.2434377670288086,2.5843708515167236,4.663266658782959,-0.09089429676532745,-1.324964165687561,-5.327025413513184
225,193605,193606,-0.060752470046281815,-0.007344576995819807,0.9850706458091736,13.960736274719238,-10.870391845703125,8.842936515808105,1.2419378757476807,2.567871570587158,4.673766136169434,0.10367105901241302,-1.1521382331848145,-5.25693416595459
226,193615,193616,-0.04186837375164032,-0.11006077378988266,1.0273300409317017,24.350786209106445,-8.68758487701416,12.80219554901123,1.246437668800354,2.5843708515167236,4.657267093658447,0.30850890278816223,-1.095738410949707,-5.173583507537842
227,193625,193626,-0.040400002151727676,-0.07101389020681381,1.02615225315094,29.97774314880371,0.8531723618507385,16.355558395385742,1.2344383001327515,2.575371265411377,4.657267093658447,0.2041057050228119,-0.6864432692527771,-4.9952712059021
228,193635,193636,-0.015763679519295692,0.0032263416796922684,1.0260199308395386,28.34732437133789,12.195531845092773,18.148597717285156,1.246437668800354,2.575371265411377,4.6482672691345215,-0.20240667462348938,-0.44875049591064453,-4.7888407707214355
229,193645,193646,-0.038517583161592484,-0.02561173401772976,1.0036811828613281,21.044376373291016,18.568004608154297,19.065641403198242,1.2434377670288086,2.5813708305358887,4.672266483306885,-0.4718886613845825,-0.283127099275589,-4.5997185707092285
230,193655,193656,0.0019585592672228813,0.0015608238754794002,1.0074442625045776,12.312378883361816,16.511030197143555,20.493240356445312,1.2374380826950073,2.578371047973633,4.669266223907471,-0.6361960768699646,-0.10038919746875763,-4.4022111892700195
231,193665,193666,-0.020119400694966316,-0.02498825453221798,0.9858785271644592,5.224812030792236,7.003749370574951,20.914525985717773,1.2434377670288086,2.5843708515167236,4.663266658782959,-0.6982409954071045,0.07853104919195175,-4.190924644470215
232,193675,193676,-0.02862776257097721,-0.015217257663607597,1.0047597885131836,2.051466941833496,-7.887818336486816,20.91735076904297,1.2344383001327515,2.575371265411377,4.654267311096191,-0.6371926069259644,-0.03881533816456795,-4.00162935256958
233,193685,193686,-0.008276339620351791,-0.022837864235043526,0.9808928370475769,1.817622423171997,-24.949487686157227,20.76239776611328,1.2404379844665527,2.5633718967437744,4.645267486572266,-0.40063244104385376,0.02933245338499546,-3.7922210693359375
234,193695,193696,-0.008583652786910534,-0.03163278102874756,0.9870554208755493,5.581721305847168,-39.168609619140625,21.24998664855957,1.2419378757476807,2.5588719844818115,4.658766746520996,0.03863570839166641,-0.35968443751335144,-3.6313228607177734
235,193705,193706,0.008214926347136497,-0.024061767384409904,0.9957514405250549,10.446986198425293,-46.104766845703125,22.05093002319336,1.2494374513626099,2.5603718757629395,4.657267093658447,0.43585461378097534,-0.303276002407074,-3.41312313079834
236,193715,193716,-0.019694458693265915,-0.03334752097725868,1.0040268898010254,18.35493278503418,-44.64964294433594,23.3981876373291,1.2569371461868286,2.5618717670440674,4.66176700592041,0.7545259594917297,-0.07738714665174484,-3.170548915863037
237,193725,193726,-0.0474177822470665,-0.04698210209608078,1.0075665712356567,23.934734344482422,-34.516990661621094,25.160043716430664,1.261436939239502,2.5513722896575928,4.666266441345215,1.1308032274246216,0.1206035390496254,-2.926093339920044
238,193735,193736,0.00952491257339716,-0.04312774911522865,0.9492003321647644,27.119895935058594,-18.910524368286133,26.104188919067383,1.2674366235733032,2.545372724533081,4.672266483306885,1.4452612400054932,0.4554325044155121,-2.666917324066162
239,193745,193746,0.008980626240372658,-0.03386339172720909,0.9502924680709839,28.013118743896484,-1.651595115661621,26.629215240478516,1.2749361991882324,2.5558722019195557,4.673766136169434,1.621228814125061,0.8906114101409912,-2.399287700653076
240,193755,193756,-0.012239663861691952,-0.040376272052526474,0.9600709080696106,26.8199520111084,11.96886157989502,26.85516929626465,1.2584370374679565,2.5573720932006836,4.6512675285339355,1.5292932987213135,0.7657093405723572,-2.1305599212646484
241,193765,193766,-0.010776866227388382,-0.053310029208660126,0.9598023891448975,20.925094604492188,18.256450653076172,27.395206451416016,1.2539372444152832,2.570871353149414,4.664766788482666,1.3321882486343384,1.1597598791122437,-1.8596365451812744
242,193775,193776,0.012386576272547245,0.0029807868413627148,1.0177780389785767,15.450976371765137,15.868388175964355,27.26008415222168,1.2554372549057007,2.5663716793060303,4.669266223907471,1.1045105457305908,1.2416679859161377,-1.5788520574569702
243,193785,193786,-0.018466854467988014,-0.010903247632086277,0.9987870454788208,11.036358833312988,6.246666431427002,27.1905517578125,1.2494374513626099,2.5633718967437744,4.669266223907471,0.9779630899429321,1.3173490762710571,-1.2988642454147339
244,193795,193796,-0.025814753025770187,-0.057065967470407486,0.9749012589454651,10.49477767944336,-5.904465675354004,28.25096893310547,1.2584370374679565,2.575371265411377,4.669266223907471,1.0426225662231445,1.4868693351745605,-1.0221072435379028
245,193805,193806,-0.03382762148976326,-0.0035307167563587427,1.025963306427002,9.122495651245117,-17.426658630371094,29.921106338500977,1.244937777519226,2.546872615814209,4.6767659187316895,1.2327687740325928,1.5706806182861328,-0.7271062731742859
246,193815,193816,0.003196338191628456,-0.013421686366200447,0.9958199262619019,5.555822372436523,-24.034404754638672,31.321399688720703,1.270436406135559,2.5573720932006836,4.657267093658447,1.3563921451568604,1.6091114282608032,-0.43388131260871887
247,193825,193826,-0.029072806239128113,-0.0069372383877635,0.9993771910667419,0.9782044887542725,-24.889936447143555,31.628713607788086,1.2629368305206299,2.5558722019195557,4.66176700592041,1.6882596015930176,1.5799616575241089,-0.10664938390254974
248,193835,193836,-0.025235645473003387,-0.014138560742139816,0.9848012924194336,-6.126317024230957,-17.994722366333008,31.162939071655273,1.2674366235733032,2.5603718757629395,4.663266658782959,1.763449788093567,1.5365264415740967,0.17967887222766876
249,193845,193846,-0.0320030115544796,-0.024082673713564873,0.985485851764679,-9.96108627319336,-8.14775562286377,30.69161605834961,1.2599369287490845,2.549872398376465,4.670766353607178,2.0579895973205566,1.4649235010147095,0.5102047920227051
250,193855,193856,-0.028219951316714287,-0.020991208031773567,0.9701207876205444,-13.828010559082031,2.858376979827881,29.750690460205078,1.2689365148544312,2.5528724193573,4.66176700592041,2.092151641845703,1.3225597143173218,0.8148291707038879
251,193865,193866,0.0006988607347011566,-0.027866976335644722,0.9570879936218262,-18.725460052490234,11.395703315734863,29.335783004760742,1.2749361991882324,2.549872398376465,4.664766788482666,1.976364016532898,1.2574610710144043,1.0810028314590454
252,193875,193876,0.00024698342895135283,0.004131540656089783,1.002713680267334,-22.231176376342773,8.659782409667969,28.028989791870117,1.2779361009597778,2.5618717670440674,4.652767181396484,1.8764632940292358,0.9738651514053345,1.3858013153076172
253,193885,193886,-0.01170856598764658,-0.021313698962330818,0.9659314155578613,-28.135143280029297,4.823795318603516,26.85076141357422,1.2719364166259766,2.576871156692505,4.6767659187316895,1.8114962577819824,0.6116992831230164,1.6867305040359497
254,193895,193896,-0.026951666921377182,-0.01882491260766983,0.9719655513763428,-25.6363582611084,-1.2834699153900146,24.934711456298828,1.270436406135559,2.569371461868286,4.672266483306885,1.8287303447723389,0.35301026701927185,1.9501612186431885
255,193905,193906,-0.0040654707700014114,0.030832985416054726,1.0099648237228394,-21.176639556884766,-4.573409557342529,23.61176872253418,1.2539372444152832,2.567871570587158,4.6767659187316895,1.9200326204299927,0.1602282077074051,2.197099208831787
256,193915,193916,0.012632083147764206,0.014493877999484539,0.9851949214935303,-9.780985832214355,-10.623151779174805,22.707490921020508,1.2629368305206299,2.5528724193573,4.658766746520996,2.0115585327148438,-0.04789137840270996,2.445519208908081
257,193925,193926,0.017005540430545807,-0.00010804003977682441,0.9611680507659912,0.9371917843818665,-9.59013557434082,22.277002334594727,1.2689365148544312,2.5558722019195557,4.658766746520996,2.0846173763275146,-0.08144983649253845,2.654963254928589
258,193935,193936,0.013610291294753551,0.016598964110016823,0.9914683103561401,12.235505104064941,-5.965174674987793,20.27393341064453,1.2749361991882324,2.5558722019195557,4.66176700592041,2.1155200004577637,0.0735391303896904,2.831655502319336
259,193945,193946,-0.027841731905937195,-0.03592948243021965,0.9882853031158447,18.820955276489258,0.8366283774375916,18.190011978149414,1.27643620967865,2.5393729209899902,4.657267093658447,1.9850503206253052,0.36624476313591003,2.9541661739349365
260,193955,193956,-0.008099392987787724,-0.04200239107012749,0.9653111100196838,21.340097427368164,5.386595249176025,15.984858512878418,1.2599369287490845,2.5558722019195557,4.658766746520996,1.9791902303695679,0.6628701686859131,3.1012461185455322
261,193965,193966,-0.02299310639500618,0.010657534934580326,0.9823973774909973,15.477782249450684,7.361433982849121,13.765400886535645,1.247937560081482,2.5528724193573,4.66176700592041,1.907142162322998,0.7190408110618591,3.294844388961792
262,193975,193976,0.01281240489333868,0.015196971595287323,0.9821902513504028,6.189189434051514,6.925976276397705,10.93786907196045,1.2644367218017578,2.548372507095337,4.6512675285339355,1.7503972053527832,0.9340068697929382,3.375371217727661
263,193985,193986,0.01790686883032322,0.01725047081708908,0.992499828338623,-4.900306224822998,6.6925764083862305,9.343226432800293,1.2629368305206299,2.5348732471466064,4.658766746520996,1.6782175302505493,0.8969747424125671,3.4927818775177
264,193995,193996,-0.01946399360895157,-0.008542952127754688,0.9827704429626465,-10.261812210083008,5.681581974029541,6.958930969238281,1.2659367322921753,2.549872398376465,4.658766746520996,1.6247808933258057,0.6654611825942993,3.6276891231536865
265,194005,194006,-0.013212474063038826,-0.015805991366505623,0.9812549352645874,-12.214555740356445,4.09644079208374,5.54642391204834,1.261436939239502,2.5543723106384277,4.660266876220703,1.6467472314834595,0.4452937841415405,3.7369837760925293
266,194015,194016,-0.02518756128847599,0.009532387368381023,1.0120806694030762,-8.400164604187012,-0.26511067152023315,4.390397548675537,1.2659367322921753,2.549872398376465,4.66176700592041,1.640268087387085,0.31403279304504395,3.797027826309204
267,194025,194026,-0.03794942423701286,-0.07178828120231628,0.9936514496803284,-1.2051376104354858,-7.994916915893555,2.878516435623169,1.261436939239502,2.5393729209899902,4.663266658782959,1.6596304178237915,0.3516024053096771,3.804511308670044
268,194035,194036,-0.05807178094983101,-0.025576243177056313,1.0309404134750366,9.143378257751465,-11.863504409790039,2.28582763671875,1.27643620967865,2.5603718757629395,4.663266658782959,1.855027198791504,0.3789202868938446,3.84497332572937
269,194045,194046,-0.004025685600936413,0.0081063536927104,1.0239976644515991,19.441373825073242,-10.254293441772461,2.3025388717651367,1.2659367322921753,2.5558722019195557,4.670766353607178,1.8475468158721924,0.5048201084136963,3.8505501747131348
270,194055,194056,-0.0015394173096865416,0.011425157077610493,1.0319392681121826,24.690711975097656,-3.04848051071167,2.4346225261688232,1.261436939239502,2.5603718757629395,4.669266223907471,1.9117261171340942,0.9104360938072205,3.8138036727905273
271,194065,194066,-0.027542060241103172,0.00033855813671834767,1.0193486213684082,21.90815544128418,4.162324905395508,2.8951778411865234,1.27643620967865,2.548372507095337,4.6512675285339355,1.9341081380844116,0.9205557703971863,3.917783498764038
272,194075,194076,-0.04925070330500603,-0.0020051959436386824,1.0230746269226074,13.43990421295166,8.699410438537598,2.5171587467193604,1.270436406135559,2.5543723106384277,4.663266658782959,1.9115930795669556,1.1221649646759033,3.9475648403167725
273,194085,194086,-0.043287236243486404,-0.016134534031152725,1.0017495155334473,4.724692344665527,13.28508186340332,1.4888412952423096,1.27643620967865,2.5333733558654785,4.666266441345215,1.7388144731521606,1.1765748262405396,3.972181558609009
274,194095,194096,-0.022259516641497612,0.008862084709107876,1.042694330215454,-3.3808960914611816,15.034575462341309,1.904518485069275,1.2659367322921753,2.546872615814209,4.667766571044922,1.7344555854797363,1.2337026596069336,3.996129274368286
275,194105,194106,-0.008550499565899372,0.0013703141594305634,1.0218082666397095,-8.834184646606445,17.314361572265625,3.0004262924194336,1.2734363079071045,2.5273735523223877,4.657267093658447,1.4738211631774902,1.170213222503662,4.008309364318848
276,194115,194116,-0.020773526281118393,0.018419332802295685,1.0413247346878052,-10.125733375549316,19.62236785888672,3.6213536262512207,1.2599369287490845,2.5318734645843506,4.646767616271973,1.2481154203414917,1.0497740507125854,4.046207904815674
277,194125,194126,-0.016021572053432465,-0.0062536271288990974,0.9979840517044067,-6.667919635772705,20.01540184020996,4.178910732269287,1.2644367218017578,2.5303733348846436,4.657267093658447,1.0780658721923828,0.9502129554748535,4.096401691436768
278,194135,194136,-0.04769427329301834,-0.01575729437172413,1.0296911001205444,-2.8648602962493896,19.51079750061035,5.174685955047607,1.261436939239502,2.5303733348846436,4.654267311096191,0.9002722501754761,0.8989920020103455,4.148074626922607
279,194145,194146,-0.04320463165640831,-0.02483632043004036,1.0035735368728638,5.1324968338012695,17.797014236450195,6.945680141448975,1.2629368305206299,2.540872812271118,4.646767616271973,0.754992663860321,0.957114577293396,4.2009758949279785
280,194155,194156,-0.010914575308561325,-0.02567043900489807,0.9810949563980103,11.567083358764648,17.719520568847656,7.473121166229248,1.2539372444152832,2.540872812271118,4.65576696395874,0.4794406294822693,0.9788849353790283,4.273544788360596
281,194165,194166,-0.009063836187124252,-0.02292604371905327,0.9771650433540344,11.140242576599121,13.052063941955566,8.44568157196045,1.2509374618530273,2.5318734645843506,4.658766746520996,0.6451494693756104,0.9178694486618042,4.457444667816162
282,194175,194176,-0.012599325738847256,-0.016532620415091515,0.9794377684593201,5.153530120849609,6.307979583740234,5.6606268882751465,1.2584370374679565,2.548372507095337,4.672266483306885,0.6005755662918091,1.1085745096206665,4.518862724304199
283,194185,194186,-0.016137827187776566,-0.004924584645777941,1.0091086626052856,-0.7860035300254822,1.7947288751602173,3.810960054397583,1.2599369287490845,2.549872398376465,4.658766746520996,0.6504400372505188,1.0540201663970947,4.602684020996094
284,194195,194196,-0.05225758254528046,-0.028701214119791985,0.9722954034805298,-5.948113441467285,-0.05588064342737198,2.493812084197998,1.246437668800354,2.5513722896575928,4.660266876220703,0.6031275987625122,0.9728798270225525,4.637160301208496
285,194205,194206,-0.03579110652208328,0.06481074541807175,1.0114073753356934,-6.644623279571533,3.4561641216278076,2.4719834327697754,1.2554372549057007,2.5543723106384277,4.660266876220703,0.5504610538482666,0.9231404662132263,4.6533894538879395
286,194215,194216,0.022973615676164627,0.05680709332227707,1.0546704530715942,-7.071868896484375,7.217443466186523,3.2408056259155273,1.2554372549057007,2.548372507095337,4.660266876220703,0.3743687570095062,0.850608766078949,4.659097671508789
287,194225,194226,0.022361276671290398,-0.03611324727535248,1.059309482574463,-5.836678981781006,9.543511390686035,5.0098042488098145,1.2524373531341553,2.5543723106384277,4.672266483306885,0.2977864146232605,0.7854708433151245,4.699418544769287
288,194235,194236,0.0029358635656535625,-0.07629024982452393,1.0681499242782593,-5.040432929992676,12.597737312316895,5.952345371246338,1.2599369287490845,2.5648717880249023,4.65576696395874,0.18491096794605255,0.7328798174858093,4.755036354064941
289,194245,194246,-0.02187260240316391,-0.10673331469297409,0.9920007586479187,-3.856109142303467,10.236315727233887,5.67022705078125,1.247937560081482,2.5588719844818115,4.673766136169434,-0.025512849912047386,0.6956270933151245,4.800718307495117
290,194255,194256,-0.0662371963262558,0.0308219026774168,1.031019926071167,-5.677774906158447,8.892148971557617,4.713210105895996,1.2539372444152832,2.546872615814209,4.652767181396484,-0.001789861940778792,0.6507545709609985,4.87584114074707
291,194265,194266,-0.01253658626228571,0.05487942695617676,1.0341004133224487,-7.673048973083496,7.930142879486084,3.0767884254455566,1.2554372549057007,2.542372941970825,4.6482672691345215,-0.232299342751503,0.6498347520828247,4.888952732086182
292,194275,194276,0.016916705295443535,0.037136614322662354,1.0667383670806885,-7.6198248863220215,6.960590839385986,2.783425807952881,1.2569371461868286,2.549872398376465,4.646767616271973,-0.22748397290706635,0.5033548474311829,4.936546325683594
293,194285,194286,0.05111689865589142,-0.033432815223932266,1.0654869079589844,-8.824675559997559,4.841959476470947,1.0016744136810303,1.2404379844665527,2.545372724533081,4.660266876220703,-0.3130929470062256,0.4113333225250244,4.952060222625732
294,194295,194296,-0.005060175433754921,-0.0824945718050003,1.0331528186798096,-8.467790603637695,-1.574559211730957,-0.8437902927398682,1.2539372444152832,2.5288734436035156,4.6497673988342285,-0.3447040617465973,0.2974696457386017,4.950994491577148
295,194305,194306,-0.04775526374578476,-0.05722510814666748,1.003879189491272,-6.313930988311768,-5.929713249206543,-2.4424245357513428,1.2524373531341553,2.542372941970825,4.654267311096191,-0.30072662234306335,0.2064703106880188,4.936928749084473
296,194315,194316,-0.0623723641037941,-0.008297220803797245,1.0519847869873047,-2.1783454418182373,-11.390691757202148,-4.868956565856934,1.2599369287490845,2.5348732471466064,4.643767833709717,-0.18455547094345093,0.1748439520597458,4.90745735168457
297,194325,194326,-0.08051978796720505,0.0022441756445914507,1.056665301322937,1.5069409608840942,-12.545584678649902,-6.764429569244385,1.261436939239502,2.5333733558654785,4.64226770401001,-0.01674828678369522,0.20807814598083496,4.8582563400268555
298,194335,194336,-0.03409624844789505,0.01937492936849594,1.0362844467163086,1.3402718305587769,-7.995938301086426,-8.67784595489502,1.2554372549057007,2.521373987197876,4.657267093658447,-0.008348203264176846,0.20340923964977264,4.772762298583984
299,194345,194346,-0.0207841619849205,0.037527892738580704,1.0021814107894897,-0.2804732322692871,-3.771406412124634,-10.15302848815918,1.2659367322921753,2.5258736610412598,4.640768051147461,0.06951647996902466,0.2406548112630844,4.683116436004639
300,194355,194356,-0.005541935563087463,0.06019967794418335,0.9770714044570923,-0.25569871068000793,1.6813528537750244,-12.291440963745117,1.2599369287490845,2.522873878479004,4.643767833709717,-0.01208723895251751,0.19715692102909088,4.561751365661621
301,194365,194366,0.010535304434597492,0.06916539371013641,0.9967892169952393,0.17010632157325745,5.726112365722656,-14.181828498840332,1.2599369287490845,2.516874074935913,4.6497673988342285,-0.0995822548866272,0.2378826141357422,4.429207801818848
302,194375,194376,-0.006914231460541487,0.07159487158060074,1.0251659154891968,0.880225419998169,9.648571968078613,-15.567950248718262,1.2629368305206299,2.522873878479004,4.631768226623535,-0.2532022297382355,0.21501559019088745,4.275119304656982
303,194385,194386,-0.0027106921188533306,0.053104374557733536,1.040827989578247,-2.1370925903320312,12.493609428405762,-17.621410369873047,1.2629368305206299,2.519873857498169,4.646767616271973,-0.443250447511673,0.2504027783870697,4.1097235679626465
304,194395,194396,0.021770887076854706,0.012973581440746784,1.000136375427246,-1.8045231103897095,9.225311279296875,-18.81861686706543,1.2419378757476807,2.5288734436035156,4.646767616271973,-0.42821282148361206,0.17596016824245453,3.931694507598877
305,194405,194406,-0.029298938810825348,0.04097465053200722,0.9989093542098999,-0.40568849444389343,2.101201295852661,-20.994123458862305,1.2509374618530273,2.5258736610412598,4.65576696395874,-0.5492904186248779,0.18923769891262054,3.7352914810180664
306,194415,194416,-0.023093020543456078,0.05232660844922066,0.9855170845985413,2.128270387649536,-2.0226035118103027,-23.688007354736328,1.247937560081482,2.5288734436035156,4.646767616271973,-0.6979069709777832,0.028014779090881348,3.486342668533325
307,194425,194426,0.015024488791823387,0.019394008442759514,0.9874060750007629,8.343997955322266,-6.758065223693848,-26.2009334564209,1.2524373531341553,2.5333733558654785,4.64226770401001,-0.5510626435279846,0.150495246052742,3.2521250247955322
308,194435,194436,-0.04971834272146225,-0.06928365677595139,1.0218101739883423,15.817963600158691,-11.962813377380371,-27.4593505859375,1.2524373531341553,2.524373769760132,4.663266658782959,-0.4640085995197296,0.3046973645687103,2.9860999584198
309,194445,194446,-0.05480945482850075,-0.113231360912323,1.0417431592941284,22.674449920654297,-12.931100845336914,-27.17026710510254,1.2434377670288086,2.5333733558654785,4.654267311096191,-0.2573668360710144,0.6494931578636169,2.7345287799835205
310,194455,194456,-0.02039196528494358,-0.13099811971187592,1.0046355724334717,22.5285587310791,-9.00423812866211,-25.89191436767578,1.2389379739761353,2.5348732471466064,4.6497673988342285,-0.22294573485851288,0.7495214343070984,2.44592547416687
311,194465,194466,-0.004825545474886894,-0.08100391179323196,1.0252920389175415,20.8338680267334,0.4584077298641205,-23.39536476135254,1.2509374618530273,2.543872833251953,4.646767616271973,-0.14847195148468018,0.8301516771316528,2.1795289516448975
312,194475,194476,-0.007600622251629829,-0.03598712384700775,1.015243411064148,17.700904846191406,4.411280155181885,-20.796194076538086,1.244937777519226,2.5348732471466064,4.6497673988342285,-0.18254047632217407,1.0377311706542969,1.9596861600875854
313,194485,194486,0.03397286310791969,-0.03660338371992111,0.9701648950576782,17.58786392211914,9.771444320678711,-19.0302791595459,1.2389379739761353,2.5288734436035156,4.6497673988342285,-0.34417983889579773,1.3575011491775513,1.7810096740722656
314,194495,194496,0.00662251329049468,-0.03666665405035019,0.9750156998634338,15.733755111694336,7.172454833984375,-17.292404174804688,1.2344383001327515,2.5363731384277344,4.6512675285339355,-0.47063928842544556,1.52110755443573,1.5989408493041992
315,194505,194506,-0.015360656194388866,-0.015903886407613754,0.9936851859092712,8.932016372680664,3.7845683097839355,-17.08784294128418,1.2419378757476807,2.516874074935913,4.65576696395874,-0.5450139045715332,1.5486350059509277,1.40900456905365
316,194515,194516,0.038789425045251846,-0.01336556114256382,1.0012264251708984,4.881587505340576,0.23359543085098267,-17.05509376525879,1.2524373531341553,2.5273735523223877,4.6512675285339355,-0.42853841185569763,1.6226553916931152,1.2482179403305054
317,194525,194526,0.03814377635717392,-0.05548473447561264,1.0008087158203125,5.278254508972168,-4.449635028839111,-16.360445022583008,1.2509374618530273,2.5348732471466064,4.646767616271973,-0.38451632857322693,1.522990107536316,1.0556700229644775
318,194535,194536,-0.026291484013199806,-0.09810575842857361,1.0283888578414917,8.35023307800293,-7.614126682281494,-14.809209823608398,1.246437668800354,2.521373987197876,4.636268138885498,-0.4127822518348694,1.5955746173858643,0.8918229937553406
319,194545,194546,-0.0388251394033432,-0.04131760448217392,1.0309929847717285,11.32661247253418,-10.596294403076172,-13.306105613708496,1.2419378757476807,2.516874074935913,4.634768009185791,-0.24515719711780548,1.7870535850524902,0.7707741856575012
320,194555,194556,-0.07025797665119171,-0.08676489442586899,0.9957455396652222,13.720894813537598,-8.68531322479248,-11.721683502197266,1.2554372549057007,2.515374183654785,4.6512675285339355,-0.28029903769493103,2.013277053833008,0.6456601023674011
321,194565,194566,-0.12437920272350311,-0.12391405552625656,0.9618018865585327,13.667012214660645,-7.363076686859131,-9.849546432495117,1.2509374618530273,2.522873878479004,4.628768444061279,-0.1921849399805069,2.105689525604248,0.5268062949180603
322,194575,194576,-0.13224196434020996,-0.07132414728403091,0.96727055311203,10.301947593688965,-5.569980144500732,-7.96065616607666,1.2554372549057007,2.5033748149871826,4.639267921447754,-0.19452296197414398,2.1807310581207275,0.4156173765659332
323,194585,194586,-0.06553220748901367,-0.0002002664696192369,0.9440115690231323,5.844247341156006,-2.447770357131958,-5.403915882110596,1.247937560081482,2.495875120162964,4.634768009185791,-0.08933864533901215,2.262577533721924,0.3533916473388672
324,194595,194596,-0.014074360020458698,0.034283705055713654,0.9407594203948975,-0.04609188809990883,-0.08274327963590622,-2.655088424682617,1.247937560081482,2.5078744888305664,4.634768009185791,-0.038008905947208405,2.3347561359405518,0.32168668508529663
325,194605,194606,0.04292213171720505,0.059143032878637314,0.9608282446861267,-6.422874927520752,-1.872483491897583,-0.5940163135528564,1.261436939239502,2.494375228881836,4.633268356323242,-0.005221988540142775,2.1612892150878906,0.2852749228477478
326,194615,194616,0.088637575507164,0.037687212228775024,0.9604859352111816,-12.37686538696289,-6.419743061065674,1.7354731559753418,1.2584370374679565,2.5003750324249268,4.639267921447754,0.07149169594049454,2.0987651348114014,0.30053457617759705
327,194625,194626,0.09988904744386673,0.007914205081760883,0.9912824034690857,-15.61105728149414,-9.08535385131836,3.082425355911255,1.2569371461868286,2.516874074935913,4.637767791748047,0.1955016404390335,1.9528346061706543,0.33316200971603394
328,194635,194636,0.036211926490068436,-0.03307401016354561,1.0412729978561401,-16.571643829345703,-9.588764190673828,4.207578182220459,1.270436406135559,2.5093743801116943,4.639267921447754,0.07286661863327026,1.7698709964752197,0.31768423318862915
329,194645,194646,0.012555936351418495,-0.10133302956819534,1.0232000350952148,-14.820372581481934,-7.830725193023682,5.017075538635254,1.2509374618530273,2.5258736610412598,4.640768051147461,0.1825612336397171,1.5939418077468872,0.3624536991119385
330,194655,194656,0.024918416514992714,-0.12305024266242981,0.9693777561187744,-13.404361724853516,-5.241887092590332,5.3611249923706055,1.2629368305206299,2.5258736610412598,4.640768051147461,0.2027539610862732,1.5137382745742798,0.4069870114326477
331,194665,194666,0.059888701885938644,-0.09296675026416779,0.9133662581443787,-14.487764358520508,-4.537481784820557,5.2231574058532715,1.2569371461868286,2.5348732471466064,4.640768051147461,0.26168206334114075,1.294190526008606,0.4486748278141022
332,194675,194676,0.07943254709243774,-0.060413118451833725,0.8731276392936707,-18.22969627380371,-10.399853706359863,3.755855083465576,1.261436939239502,2.524373769760132,4.64226770401001,0.21075542271137238,1.027908205986023,0.45163315534591675
333,194685,194686,0.03167502582073212,0.009064385667443275,0.9312328696250916,-20.564970016479492,-21.179975509643555,1.9761961698532104,1.2689365148544312,2.5288734436035156,4.6497673988342285,0.4979701638221741,0.860659658908844,0.5129566788673401
334,194695,194696,0.0010653379140421748,0.0005041472613811493,0.9627127051353455,-18.54376983642578,-29.284940719604492,-0.10254146158695221,1.270436406135559,2.5363731384277344,4.6482672691345215,0.8550621867179871,0.9012970924377441,0.5685158967971802
335,194705,194706,-0.025486942380666733,0.009338478557765484,0.9876973628997803,-14.514649391174316,-29.59688949584961,-1.9866186380386353,1.2689365148544312,2.5288734436035156,4.637767791748047,1.2940829992294312,0.6897324919700623,0.5758010149002075
336,194715,194716,-0.015727419406175613,-0.06605003774166107,0.9561487436294556,-9.681365966796875,-23.394742965698242,-3.455186128616333,1.2659367322921753,2.549872398376465,4.65576696395874,1.4733805656433105,0.5505484938621521,0.5277549624443054
337,194725,194726,0.014526192098855972,-0.07243558764457703,0.9108041524887085,-9.184858322143555,-12.022441864013672,-4.694000720977783,1.2659367322921753,2.546872615814209,4.646767616271973,1.5162302255630493,0.38898369669914246,0.45371320843696594
338,194735,194736,-0.0011135044042021036,-0.012630078010261059,0.9278191328048706,-9.592451095581055,1.3772650957107544,-5.701179504394531,1.261436939239502,2.5393729209899902,4.654267311096191,1.546025276184082,0.3041791617870331,0.39850518107414246
339,194745,194746,-0.008424160070717335,0.0006423063459806144,0.9355264902114868,-7.364192008972168,13.531890869140625,-8.055402755737305,1.2569371461868286,2.5528724193573,4.6497673988342285,1.4497963190078735,0.16913793981075287,0.328268826007843
340,194755,194756,-0.04797068238258362,-0.06505095958709717,0.9528154134750366,-6.9677534103393555,22.156152725219727,-11.338730812072754,1.2509374618530273,2.5588719844818115,4.6497673988342285,1.1913306713104248,0.26011401414871216,0.21771353483200073
341,194765,194766,-0.060844700783491135,-0.05762293562293053,0.9685995578765869,-5.755497455596924,28.859777450561523,-13.265037536621094,1.2599369287490845,2.5648717880249023,4.664766788482666,0.6055575013160706,0.06898773461580276,0.058980073779821396
342,194775,194776,-0.0035089217126369476,0.03022470697760582,0.948806643486023,-1.1649326086044312,26.755538940429688,-14.316934585571289,1.2584370374679565,2.5663716793060303,4.672266483306885,0.7729775905609131,0.0041274819523096085,-0.03615525737404823
343,194785,194786,0.02416369877755642,0.03442585468292236,0.9513362050056458,12.693824768066406,11.468514442443848,-14.691003799438477,1.2509374618530273,2.5588719844818115,4.673766136169434,0.46380674839019775,0.08781145513057709,-0.19340650737285614
344,194795,194796,-0.023056183010339737,0.026234738528728485,1.0256237983703613,25.008054733276367,-1.7667962312698364,-13.584395408630371,1.2494374513626099,2.5633718967437744,4.675266265869141,0.4634154438972473,0.32033243775367737,-0.33389976620674133
345,194805,194806,-0.037778254598379135,0.017795899882912636,1.0157374143600464,31.611562728881836,-14.843671798706055,-12.977264404296875,1.2509374618530273,2.576871156692505,4.673766136169434,0.6038852334022522,0.6366466879844666,-0.465897798538208
346,194815,194816,-0.05174752324819565,-0.0032700919546186924,1.025343656539917,33.87177658081055,-20.689714431762695,-11.953620910644531,1.2404379844665527,2.596370220184326,4.6782660484313965,0.9150522351264954,1.098013997077942,-0.5969007015228271
347,194825,194826,-0.026541676372289658,0.0008171484805643559,1.0518898963928223,28.459131240844727,-22.382909774780273,-10.271712303161621,1.247937560081482,2.5798709392547607,4.6767659187316895,1.1432136297225952,1.3961690664291382,-0.7128961086273193
348,194835,194836,-0.039839476346969604,-0.0340174064040184,1.020325779914856,11.979568481445312,-18.602550506591797,-9.30912971496582,1.2644367218017578,2.578371047973633,4.675266265869141,1.2809065580368042,1.7285863161087036,-0.8250790238380432
349,194845,194846,-0.03633539751172066,-0.019718918949365616,1.032214641571045,-9.550024032592773,-11.770716667175293,-7.879166603088379,1.2524373531341553,2.569371461868286,4.666266441345215,1.6136683225631714,1.6709233522415161,-0.90479576587677
350,194855,194856,-0.042831920087337494,-0.0205796267837286,1.0518219470977783,-27.975589752197266,-2.192222833633423,-7.137948989868164,1.261436939239502,2.5633718967437744,4.663266658782959,1.6601711511611938,1.2638356685638428,-0.9658921360969543
351,194865,194866,-0.01967756263911724,-0.045317526906728745,1.037208080291748,-36.91310501098633,10.833805084228516,-5.461663246154785,1.2539372444152832,2.573871374130249,4.667766571044922,1.5276434421539307,0.7863271832466125,-1.023428201675415
352,194875,194876,-0.05270218849182129,-0.027431778609752655,1.0701979398727417,-38.27179718017578,15.30528450012207,-3.180598258972168,1.2674366235733032,2.572371244430542,4.657267093658447,1.305141806602478,0.43715766072273254,-1.0771313905715942
353,194885,194886,-0.009666305035352707,-0.006576400715857744,1.0075265169143677,-27.535165786743164,16.328664779663086,-0.42274680733680725,1.2569371461868286,2.5648717880249023,4.667766571044922,1.1169546842575073,0.2363174557685852,-1.113065481185913
354,194895,194896,0.0208745077252388,0.0130624296143651,1.0078541040420532,-12.432206153869629,11.22243595123291,1.3240652084350586,1.2599369287490845,2.570871353149414,4.667766571044922,1.1740095615386963,-0.09892114996910095,-1.0808008909225464
355,194905,194906,0.04621428623795509,-0.007959659211337566,1.0550364255905151,3.8703505992889404,9.947443962097168,2.7291436195373535,1.2734363079071045,2.5513722896575928,4.657267093658447,0.9821681380271912,-0.1618604063987732,-1.062912106513977
356,194915,194916,0.04110557958483696,-0.05681414529681206,1.0690336227416992,15.697837829589844,10.92835521697998,4.851790428161621,1.2569371461868286,2.540872812271118,4.658766746520996,0.7968997359275818,0.001620484865270555,-1.0377259254455566
357,194925,194926,-0.02278377115726471,-0.11641103774309158,1.052154541015625,23.272994995117188,10.413204193115234,6.426955223083496,1.2569371461868286,2.5528724193573,4.664766788482666,0.6242600083351135,0.23812957108020782,-0.9890764355659485
358,194935,194936,-0.06985791772603989,-0.1172337681055069,0.9949662089347839,22.414003372192383,7.107124328613281,7.3669843673706055,1.2674366235733032,2.5363731384277344,4.660266876220703,0.5616914629936218,0.6033627390861511,-0.9365448355674744
359,194945,194946,-0.12084408849477768,-0.09367428719997406,0.9664048552513123,13.806119918823242,3.9086430072784424,7.902973651885986,1.2674366235733032,2.548372507095337,4.657267093658447,0.8221538066864014,0.6658473014831543,-0.848240315914154
360,194955,194956,-0.12489410489797592,-0.05671762675046921,0.9936503767967224,1.7527847290039062,1.9885663986206055,7.244418144226074,1.2644367218017578,2.5333733558654785,4.6512675285339355,1.0310009717941284,0.7032662034034729,-0.7703269124031067
361,194965,194966,-0.0605497844517231,-0.03201426938176155,0.9753078818321228,-9.688061714172363,5.484527111053467,6.819519519805908,1.2689365148544312,2.5258736610412598,4.643767833709717,0.9989255666732788,0.6255610585212708,-0.6928302049636841
362,194975,194976,0.012980805709958076,-0.009004185907542706,0.9728261828422546,-16.664024353027344,11.322919845581055,6.074864864349365,1.2554372549057007,2.5303733348846436,4.64226770401001,0.8358854055404663,0.4723457098007202,-0.6242592334747314
363,194985,194986,0.014593522995710373,-0.008145825006067753,0.9802680015563965,-19.554393768310547,12.915506362915039,7.005785942077637,1.2569371461868286,2.5258736610412598,4.65576696395874,0.870195209980011,0.22710295021533966,-0.5549620389938354
364,194995,194996,0.027622779831290245,-0.0019414281705394387,0.9645897150039673,-14.60501766204834,17.062965393066406,7.64773416519165,1.2584370374679565,2.5333733558654785,4.64226770401001,0.6512590646743774,0.07386253774166107,-0.48310479521751404
365,195005,195006,0.021846137940883636,0.011312242597341537,0.9276540279388428,-5.479234218597412,15.822053909301758,8.537076950073242,1.2554372549057007,2.521373987197876,4.64226770401001,0.5459807515144348,-0.02942839451134205,-0.4036801755428314
366,195015,195016,0.030009139329195023,0.07597161829471588,0.967778205871582,5.362430095672607,13.092779159545898,8.969561576843262,1.2554372549057007,2.5303733348846436,4.657267093658447,0.24142225086688995,-0.02852773480117321,-0.3113713562488556
367,195025,195026,0.01187005266547203,0.13022635877132416,1.0165445804595947,12.077966690063477,10.442270278930664,8.686270713806152,1.2494374513626099,2.5303733348846436,4.645267486572266,0.2638287842273712,0.11066517978906631,-0.2327979952096939
368,195035,195036,-0.016614021733403206,0.10136692225933075,1.0047788619995117,14.168522834777832,6.31685733795166,7.949841022491455,1.2404379844665527,2.545372724533081,4.6512675285339355,0.13889789581298828,0.32529205083847046,-0.15478923916816711
369,195045,195046,-0.06928050518035889,0.07110223174095154,1.0030237436294556,10.427845001220703,3.130702257156372,6.91173791885376,1.247937560081482,2.546872615814209,4.6497673988342285,0.07435989379882812,0.4475017189979553,-0.07612226158380508
370,195055,195056,-0.11381365358829498,0.0015584123320877552,0.9769863486289978,3.888612747192383,-0.1855909675359726,5.9608330726623535,1.246437668800354,2.5363731384277344,4.657267093658447,0.056448180228471756,0.5548353791236877,-0.01322532631456852
371,195065,195066,-0.1628303974866867,0.004597111139446497,1.0391112565994263,-7.238224506378174,-3.1428117752075195,5.390666961669922,1.2419378757476807,2.546872615814209,4.65576696395874,0.217227503657341,0.5089991092681885,0.035831719636917114
372,195075,195076,-0.1024080291390419,-0.0048827072605490685,1.057822346687317,-17.928956985473633,-2.1589558124542236,3.958937883377075,1.2524373531341553,2.545372724533081,4.6512675285339355,0.18396276235580444,0.2808912396430969,0.09335523843765259
373,195085,195086,-0.06557109951972961,-0.05150382220745087,1.0728318691253662,-21.0344181060791,2.391214609146118,1.4447542428970337,1.2644367218017578,2.5333733558654785,4.639267921447754,0.12814339995384216,0.08330134302377701,0.1257651001214981
374,195095,195096,-0.03619428351521492,-0.14589355885982513,1.0305498838424683,-19.76297378540039,8.543182373046875,-0.19786134362220764,1.2644367218017578,2.5513722896575928,4.657267093658447,0.060016416013240814,-0.06034810468554497,0.13150371611118317
375,195105,195106,-0.05086434632539749,-0.13374702632427216,1.032902717590332,-16.020397186279297,15.127004623413086,-2.1881673336029053,1.2494374513626099,2.5333733558654785,4.660266876220703,0.02904236875474453,-0.31629103422164917,0.11610674113035202
376,195115,195116,-0.03936436027288437,-0.031120792031288147,1.0512385368347168,-8.46629810333252,21.89101791381836,-4.309759140014648,1.2509374618530273,2.5378730297088623,4.652767181396484,-0.4034806191921234,-0.32216525077819824,0.10146115720272064
377,195125,195126,0.021784653887152672,-0.006500510033220053,1.0052560567855835,0.5885981917381287,29.21831703186035,-5.664759635925293,1.2419378757476807,2.546872615814209,4.643767833709717,-0.5673956274986267,-0.5406702756881714,0.04222399741411209
378,195135,195136,0.035641513764858246,0.0057215383276343346,0.9965943694114685,10.720821380615234,27.435955047607422,-6.76422119140625,1.231438398361206,2.548372507095337,4.645267486572266,-0.8585639595985413,-0.44206786155700684,-0.01894725114107132
379,195145,195146,0.03433346748352051,-0.005307361949235201,0.9885542988777161,16.465524673461914,23.10491943359375,-10.153009414672852,1.2419378757476807,2.5348732471466064,4.66176700592041,-0.9683056473731995,-0.22516769170761108,-0.11557171493768692
380,195155,195156,-0.010516653768718243,-0.03728344663977623,0.971669614315033,18.608478546142578,20.26961898803711,-13.050017356872559,1.2524373531341553,2.5273735523223877,4.6512675285339355,-1.3095396757125854,-0.013038743287324905,-0.21384191513061523
381,195165,195166,-0.049762122333049774,-0.020709585398435593,1.036088466644287,16.96412467956543,15.82387924194336,-15.055113792419434,1.2359381914138794,2.543872833251953,4.637767791748047,-1.3889005184173584,0.04500793293118477,-0.3785812258720398
382,195175,195176,-0.07203131169080734,0.011174744926393032,1.074526071548462,13.210990905761719,8.184918403625488,-16.038183212280273,1.2434377670288086,2.542372941970825,4.64226770401001,-1.4445749521255493,0.2868479788303375,-0.5343090295791626
383,195185,195186,-0.09117832034826279,0.011999991722404957,1.0500468015670776,6.649059772491455,1.6984779834747314,-17.291261672973633,1.2509374618530273,2.5318734645843506,4.65576696395874,-1.5858155488967896,0.4304320812225342,-0.6853023767471313
384,195195,195196,-0.09228833764791489,0.0017531090416014194,1.022044062614441,1.7630994319915771,-4.631933212280273,-16.88518524169922,1.2344383001327515,2.5393729209899902,4.654267311096191,-1.6107816696166992,0.467119425535202,-0.8540308475494385
385,195205,195206,-0.06061623990535736,-0.01736590825021267,0.9858412742614746,-3.7648653984069824,-13.179586410522461,-15.352215766906738,1.2299385070800781,2.5378730297088623,4.640768051147461,-1.57820725440979,0.42477792501449585,-1.017615556716919
386,195215,195216,0.02858424372971058,-0.027369817718863487,0.9568455815315247,-6.03857421875,-13.568791389465332,-13.257246971130371,1.2389379739761353,2.5348732471466064,4.652767181396484,-1.3094981908798218,0.32049140334129333,-1.1898248195648193
387,195225,195226,0.11141916364431381,0.02638275735080242,0.9470720887184143,-6.047353744506836,-17.607376098632812,-11.041029930114746,1.2299385070800781,2.5348732471466064,4.646767616271973,-1.0890053510665894,0.20828178524971008,-1.332182765007019
388,195235,195236,0.081792451441288,0.04883900284767151,0.9503001570701599,-8.587174415588379,-18.310585021972656,-8.21761417388916,1.2419378757476807,2.5378730297088623,4.643767833709717,-0.7093197703361511,0.15217719972133636,-1.4489247798919678
389,195245,195246,0.035285744816064835,0.023123273625969887,1.0246788263320923,-10.791571617126465,-12.847688674926758,-6.109698295593262,1.2389379739761353,2.543872833251953,4.640768051147461,-0.5230510234832764,0.043105922639369965,-1.527031421661377
390,195255,195256,-0.008446309715509415,-0.051347192376852036,1.040544867515564,-8.00169563293457,5.799455165863037,-3.7710816860198975,1.2554372549057007,2.542372941970825,4.64226770401001,-0.4469631016254425,0.0732777863740921,-1.5499179363250732
391,195265,195266,-0.056562330573797226,-0.05413108319044113,0.9612737894058228,-7.719946384429932,23.874631881713867,-1.446463942527771,1.2419378757476807,2.5318734645843506,4.652767181396484,-0.8823651075363159,0.07370193302631378,-1.526833176612854
392,195275,195276,-0.045948561280965805,0.008495182730257511,0.9433581233024597,-7.506958961486816,33.1983528137207,-0.14507144689559937,1.2299385070800781,2.5588719844818115,4.646767616271973,-1.120575189590454,-0.07085265219211578,-1.557237148284912
393,195285,195286,-0.049937713891267776,-0.026657165959477425,0.9933201670646667,-4.992547512054443,34.02977752685547,0.9727708101272583,1.231438398361206,2.5513722896575928,4.654267311096191,-1.5286206007003784,-0.19008176028728485,-1.5611381530761719
394,195295,195296,-0.06624458730220795,-0.10935088992118835,1.0178251266479492,-2.46252703666687,28.260313034057617,2.209782123565674,1.2404379844665527,2.5513722896575928,4.645267486572266,-1.7967438697814941,-0.2761876583099365,-1.5636298656463623
395,195305,195306,-0.07570666819810867,-0.1644974648952484,0.9859519600868225,-2.28692626953125,14.436430931091309,3.3539390563964844,1.2254387140274048,2.5603718757629395,4.64226770401001,-2.0285468101501465,-0.32992321252822876,-1.5429434776306152
396,195315,195316,-0.04300595074892044,-0.1564328819513321,0.9396381974220276,-0.5770260691642761,-4.3917059898376465,3.2427375316619873,1.2269386053085327,2.540872812271118,4.640768051147461,-1.9060359001159668,-0.23685288429260254,-1.4960428476333618
397,195325,195326,0.011232443153858185,-0.057742878794670105,0.9074603915214539,0.15866009891033173,-22.344778060913086,2.2798476219177246,1.2374380826950073,2.5393729209899902,4.64226770401001,-1.6984310150146484,-0.254108190536499,-1.4812031984329224
398,195335,195336,0.004545425530523062,0.04598594829440117,0.9510302543640137,1.9132119417190552,-30.5687198638916,2.72469162940979,1.2299385070800781,2.5558722019195557,4.65576696395874,-1.5152288675308228,-0.17818178236484528,-1.426243782043457
399,195345,195346,-0.020358096808195114,0.04602004215121269,1.0153756141662598,2.9553709030151367,-28.8991641998291,3.699941635131836,1.2254387140274048,2.5633718967437744,4.666266441345215,-1.1529568433761597,-0.15824685990810394,-1.4037708044052124
400,195355,195356,0.0015495744301006198,0.009660287760198116,0.9937860369682312,3.272498607635498,-13.742056846618652,3.8485188484191895,1.2419378757476807,2.5618717670440674,4.658766746520996,-0.9734132289886475,-0.12662114202976227,-1.356756329536438
401,195365,195366,-0.0008634183323010802,-0.004525246564298868,0.9885497093200684,4.73479700088501,3.959214210510254,3.0095534324645996,1.2344383001327515,2.542372941970825,4.6482672691345215,-0.9415366053581238,-0.10087228566408157,-1.3228650093078613
402,195375,195376,-0.038247667253017426,-0.011283649131655693,0.9904805421829224,7.377229690551758,17.092025756835938,2.4084787368774414,1.2374380826950073,2.5543723106384277,4.6482672691345215,-1.1442739963531494,0.047404151409864426,-1.2517917156219482
403,195385,195386,0.008452308364212513,0.03949643298983574,0.9924904704093933,10.251692771911621,21.41222381591797,1.7944074869155884,1.2239388227462769,2.576871156692505,4.65576696395874,-1.419419288635254,0.1704108566045761,-1.2083230018615723
404,195395,195396,0.034633930772542953,0.022620216012001038,1.0024055242538452,11.412154197692871,15.181459426879883,2.884701728820801,1.232938289642334,2.570871353149414,4.670766353607178,-1.5304690599441528,0.4025849997997284,-1.1558195352554321
405,195405,195406,0.05977777764201164,0.0008551633800379932,0.9711477756500244,10.973346710205078,4.21600866317749,4.665934085845947,1.2284384965896606,2.5633718967437744,4.657267093658447,-1.640764594078064,0.5512796640396118,-1.1063355207443237
406,195415,195416,0.03443096578121185,0.013276264071464539,0.9383392333984375,8.92498779296875,-7.5670294761657715,5.939377307891846,1.2344383001327515,2.5603718757629395,4.6482672691345215,-1.5716723203659058,0.5268633961677551,-1.1016738414764404
407,195425,195426,-0.03350682556629181,0.0031524566002190113,0.967073917388916,6.80404806137085,-14.354272842407227,7.015097141265869,1.232938289642334,2.5558722019195557,4.643767833709717,-1.4324777126312256,0.6222631931304932,-1.0365184545516968
408,195435,195436,-0.06048183515667915,0.0012386635644361377,1.0152606964111328,5.065220355987549,-17.19533348083496,8.070762634277344,1.2389379739761353,2.5558722019195557,4.643767833709717,-1.4318865537643433,0.6789436936378479,-0.9464001655578613
409,195445,195446,-0.05819879472255707,0.006523601710796356,1.0157020092010498,6.744490623474121,-16.929288864135742,9.315430641174316,1.2419378757476807,2.5588719844818115,4.643767833709717,-1.2439335584640503,0.8132132291793823,-0.8384150266647339
410,195455,195456,-0.07911336421966553,0.030862830579280853,0.9985281229019165,3.7621872425079346,-17.179346084594727,11.2515230178833,1.232938289642334,2.5588719844818115,4.646767616271973,-0.9806971549987793,0.7918046712875366,-0.7690696716308594
411,195465,195466,-0.023243306204676628,0.06943200528621674,1.0383944511413574,-0.06791246682405472,-14.008663177490234,13.210089683532715,1.247937560081482,2.5378730297088623,4.6497673988342285,-0.7612215876579285,0.8623332381248474,-0.6379770040512085
412,195475,195476,-0.007390868850052357,0.059034913778305054,1.0596506595611572,-6.64223575592041,-5.809065818786621,14.891631126403809,1.244937777519226,2.546872615814209,4.66176700592041,-0.7001606225967407,0.7027682662010193,-0.5388830900192261
413,195485,195486,0.011695826426148415,0.04417238011956215,0.9887006282806396,-10.719100952148438,3.1570162773132324,16.57501983642578,1.2419378757476807,2.549872398376465,4.643767833709717,-0.7007138133049011,0.6001132130622864,-0.387074738740921
414,195495,195496,0.015398329123854637,0.05264760181307793,1.0006566047668457,-13.002355575561523,9.585556030273438,18.365270614624023,1.247937560081482,2.543872833251953,4.646767616271973,-0.9076486229896545,0.519379734992981,-0.19492319226264954
415,195505,195506,0.018053054809570312,0.007031708024442196,0.9899330139160156,-11.298629760742188,13.099383354187012,20.222606658935547,1.2359381914138794,2.549872398376465,4.664766788482666,-1.0432054996490479,0.4315018951892853,0.009170318022370338
416,195515,195516,-0.0015229715500026941,-0.02936433255672455,0.9680362343788147,-8.071100234985352,12.902689933776855,20.90131187438965,1.2554372549057007,2.5543723106384277,4.660266876220703,-1.2616286277770996,0.5244183540344238,0.2726070284843445
417,195525,195526,0.030839085578918457,0.0240213293582201,0.9701027274131775,-6.08786678314209,8.219038009643555,21.737934112548828,1.232938289642334,2.5648717880249023,4.670766353607178,-1.3008602857589722,0.5774809122085571,0.5184570550918579
418,195535,195536,-0.0008294140570797026,0.09132768213748932,1.0228675603866577,-7.71351432800293,0.8599787354469299,22.2474365234375,1.2434377670288086,2.5663716793060303,4.669266223907471,-1.2417494058609009,0.5500856041908264,0.7485341429710388
419,195545,195546,0.018897810950875282,0.027867477387189865,0.981499969959259,-11.284921646118164,-5.855499267578125,21.381162643432617,1.2254387140274048,2.5633718967437744,4.666266441345215,-1.1938179731369019,0.34364235401153564,0.9332085847854614
420,195555,195556,0.007899225689470768,0.019235992804169655,1.0443894863128662,-14.184588432312012,-12.053342819213867,19.43020248413086,1.2344383001327515,2.5573720932006836,4.660266876220703,-1.1172102689743042,0.29214566946029663,1.1583003997802734
421,195565,195566,-0.05843532830476761,-0.10636769235134125,0.9898564219474792,-15.82418441772461,-13.4052734375,18.160261154174805,1.2524373531341553,2.5543723106384277,4.6482672691345215,-1.0572230815887451,-0.015115322545170784,1.30514657497406
422,195575,195576,-0.10225800424814224,-0.06755273789167404,1.0625977516174316,-14.503744125366211,-9.181388854980469,17.666824340820312,1.2359381914138794,2.5558722019195557,4.643767833709717,-0.8771454095840454,0.037784311920404434,1.5398409366607666
423,195585,195586,-0.059575606137514114,0.0030781119130551815,1.0688190460205078,-13.644099235534668,-1.2187776565551758,16.409807205200195,1.244937777519226,2.5378730297088623,4.652767181396484,-0.9477547407150269,-0.17864850163459778,1.6929129362106323
424,195595,195596,0.03474840149283409,-0.014378332532942295,1.022391438484192,-14.666841506958008,5.029761791229248,15.81328296661377,1.2299385070800781,2.5588719844818115,4.6497673988342285,-0.97818922996521,-0.32726195454597473,1.8526521921157837
425,195605,195606,0.0519443079829216,-0.03474718704819679,1.0002737045288086,-13.18014144897461,6.462884902954102,15.31258487701416,1.2524373531341553,2.5633718967437744,4.660266876220703,-1.0684844255447388,-0.4037572741508484,2.0257961750030518
426,195615,195616,0.039708152413368225,-0.09077516943216324,0.9795615077018738,-13.321259498596191,5.112912654876709,14.012048721313477,1.232938289642334,2.543872833251953,4.646767616271973,-1.087839126586914,-0.39882662892341614,2.206024408340454
427,195625,195626,-0.012745409272611141,-0.06307922303676605,1.0105137825012207,-16.74370002746582,2.0679163932800293,11.672598838806152,1.2494374513626099,2.5333733558654785,4.6512675285339355,-1.1403816938400269,-0.6401588320732117,2.314270257949829
428,195635,195636,-0.007337738294154406,-0.10292572528123856,0.9957129955291748,-15.833025932312012,-0.4904802441596985,10.573945045471191,1.2539372444152832,2.5318734645843506,4.622768878936768,-1.1438182592391968,-0.7712488770484924,2.434765100479126
429,195645,195646,-0.027524538338184357,-0.13282659649848938,1.0004037618637085,-14.12804126739502,-5.749649524688721,9.321566581726074,1.231438398361206,2.5513722896575928,4.657267093658447,-1.0896433591842651,-0.948248565196991,2.528169631958008
430,195655,195656,-0.04339219257235527,-0.03877244517207146,1.027327299118042,-8.858969688415527,-8.416579246520996,9.36683464050293,1.2404379844665527,2.5393729209899902,4.6512675285339355,-0.9695423245429993,-1.0635290145874023,2.6200618743896484
431,195665,195666,0.032360635697841644,0.02767079323530197,1.0088307857513428,-2.793645143508911,-10.713277816772461,8.870150566101074,1.2584370374679565,2.5303733348846436,4.633268356323242,-0.8921592235565186,-1.0208417177200317,2.739192247390747
432,195675,195676,0.07339418679475784,0.06955977529287338,1.0149518251419067,2.7492587566375732,-10.544501304626465,8.952005386352539,1.2509374618530273,2.546872615814209,4.646767616271973,-0.9257508516311646,-1.0853686332702637,2.8299450874328613
433,195685,195686,0.06719418615102768,-0.017262060195207596,0.9449120759963989,4.7445173263549805,-11.935248374938965,8.969024658203125,1.246437668800354,2.5303733348846436,4.6482672691345215,-0.7951879501342773,-0.9425391554832458,2.940296173095703
434,195695,195696,-0.037344567477703094,-0.03953434154391289,0.9882810115814209,3.294825315475464,-12.67914867401123,8.187481880187988,1.2509374618530273,2.543872833251953,4.646767616271973,-0.6510254740715027,-0.9387832880020142,3.0158886909484863
435,195705,195706,-0.047860611230134964,-0.04680044949054718,0.9832395911216736,-1.479425311088562,-8.862802505493164,6.266290187835693,1.2524373531341553,2.548372507095337,4.6512675285339355,-0.44516852498054504,-0.9839113354682922,3.065969467163086
436,195715,195716,-0.05294753983616829,-0.011957239359617233,1.0068678855895996,-5.78457498550415,-3.9765067100524902,5.209981918334961,1.2599369287490845,2.5288734436035156,4.640768051147461,-0.5411593914031982,-1.0332657098770142,3.1479332447052
437,195725,195726,-0.07562987506389618,0.013553078286349773,0.9879942536354065,-9.592740058898926,5.242204666137695,3.8000025749206543,1.247937560081482,2.5378730297088623,4.643767833709717,-0.6737008094787598,-1.147276759147644,3.20638108253479
438,195735,195736,-0.05354443937540054,0.02221711538732052,0.9701288938522339,-11.674398422241211,9.953441619873047,3.0301876068115234,1.2494374513626099,2.5363731384277344,4.645267486572266,-0.7014275193214417,-1.3171908855438232,3.2181432247161865
439,195745,195746,-0.02580150030553341,0.01477576233446598,0.9857902526855469,-11.730324745178223,9.851157188415527,2.8968942165374756,1.2434377670288086,2.545372724533081,4.6512675285339355,-0.6938570737838745,-1.2158821821212769,3.2601068019866943
440,195755,195756,-0.005099001806229353,-0.041806530207395554,0.9820332527160645,-9.725151062011719,5.939032077789307,2.8771839141845703,1.247937560081482,2.546872615814209,4.652767181396484,-0.7360179424285889,-1.3889927864074707,3.270930767059326
441,195765,195766,-0.017760397866368294,-0.034113336354494095,1.0065114498138428,-8.023283958435059,1.129228949546814,2.8898532390594482,1.2359381914138794,2.5558722019195557,4.643767833709717,-0.7775059342384338,-1.3877228498458862,3.3123888969421387
442,195775,195776,-0.023781895637512207,-0.06254279613494873,0.987104058265686,-6.111536502838135,-5.739376068115234,1.413469910621643,1.2509374618530273,2.540872812271118,4.643767833709717,-0.7144138813018799,-1.4269498586654663,3.3325634002685547
443,195785,195786,-0.05436243489384651,-0.06704993546009064,1.0062439441680908,-5.398662567138672,-11.52906322479248,-0.47919395565986633,1.247937560081482,2.5528724193573,4.65576696395874,-0.6843933463096619,-1.311820149421692,3.3763065338134766
444,195795,195796,-0.054458875209093094,-0.0811864510178566,0.9899420738220215,-6.141303539276123,-15.633357048034668,-1.6635404825210571,1.2584370374679565,2.5393729209899902,4.6482672691345215,-0.5755634307861328,-1.4847512245178223,3.3594229221343994
445,195805,195806,-0.02727505937218666,-0.07180940359830856,0.9874171018600464,-5.799563407897949,-15.775753021240234,-2.2483694553375244,1.2539372444152832,2.5378730297088623,4.658766746520996,-0.4267735183238983,-1.3723576068878174,3.368514060974121
446,195815,195816,0.0028820447623729706,-0.039896707981824875,1.0132410526275635,-5.5694475173950195,-13.40941333770752,-4.0126166343688965,1.244937777519226,2.5558722019195557,4.658766746520996,-0.1522960662841797,-1.543738603591919,3.298380136489868
447,195825,195826,0.025783922523260117,-0.03674434497952461,1.016825556755066,-6.597367286682129,-9.645438194274902,-4.9898176193237305,1.246437668800354,2.5543723106384277,4.660266876220703,-0.22402378916740417,-1.5756466388702393,3.307577133178711
448,195835,195836,0.07810986042022705,-0.0842757448554039,1.0010043382644653,-4.643935680389404,-3.321479320526123,-6.260201930999756,1.246437668800354,2.5513722896575928,4.657267093658447,-0.2199142575263977,-1.7389626502990723,3.262242555618286
449,195845,195846,0.05222111567854881,-0.11159931868314743,1.0233523845672607,-0.9868113398551941,-0.029929107055068016,-7.185096263885498,1.2539372444152832,2.5588719844818115,4.664766788482666,-0.09262721985578537,-1.6385481357574463,3.172997236251831
450,195855,195856,-0.020878219977021217,-0.16402895748615265,1.000040054321289,0.30994465947151184,-0.6090561747550964,-7.669367790222168,1.2644367218017578,2.5573720932006836,4.660266876220703,-0.06124187260866165,-1.6307862997055054,3.0898385047912598
451,195865,195866,-0.05855084955692291,-0.14994080364704132,1.010509967803955,-0.876090943813324,-0.3669138252735138,-8.577013969421387,1.244937777519226,2.543872833251953,4.652767181396484,-0.09132789075374603,-1.6223565340042114,3.020533800125122
452,195875,195876,-0.05311774089932442,-0.06899073719978333,1.006930947303772,-2.5974206924438477,-0.8896173238754272,-9.632246971130371,1.2419378757476807,2.549872398376465,4.6497673988342285,-0.044373683631420135,-1.5759658813476562,2.9198358058929443
453,195885,195886,-0.015074808150529861,-0.019575266167521477,1.00094473361969,-4.621006488800049,-5.233346462249756,-10.021066665649414,1.246437668800354,2.548372507095337,4.669266223907471,-0.033812038600444794,-1.56195068359375,2.827991247177124
454,195895,195896,0.04101499915122986,-0.008195160888135433,0.9969566464424133,-8.434307098388672,-9.452229499816895,-8.486638069152832,1.2494374513626099,2.5633718967437744,4.663266658782959,0.051072344183921814,-1.7321054935455322,2.730480194091797
455,195905,195906,0.07262013107538223,-0.007794317323714495,1.0057756900787354,-9.704344749450684,-15.12926959991455,-7.44842004776001,1.2659367322921753,2.5528724193573,4.658766746520996,0.07607559114694595,-1.943949818611145,2.6830978393554688
456,195915,195916,0.002959282835945487,-0.03998052328824997,0.9909552335739136,-9.042007446289062,-18.484130859375,-4.634715557098389,1.2644367218017578,2.5543723106384277,4.663266658782959,0.24331483244895935,-2.1494219303131104,2.6269702911376953
457,195925,195926,-0.019437042996287346,-0.02746451273560524,0.9961358904838562,-5.220465660095215,-19.10702896118164,-2.380110502243042,1.2674366235733032,2.5633718967437744,4.663266658782959,0.45287811756134033,-1.9608981609344482,2.5867397785186768
458,195935,195936,0.017989279702305794,-0.039106059819459915,0.975830614566803,-2.5683698654174805,-16.37554168701172,-1.3637926578521729,1.2584370374679565,2.5603718757629395,4.657267093658447,0.7162313461303711,-2.0071024894714355,2.5471978187561035
459,195945,195946,0.028015553951263428,-0.022976258769631386,0.9982607960700989,-1.0852830410003662,-11.730957984924316,-0.865361750125885,1.2539372444152832,2.5618717670440674,4.65576696395874,0.6873987913131714,-2.0837581157684326,2.6012351512908936
460,195955,195956,-0.0029412293806672096,-0.036411214619874954,0.9721556305885315,-2.4707486629486084,-5.128392696380615,-1.2655903100967407,1.2494374513626099,2.5633718967437744,4.654267311096191,0.6563432812690735,-2.1567671298980713,2.637604236602783
461,195965,195966,-0.021838314831256866,-0.023930149152874947,0.9948110580444336,-5.473069190979004,-1.5160757303237915,-1.345517873764038,1.247937560081482,2.5618717670440674,4.664766788482666,0.8946395516395569,-2.1188061237335205,2.545470952987671
462,195975,195976,-0.00349172530695796,-0.04571950063109398,0.9731836318969727,-8.765378952026367,0.7451683878898621,-1.1896225214004517,1.2569371461868286,2.567871570587158,4.66176700592041,0.7900511622428894,-2.128772020339966,2.565681219100952
463,195985,195986,-0.017427358776330948,-0.021626193076372147,1.0021086931228638,-8.91064739227295,3.5900068283081055,-1.3175264596939087,1.2599369287490845,2.5558722019195557,4.66176700592041,0.7205454707145691,-2.328432083129883,2.581841230392456
464,195995,195996,-0.03001100942492485,-0.025690153241157532,0.9916080832481384,-2.7737741470336914,6.0991291999816895,-1.2386503219604492,1.2524373531341553,2.5603718757629395,4.663266658782959,0.6231131553649902,-2.466456890106201,2.596628427505493
465,196005,196006,-0.008315292187035084,-0.030604548752307892,1.0105079412460327,7.537248134613037,7.70631742477417,-1.2517317533493042,1.2719364166259766,2.5528724193573,4.652767181396484,0.5456507802009583,-2.455707550048828,2.5841457843780518
466,196015,196016,-0.0242804903537035,-0.025542808696627617,1.0253500938415527,16.200841903686523,5.958563804626465,-1.6350287199020386,1.2599369287490845,2.5528724193573,4.65576696395874,0.47122684121131897,-2.2858076095581055,2.558612108230591
467,196025,196026,-0.022042088210582733,-0.033327050507068634,1.005859136581421,21.812650680541992,2.71018648147583,-1.5064058303833008,1.2629368305206299,2.5648717880249023,4.658766746520996,0.4412451684474945,-1.9983595609664917,2.517287492752075
468,196035,196036,-0.04582113400101662,-0.06626514345407486,1.015566110610962,24.049348831176758,0.4903227686882019,-2.0988657474517822,1.2539372444152832,2.5618717670440674,4.66176700592041,0.4663657248020172,-1.6495450735092163,2.463993787765503
469,196045,196046,-0.10334018617868423,-0.02000081166625023,1.0668854713439941,21.95525360107422,-0.07743217051029205,-2.5142252445220947,1.2494374513626099,2.575371265411377,4.669266223907471,0.5089637637138367,-1.3771525621414185,2.4190685749053955
470,196055,196056,-0.03911793604493141,0.02328951470553875,1.0330274105072021,15.317147254943848,0.5646498799324036,-3.00718355178833,1.2554372549057007,2.5603718757629395,4.657267093658447,0.5465055108070374,-1.2410120964050293,2.387183904647827
471,196065,196066,0.013508657924830914,0.07466109842061996,1.011062502861023,4.328822135925293,0.5937719345092773,-3.5635881423950195,1.2629368305206299,2.5588719844818115,4.658766746520996,0.5638270974159241,-1.175143837928772,2.3516030311584473
472,196075,196076,0.046087127178907394,0.02770616114139557,0.9577116370201111,-8.476941108703613,0.19174325466156006,-3.9339191913604736,1.2509374618530273,2.5648717880249023,4.643767833709717,0.5197752118110657,-1.2376519441604614,2.3375611305236816
473,196085,196086,0.018292615190148354,0.010438023135066032,1.0131231546401978,-15.375471115112305,-3.1772475242614746,-3.8409435749053955,1.246437668800354,2.5573720932006836,4.660266876220703,0.5729865431785583,-1.4634513854980469,2.302476644515991
474,196095,196096,-0.04659514129161835,-0.041924457997083664,0.9934902191162109,-16.347036361694336,-7.440177917480469,-2.795417070388794,1.2569371461868286,2.543872833251953,4.65576696395874,0.48345208168029785,-1.5339454412460327,2.298938751220703
475,196105,196106,-0.08676282316446304,-0.08079792559146881,0.9695317149162292,-14.201805114746094,-9.185214042663574,-1.5758048295974731,1.261436939239502,2.542372941970825,4.6512675285339355,0.6589539647102356,-1.7293472290039062,2.257241725921631
476,196115,196116,-0.12196513265371323,-0.034987520426511765,0.9976850152015686,-9.711236953735352,-9.689262390136719,-1.2648698091506958,1.2569371461868286,2.5588719844818115,4.65576696395874,0.7902033925056458,-1.9270741939544678,2.2543697357177734
477,196125,196126,-0.11360268294811249,0.014564219862222672,1.0078182220458984,-4.184772968292236,-8.643731117248535,-2.0705323219299316,1.2524373531341553,2.5543723106384277,4.6482672691345215,0.9796335697174072,-1.9076268672943115,2.1934003829956055
