,timestamp_start,timestamp_end,acc.x,acc.y,acc.z,gyro.x,gyro.y,gyro.z,mag.x,mag.y,mag.z,stabilizer.pitch,stabilizer.roll,stabilizer.yaw
0,376494,376495,-0.09742531180381775,0.019423833116889,0.971997857093811,8.1214017868042,-19.516460418701172,-6.626835823059082,0.8624568581581116,-0.14549271762371063,-0.2384880781173706,-4.5149827003479,0.3641935884952545,0.06356628239154816
1,376504,376505,-0.10045341402292252,-0.026134762912988663,0.9585034847259521,9.276488304138184,-39.45624923706055,-6.6404948234558105,0.8789560198783875,-0.16499175131320953,-0.23398829996585846,-4.317486763000488,0.46333375573158264,0.017442693933844566
2,376514,376515,-0.08421531319618225,-0.0008902358822524548,0.9734182357788086,9.199227333068848,-56.724918365478516,-6.30795955657959,0.8609569072723389,-0.1799909919500351,-0.2549872398376465,-4.147500038146973,0.5768411159515381,-0.06846685707569122
3,376524,376525,-0.2468477040529251,-0.06695083528757095,0.986823320388794,9.979574203491211,-70.76152038574219,-3.41374135017395,0.8759561777114868,-0.18599069118499756,-0.2579870820045471,-3.5057148933410645,0.5567806959152222,-0.18823720514774323
4,376534,376535,-0.2207999974489212,-0.0558537021279335,1.0451794862747192,8.319084167480469,-76.6834487915039,-0.2692793309688568,0.8849557638168335,-0.20098994672298431,-0.2639867961406708,-2.6129047870635986,0.6212827563285828,-0.21371468901634216
5,376544,376545,-0.1204751580953598,-0.05713234841823578,1.0319334268569946,-5.012973308563232,-60.48794174194336,-0.6028550863265991,0.8924553394317627,-0.19349032640457153,-0.25048747658729553,-2.1674153804779053,0.654423713684082,-0.3182508945465088
6,376554,376555,-0.12988051772117615,-0.03914043679833412,0.9846940636634827,-24.590539932250977,-37.54085922241211,-0.12513023614883423,0.9014549255371094,-0.1904904693365097,-0.24148792028427124,-1.5668424367904663,0.4540313184261322,-0.40936875343322754
7,376564,376565,-0.10714392364025116,-0.03695935383439064,0.9827971458435059,-46.48370361328125,-14.713562965393066,3.121311902999878,0.8939552903175354,-0.1799909919500351,-0.2579870820045471,-1.2542170286178589,0.3421073853969574,-0.3724944293498993
8,376574,376575,-0.13099855184555054,0.03866799175739288,0.9474688172340393,-61.09235382080078,-2.623070478439331,5.100499629974365,0.8954551815986633,-0.17549122869968414,-0.24448777735233307,-1.2169740200042725,-0.33186060190200806,-0.47067567706108093
9,376584,376585,-0.1219082623720169,0.00644231541082263,0.9778406023979187,-68.64137268066406,5.803940773010254,6.53987979888916,0.9029548168182373,-0.14999249577522278,-0.2579870820045471,-1.0206050872802734,-0.6642438173294067,-0.2902125120162964
10,376594,376595,-0.18022707104682922,-0.03824223577976227,0.98182612657547,-60.551700592041016,2.080899477005005,4.548933029174805,0.9029548168182373,-0.14999249577522278,-0.2579870820045471,-1.1704216003417969,-1.5142734050750732,-0.3048761188983917
11,376604,376605,-0.17907486855983734,-0.06186959519982338,1.1193708181381226,-27.749696731567383,-10.541853904724121,0.9545578956604004,0.8879556059837341,-0.14399279654026031,-0.2459876984357834,-1.0750075578689575,-1.9651473760604858,-0.18627862632274628
12,376614,376615,-0.0900087058544159,-0.04391741007566452,1.0484607219696045,10.889932632446289,-28.954254150390625,-2.8946053981781006,0.8939552903175354,-0.14999249577522278,-0.24298784136772156,-1.0173850059509277,-2.21555233001709,-0.1714012175798416
13,376624,376625,-0.08538251370191574,-0.014632572419941425,1.0331565141677856,36.76683807373047,-44.766719818115234,-4.799803256988525,0.8849557638168335,-0.16799159348011017,-0.25198739767074585,-0.4225006401538849,-2.063783645629883,-0.1213875412940979
14,376634,376635,-0.10303700715303421,-0.04149683937430382,1.0463846921920776,58.19477844238281,-53.01995086669922,0.26069554686546326,0.8774561285972595,-0.17549122869968414,-0.2384880781173706,-0.4327574670314789,-1.7061282396316528,-0.21110296249389648
15,376644,376645,-0.15320882201194763,-0.0485336109995842,1.0650376081466675,66.83110046386719,-48.29981994628906,2.019777297973633,0.8894554972648621,-0.15749211609363556,-0.22348882257938385,0.30975741147994995,-0.9507402181625366,-0.162913978099823
16,376654,376655,-0.12364712357521057,-0.0342610739171505,1.0360889434814453,59.768028259277344,-38.244808197021484,3.9215176105499268,0.8909554481506348,-0.16499175131320953,-0.2369881421327591,1.003760814666748,-0.4208863079547882,-0.11895904690027237
17,376664,376665,-0.13311637938022614,-0.062470268458127975,0.9982943534851074,42.60755920410156,-22.588815689086914,2.553997755050659,0.8999549746513367,-0.15899205207824707,-0.2369881421327591,1.0928452014923096,-0.03249545767903328,-0.10311955213546753
18,376674,376675,-0.1250797063112259,-0.049703821539878845,0.9748980402946472,20.29702377319336,-6.283348560333252,0.8633280992507935,0.8819558620452881,-0.12899354100227356,-0.2189890444278717,1.3562175035476685,0.4717399477958679,-0.08110028505325317
19,376684,376685,-0.0680663138628006,-0.02410605549812317,0.9536242485046387,-4.116092681884766,-3.9056482315063477,-3.06103777885437,0.8819558620452881,-0.1319933980703354,-0.22498874366283417,1.4393256902694702,0.6091194748878479,-0.0609063059091568
20,376694,376695,-0.13007043302059174,-0.061607152223587036,0.9979281425476074,-27.2922306060791,-7.0592498779296875,-10.55153751373291,0.896955132484436,-0.13499325513839722,-0.227988600730896,1.6337777376174927,0.57407146692276,-0.06732545047998428
21,376704,376705,-0.12788300216197968,-0.05651291087269783,0.978573203086853,-36.17580032348633,-7.0565876960754395,-16.59947967529297,0.8954551815986633,-0.14549271762371063,-0.22648866474628448,1.5023058652877808,0.4600900411605835,-0.23170167207717896
22,376714,376715,-0.1454564332962036,-0.04106621444225311,0.9828035235404968,-41.70576477050781,-8.440144538879395,-16.7076416015625,0.8819558620452881,-0.12899354100227356,-0.22498874366283417,1.529344916343689,0.06582015007734299,-0.3876819610595703
23,376724,376725,-0.1498386412858963,-0.05330435559153557,0.948056161403656,-45.559539794921875,-4.32585334777832,-15.538202285766602,0.8849557638168335,-0.10799460113048553,-0.22198890149593353,1.545390248298645,-0.4078919589519501,-0.5465496182441711
24,376734,376735,-0.16080625355243683,-0.01234563160687685,0.938626229763031,-38.00364685058594,-8.3154296875,-11.11922836303711,0.8939552903175354,-0.11099445074796677,-0.22198890149593353,1.6952649354934692,-0.7306036353111267,-0.7214487791061401
25,376744,376745,-0.11773262172937393,-0.00023745332146063447,0.908816933631897,-35.415897369384766,-20.94061279296875,-1.7327094078063965,0.8924553394317627,-0.11849407106637955,-0.22348882257938385,1.8784626722335815,-1.1927589178085327,-0.7864177823066711
26,376754,376755,-0.09900053590536118,0.024721195921301842,0.9022233486175537,-34.06446838378906,-34.84184646606445,7.497007846832275,0.9074546098709106,-0.14549271762371063,-0.22048896551132202,2.0486185550689697,-1.3996728658676147,-0.8648939728736877
27,376764,376765,-0.10454316437244415,-0.038034141063690186,0.8187221884727478,-45.22571563720703,-27.912002563476562,7.999957084655762,0.8984550833702087,-0.1334933191537857,-0.2294885218143463,2.4289016723632812,-1.8098629713058472,-0.7512788772583008
28,376774,376775,-0.13859112560749054,-0.12998712062835693,0.9671350121498108,-40.85304260253906,-12.951335906982422,3.411390542984009,0.9104544520378113,-0.12749361991882324,-0.2294885218143463,2.733083724975586,-2.2130794525146484,-0.6703884601593018
29,376784,376785,-0.11577782779932022,-0.07998006790876389,0.808483362197876,-26.01963233947754,1.5005799531936646,6.283960342407227,0.8939552903175354,-0.11099445074796677,-0.2189890444278717,2.8680875301361084,-2.4420323371887207,-0.7169575095176697
30,376794,376795,-0.10463318228721619,-0.12464546412229538,0.9019548296928406,-12.19629955291748,21.57805824279785,9.699958801269531,0.8999549746513367,-0.11999399960041046,-0.22498874366283417,2.799375057220459,-2.5910563468933105,-0.7313634753227234
31,376804,376805,-0.14790481328964233,-0.1089463084936142,0.8544778227806091,-9.163970947265625,47.702091217041016,9.405972480773926,0.8999549746513367,-0.11999399960041046,-0.22498874366283417,2.580731153488159,-2.8016111850738525,-0.613144040107727
32,376814,376815,-0.12725351750850677,-0.04811287298798561,0.8454917669296265,-9.450830459594727,59.89756774902344,4.904993534088135,0.8894554972648621,-0.11549422144889832,-0.22348882257938385,1.9581562280654907,-2.9504199028015137,-0.5133307576179504
33,376824,376825,-0.17636147141456604,-0.06709930300712585,0.867034912109375,-11.736680030822754,55.852996826171875,0.9688847064971924,0.8909554481506348,-0.12899354100227356,-0.23398829996585846,1.167310357093811,-3.1059985160827637,-0.45375344157218933
34,376834,376835,0.02156665176153183,0.0027141112368553877,0.8167569637298584,-10.634291648864746,45.246944427490234,-5.252608776092529,0.8804559707641602,-0.11549422144889832,-0.2294885218143463,0.8022434115409851,-3.1256213188171387,-0.5258313417434692
35,376844,376845,0.08203302323818207,0.11700795590877533,0.8523465394973755,-10.296157836914062,20.675703048706055,-12.88095474243164,0.8924553394317627,-0.13649317622184753,-0.2294885218143463,0.4703309237957001,-3.217160701751709,-0.6139166355133057
36,376854,376855,-0.034429483115673065,0.1271807998418808,0.9040216207504272,-12.735115051269531,-3.5012383460998535,-19.28934097290039,0.8909554481506348,-0.14699265360832214,-0.2549872398376465,0.32465553283691406,-3.3197991847991943,-0.7534917593002319
37,376864,376865,-0.08866525441408157,0.03132076561450958,0.8461170196533203,-20.5732421875,-19.366008758544922,-23.793561935424805,0.90445476770401,-0.1334933191537857,-0.24448777735233307,0.46502161026000977,-3.554104804992676,-0.8956844806671143
38,376874,376875,-0.16742601990699768,-0.11257389187812805,0.8426735997200012,-16.769512176513672,-40.96917724609375,-24.75227928161621,0.9239537715911865,-0.15599219501018524,-0.23998799920082092,0.7499678730964661,-3.743041753768921,-1.1258764266967773
39,376884,376885,-0.14865988492965698,-0.10498430579900742,0.8943549394607544,6.144308567047119,-68.87873840332031,-23.314125061035156,0.919454038143158,-0.17549122869968414,-0.25048747658729553,1.267790675163269,-3.8392670154571533,-1.3971788883209229
40,376894,376895,-0.17347100377082825,-0.16751079261302948,0.9801613092422485,44.56697082519531,-73.55810546875,-21.80724334716797,0.9299534559249878,-0.1799909919500351,-0.2549872398376465,1.8633973598480225,-3.6879684925079346,-1.6271915435791016
41,376904,376905,-0.12149491161108017,-0.11339803040027618,0.9251256585121155,80.16681671142578,-45.6280403137207,-19.285371780395508,0.9104544520378113,-0.17249137163162231,-0.23548822104930878,2.4393866062164307,-3.1601803302764893,-1.8264153003692627
42,376914,376915,-0.17147670686244965,-0.23097600042819977,0.9836361408233643,93.13684844970703,-5.107273578643799,-16.170469284057617,0.9104544520378113,-0.17549122869968414,-0.2564871609210968,3.0161490440368652,-2.3367245197296143,-2.042773485183716
43,376924,376925,-0.14594507217407227,-0.17428264021873474,0.9144362211227417,94.41043090820312,31.446046829223633,-12.315511703491211,0.9104544520378113,-0.17549122869968414,-0.2564871609210968,3.097843647003174,-1.5514529943466187,-2.1254093647003174
44,376934,376935,-0.13852596282958984,-0.11000131815671921,0.8551309704780579,79.14686584472656,62.01289749145508,-9.110114097595215,0.9104544520378113,-0.17549122869968414,-0.2564871609210968,2.615891456604004,-0.4721478521823883,-2.2842352390289307
45,376944,376945,-0.06808625906705856,-0.014654355123639107,0.8634682297706604,50.03510284423828,80.20861053466797,-5.4943108558654785,0.9179540872573853,-0.17699114978313446,-0.2369881421327591,1.9799054861068726,0.21483078598976135,-2.294086456298828
46,376954,376955,-0.08797383308410645,0.06888514757156372,0.8920744061470032,13.816462516784668,72.05648040771484,0.03922529146075249,0.9029548168182373,-0.1889905482530594,-0.26098695397377014,1.1914464235305786,0.6056994199752808,-2.2658097743988037
47,376964,376965,-0.144285649061203,-0.07849233597517014,0.8831296563148499,-22.509765625,49.00148391723633,5.133358955383301,0.9074546098709106,-0.17549122869968414,-0.24448777735233307,0.39988166093826294,0.7051463723182678,-2.2122576236724854
48,376974,376975,-0.03250228986144066,-0.12086374312639236,0.9851522445678711,-49.06101608276367,20.13300895690918,8.413803100585938,0.90445476770401,-0.17249137163162231,-0.2384880781173706,0.26442456245422363,0.6239664554595947,-2.239405632019043
49,376984,376985,-0.05108455568552017,-0.007885660976171494,0.898970365524292,-61.82402801513672,-15.151638984680176,7.821126461029053,0.9134542942047119,-0.18749062716960907,-0.25348731875419617,0.12800092995166779,-0.22764205932617188,-1.9722682237625122
50,376994,376995,-0.10655523091554642,-0.06998971849679947,0.8692694306373596,-57.96937942504883,-43.35722732543945,4.140346527099609,0.9284535646438599,-0.18749062716960907,-0.2654867172241211,0.22432178258895874,-0.4808042049407959,-2.04905366897583
51,377004,377005,-0.12758150696754456,-0.1263936460018158,1.0361192226409912,-40.153594970703125,-75.38593292236328,0.5668383240699768,0.9284535646438599,-0.20248986780643463,-0.26248687505722046,0.9297888875007629,-1.1081714630126953,-1.973860263824463
52,377014,377015,-0.037917010486125946,0.006093740928918123,0.913760781288147,-10.958765029907227,-94.53821563720703,1.1311806440353394,0.9344532489776611,-0.21448926627635956,-0.2654867172241211,1.766217589378357,-1.5301576852798462,-1.9470438957214355
53,377024,377025,-0.11074765771627426,-0.09537608176469803,1.123350977897644,12.351056098937988,-87.60413360595703,1.112139344215393,0.9419528841972351,-0.20398980379104614,-0.25198739767074585,2.3571665287017822,-1.596777319908142,-1.951139211654663
54,377034,377035,-0.17389877140522003,-0.14837607741355896,1.1972490549087524,28.66634750366211,-62.158424377441406,2.6058125495910645,0.9494525194168091,-0.21448926627635956,-0.2654867172241211,3.2541990280151367,-1.2950420379638672,-1.992199420928955
55,377044,377045,-0.1505453735589981,0.050689637660980225,1.0762081146240234,37.219512939453125,-20.58234405517578,4.263742446899414,0.9494525194168091,-0.2084895670413971,-0.2654867172241211,3.681936264038086,-0.999679446220398,-1.9538897275924683
56,377054,377055,-0.08821844309568405,0.0851581022143364,1.1342145204544067,49.0113410949707,20.932920455932617,3.1336381435394287,0.9089545607566833,-0.18299084901809692,-0.24898754060268402,3.802297353744507,-0.6107794046401978,-1.9115376472473145
57,377064,377065,-0.09383292496204376,-0.016844872385263443,1.1209405660629272,45.55332946777344,64.71487426757812,-0.4910099506378174,0.9314534068107605,-0.17849107086658478,-0.2564871609210968,3.242051124572754,3.8258811400737613e-05,-1.9529426097869873
58,377074,377075,-0.061168137937784195,-0.058249928057193756,1.0181639194488525,19.846302032470703,90.14338684082031,-4.857945442199707,0.9179540872573853,-0.1799909919500351,-0.23398829996585846,2.9454238414764404,0.3288378417491913,-1.8907341957092285
59,377084,377085,-0.12821948528289795,-0.09323615580797195,1.0309392213821411,-7.320064067840576,83.77735137939453,-5.983767986297607,0.896955132484436,-0.170991450548172,-0.25198739767074585,1.7999972105026245,0.4093388020992279,-1.8736947774887085
60,377094,377095,-0.07372643798589706,-0.09953103959560394,1.0679265260696411,-35.28789138793945,67.22049713134766,-6.082018852233887,0.9104544520378113,-0.15449227392673492,-0.2474876195192337,1.1559178829193115,0.450869619846344,-1.9762792587280273
61,377104,377105,-0.10946295410394669,-0.1526181548833847,1.0329017639160156,-47.01283264160156,39.49888610839844,-5.365448474884033,0.8954551815986633,-0.15449227392673492,-0.23248836398124695,0.3478858470916748,0.07222700864076614,-2.027231216430664
62,377114,377115,-0.03847099468111992,0.08931109309196472,1.0706053972244263,-34.27744674682617,0.7430762052536011,-7.048830986022949,0.8999549746513367,-0.1529923528432846,-0.24298784136772156,0.14322561025619507,-0.34555456042289734,-2.0803277492523193
63,377124,377125,-0.11054099351167679,-0.04414384439587593,1.1724388599395752,-10.54084587097168,-33.866798400878906,-9.474419593811035,0.9059546589851379,-0.16799159348011017,-0.2369881421327591,0.32819101214408875,-0.5065944194793701,-2.2113170623779297
64,377134,377135,-0.15142950415611267,0.01692855916917324,1.040165662765503,13.80639362335205,-47.2275505065918,-9.481104850769043,0.8984550833702087,-0.16649167239665985,-0.24148792028427124,0.6425382494926453,-0.696225643157959,-2.2690916061401367
65,377144,377145,-0.10960403829813004,0.03196674957871437,0.8981375098228455,25.396364212036133,-33.3961067199707,-7.427975654602051,0.8909554481506348,-0.15599219501018524,-0.24898754060268402,1.0038652420043945,-0.5716337561607361,-2.366682291030884
66,377154,377155,-0.17295780777931213,-0.09874189645051956,1.0720503330230713,13.745007514953613,-7.105169296264648,-4.493702411651611,0.8909554481506348,-0.14999249577522278,-0.23998799920082092,1.3685489892959595,-0.3486252427101135,-2.43190598487854
67,377164,377165,-0.19746826589107513,-0.11602404713630676,0.975648045539856,-2.9957613945007324,28.736820220947266,-5.922964096069336,0.8849557638168335,-0.12599369883537292,-0.227988600730896,1.313164472579956,-0.25451791286468506,-2.4807488918304443
68,377174,377175,-0.1878446638584137,-0.04388732835650444,0.8403447866439819,-18.627790451049805,53.702823638916016,-6.603905200958252,0.8924553394317627,-0.13049347698688507,-0.2294885218143463,0.8320304751396179,-0.20444591343402863,-2.5945322513580322
69,377184,377185,-0.22662220895290375,-0.09550496935844421,0.8912543058395386,-25.863937377929688,53.8001823425293,-5.587533950805664,0.8789560198783875,-0.11099445074796677,-0.2369881421327591,0.39632517099380493,-0.423393189907074,-2.6409220695495605
70,377194,377195,-0.26342886686325073,-0.16615714132785797,0.8704683780670166,-26.929094314575195,47.4177360534668,-7.073806285858154,0.8834558129310608,-0.11849407106637955,-0.21448926627635956,0.02354925312101841,-0.3124036192893982,-2.8003344535827637
71,377204,377205,-0.15289029479026794,-0.0863116905093193,0.9422433972358704,-27.205665588378906,44.74383544921875,-7.375424385070801,0.8714563846588135,-0.1334933191537857,-0.23548822104930878,-0.5055549144744873,-0.8534896373748779,-2.7972261905670166
72,377214,377215,-0.019055066630244255,0.08497098088264465,0.8604369759559631,-33.747352600097656,43.48920822143555,-9.926520347595215,0.8699564933776855,-0.10799460113048553,-0.22198890149593353,-0.7784395217895508,-1.225382685661316,-2.8266329765319824
73,377224,377225,-0.007999292574822903,0.07709111273288727,0.9294098615646362,-35.8990364074707,34.083984375,-13.282383918762207,0.8834558129310608,-0.12149392068386078,-0.23248836398124695,-1.3113834857940674,-1.4679133892059326,-2.9721908569335938
74,377234,377235,-0.13097691535949707,0.007626064587384462,0.9240440726280212,-16.4074764251709,21.477191925048828,-11.159331321716309,0.8669566512107849,-0.10199490189552307,-0.23398829996585846,-1.5923494100570679,-1.880321741104126,-3.097064256668091
75,377244,377245,-0.23807993531227112,-0.19015076756477356,1.017094612121582,2.729184627532959,4.467395305633545,-5.539555549621582,0.8669566512107849,-0.11699414998292923,-0.23098844289779663,-1.7247812747955322,-1.9777275323867798,-3.2181308269500732
76,377254,377255,-0.1065785363316536,-0.007158883381634951,0.9602912664413452,9.830153465270996,-8.505461692810059,-1.6846158504486084,0.8744562864303589,-0.11849407106637955,-0.23548822104930878,-1.6897568702697754,-1.9099583625793457,-3.2749505043029785
77,377264,377265,0.013073203153908253,0.04833511635661125,1.022072196006775,7.902937412261963,-10.222270965576172,0.20653481781482697,0.8684565424919128,-0.13649317622184753,-0.22648866474628448,-1.6403753757476807,-1.8009419441223145,-3.2943079471588135
78,377274,377275,-0.0972113236784935,0.07401569187641144,0.9054567217826843,3.907973051071167,-7.432153701782227,-3.1124017238616943,0.8579570651054382,-0.12599369883537292,-0.2369881421327591,-1.5145107507705688,-1.721509337425232,-3.2925734519958496
79,377284,377285,-0.16466833651065826,-0.10705863684415817,0.8919188380241394,2.1768264770507812,0.6561468243598938,-8.272637367248535,0.8549572229385376,-0.11699414998292923,-0.22498874366283417,-1.34210205078125,-1.6879925727844238,-3.3208651542663574
80,377294,377295,-0.11026342213153839,-0.10325627028942108,0.9259312152862549,15.401611328125,9.35995101928711,-10.27817153930664,0.8549572229385376,-0.11099445074796677,-0.23098844289779663,-1.529972791671753,-1.5719269514083862,-3.406609535217285
81,377304,377305,-0.08797194063663483,-0.001299949479289353,0.8763088583946228,34.691741943359375,6.412189960479736,-10.474411964416504,0.8744562864303589,-0.12149392068386078,-0.23548822104930878,-1.6259901523590088,-1.3593533039093018,-3.507992744445801
82,377314,377315,-0.17459440231323242,-0.06382238864898682,0.991610586643219,49.40879821777344,-5.828099727630615,-11.788389205932617,0.8729563355445862,-0.13799309730529785,-0.227988600730896,-1.665654182434082,-0.8750523328781128,-3.610652208328247
83,377324,377325,-0.159071147441864,-0.009572655893862247,0.8711552023887634,59.91885757446289,-11.917238235473633,-10.408051490783691,0.8684565424919128,-0.13949301838874817,-0.2294885218143463,-1.566744327545166,-0.2499331831932068,-3.71921968460083
84,377334,377335,-0.086062952876091,0.0395563468337059,0.9703603982925415,62.21922302246094,-24.448963165283203,-7.15963888168335,0.8669566512107849,-0.14699265360832214,-0.2459876984357834,-1.3237165212631226,0.06367117166519165,-3.837923288345337
85,377344,377345,-0.15753503143787384,-0.147300586104393,0.95583176612854,44.519386291503906,-27.567970275878906,-3.978731632232666,0.8774561285972595,-0.15449227392673492,-0.23248836398124695,-1.1476045846939087,0.8537171483039856,-3.895789384841919
86,377354,377355,-0.022020932286977768,-0.0963406041264534,0.9448097944259644,17.102920532226562,-11.426301002502441,-0.16742604970932007,0.8774561285972595,-0.12749361991882324,-0.23548822104930878,-0.9813872575759888,1.0920233726501465,-3.964479446411133
87,377364,377365,-0.07259725779294968,-0.026576075702905655,0.903607189655304,-26.0269775390625,4.9746503829956055,0.5386512279510498,0.8789560198783875,-0.13799309730529785,-0.24898754060268402,-0.9853577017784119,1.1312143802642822,-3.9913992881774902
88,377374,377375,-0.15350782871246338,-0.02899075485765934,0.9044190049171448,-60.994773864746094,22.6130313873291,1.9777642488479614,0.8864556550979614,-0.1334933191537857,-0.2384880781173706,-1.0600335597991943,0.7705431580543518,-3.9966306686401367
89,377384,377385,-0.04924318939447403,0.035038042813539505,0.8349049091339111,-88.28498077392578,28.611793518066406,6.302495002746582,0.896955132484436,-0.14399279654026031,-0.23998799920082092,-1.3157422542572021,0.23299531638622284,-3.9677374362945557
90,377394,377395,-0.07328487187623978,0.020140280947089195,0.930610179901123,-104.19963073730469,24.674022674560547,5.829806327819824,0.896955132484436,-0.14099295437335968,-0.23998799920082092,-1.7461642026901245,-0.8928781747817993,-3.9651334285736084
91,377404,377405,-0.08789905905723572,-0.01708921790122986,0.9662660360336304,-101.16084289550781,27.227876663208008,5.046398162841797,0.9029548168182373,-0.14699265360832214,-0.2579870820045471,-2.030991554260254,-1.5032780170440674,-3.8544394969940186
92,377414,377415,-0.0028811467345803976,0.17156779766082764,0.9822534322738647,-73.241455078125,21.56317710876465,3.4724717140197754,0.8774561285972595,-0.1334933191537857,-0.2474876195192337,-2.3579394817352295,-2.494403839111328,-3.8160603046417236
93,377424,377425,-0.1581958532333374,0.002506045624613762,0.994513750076294,-31.96383285522461,6.092671871185303,0.7154955863952637,0.8834558129310608,-0.12749361991882324,-0.2594870328903198,-2.2407243251800537,-3.158682107925415,-3.7453114986419678
94,377434,377435,-0.09674324840307236,0.05063655599951744,1.0169934034347534,28.4530086517334,-8.55082893371582,-1.4024771451950073,0.8804559707641602,-0.1334933191537857,-0.25348731875419617,-2.302851915359497,-3.3154966831207275,-3.7088756561279297
95,377444,377445,-0.07836830615997314,0.005127608310431242,1.0074235200881958,78.12015533447266,-28.73237419128418,-1.3765158653259277,0.8624568581581116,-0.1604919731616974,-0.25048747658729553,-2.1651158332824707,-2.7775204181671143,-3.6596052646636963
96,377454,377455,-0.19850897789001465,-0.1493215709924698,1.1134394407272339,90.0821304321289,-63.92559814453125,-2.616107702255249,0.8864556550979614,-0.16349181532859802,-0.25048747658729553,-1.9405646324157715,-2.19351863861084,-3.7061073780059814
97,377464,377465,-0.20774555206298828,-0.14968161284923553,1.0031849145889282,80.4351577758789,-94.71025848388672,-5.456688404083252,0.8729563355445862,-0.15599219501018524,-0.23398829996585846,-0.9826621413230896,-1.2414652109146118,-3.706923723220825
98,377474,377475,-0.08994219452142715,-0.009166303090751171,1.0347211360931396,69.7186279296875,-110.88947296142578,-6.111538410186768,0.8924553394317627,-0.17249137163162231,-0.25048747658729553,-0.19581711292266846,-0.5185103416442871,-3.7617998123168945
99,377484,377485,-0.10395779460668564,-0.02626528963446617,1.110602855682373,48.48219680786133,-96.03709411621094,-3.521364688873291,0.90445476770401,-0.17249137163162231,-0.2474876195192337,1.011090636253357,0.09629452228546143,-3.833571195602417
100,377494,377495,-0.09414150565862656,0.04761849716305733,1.1163512468338013,21.820905685424805,-72.06135559082031,-1.7490100860595703,0.9104544520378113,-0.18449077010154724,-0.25048747658729553,2.0754473209381104,0.5429568290710449,-3.878945827484131
101,377504,377505,-0.1885039359331131,-0.0918629989027977,1.1063385009765625,0.2907811999320984,-33.474327087402344,-0.5161595344543457,0.911954402923584,-0.15599219501018524,-0.24298784136772156,2.5071024894714355,0.6069124937057495,-3.9272327423095703
102,377514,377515,-0.056666746735572815,-0.017516247928142548,1.0522804260253906,-23.468175888061523,14.653095245361328,0.6085174679756165,0.8774561285972595,-0.1334933191537857,-0.22048896551132202,2.8047983646392822,0.4521160125732422,-3.9467403888702393
103,377524,377525,-0.10594841092824936,-0.08050324022769928,1.0498167276382446,-40.14869689941406,30.93463897705078,2.2991139888763428,0.9029548168182373,-0.12599369883537292,-0.23098844289779663,2.595294713973999,0.1913292407989502,-3.9437737464904785
104,377534,377535,-0.027935288846492767,-0.03933045268058777,1.063643455505371,-40.04526138305664,18.26955795288086,1.699994444847107,0.8924553394317627,-0.13049347698688507,-0.22648866474628448,2.162646532058716,-0.3644706904888153,-3.9294333457946777
105,377544,377545,0.0375513955950737,0.03572294861078262,1.0488402843475342,-39.03374099731445,18.725502014160156,0.08117517828941345,0.8984550833702087,-0.11249437183141708,-0.23248836398124695,1.9137552976608276,-0.6419972777366638,-3.923919439315796
106,377554,377555,0.029544226825237274,0.21056948602199554,1.0055285692214966,-22.334667205810547,32.543914794921875,4.786686897277832,0.8834558129310608,-0.10949452221393585,-0.22648866474628448,1.6678709983825684,-0.947853147983551,-3.931277275085449
107,377564,377565,-0.03546706587076187,0.22193269431591034,1.0239241123199463,3.265617609024048,47.19224166870117,9.85291862487793,0.8789560198783875,-0.12599369883537292,-0.22198890149593353,1.336523413658142,-1.0074615478515625,-3.902587652206421
108,377574,377575,-0.13051991164684296,-0.0032480896916240454,1.1334116458892822,13.86446762084961,46.117523193359375,15.069818496704102,0.8744562864303589,-0.11249437183141708,-0.2294885218143463,0.9508373141288757,-0.9125239849090576,-3.8129303455352783
109,377584,377585,-0.19116578996181488,-0.006095889490097761,1.0051463842391968,7.278016567230225,29.486751556396484,19.662858963012695,0.8819558620452881,-0.12899354100227356,-0.23998799920082092,0.3373534679412842,-0.9597195386886597,-3.6648406982421875
110,377594,377595,-0.17524850368499756,-0.09321583062410355,0.8972704410552979,-3.275430679321289,18.39156150817871,19.65248680114746,0.8849557638168335,-0.1229938492178917,-0.23998799920082092,0.07448221743106842,-0.9007578492164612,-3.475092649459839
111,377604,377605,-0.11828425526618958,-0.058395709842443466,0.9827886819839478,-10.26026439666748,16.28107452392578,18.047544479370117,0.8864556550979614,-0.1334933191537857,-0.23248836398124695,-0.08713486790657043,-0.847808301448822,-3.287645101547241
112,377614,377615,0.02851214073598385,0.13746607303619385,0.9063579440116882,-13.245504379272461,13.749933242797852,15.222570419311523,0.8864556550979614,-0.1334933191537857,-0.23248836398124695,-0.13594432175159454,-1.0261800289154053,-3.092989206314087
113,377624,377625,-0.004739305004477501,0.0746508464217186,0.9717890024185181,-22.387174606323242,6.5623393058776855,12.63715648651123,0.8864556550979614,-0.1334933191537857,-0.23248836398124695,-0.3833238482475281,-1.1631038188934326,-2.947601318359375
114,377634,377635,-0.0786300003528595,0.06143442541360855,0.9180904030799866,-29.56948471069336,4.21821403503418,11.883432388305664,0.896955132484436,-0.1319933980703354,-0.2459876984357834,-0.3878527879714966,-1.4305018186569214,-2.815821409225464
115,377644,377645,-0.21092763543128967,-0.05259287357330322,1.0023950338363647,-34.504581451416016,8.842646598815918,10.655004501342773,0.8849557638168335,-0.14099295437335968,-0.24898754060268402,-0.47115692496299744,-1.722314476966858,-2.702829122543335
116,377654,377655,-0.16118387877941132,-0.03509289398789406,0.8976744413375854,-21.19406509399414,18.49997329711914,10.59911823272705,0.8909554481506348,-0.14699265360832214,-0.24898754060268402,-0.527351975440979,-2.1047377586364746,-2.5960171222686768
117,377664,377665,-0.07362537831068039,0.04919249936938286,0.8920135498046875,6.30364990234375,25.837417602539062,10.898219108581543,0.8849557638168335,-0.1319933980703354,-0.24298784136772156,-0.7984781265258789,-2.1742024421691895,-2.503695487976074
118,377674,377675,-0.17035120725631714,-0.060138504952192307,0.8514263033866882,28.939302444458008,35.26372528076172,10.764745712280273,0.8759561777114868,-0.14399279654026031,-0.23998799920082092,-0.9908610582351685,-2.053311347961426,-2.4072580337524414
119,377684,377685,-0.10767290741205215,-0.03527280315756798,0.8618804216384888,35.56967544555664,40.70858383178711,9.488924980163574,0.8834558129310608,-0.14849257469177246,-0.24148792028427124,-1.3821135759353638,-1.8138285875320435,-2.313108205795288
120,377694,377695,-0.1277736872434616,-0.1960507333278656,0.8547611236572266,34.747840881347656,32.45850372314453,8.000457763671875,0.8864556550979614,-0.1514924168586731,-0.23548822104930878,-1.7651145458221436,-1.63871431350708,-2.2370336055755615
121,377704,377705,-0.010880556888878345,-0.010972785763442516,0.8526198863983154,31.124500274658203,17.770566940307617,8.10761547088623,0.8834558129310608,-0.16349181532859802,-0.25048747658729553,-2.188535451889038,-1.2016860246658325,-2.1588821411132812
122,377714,377715,0.054917436093091965,0.10310488194227219,0.8562305569648743,28.45998764038086,4.494695663452148,9.760866165161133,0.8759561777114868,-0.16799159348011017,-0.2459876984357834,-2.3184964656829834,-0.8228543996810913,-2.0772078037261963
123,377724,377725,-0.08161906898021698,-0.00934236403554678,0.8989839553833008,22.511323928833008,-6.763606071472168,12.46438980102539,0.8879556059837341,-0.170991450548172,-0.2549872398376465,-2.441129684448242,-0.5895024538040161,-1.9801421165466309
124,377734,377735,-0.1116652637720108,0.029587039723992348,0.9648498892784119,8.652471542358398,-14.889939308166504,15.932794570922852,0.8849557638168335,-0.170991450548172,-0.2639867961406708,-2.15169358253479,-0.36303871870040894,-1.8596652746200562
125,377744,377745,-0.2790495455265045,-0.10722259432077408,0.9356187582015991,-7.794715404510498,-19.826969146728516,15.988448143005371,0.9059546589851379,-0.19499024748802185,-0.2639867961406708,-2.113344669342041,-0.3671281039714813,-1.717922568321228
126,377754,377755,-0.2847811281681061,-0.21758951246738434,1.0024406909942627,-22.884428024291992,-13.904455184936523,15.46130657196045,0.911954402923584,-0.21298934519290924,-0.2579870820045471,-1.8633698225021362,-0.5426268577575684,-1.5781598091125488
127,377764,377765,-0.057342659682035446,-0.006216823123395443,0.9295139312744141,-33.788482666015625,-7.608586311340332,12.08440113067627,0.9104544520378113,-0.18749062716960907,-0.2594870328903198,-1.9300254583358765,-0.7985309958457947,-1.4320255517959595
128,377774,377775,-0.11633723229169846,-0.15303616225719452,0.9391654133796692,-33.749855041503906,-4.487950325012207,7.896378040313721,0.90445476770401,-0.199490025639534,-0.2594870328903198,-1.7912554740905762,-1.1458956003189087,-1.3155409097671509
129,377784,377785,-0.08391085267066956,-0.07627759128808975,0.81312495470047,-25.914512634277344,-1.2840691804885864,3.4727470874786377,0.9014549255371094,-0.19349032640457153,-0.277486115694046,-1.712409257888794,-1.5862473249435425,-1.2586143016815186
130,377794,377795,-0.06455427408218384,-0.06359072774648666,0.940987765789032,-8.576688766479492,-2.2700607776641846,0.1434904783964157,0.911954402923584,-0.19199039041996002,-0.2669866383075714,-1.7150287628173828,-1.6920632123947144,-1.1948585510253906
131,377804,377805,-0.09987606853246689,-0.03488759696483612,1.0176620483398438,12.494438171386719,-7.871469974517822,-4.488842964172363,0.90445476770401,-0.18749062716960907,-0.26248687505722046,-1.3686364889144897,-1.6472828388214111,-1.167717456817627
132,377814,377815,-0.09999152272939682,0.04608630761504173,1.0889790058135986,31.07777214050293,-13.396241188049316,-8.51984691619873,0.9179540872573853,-0.20698964595794678,-0.26098695397377014,-1.8758357763290405,-1.5703145265579224,-1.2092710733413696
133,377824,377825,-0.01255432516336441,0.056703902781009674,1.039995789527893,50.510467529296875,-16.493196487426758,-10.103748321533203,0.8909554481506348,-0.2189890444278717,-0.26998651027679443,-1.6407310962677002,-1.1694377660751343,-1.2736338376998901
134,377834,377835,0.04449852183461189,0.10511907935142517,1.0415982007980347,61.03038024902344,-22.343992233276367,-11.20923900604248,0.9059546589851379,-0.227988600730896,-0.27898603677749634,-1.4188839197158813,-0.3824450969696045,-1.3121843338012695
135,377844,377845,0.016081111505627632,0.15267974138259888,1.0320295095443726,62.287349700927734,-22.109729766845703,-11.329671859741211,0.9089545607566833,-0.23398829996585846,-0.27898603677749634,-1.5010607242584229,-0.14985863864421844,-1.4956835508346558
136,377854,377855,-0.016482295468449593,-0.02012639492750168,1.1201157569885254,53.023681640625,-21.43316078186035,-12.744709014892578,0.9209539294242859,-0.2189890444278717,-0.27298635244369507,-1.2692127227783203,0.48610198497772217,-1.6087974309921265
137,377864,377865,-0.023351814597845078,-0.0543392077088356,1.1387122869491577,38.88695526123047,-18.992412567138672,-12.158854484558105,0.9089545607566833,-0.23098844289779663,-0.26998651027679443,-1.1373980045318604,0.5894850492477417,-1.8303142786026
138,377874,377875,0.018687579780817032,0.01626332849264145,1.139030933380127,19.960119247436523,-11.136486053466797,-10.00564193725586,0.9179540872573853,-0.21598920226097107,-0.2669866383075714,-1.0025652647018433,1.0346004962921143,-1.9418784379959106
139,377884,377885,-0.01739603281021118,0.06474064290523529,1.1334642171859741,12.996313095092773,-9.689682006835938,-4.6651129722595215,0.9149542450904846,-0.2189890444278717,-0.26998651027679443,-0.9369610548019409,1.250026822090149,-2.0420663356781006
140,377894,377895,-0.028519248589873314,0.13345471024513245,1.13060462474823,13.78688907623291,-8.274678230285645,1.9345111846923828,0.919454038143158,-0.22348882257938385,-0.2654867172241211,-0.8169173002243042,1.4692054986953735,-2.07081937789917
141,377904,377905,-0.07193280756473541,-0.020751453936100006,1.082864761352539,3.422367572784424,-2.180616617202759,7.650595664978027,0.9149542450904846,-0.227988600730896,-0.2639867961406708,-0.6851262450218201,1.6092784404754639,-2.04400897026062
142,377914,377915,-0.08130441606044769,-0.03874883055686951,1.073809027671814,-18.21999740600586,1.77599036693573,12.397913932800293,0.919454038143158,-0.22348882257938385,-0.27148643136024475,-0.7113572955131531,1.4977195262908936,-1.9942272901535034
143,377924,377925,-0.0790141299366951,-0.03200702741742134,1.1642389297485352,-35.7720832824707,-5.624397277832031,15.794462203979492,0.9239537715911865,-0.21298934519290924,-0.2639867961406708,-0.6351591944694519,1.2276523113250732,-1.8720828294754028
144,377934,377935,-0.10129990428686142,0.003946349956095219,1.0620567798614502,-51.94630432128906,-26.00343894958496,15.016136169433594,0.9374530911445618,-0.21148942410945892,-0.2564871609210968,-0.7843389511108398,0.9649588465690613,-1.7408052682876587
145,377944,377945,-0.06885584443807602,-0.007993509992957115,1.0541837215423584,-57.87430191040039,-41.893882751464844,10.157751083374023,0.9389530420303345,-0.22498874366283417,-0.28498575091362,-0.33664605021476746,0.2151859998703003,-1.5985324382781982
146,377954,377955,-0.10319094359874725,-0.010806325823068619,1.115437626838684,-42.16581726074219,-45.62260437011719,6.496696472167969,0.9374530911445618,-0.21148942410945892,-0.26848655939102173,0.12518194317817688,-0.46401262283325195,-1.5024484395980835
147,377964,377965,-0.07294153422117233,0.02917749620974064,1.1154143810272217,-9.58784294128418,-34.083160400390625,0.060604892671108246,0.9344532489776611,-0.22648866474628448,-0.2744862735271454,0.24800391495227814,-0.5465136170387268,-1.4619286060333252
148,377974,377975,-0.0041910079307854176,-0.047306209802627563,1.1210492849349976,22.444137573242188,-15.487066268920898,-6.989185810089111,0.9269536137580872,-0.2099895030260086,-0.26098695397377014,0.7469750642776489,-0.3680097460746765,-1.40031099319458
149,377984,377985,-0.09735608845949173,-0.04721961170434952,1.0716800689697266,48.55473709106445,-6.123144626617432,-15.654959678649902,0.9299534559249878,-0.22498874366283417,-0.26098695397377014,0.995682418346405,-0.4346502423286438,-1.4740830659866333
150,377994,377995,-0.10653287917375565,0.011840661987662315,1.1080763339996338,70.80270385742188,-13.185809135437012,-20.49330711364746,0.9239537715911865,-0.22498874366283417,-0.2639867961406708,0.9046760201454163,0.43156781792640686,-1.6418105363845825
151,378004,378005,-0.041915010660886765,-0.034087613224983215,1.1566365957260132,90.13199615478516,-17.223243713378906,-22.1225643157959,0.9284535646438599,-0.23248836398124695,-0.2744862735271454,0.7657502293586731,0.9736060500144958,-1.8897711038589478
152,378014,378015,-0.08139538019895554,-0.07183734327554703,1.1561753749847412,92.67228698730469,-23.456327438354492,-22.4691104888916,0.9224538803100586,-0.23248836398124695,-0.2594870328903198,1.0918580293655396,2.0224452018737793,-2.093959331512451
153,378024,378025,-0.13150784373283386,-0.24169716238975525,1.0498889684677124,67.96372985839844,-21.110767364501953,-21.37746238708496,0.919454038143158,-0.23248836398124695,-0.27148643136024475,1.4346498250961304,2.9880945682525635,-2.3091700077056885
154,378034,378035,0.04560357704758644,0.04466617852449417,1.0856802463531494,27.68981170654297,-5.246445655822754,-16.772586822509766,0.9104544520378113,-0.22648866474628448,-0.26848655939102173,1.491868495941162,3.5179402828216553,-2.5521786212921143
155,378044,378045,-0.040154583752155304,0.00960040558129549,1.102592945098877,-7.098702430725098,-5.348416805267334,-9.555817604064941,0.9239537715911865,-0.2099895030260086,-0.26098695397377014,1.6281465291976929,3.7185750007629395,-2.6901063919067383
156,378054,378055,-0.06061839684844017,-0.011887543834745884,1.09434974193573,-37.62736129760742,-10.188618659973145,-6.329086780548096,0.9254537224769592,-0.2084895670413971,-0.25048747658729553,1.7853437662124634,3.6595468521118164,-2.7585806846618652
157,378064,378065,-0.08711177855730057,-0.04219203442335129,1.0913596153259277,-64.31065368652344,-8.13422966003418,-6.008974552154541,0.9344532489776611,-0.19649016857147217,-0.25348731875419617,1.8211389780044556,3.0511841773986816,-2.817282199859619
158,378074,378075,-0.07949678599834442,-0.03378009423613548,1.1162530183792114,-70.72449493408203,-10.926220893859863,-9.353202819824219,0.9404529333114624,-0.199490025639534,-0.24448777735233307,1.9296163320541382,2.371272563934326,-2.8652713298797607
159,378084,378085,-0.10096565634012222,-0.006978451274335384,1.1470977067947388,-50.79649353027344,-20.679595947265625,-12.077110290527344,0.9209539294242859,-0.19199039041996002,-0.24898754060268402,1.9849066734313965,1.9072790145874023,-3.0234932899475098
160,378094,378095,-0.08873207122087479,-0.018720773980021477,1.1373553276062012,-26.277767181396484,-27.78017807006836,-8.886329650878906,0.919454038143158,-0.17249137163162231,-0.2384880781173706,2.0423688888549805,1.413651704788208,-3.204650402069092
161,378104,378105,-0.13145937025547028,-0.04798763245344162,1.1570810079574585,0.881300687789917,-38.76055145263672,-4.720770359039307,0.9239537715911865,-0.170991450548172,-0.2369881421327591,2.397953748703003,1.1913812160491943,-3.2773890495300293
162,378114,378115,-0.11123619973659515,-0.021360956132411957,1.1514286994934082,19.99679946899414,-53.9112434387207,2.32464599609375,0.9224538803100586,-0.1814909279346466,-0.22348882257938385,2.812758445739746,1.4216806888580322,-3.3761305809020996
163,378124,378125,-0.12770408391952515,-0.04863908141851425,1.120520830154419,41.24109649658203,-50.07017517089844,10.043937683105469,0.9239537715911865,-0.20098994672298431,-0.23098844289779663,3.190556764602661,1.6169542074203491,-3.4165849685668945
164,378134,378135,-0.1624503880739212,-0.06162332743406296,1.1014634370803833,47.60691833496094,-19.578582763671875,18.95514488220215,0.9134542942047119,-0.16649167239665985,-0.2384880781173706,3.482170343399048,2.2520570755004883,-3.475592851638794
165,378144,378145,-0.11231578141450882,-0.04915167763829231,1.0332101583480835,35.37266159057617,17.84158706665039,29.758590698242188,0.9149542450904846,-0.18299084901809692,-0.23398829996585846,3.6766371726989746,2.8402864933013916,-3.332801103591919
166,378154,378155,-0.10556944459676743,-0.010748287662863731,0.9686912298202515,8.585624694824219,45.923187255859375,38.89604568481445,0.9179540872573853,-0.15899205207824707,-0.23398829996585846,3.399249315261841,2.910166025161743,-2.964740753173828
167,378164,378165,-0.11266767233610153,-0.041783519089221954,0.9528677463531494,-35.15338897705078,54.453182220458984,43.275001525878906,0.9134542942047119,-0.15749211609363556,-0.21448926627635956,2.944406509399414,2.930069923400879,-2.5507380962371826
168,378174,378175,-0.006265311036258936,0.00701508391648531,0.9053024053573608,-74.34886169433594,48.60713195800781,43.76042938232422,0.9239537715911865,-0.1619918942451477,-0.21598920226097107,2.581508159637451,2.5859928131103516,-2.0316033363342285
169,378184,378185,-0.010974510572850704,-0.015200060792267323,0.8849264979362488,-107.50263214111328,37.441619873046875,42.67205047607422,0.9374530911445618,-0.16649167239665985,-0.2384880781173706,1.970284104347229,1.7873003482818604,-1.6098759174346924
170,378194,378195,-0.01603694073855877,-0.002826292533427477,0.9158992767333984,-124.27629852294922,22.975675582885742,43.09787368774414,0.9299534559249878,-0.17399129271507263,-0.24298784136772156,1.5603129863739014,0.34920141100883484,-1.030065655708313
171,378204,378205,-0.03727518767118454,0.02157028578221798,0.9810023903846741,-104.4361572265625,15.478601455688477,43.57932662963867,0.9329533576965332,-0.15899205207824707,-0.2459876984357834,1.3801724910736084,-0.3499433398246765,-0.8002862334251404
172,378214,378215,-0.039213377982378006,0.04302733764052391,1.0033024549484253,-71.9105224609375,12.23675537109375,42.38336181640625,0.9209539294242859,-0.13799309730529785,-0.23098844289779663,1.2964560985565186,-1.3449968099594116,-0.363253116607666
173,378224,378225,-0.05084671825170517,0.009947042912244797,1.0189839601516724,-35.02423858642578,6.714871883392334,36.00810241699219,0.9029548168182373,-0.14999249577522278,-0.23098844289779663,1.1961240768432617,-1.9269276857376099,0.005314361769706011
174,378234,378235,-0.02801644429564476,0.02920694276690483,1.0231491327285767,-1.035938024520874,2.3316118717193604,27.946685791015625,0.9089545607566833,-0.1529923528432846,-0.2369881421327591,1.1701407432556152,-2.3640027046203613,0.4070713520050049
175,378244,378245,-0.0020872659515589476,0.021787751466035843,0.9897039532661438,24.569419860839844,-0.6047475337982178,19.82361602783203,0.919454038143158,-0.14849257469177246,-0.22648866474628448,1.0720983743667603,-2.29632306098938,0.6311824321746826
176,378254,378255,-0.012813148088753223,0.001885227276943624,1.011006236076355,42.43980026245117,-0.7236778736114502,13.238931655883789,0.8924553394317627,-0.1514924168586731,-0.23548822104930878,1.1462277173995972,-1.9298301935195923,0.797359824180603
177,378264,378265,-0.02900874800980091,-0.011024191975593567,0.9716371297836304,49.34828567504883,0.32245439291000366,8.648462295532227,0.896955132484436,-0.16499175131320953,-0.24298784136772156,1.1445281505584717,-1.2765623331069946,0.8466880917549133
178,378274,378275,-0.03279392048716545,-0.009858040139079094,0.975524365901947,48.280208587646484,-1.7260273694992065,4.73761510848999,0.9059546589851379,-0.1619918942451477,-0.2369881421327591,1.2236109972000122,-0.9798630475997925,1.0105607509613037
179,378284,378285,-0.009299848228693008,-0.01752600632607937,0.9591052532196045,37.162109375,-2.9088351726531982,1.676505446434021,0.9029548168182373,-0.14699265360832214,-0.227988600730896,1.3841978311538696,-0.6044214367866516,1.1066066026687622
180,378294,378295,-0.037281930446624756,0.014735771343111992,0.9725539684295654,24.081876754760742,-4.7307939529418945,-1.026664137840271,0.8939552903175354,-0.14099295437335968,-0.22198890149593353,1.350000023841858,-0.1982879638671875,1.1126463413238525
181,378304,378305,-0.06392008811235428,0.010443726554512978,0.9670178890228271,8.765029907226562,-2.983981132507324,-2.049358606338501,0.8939552903175354,-0.14099295437335968,-0.22198890149593353,1.3956321477890015,-0.02143670618534088,1.124991536140442
182,378314,378315,-0.04530712589621544,-0.010923582129180431,0.9598414897918701,-7.733962059020996,-0.13829845190048218,-1.1208326816558838,0.8939552903175354,-0.14099295437335968,-0.22198890149593353,1.4808907508850098,-0.019329363480210304,1.1379928588867188
183,378324,378325,-0.024738797917962074,-0.015757592394948006,0.947313666343689,-18.91620635986328,10.349143981933594,-0.688065230846405,0.8999549746513367,-0.1319933980703354,-0.22198890149593353,1.3296178579330444,-0.17842364311218262,1.1470140218734741
184,378334,378335,-0.04017702862620354,-0.006112242583185434,0.9391873478889465,-22.429719924926758,22.350887298583984,2.192028522491455,0.8999549746513367,-0.13499325513839722,-0.22498874366283417,1.158564567565918,-0.5270008444786072,1.186968445777893
185,378344,378345,-0.04824375361204147,-0.037415411323308945,0.9397298097610474,-29.947139739990234,28.452505111694336,5.6525092124938965,0.8924553394317627,-0.12449377030134201,-0.2384880781173706,0.9054608345031738,-0.6059960126876831,1.1583930253982544
186,378354,378355,-0.07377374172210693,-0.04722704738378525,0.9606651067733765,-24.529638290405273,22.075572967529297,6.783243656158447,0.8954551815986633,-0.13649317622184753,-0.2384880781173706,0.6231618523597717,-0.8716681599617004,1.2000972032546997
187,378364,378365,0.01095072366297245,0.04166809841990471,0.9387490749359131,-10.30230712890625,4.128729820251465,10.182522773742676,0.896955132484436,-0.15599219501018524,-0.22198890149593353,0.4347800314426422,-1.0734516382217407,1.2519774436950684
188,378374,378375,-0.09941492974758148,-0.0157904252409935,1.0047187805175781,2.1048474311828613,-23.092342376708984,11.995479583740234,0.8999549746513367,-0.14999249577522278,-0.2369881421327591,0.5801633596420288,-1.2016550302505493,1.3506299257278442
189,378384,378385,-0.02709619328379631,0.012893952429294586,0.9535648226737976,7.029382228851318,-51.21611022949219,13.581719398498535,0.9134542942047119,-0.15449227392673492,-0.22348882257938385,0.5927278399467468,-1.2470033168792725,1.4931061267852783
190,378394,378395,-0.0219167061150074,0.02370101772248745,0.9409828186035156,5.809035778045654,-64.919677734375,15.345367431640625,0.9074546098709106,-0.1814909279346466,-0.24448777735233307,0.9794790744781494,-1.2435612678527832,1.6574805974960327
191,378404,378405,-0.03979039937257767,-0.012872532941401005,0.9659234285354614,9.098003387451172,-52.47755813598633,17.74908447265625,0.9284535646438599,-0.18449077010154724,-0.2384880781173706,1.5055210590362549,-1.1500658988952637,1.8218774795532227
192,378414,378415,-0.07995127141475677,0.0036800431553274393,0.9621393084526062,7.483778953552246,-26.450912475585938,17.325550079345703,0.919454038143158,-0.18749062716960907,-0.23248836398124695,1.8385131359100342,-1.1190574169158936,2.030391216278076
193,378424,378425,-0.01889634318649769,0.058738674968481064,0.8860451579093933,-5.574832439422607,3.867177724838257,13.69394302368164,0.9164541363716125,-0.17249137163162231,-0.24148792028427124,2.172032594680786,-1.0381046533584595,2.201368808746338
194,378434,378435,-0.0435575470328331,0.04136836528778076,0.918775737285614,-20.035329818725586,24.818208694458008,11.147835731506348,0.9254537224769592,-0.1514924168586731,-0.2384880781173706,2.0696768760681152,-1.3022756576538086,2.3949785232543945
195,378444,378445,-0.047582920640707016,0.0025934299919754267,0.9324101209640503,-31.083595275878906,31.41817855834961,7.124054431915283,0.9359531998634338,-0.16499175131320953,-0.23398829996585846,1.7141016721725464,-1.4161964654922485,2.490445137023926
196,378454,378455,-0.03913717716932297,-0.00784738827496767,0.9800040125846863,-26.540380477905273,25.62685203552246,1.683440089225769,0.9269536137580872,-0.14999249577522278,-0.23998799920082092,1.4655711650848389,-1.8162801265716553,2.570836305618286
197,378464,378465,-0.04237585514783859,0.010766742751002312,0.9895599484443665,-13.612963676452637,15.343116760253906,-5.72800874710083,0.9089545607566833,-0.1619918942451477,-0.23098844289779663,1.255835771560669,-2.0922796726226807,2.578082323074341
198,378474,378475,-0.04941343143582344,0.021343031898140907,0.9767026901245117,5.495335102081299,2.8508048057556152,-10.884559631347656,0.911954402923584,-0.15599219501018524,-0.24298784136772156,1.1511273384094238,-2.1892876625061035,2.5042102336883545
199,378484,378485,-0.05606364086270332,-0.00975422840565443,0.9770588874816895,26.659276962280273,-8.867022514343262,-15.046794891357422,0.919454038143158,-0.14849257469177246,-0.2384880781173706,1.029954433441162,-1.9728806018829346,2.3728291988372803
200,378494,378495,-0.0779557079076767,0.009118781425058842,0.9737024903297424,46.128971099853516,-10.724658966064453,-17.9982967376709,0.9179540872573853,-0.170991450548172,-0.23098844289779663,1.2505089044570923,-1.7817500829696655,2.2149384021759033
201,378504,378505,-0.062405720353126526,0.017540184780955315,0.930581271648407,59.22359848022461,-9.449456214904785,-20.539409637451172,0.9089545607566833,-0.170991450548172,-0.23398829996585846,1.412642240524292,-1.0985015630722046,1.9817016124725342
202,378514,378515,-0.04379010945558548,-0.028091657906770706,0.9245149493217468,55.81321716308594,-5.296883583068848,-20.884113311767578,0.9104544520378113,-0.17249137163162231,-0.2384880781173706,1.3915045261383057,-0.6683123111724854,1.8355438709259033
203,378524,378525,-0.049360185861587524,-0.04887878894805908,0.9322502613067627,31.243383407592773,1.3108062744140625,-20.222063064575195,0.8999549746513367,-0.17699114978313446,-0.2369881421327591,1.5090643167495728,-0.3353652060031891,1.6645100116729736
204,378534,378535,-0.05046183243393898,-0.036817681044340134,0.9362568855285645,-4.789913177490234,6.249405860900879,-23.5447940826416,0.9149542450904846,-0.17399129271507263,-0.24298784136772156,1.387201189994812,0.05441226065158844,1.4726221561431885
205,378544,378545,-0.034644488245248795,0.0017295432044193149,0.9174611568450928,-36.02530288696289,9.550858497619629,-25.370018005371094,0.9104544520378113,-0.16649167239665985,-0.23248836398124695,1.1929106712341309,-0.24551548063755035,1.3187775611877441
206,378554,378555,-0.0724065899848938,-0.006618012674152851,0.9343975186347961,-50.128150939941406,12.99523639678955,-25.864913940429688,0.9344532489776611,-0.16949152946472168,-0.24148792028427124,1.0875715017318726,-0.7866998910903931,1.1061409711837769
207,378564,378565,-0.07320549339056015,0.0027193501591682434,0.9566712379455566,-45.538455963134766,15.367881774902344,-24.636808395385742,0.9224538803100586,-0.16949152946472168,-0.23548822104930878,1.0019252300262451,-1.1532461643218994,0.8206499814987183
208,378574,378575,-0.0029421448707580566,0.040988363325595856,0.9430216550827026,-30.48896598815918,14.771095275878906,-20.56875228881836,0.9284535646438599,-0.17549122869968414,-0.24148792028427124,0.7541180849075317,-1.537859320640564,0.5752239227294922
209,378584,378585,0.008827644400298595,0.03169481083750725,0.9520474672317505,-12.102728843688965,12.476338386535645,-17.867145538330078,0.919454038143158,-0.16649167239665985,-0.24448777735233307,0.6789644956588745,-1.464797019958496,0.29260021448135376
210,378594,378595,-0.042415548115968704,0.0025057299062609673,0.9758609533309937,8.112166404724121,4.203093528747559,-15.76897144317627,0.9179540872573853,-0.1619918942451477,-0.23998799920082092,0.60908043384552,-1.5324994325637817,0.09383833408355713
211,378604,378605,-0.03353292495012283,0.00023064450942911208,0.9601379036903381,20.66712188720703,-4.339561462402344,-13.421130180358887,0.9149542450904846,-0.16799159348011017,-0.22498874366283417,0.5935736298561096,-1.5333949327468872,-0.05949181318283081
212,378614,378615,-0.041375163942575455,0.00949852541089058,0.9760202765464783,25.415071487426758,-12.159629821777344,-11.748541831970215,0.9089545607566833,-0.16499175131320953,-0.23998799920082092,0.640356183052063,-1.1550053358078003,-0.2155788242816925
213,378624,378625,-0.017725981771945953,-0.001159211969934404,0.9798998236656189,26.373065948486328,-16.833927154541016,-12.400514602661133,0.919454038143158,-0.17849107086658478,-0.2474876195192337,0.8573678731918335,-1.0079370737075806,-0.3367358446121216
214,378634,378635,-0.013861086219549179,0.03089260682463646,0.9728865623474121,26.291364669799805,-18.13129234313965,-12.353663444519043,0.9074546098709106,-0.16649167239665985,-0.24448777735233307,0.9788250923156738,-0.9086541533470154,-0.4292227029800415
215,378644,378645,-0.029915176331996918,-0.003939335700124502,0.9885395169258118,16.777629852294922,-16.81081771850586,-12.671219825744629,0.9179540872573853,-0.18299084901809692,-0.2369881421327591,1.1099780797958374,-0.5080066323280334,-0.5575481653213501
216,378654,378655,0.01717728190124035,0.05695144459605217,1.040460228919983,6.374813079833984,-12.040214538574219,-11.146303176879883,0.9254537224769592,-0.18449077010154724,-0.2474876195192337,0.9187631607055664,-0.3356940448284149,-0.6251711249351501
217,378664,378665,-0.06683877855539322,0.004348315764218569,1.0328781604766846,1.637219786643982,-7.321885585784912,-11.15947437286377,0.919454038143158,-0.17849107086658478,-0.24148792028427124,1.1015762090682983,-0.2318793088197708,-0.7514238357543945
218,378674,378675,0.008317884057760239,-0.018326502293348312,0.9856938123703003,-5.236168384552002,-3.65334415435791,-10.366090774536133,0.9149542450904846,-0.17399129271507263,-0.24298784136772156,1.2819088697433472,-0.2330927550792694,-0.8723992705345154
219,378684,378685,-0.01811916008591652,0.0087874885648489,0.9668547511100769,-6.230519771575928,0.5803143382072449,-9.180403709411621,0.9239537715911865,-0.18299084901809692,-0.23398829996585846,1.1143463850021362,-0.3004583418369293,-0.9474825263023376
220,378694,378695,-0.03387519717216492,-0.0048185959458351135,1.0088480710983276,-5.828272342681885,3.995366334915161,-8.111534118652344,0.9254537224769592,-0.1814909279346466,-0.24448777735233307,1.1767570972442627,-0.5817163586616516,-1.0229779481887817
221,378704,378705,-0.005547987762838602,-0.005600454285740852,0.9082292318344116,-3.1134121417999268,3.3201940059661865,-7.661205768585205,0.9344532489776611,-0.16649167239665985,-0.24448777735233307,1.0456595420837402,-0.6799613833427429,-1.0903573036193848
222,378714,378715,-0.009093268774449825,-0.00143107317853719,0.9940580725669861,2.5316836833953857,-0.49887344241142273,-7.124178409576416,0.9284535646438599,-0.17249137163162231,-0.2654867172241211,1.0857139825820923,-0.645256757736206,-1.1813323497772217
223,378724,378725,-0.01762576587498188,0.0073936572298407555,1.01475191116333,10.367677688598633,-4.415351867675781,-6.2650251388549805,0.9299534559249878,-0.18299084901809692,-0.2369881421327591,1.047896385192871,-0.6531035900115967,-1.2470464706420898
224,378734,378735,-0.010989313945174217,0.03488541767001152,1.0136183500289917,17.184545516967773,-8.313185691833496,-5.9384050369262695,0.9164541363716125,-0.17849107086658478,-0.2384880781173706,0.8660849332809448,-0.39646628499031067,-1.304086685180664
225,378744,378745,-0.05517726019024849,-0.0575035884976387,1.0626347064971924,20.625205993652344,-14.019442558288574,-5.8306450843811035,0.911954402923584,-0.19799008965492249,-0.2549872398376465,1.123752474784851,-0.28256604075431824,-1.375198245048523
226,378754,378755,-0.028540082275867462,0.13041357696056366,0.982204794883728,18.373228073120117,-20.84145736694336,-5.310832977294922,0.9269536137580872,-0.20098994672298431,-0.24898754060268402,1.3155467510223389,-0.2783108651638031,-1.4196531772613525
227,378764,378765,-0.05516957864165306,0.02407899498939514,1.0369107723236084,14.8603515625,-25.91688346862793,-5.678861618041992,0.9344532489776611,-0.19649016857147217,-0.2384880781173706,1.6804219484329224,0.059531211853027344,-1.4965391159057617
228,378774,378775,0.020842572674155235,0.0242282897233963,1.0200777053833008,12.462602615356445,-21.4191837310791,-5.0062408447265625,0.9494525194168091,-0.20248986780643463,-0.25048747658729553,1.5551820993423462,0.12411298602819443,-1.5193877220153809
229,378784,378785,-0.10922587662935257,-0.008223452605307102,1.0880029201507568,10.844722747802734,-11.41092300415039,-4.158672332763672,0.9374530911445618,-0.17849107086658478,-0.2474876195192337,1.5735588073730469,0.3678221106529236,-1.57157301902771
230,378794,378795,-0.03780793771147728,-0.017285380512475967,1.0651977062225342,8.248822212219238,-3.090930700302124,-3.3073625564575195,0.919454038143158,-0.19649016857147217,-0.24148792028427124,1.8140392303466797,0.355244517326355,-1.6053142547607422
231,378804,378805,-0.04113612323999405,-0.02880883775651455,1.0535755157470703,9.48311996459961,0.03427046537399292,-1.8151212930679321,0.9449527263641357,-0.20698964595794678,-0.2459876984357834,1.8038030862808228,0.4798201322555542,-1.6411747932434082
232,378814,378815,-0.0933806300163269,-0.016885291785001755,1.0704126358032227,12.792691230773926,1.3522882461547852,-2.797342300415039,0.9314534068107605,-0.20548972487449646,-0.2384880781173706,1.89129638671875,0.28138044476509094,-1.623974084854126
233,378824,378825,-0.00995615404099226,-0.019878847524523735,1.0664347410202026,20.586204528808594,-5.795608043670654,-3.3326053619384766,0.9389530420303345,-0.20398980379104614,-0.2549872398376465,2.0019049644470215,0.608948826789856,-1.6742427349090576
234,378834,378835,-0.03712712973356247,-0.0146149517968297,1.0924357175827026,30.46153450012207,-14.70489501953125,-2.1655120849609375,0.9329533576965332,-0.19799008965492249,-0.2459876984357834,2.076906204223633,0.916093647480011,-1.7207661867141724
235,378844,378845,-0.0499156154692173,0.019173072651028633,1.1005431413650513,38.3265266418457,-21.10623550415039,-0.7482662796974182,0.9434528350830078,-0.199490025639534,-0.2564871609210968,1.8526729345321655,0.9399332404136658,-1.715356469154358
236,378854,378855,-0.05204727128148079,-0.016662677749991417,1.1150263547897339,37.48749542236328,-24.728300094604492,1.2426979541778564,0.9344532489776611,-0.19649016857147217,-0.23248836398124695,2.1679911613464355,1.4770630598068237,-1.747257113456726
237,378864,378865,-0.08133494853973389,-0.03240235149860382,1.0556719303131104,22.503332138061523,-24.964778900146484,1.1654231548309326,0.9404529333114624,-0.20548972487449646,-0.24148792028427124,2.5089266300201416,1.969249963760376,-1.758004903793335
238,378874,378875,-0.052671290934085846,0.00048123233136720955,1.0566127300262451,-8.409019470214844,-24.764612197875977,-0.9056973457336426,0.9419528841972351,-0.19499024748802185,-0.23998799920082092,2.420248508453369,1.9783642292022705,-1.7466773986816406
239,378884,378885,-0.0658644586801529,-0.04347255453467369,1.0406750440597534,-35.56170654296875,-19.520814895629883,-2.448645830154419,0.950952410697937,-0.18299084901809692,-0.24898754060268402,2.734943151473999,1.811536431312561,-1.7329641580581665
240,378894,378895,-0.04524320736527443,0.0070176152512431145,1.0249531269073486,-49.67593002319336,-20.777755737304688,-1.2377978563308716,0.9494525194168091,-0.1904904693365097,-0.2294885218143463,2.933357000350952,1.499901533126831,-1.765697717666626
241,378904,378905,-0.07548273354768753,-0.0008871644386090338,1.0537910461425781,-51.07174301147461,-20.2884578704834,-0.8315849304199219,0.9569521546363831,-0.18599069118499756,-0.24898754060268402,3.3432319164276123,0.8851081728935242,-1.7229063510894775
242,378914,378915,-0.05212542787194252,0.02374538592994213,1.0499035120010376,-36.0596809387207,-20.319446563720703,1.305326223373413,0.9539523124694824,-0.19499024748802185,-0.23998799920082092,3.4599387645721436,0.5050113797187805,-1.7811123132705688
243,378924,378925,-0.020533449947834015,-0.0672532320022583,1.047295331954956,-7.570059776306152,-17.862075805664062,2.464984893798828,0.9404529333114624,-0.17549122869968414,-0.23248836398124695,3.4100985527038574,0.21228182315826416,-1.8365342617034912
244,378934,378935,-0.04848355054855347,-0.01681838184595108,1.098408818244934,27.293363571166992,-7.538566589355469,3.4114432334899902,0.9329533576965332,-0.18599069118499756,-0.23398829996585846,3.5611391067504883,0.33722129464149475,-1.8784395456314087
245,378944,378945,-0.14023420214653015,0.0968172699213028,1.0923409461975098,53.625858306884766,1.6859138011932373,2.8003735542297363,0.9419528841972351,-0.18599069118499756,-0.23998799920082092,3.783297538757324,0.5217649340629578,-1.8047311305999756
246,378954,378955,-0.0050907740369439125,0.0792895257472992,1.1016600131988525,58.97566223144531,15.75556755065918,-0.528701901435852,0.9479525685310364,-0.18299084901809692,-0.227988600730896,3.7352919578552246,1.0885672569274902,-1.7980536222457886
247,378964,378965,0.013303588144481182,0.08571912348270416,1.0794388055801392,49.70437240600586,33.97187423706055,-4.547839164733887,0.9404529333114624,-0.18749062716960907,-0.24148792028427124,3.425294876098633,1.520997166633606,-1.7705140113830566
248,378974,378975,0.00626937672495842,0.238790825009346,1.0348275899887085,27.57126808166504,42.7415771484375,-7.346269607543945,0.9134542942047119,-0.17849107086658478,-0.24148792028427124,2.8921642303466797,2.168576240539551,-1.8849751949310303
249,378984,378985,0.030766688287258148,0.23933498561382294,1.0620077848434448,10.690863609313965,42.609535217285156,-6.3353705406188965,0.9134542942047119,-0.17849107086658478,-0.24148792028427124,2.562525987625122,2.418581485748291,-1.9043123722076416
250,378994,378995,-0.008275965228676796,0.022898424416780472,1.055643916130066,-0.6552548408508301,35.84316635131836,-2.690307140350342,0.9134542942047119,-0.17849107086658478,-0.24148792028427124,1.9929039478302002,2.41206431388855,-1.943168044090271
251,379004,379005,-0.01004045456647873,0.017871273681521416,0.9986813068389893,-2.1810860633850098,32.748470306396484,3.226607084274292,0.911954402923584,-0.1619918942451477,-0.24298784136772156,1.717961311340332,2.4247801303863525,-1.9420621395111084
252,379014,379015,-0.09151891618967056,-0.006121746264398098,0.9475049376487732,5.08060359954834,23.298768997192383,8.088191032409668,0.9134542942047119,-0.14549271762371063,-0.23248836398124695,1.1756900548934937,2.4714715480804443,-1.9765475988388062
253,379024,379025,-0.0059881932102143764,0.1016455739736557,0.992851734161377,3.6848926544189453,10.468997955322266,10.143310546875,0.9059546589851379,-0.15599219501018524,-0.227988600730896,1.1513562202453613,2.5540759563446045,-1.8415087461471558
254,379034,379035,-0.0069135683588683605,0.014552625827491283,1.026686429977417,-25.387462615966797,-15.610735893249512,9.458343505859375,0.9059546589851379,-0.15899205207824707,-0.227988600730896,1.2729086875915527,2.4355173110961914,-1.6344302892684937
255,379044,379045,-0.051388420164585114,0.05064263567328453,0.8650615811347961,-57.66230392456055,-40.759639739990234,3.678133249282837,0.9164541363716125,-0.16649167239665985,-0.2294885218143463,1.5652378797531128,2.1547579765319824,-1.4838495254516602
256,379054,379055,0.06096944585442543,0.07512297481298447,0.9860814809799194,-80.37830352783203,-53.58721923828125,-4.6579060554504395,0.9254537224769592,-0.18449077010154724,-0.23548822104930878,2.0202794075012207,1.4171202182769775,-1.3784891366958618
257,379064,379065,0.08762747049331665,0.13991835713386536,0.9837687015533447,-81.22378540039062,-55.0927734375,-14.237679481506348,0.9464526772499084,-0.18449077010154724,-0.23248836398124695,2.488614559173584,0.8588594198226929,-1.4961344003677368
258,379074,379075,-0.07937841862440109,0.05975198745727539,1.1014333963394165,-71.48209381103516,-49.57600402832031,-22.776336669921875,0.9434528350830078,-0.18749062716960907,-0.25048747658729553,3.1725478172302246,-0.10434803366661072,-1.5556666851043701
259,379084,379085,-0.04241379350423813,0.1324835568666458,1.0371495485305786,-43.953941345214844,-32.0340690612793,-31.101036071777344,0.9329533576965332,-0.1799909919500351,-0.24298784136772156,3.615940809249878,-0.5743809342384338,-1.852372646331787
260,379094,379095,-0.0128429951146245,0.027686435729265213,1.0738911628723145,-12.497565269470215,-3.446108818054199,-35.5324821472168,0.9494525194168091,-0.15449227392673492,-0.23548822104930878,3.9197847843170166,-0.8889878392219543,-2.195723533630371
261,379104,379105,-0.012917187996208668,0.08643843978643417,0.9447291493415833,15.094842910766602,24.15776252746582,-37.33628845214844,0.9344532489776611,-0.13649317622184753,-0.22348882257938385,3.848381996154785,-0.9256352782249451,-2.6068003177642822
262,379114,379115,-0.008385518565773964,-0.050994936376810074,0.971125066280365,55.579593658447266,44.549320220947266,-39.47277069091797,0.9164541363716125,-0.15449227392673492,-0.22648866474628448,3.5795445442199707,-0.7824311852455139,-2.989274501800537
263,379124,379125,-0.06941907107830048,-0.06527823209762573,0.9638358354568481,93.25855255126953,51.557594299316406,-39.59650802612305,0.9314534068107605,-0.15449227392673492,-0.2384880781173706,2.9299137592315674,0.027703765779733658,-3.5224108695983887
264,379134,379135,0.04259428754448891,0.0424126498401165,0.852907121181488,123.92948150634766,45.85595703125,-41.46204376220703,0.9164541363716125,-0.18449077010154724,-0.23248836398124695,2.4953811168670654,0.7115161418914795,-3.8290696144104004
265,379144,379145,0.01107080653309822,0.07453065365552902,0.9624242186546326,136.22348022460938,31.650501251220703,-40.86455154418945,0.9179540872573853,-0.18599069118499756,-0.2459876984357834,1.9002846479415894,2.069716453552246,-4.286696434020996
266,379154,379155,-0.0736239030957222,0.006018305663019419,0.9123117923736572,131.84375,12.139259338378906,-38.34489440917969,0.9209539294242859,-0.1889905482530594,-0.2369881421327591,1.7663114070892334,3.5191078186035156,-4.6716718673706055
267,379164,379165,-0.003427402814850211,-0.040864791721105576,0.9184022545814514,112.90779876708984,-5.090975284576416,-31.617324829101562,0.9059546589851379,-0.1889905482530594,-0.23998799920082092,1.6898077726364136,4.687657356262207,-4.98729944229126
268,379174,379175,-0.03227441385388374,-0.0511995293200016,0.878860592842102,81.03152465820312,-14.240812301635742,-25.2398624420166,0.9239537715911865,-0.18299084901809692,-0.22498874366283417,1.7821784019470215,5.88999080657959,-5.3062357902526855
269,379184,379185,-0.06126873940229416,-0.07186649739742279,0.9797790050506592,33.9859733581543,-10.24245834350586,-17.55799674987793,0.8984550833702087,-0.18749062716960907,-0.22048896551132202,1.868808627128601,6.476960182189941,-5.520172119140625
270,379194,379195,-0.0952109843492508,-0.09468769282102585,0.8900399804115295,-26.95876693725586,4.072103500366211,-9.523076057434082,0.9089545607566833,-0.17699114978313446,-0.24898754060268402,1.9843798875808716,6.657614707946777,-5.654942989349365
271,379204,379205,-0.0283270962536335,-0.052572786808013916,0.885981023311615,-86.50083923339844,24.309661865234375,-3.439939022064209,0.9299534559249878,-0.17699114978313446,-0.23098844289779663,1.7568672895431519,6.525747776031494,-5.845231056213379
272,379214,379215,0.022145580500364304,0.0104596558958292,0.9138344526290894,-129.06227111816406,48.390403747558594,1.6605125665664673,0.9269536137580872,-0.17399129271507263,-0.24298784136772156,1.3270679712295532,5.406824588775635,-5.878920078277588
273,379224,379225,-0.03261832520365715,-0.01280295755714178,0.9120781421661377,-155.65403747558594,64.77568054199219,6.069884300231934,0.9344532489776611,-0.1904904693365097,-0.2474876195192337,0.7280378341674805,3.68927264213562,-5.812458515167236
274,379234,379235,-0.05316503718495369,0.04906591400504112,1.0571438074111938,-154.84217834472656,69.84122467041016,7.417638301849365,0.9284535646438599,-0.1514924168586731,-0.24448777735233307,0.025015924125909805,2.6574461460113525,-5.835457801818848
275,379244,379245,-0.044934310019016266,0.01606128364801407,1.0169485807418823,-136.04827880859375,61.34640884399414,7.131892204284668,0.9254537224769592,-0.16349181532859802,-0.24148792028427124,-0.8865499496459961,1.003524899482727,-5.8523430824279785
276,379254,379255,-0.002213346539065242,-0.07512014359235764,1.086976170539856,-106.83015441894531,40.471405029296875,5.587716102600098,0.9134542942047119,-0.1514924168586731,-0.24148792028427124,-1.4375231266021729,-0.06983839720487595,-5.76066780090332
277,379264,379265,-0.013752027414739132,0.002495916560292244,1.0195337533950806,-64.56788635253906,12.264419555664062,4.745107173919678,0.9074546098709106,-0.14849257469177246,-0.25348731875419617,-1.8792208433151245,-1.0132513046264648,-5.729773998260498
278,379274,379275,-0.1124659851193428,-0.02608347125351429,0.9896190762519836,-20.6779842376709,-18.61239242553711,2.1662657260894775,0.9029548168182373,-0.13799309730529785,-0.25198739767074585,-1.8371899127960205,-1.7031019926071167,-5.6209540367126465
279,379284,379285,-0.0932956114411354,-0.018400253728032112,1.004450798034668,19.53200912475586,-41.23455047607422,1.8357670307159424,0.9209539294242859,-0.1529923528432846,-0.2459876984357834,-1.7170908451080322,-1.694423794746399,-5.595518589019775
280,379294,379295,-0.015282902866601944,0.005785567220300436,0.9943557381629944,51.181209564208984,-53.52302551269531,1.9901232719421387,0.9074546098709106,-0.16649167239665985,-0.23548822104930878,-1.0137795209884644,-1.297132968902588,-5.445172309875488
281,379304,379305,-0.04487314075231552,-0.004553867504000664,1.0015323162078857,67.6995620727539,-55.06998825073242,3.5402450561523438,0.9164541363716125,-0.18749062716960907,-0.24148792028427124,-0.546511709690094,-0.9203243851661682,-5.4512481689453125
282,379314,379315,-0.1462896764278412,-0.11199289560317993,0.975581705570221,61.843868255615234,-53.34831237792969,4.600289344787598,0.9074546098709106,-0.17549122869968414,-0.24448777735233307,0.0857534185051918,-0.21620211005210876,-5.389528751373291
283,379324,379325,-0.07863959670066833,-0.09754747897386551,1.0395071506500244,37.87542724609375,-50.61098098754883,5.221963405609131,0.9104544520378113,-0.17249137163162231,-0.23248836398124695,0.592071533203125,0.2795082926750183,-5.369982719421387
284,379334,379335,-0.020613793283700943,0.01220950298011303,1.0261706113815308,4.974664688110352,-33.74298858642578,4.921029567718506,0.9089545607566833,-0.16499175131320953,-0.23098844289779663,1.2443976402282715,0.6280887126922607,-5.30199670791626
285,379344,379345,-0.10028287023305893,-0.08014321327209473,0.9488730430603027,-27.70939826965332,-15.736692428588867,3.503425359725952,0.9134542942047119,-0.15449227392673492,-0.22348882257938385,1.4203420877456665,0.5200636982917786,-5.314074516296387
286,379354,379355,-0.09413134306669235,-0.02867240086197853,1.0173991918563843,-47.32209777832031,0.9192327857017517,4.877674579620361,0.9284535646438599,-0.14849257469177246,-0.23548822104930878,1.583998203277588,0.3927222192287445,-5.255048751831055
287,379364,379365,0.012953285127878189,0.10891745239496231,1.0240319967269897,-56.95683670043945,15.665678024291992,4.389636039733887,0.9164541363716125,-0.1604919731616974,-0.22648866474628448,1.6303386688232422,-0.21168659627437592,-5.218542575836182
288,379374,379375,-0.07135095447301865,0.034339625388383865,0.9859723448753357,-55.07795333862305,20.3848934173584,5.463258743286133,0.9179540872573853,-0.14399279654026031,-0.23398829996585846,1.2989134788513184,-0.6805509328842163,-5.181575298309326
289,379384,379385,-0.12935063242912292,-0.20175062119960785,1.0054341554641724,-50.15202331542969,20.4412841796875,3.9576547145843506,0.9149542450904846,-0.1529923528432846,-0.22498874366283417,0.9936713576316833,-1.4666169881820679,-5.1718430519104
290,379394,379395,-0.07511048763990402,-0.12955918908119202,1.054011344909668,-35.59202194213867,18.0414981842041,1.0369845628738403,0.9179540872573853,-0.14099295437335968,-0.22498874366283417,0.7656077742576599,-1.9381587505340576,-5.142452716827393
291,379404,379405,0.0557580403983593,0.07476968318223953,0.9407680630683899,-15.926652908325195,10.605883598327637,-0.6434776782989502,0.9254537224769592,-0.14249287545681,-0.22648866474628448,0.668026328086853,-2.1330535411834717,-5.116168975830078
292,379414,379415,0.026346171274781227,0.15198278427124023,1.0198103189468384,3.7544634342193604,6.935468673706055,-2.4787850379943848,0.9239537715911865,-0.14399279654026031,-0.227988600730896,0.5902596712112427,-2.2479448318481445,-5.118046760559082
293,379424,379425,-0.04849167540669441,0.000943222374189645,0.9685916304588318,18.25497055053711,5.09407901763916,-1.648585557937622,0.9254537224769592,-0.15749211609363556,-0.2384880781173706,0.5044665932655334,-2.147974967956543,-5.132249355316162
294,379434,379435,-0.13347266614437103,-0.07608813047409058,0.8996962904930115,30.55302619934082,1.3003944158554077,0.40090787410736084,0.9224538803100586,-0.15749211609363556,-0.24448777735233307,0.46296173334121704,-1.8830591440200806,-5.141714572906494
295,379444,379445,-0.08911895006895065,-0.062192898243665695,1.059729814529419,33.73027420043945,-2.8745217323303223,2.5971195697784424,0.9209539294242859,-0.15899205207824707,-0.23398829996585846,0.46602752804756165,-1.5550280809402466,-5.143031597137451
296,379454,379455,-0.004092875402420759,0.06530638784170151,1.1396691799163818,27.765933990478516,-9.708946228027344,4.5023674964904785,0.9299534559249878,-0.1619918942451477,-0.24298784136772156,0.49179041385650635,-1.239261507987976,-5.119184494018555
297,379464,379465,-0.036489441990852356,0.015247227624058723,1.0291566848754883,14.266077041625977,-19.107959747314453,5.5518059730529785,0.9179540872573853,-0.170991450548172,-0.23998799920082092,0.7281628251075745,-0.9299867749214172,-5.089565277099609
298,379474,379475,-0.08591938018798828,0.002979555167257786,0.9655774235725403,-3.874286413192749,-27.373245239257812,5.80403470993042,0.9284535646438599,-0.1814909279346466,-0.25348731875419617,0.7203593850135803,-0.8652459979057312,-5.007631778717041
299,379484,379485,-0.033244866877794266,-0.0004228878824505955,0.9941823482513428,-16.302257537841797,-25.25761604309082,5.613934516906738,0.9359531998634338,-0.1799909919500351,-0.24898754060268402,1.074001669883728,-1.0403324365615845,-4.982903480529785
300,379494,379495,-0.10962805896997452,-0.07446286827325821,0.9749633073806763,-26.268033981323242,-11.391993522644043,5.601519584655762,0.9434528350830078,-0.16949152946472168,-0.2564871609210968,1.2408915758132935,-1.1859519481658936,-4.905168056488037
301,379504,379505,-0.06623633950948715,-0.004285973031073809,0.9863041639328003,-26.50241470336914,4.866327285766602,8.034436225891113,0.9434528350830078,-0.16949152946472168,-0.2474876195192337,1.3255027532577515,-1.573839783668518,-4.854482173919678
302,379514,379515,-0.01921163499355316,-0.009396451525390148,1.004756212234497,-20.261316299438477,17.313169479370117,9.914117813110352,0.9404529333114624,-0.1604919731616974,-0.2474876195192337,1.1002792119979858,-1.777445673942566,-4.729762554168701
303,379524,379525,-0.007716752588748932,0.03177644684910774,0.9869731664657593,-10.460298538208008,25.01751708984375,11.125504493713379,0.9449527263641357,-0.1799909919500351,-0.2549872398376465,0.9187110066413879,-1.7804700136184692,-4.6146440505981445
304,379534,379535,-0.04701760783791542,-0.005082832649350166,1.0235323905944824,-1.3301259279251099,24.041147232055664,10.165233612060547,0.9389530420303345,-0.17699114978313446,-0.2639867961406708,0.6672677993774414,-1.7854400873184204,-4.503218173980713
305,379544,379545,0.011049153283238411,0.003533442271873355,1.0051249265670776,3.504004716873169,16.390350341796875,8.261794090270996,0.9524523615837097,-0.1904904693365097,-0.2594870328903198,0.4834005832672119,-1.890675663948059,-4.436586380004883
306,379554,379555,-0.032358568161726,0.003919397946447134,1.0152620077133179,3.2210311889648438,4.9803056716918945,5.262657642364502,0.9359531998634338,-0.19199039041996002,-0.25198739767074585,0.30137118697166443,-1.8024842739105225,-4.348250389099121
307,379564,379565,-0.0453982837498188,-0.035472020506858826,1.053187608718872,3.125875473022461,-7.995223522186279,3.1338250637054443,0.9479525685310364,-0.19799008965492249,-0.2549872398376465,0.32194623351097107,-1.8554970026016235,-4.326775550842285
308,379574,379575,0.019621049985289574,-0.012543152086436749,1.0411686897277832,4.6072468757629395,-19.362943649291992,1.4488648176193237,0.9479525685310364,-0.19799008965492249,-0.2579870820045471,0.5381537675857544,-1.8179548978805542,-4.331517696380615
309,379584,379585,-0.07248981297016144,-0.12533004581928253,1.0383577346801758,5.602290630340576,-23.555158615112305,-1.3052198886871338,0.958452045917511,-0.19349032640457153,-0.25348731875419617,0.6522209048271179,-1.7608160972595215,-4.292056560516357
310,379594,379595,-0.04514551907777786,-0.028934774920344353,1.0842067003250122,11.792612075805664,-22.789091110229492,-3.2406647205352783,0.9374530911445618,-0.199490025639534,-0.25348731875419617,0.8146263360977173,-1.7209988832473755,-4.282062530517578
311,379604,379605,-0.05049984157085419,-0.008964578621089458,1.1007643938064575,24.0177059173584,-24.00601577758789,-0.8599862456321716,0.9464526772499084,-0.199490025639534,-0.25348731875419617,1.1972163915634155,-1.5324586629867554,-4.350491523742676
312,379614,379615,-0.04121218994259834,-0.04738909751176834,1.1201122999191284,33.01171112060547,-21.230308532714844,7.1102705001831055,0.9464526772499084,-0.19349032640457153,-0.25048747658729553,1.3496038913726807,-1.3797311782836914,-4.334242820739746
313,379624,379625,-0.03984862565994263,0.018844522535800934,1.0996246337890625,32.6845588684082,-7.750073432922363,14.674369812011719,0.9314534068107605,-0.19649016857147217,-0.25348731875419617,1.5929054021835327,-1.1341948509216309,-4.2834858894348145
314,379634,379635,0.03459352254867554,0.10005118697881699,1.0695093870162964,38.300594329833984,3.6198291778564453,19.049509048461914,0.9344532489776611,-0.18449077010154724,-0.25048747658729553,1.553779125213623,-0.5602750778198242,-4.084456920623779
315,379644,379645,0.057534921914339066,0.1656416654586792,1.0639978647232056,30.59203338623047,15.111919403076172,24.776193618774414,0.9299534559249878,-0.18299084901809692,-0.23098844289779663,1.3944337368011475,-0.22376295924186707,-3.8632452487945557
316,379654,379655,0.10000458359718323,0.1907067596912384,1.1402785778045654,10.159253120422363,15.58732795715332,29.038728713989258,0.9464526772499084,-0.1814909279346466,-0.25048747658729553,1.2810841798782349,-0.16504177451133728,-3.6425669193267822
317,379664,379665,0.06385906040668488,0.08919856697320938,1.0871849060058594,-20.5089111328125,11.49179744720459,31.64212417602539,0.9404529333114624,-0.18449077010154724,-0.24448777735233307,1.3347270488739014,-0.13571278750896454,-3.4136910438537598
318,379674,379675,-0.08378937840461731,0.00532373134046793,1.034791350364685,-52.70722198486328,11.392623901367188,34.50312805175781,0.9404529333114624,-0.18449077010154724,-0.24448777735233307,1.065630555152893,-0.46723854541778564,-3.061971426010132
319,379684,379685,-0.09052664786577225,-0.011926824226975441,1.0443283319473267,-68.66638946533203,16.226119995117188,35.3332405090332,0.9404529333114624,-0.18449077010154724,-0.24448777735233307,0.9092211723327637,-1.0652034282684326,-2.71328067779541
320,379694,379695,-0.05915077403187752,-0.1523178368806839,1.0615144968032837,-65.15445709228516,21.57665252685547,34.607749938964844,0.9359531998634338,-0.18299084901809692,-0.2459876984357834,0.5986598134040833,-1.6498185396194458,-2.3261256217956543
321,379704,379705,-0.03837957978248596,-0.04088371992111206,1.0181711912155151,-55.10822296142578,22.800273895263672,33.72239685058594,0.9329533576965332,-0.17699114978313446,-0.2579870820045471,0.24131238460540771,-2.639498710632324,-1.978232502937317
322,379714,379715,-0.04958885535597801,0.16785681247711182,0.9611334204673767,-41.02098083496094,12.039671897888184,30.41276741027832,0.9284535646438599,-0.16349181532859802,-0.2384880781173706,0.009655517525970936,-2.9067132472991943,-1.634016752243042
323,379724,379725,-0.012779699638485909,0.11658444255590439,1.0549094676971436,-20.44770050048828,-4.0927300453186035,25.123031616210938,0.9299534559249878,-0.16499175131320953,-0.24898754060268402,0.050873976200819016,-3.2802975177764893,-1.3880127668380737
324,379734,379735,-0.05471270531415939,-0.02018222026526928,1.0697118043899536,8.677056312561035,-17.14288902282715,21.210777282714844,0.9419528841972351,-0.16799159348011017,-0.25198739767074585,-0.024981509894132614,-3.406507730484009,-1.0973353385925293
325,379744,379745,-0.11372970789670944,-0.06645604223012924,1.1068180799484253,33.81048583984375,-24.73284912109375,15.31746768951416,0.9239537715911865,-0.18299084901809692,-0.2549872398376465,0.45580577850341797,-3.2245543003082275,-0.9666372537612915
326,379754,379755,-0.05534258857369423,0.006016204599291086,1.036922812461853,58.29863739013672,-21.069740295410156,9.452569007873535,0.9314534068107605,-0.1814909279346466,-0.24448777735233307,0.809342622756958,-2.7016777992248535,-0.8244625329971313
327,379764,379765,-0.03829651698470116,-0.13358408212661743,0.9782326221466064,69.43086242675781,-13.252071380615234,4.474715232849121,0.9344532489776611,-0.1814909279346466,-0.2564871609210968,0.9323998689651489,-2.3159759044647217,-0.7124704718589783
328,379774,379775,-0.08608997613191605,-0.10141325742006302,0.9037159085273743,67.91445922851562,-4.863213539123535,-4.0070366859436035,0.9209539294242859,-0.19499024748802185,-0.2459876984357834,0.7925231456756592,-1.4515355825424194,-0.5408377647399902
329,379784,379785,-0.11617881804704666,-0.04689117521047592,0.9351102709770203,51.183982849121094,-0.4663967490196228,-13.46744441986084,0.9269536137580872,-0.19199039041996002,-0.2459876984357834,0.9823143482208252,-0.9965211153030396,-0.6541690826416016
330,379794,379795,-0.032864172011613846,0.0318085141479969,1.067927360534668,34.481956481933594,-2.2744789123535156,-20.346731185913086,0.9224538803100586,-0.16649167239665985,-0.24148792028427124,0.9855687022209167,-0.5145898461341858,-0.7893296480178833
331,379804,379805,-0.030652914196252823,0.05347230285406113,1.079698920249939,29.54531478881836,-3.187520980834961,-20.586624145507812,0.9269536137580872,-0.16799159348011017,-0.23998799920082092,1.0120514631271362,-0.1486915498971939,-0.9885778427124023
332,379814,379815,-0.051597438752651215,0.12458512932062149,1.018070936203003,22.976852416992188,1.8292803764343262,-19.159894943237305,0.919454038143158,-0.17849107086658478,-0.23248836398124695,1.015001893043518,-0.016401246190071106,-1.1988539695739746
333,379824,379825,0.009582503698766232,0.18558715283870697,1.0099085569381714,11.664505958557129,5.021992206573486,-16.361536026000977,0.9269536137580872,-0.16499175131320953,-0.23998799920082092,1.084850788116455,0.3394128084182739,-1.4042043685913086
334,379834,379835,0.05662913993000984,0.11934124678373337,0.9952222108840942,4.280759334564209,9.696682929992676,-13.907784461975098,0.9239537715911865,-0.17699114978313446,-0.2459876984357834,1.0831893682479858,0.52527916431427,-1.5719521045684814
335,379844,379845,-0.04093604534864426,0.04758444428443909,0.9975341558456421,-6.002634048461914,17.75727081298828,-11.581521987915039,0.919454038143158,-0.16949152946472168,-0.22648866474628448,0.9144047498703003,0.41857993602752686,-1.7000800371170044
336,379854,379855,-0.0860273540019989,-0.04506354779005051,1.0153990983963013,-13.3323392868042,31.38275909423828,-10.213011741638184,0.9164541363716125,-0.15749211609363556,-0.2384880781173706,0.5889668464660645,0.3863222897052765,-1.7832671403884888
337,379864,379865,-0.17670735716819763,-0.23917409777641296,1.0764856338500977,-18.6965274810791,42.13924026489258,-9.93099594116211,0.911954402923584,-0.1619918942451477,-0.2459876984357834,0.15717491507530212,0.24036362767219543,-1.8646256923675537
338,379874,379875,-0.11287413537502289,-0.21680055558681488,0.9959093332290649,-17.898149490356445,34.65206527709961,-10.608927726745605,0.9164541363716125,-0.1604919731616974,-0.2474876195192337,-0.25098252296447754,0.05991724506020546,-1.965978741645813
339,379884,379885,-0.0459265410900116,-0.03793196752667427,0.8931260704994202,-20.89532470703125,15.771141052246094,-10.883824348449707,0.9104544520378113,-0.16649167239665985,-0.2294885218143463,-0.49397990107536316,-0.12532798945903778,-2.0869951248168945
340,379894,379895,0.07034481316804886,0.12237361073493958,0.9261825084686279,-18.440040588378906,-0.886448085308075,-10.101301193237305,0.9239537715911865,-0.17699114978313446,-0.25198739767074585,-0.6203262209892273,-0.32308629155158997,-2.198889970779419
341,379904,379905,-0.03429790586233139,0.13834550976753235,1.0579861402511597,-17.434003829956055,-17.058439254760742,-11.871698379516602,0.9224538803100586,-0.17249137163162231,-0.23548822104930878,-0.5317489504814148,-0.5177026987075806,-2.309950113296509
342,379914,379915,-0.058491937816143036,0.03247802332043648,1.0744200944900513,-13.995819091796875,-24.31609344482422,-15.646889686584473,0.9269536137580872,-0.16499175131320953,-0.23998799920082092,-0.2800803780555725,-0.5400568246841431,-2.4075751304626465
343,379924,379925,-0.10146047919988632,-0.08181077986955643,1.0027023553848267,-5.963766098022461,-32.94826126098633,-19.32888412475586,0.9284535646438599,-0.16949152946472168,-0.23548822104930878,-0.04186609759926796,-0.6838536858558655,-2.5561330318450928
344,379934,379935,-0.14892937242984772,-0.2146199345588684,1.0613619089126587,-1.4125144481658936,-39.849098205566406,-23.69729232788086,0.9179540872573853,-0.1889905482530594,-0.26098695397377014,0.4482446014881134,-0.7248079180717468,-2.7535040378570557
345,379944,379945,-0.11407291889190674,-0.19486698508262634,1.0555336475372314,4.439311981201172,-33.0869140625,-28.283952713012695,0.9269536137580872,-0.1889905482530594,-0.25198739767074585,1.0218780040740967,-0.7460818886756897,-3.002711534500122
346,379954,379955,-0.1361648291349411,-0.10016344487667084,0.9360044002532959,14.787195205688477,-12.824847221374512,-30.499664306640625,0.9404529333114624,-0.16949152946472168,-0.2474876195192337,1.0405797958374023,-0.5503175258636475,-3.240002393722534
347,379964,379965,-0.09899924695491791,-0.08688738942146301,0.9681776165962219,28.614891052246094,19.78499412536621,-31.213237762451172,0.9329533576965332,-0.16799159348011017,-0.23998799920082092,1.0876808166503906,-0.46049147844314575,-3.5466458797454834
348,379974,379975,-0.06433365494012833,-0.0235325638204813,1.0196266174316406,35.8243293762207,45.518699645996094,-29.6296443939209,0.9224538803100586,-0.16649167239665985,-0.2384880781173706,0.8867047429084778,-0.13735191524028778,-3.8478610515594482
349,379984,379985,0.0015784282004460692,0.02150397002696991,1.0090516805648804,43.5556640625,55.995819091796875,-28.209693908691406,0.9269536137580872,-0.16499175131320953,-0.23998799920082092,0.29138895869255066,0.240763857960701,-4.128232002258301
350,379994,379995,0.06416906416416168,3.826053216471337e-05,1.0133687257766724,53.099945068359375,52.23542785644531,-25.631534576416016,0.9104544520378113,-0.1814909279346466,-0.25348731875419617,-0.4014699161052704,0.8923470377922058,-4.366970062255859
351,380004,380005,-0.02567398175597191,-0.026655102148652077,0.9971871972084045,59.55262756347656,30.708105087280273,-26.032258987426758,0.9209539294242859,-0.18299084901809692,-0.23998799920082092,-0.7091754078865051,1.0934895277023315,-4.667165279388428
352,380014,380015,-0.004045965615659952,-0.03606555238366127,1.0273207426071167,55.69773864746094,3.01456880569458,-26.549339294433594,0.9149542450904846,-0.19199039041996002,-0.24898754060268402,-0.9997366666793823,1.778597116470337,-4.902789115905762
353,380024,380025,0.0038650508504360914,-0.02214745432138443,1.1027436256408691,42.75235366821289,-31.77389907836914,-25.164424896240234,0.90445476770401,-0.1814909279346466,-0.24448777735233307,-1.13722562789917,2.194786787033081,-5.18959903717041
354,380034,380035,-0.09860733896493912,-0.12394288927316666,1.0361812114715576,19.805004119873047,-62.81267166137695,-24.554563522338867,0.9164541363716125,-0.18449077010154724,-0.24448777735233307,-0.5082371234893799,2.614361047744751,-5.438411235809326
355,380044,380045,-0.06163771450519562,-0.07037457078695297,0.9670990705490112,-4.4941887855529785,-68.5142822265625,-24.851755142211914,0.9359531998634338,-0.19799008965492249,-0.2369881421327591,0.13697992265224457,2.8121116161346436,-5.71021842956543
356,380054,380055,-0.0770106092095375,-0.05200543254613876,0.9279767274856567,-27.712356567382812,-55.6791877746582,-24.015605926513672,0.9269536137580872,-0.18599069118499756,-0.22198890149593353,0.8345853090286255,2.6794707775115967,-6.001107692718506
357,380064,380065,-0.06272170692682266,-0.022008350118994713,0.9655258655548096,-40.18504333496094,-27.464628219604492,-19.42167091369629,0.9374530911445618,-0.17549122869968414,-0.23248836398124695,1.0803567171096802,2.260643243789673,-6.340838432312012
358,380074,380075,-0.07090060412883759,-0.034969180822372437,0.971413791179657,-48.79075241088867,-2.305690288543701,-15.080146789550781,0.9179540872573853,-0.14999249577522278,-0.24298784136772156,1.282235026359558,2.014482021331787,-6.5378522872924805
359,380084,380085,-0.12721315026283264,-0.035828616470098495,0.958621621131897,-54.05781173706055,22.288951873779297,-10.21826457977295,0.9209539294242859,-0.1529923528432846,-0.23098844289779663,1.1559404134750366,1.4265093803405762,-6.740181922912598
360,380094,380095,-0.10626392811536789,-0.0961623415350914,1.01811945438385,-51.26094436645508,38.952369689941406,-9.577447891235352,0.9179540872573853,-0.14399279654026031,-0.227988600730896,0.9674212336540222,1.0844413042068481,-6.810732841491699
361,380104,380105,0.008703017607331276,0.007824957370758057,1.0663175582885742,-30.25864028930664,49.383331298828125,-10.226781845092773,0.9074546098709106,-0.12149392068386078,-0.2294885218143463,0.453192800283432,0.4754083454608917,-6.938587188720703
362,380114,380115,0.003814100055024028,-0.025607602670788765,1.03424870967865,4.228832244873047,44.78162384033203,-11.442662239074707,0.9134542942047119,-0.1334933191537857,-0.22648866474628448,-0.16607080399990082,0.4221283495426178,-7.042362689971924
363,380124,380125,-0.056011684238910675,0.04989680275321007,0.9840423464775085,28.34527015686035,25.87510871887207,-10.845383644104004,0.9029548168182373,-0.15899205207824707,-0.23998799920082092,-0.6922061443328857,0.45329946279525757,-7.169699668884277
364,380134,380135,-0.023362277075648308,0.05046164244413376,1.0347826480865479,47.36095428466797,4.087159633636475,-10.036437034606934,0.9014549255371094,-0.14849257469177246,-0.22348882257938385,-0.6804547309875488,0.8837746977806091,-7.1903815269470215
365,380144,380145,-0.015070720575749874,-0.013618940487504005,0.9740931987762451,57.61387252807617,-10.03590202331543,-7.649009704589844,0.911954402923584,-0.1619918942451477,-0.23398829996585846,-0.8002495169639587,1.20754075050354,-7.332688331604004
366,380154,380155,-0.015019717626273632,-0.04064912721514702,0.9724411964416504,56.11207962036133,-22.388935089111328,-3.9655683040618896,0.9164541363716125,-0.1604919731616974,-0.2294885218143463,-0.48380938172340393,1.9147332906723022,-7.337954521179199
367,380164,380165,-0.020561648532748222,-0.02757401391863823,0.849914014339447,35.13854217529297,-28.721925735473633,-0.4804714024066925,0.896955132484436,-0.16799159348011017,-0.227988600730896,-0.2375214695930481,2.528313398361206,-7.368875503540039
368,380174,380175,-0.03406983241438866,-0.03430481255054474,0.9401711225509644,4.254036903381348,-26.918689727783203,1.211814284324646,0.9074546098709106,-0.16949152946472168,-0.2384880781173706,0.20549818873405457,2.7980024814605713,-7.363315582275391
369,380184,380185,-0.07318384945392609,-0.024720879271626472,0.9600557088851929,-37.18674087524414,-11.82330322265625,5.11826753616333,0.9149542450904846,-0.1619918942451477,-0.23398829996585846,0.44208380579948425,2.57865571975708,-7.414187908172607
370,380194,380195,-0.0592898353934288,-0.017656870186328888,0.9612171649932861,-65.0155029296875,7.161468029022217,8.394930839538574,0.9344532489776611,-0.1604919731616974,-0.23248836398124695,0.4280589818954468,2.3714282512664795,-7.388554096221924
371,380204,380205,-0.10932493209838867,-0.0067316391505301,1.0241470336914062,-78.06212615966797,26.301328659057617,12.769702911376953,0.9269536137580872,-0.14099295437335968,-0.227988600730896,0.17541946470737457,1.6424216032028198,-7.374131202697754
372,380214,380215,-0.020619068294763565,-0.04095989465713501,0.9893020987510681,-80.08124542236328,38.789939880371094,17.69879913330078,0.9164541363716125,-0.14549271762371063,-0.2474876195192337,-0.1175088882446289,0.9022645354270935,-7.243366718292236
373,380224,380225,-0.0031121918000280857,-0.06731104850769043,0.9174278378486633,-67.8382339477539,44.53459167480469,21.096649169921875,0.9089545607566833,-0.14699265360832214,-0.23998799920082092,-0.3511376976966858,0.1516939103603363,-7.011270999908447
374,380234,380235,0.007669275160878897,0.029618272557854652,0.9125994443893433,-46.067928314208984,44.05143356323242,23.37179183959961,0.911954402923584,-0.13499325513839722,-0.24298784136772156,-1.0137221813201904,-0.5385984778404236,-6.875576972961426
375,380244,380245,0.02659536525607109,0.03192923963069916,0.951461672782898,-23.622371673583984,33.263126373291016,25.64305305480957,0.9089545607566833,-0.13799309730529785,-0.24298784136772156,-1.304883360862732,-0.8873786330223083,-6.5806756019592285
376,380254,380255,-0.009038207121193409,0.033419668674468994,0.9675832986831665,-7.955690860748291,15.563121795654297,25.063312530517578,0.9269536137580872,-0.170991450548172,-0.2549872398376465,-1.6050965785980225,-1.0668935775756836,-6.310275077819824
377,380264,380265,0.021566441282629967,0.06887015700340271,0.9173927307128906,6.6562957763671875,-2.994570255279541,26.058185577392578,0.911954402923584,-0.15599219501018524,-0.23398829996585846,-1.833021879196167,-0.9777788519859314,-6.038149833679199
378,380274,380275,-0.0013208686141297221,0.007611074950546026,0.9981842041015625,20.08045196533203,-15.29934310913086,26.776870727539062,0.911954402923584,-0.170991450548172,-0.24298784136772156,-1.7830982208251953,-0.8258699178695679,-5.750103950500488
379,380284,380285,-0.12988947331905365,-0.12711171805858612,1.0531288385391235,19.21770477294922,-20.04277801513672,27.075668334960938,0.911954402923584,-0.1799909919500351,-0.24898754060268402,-1.5585161447525024,-0.7012956738471985,-5.492481708526611
380,380294,380295,-0.08407225459814072,0.024641036987304688,0.9258450269699097,7.001962184906006,-19.639467239379883,25.161922454833984,0.919454038143158,-0.16949152946472168,-0.2384880781173706,-1.3201063871383667,-0.5583845973014832,-5.234570503234863
381,380304,380305,0.04405609145760536,0.1253310889005661,0.9404954314231873,-6.511237144470215,-15.454970359802246,22.974029541015625,0.9179540872573853,-0.15899205207824707,-0.2369881421327591,-0.9875087141990662,-0.5601761341094971,-4.983973026275635
382,380314,380315,0.00249745836481452,0.053326625376939774,0.9650288820266724,-20.53802490234375,-9.007753372192383,21.364498138427734,0.9239537715911865,-0.17699114978313446,-0.2459876984357834,-1.0741337537765503,-0.659164309501648,-4.781406879425049
383,380324,380325,-0.09453821927309036,-0.057453181594610214,0.9903608560562134,-33.00560760498047,-7.568546772003174,18.673891067504883,0.9179540872573853,-0.16499175131320953,-0.24298784136772156,-0.9165236353874207,-1.0236629247665405,-4.616982936859131
384,380334,380335,-0.07291270792484283,-0.039243753999471664,1.0130772590637207,-39.30229949951172,-4.558208465576172,17.807260513305664,0.9239537715911865,-0.1619918942451477,-0.23998799920082092,-0.8198301792144775,-1.1133438348770142,-4.3585286140441895
385,380344,380345,-0.005601844284683466,0.046926893293857574,0.9757060408592224,-34.910274505615234,1.1584630012512207,16.408605575561523,0.9254537224769592,-0.16349181532859802,-0.23548822104930878,-0.848994791507721,-1.6759690046310425,-4.240487575531006
386,380354,380355,0.06416136771440506,0.19366484880447388,0.9490018486976624,-23.037992477416992,5.0354509353637695,16.352609634399414,0.9254537224769592,-0.16349181532859802,-0.23548822104930878,-0.8993849754333496,-2.166242837905884,-4.1239914894104
387,380364,380365,0.061127956956624985,0.20809201896190643,0.9680485129356384,-11.096546173095703,-2.611027479171753,17.61872673034668,0.9254537224769592,-0.16349181532859802,-0.23548822104930878,-0.874556303024292,-2.255911350250244,-3.9199013710021973
388,380374,380375,-0.0289243645966053,0.042426008731126785,1.037390947341919,-7.77944278717041,-20.379169464111328,14.9478120803833,0.919454038143158,-0.14249287545681,-0.25048747658729553,-0.7345694899559021,-2.289396047592163,-3.7272250652313232
389,380384,380385,-0.028489982709288597,0.1433413028717041,1.0631251335144043,-4.111308574676514,-39.07664489746094,8.936957359313965,0.9284535646438599,-0.16949152946472168,-0.2384880781173706,-0.6471986770629883,-2.3366587162017822,-3.5508229732513428
390,380394,380395,-0.05304565653204918,0.048069268465042114,1.160746455192566,10.278392791748047,-49.43711471557617,4.834497928619385,0.9299534559249878,-0.17699114978313446,-0.2459876984357834,0.05121195316314697,-2.39467191696167,-3.484344005584717
391,380404,380405,-0.029325786978006363,0.049923963844776154,1.0960012674331665,26.527694702148438,-48.97317886352539,4.082478046417236,0.9299534559249878,-0.17699114978313446,-0.25198739767074585,0.6187382936477661,-2.4195189476013184,-3.458094358444214
392,380414,380415,-0.03151234611868858,0.11525288224220276,1.089328646659851,36.208595275878906,-27.783647537231445,2.2204933166503906,0.9374530911445618,-0.18749062716960907,-0.25348731875419617,0.6776347160339355,-2.003084182739258,-3.2908666133880615
393,380424,380425,-0.01886219158768654,0.06480072438716888,1.0873708724975586,29.996179580688477,-1.048681378364563,1.7234346866607666,0.9284535646438599,-0.17249137163162231,-0.25048747658729553,0.9489284753799438,-1.6165335178375244,-3.252465009689331
394,380434,380435,0.022980820387601852,0.053509391844272614,1.0784553289413452,19.242420196533203,21.970592498779297,-0.6196532845497131,0.9179540872573853,-0.16799159348011017,-0.25198739767074585,0.7462124228477478,-1.4243029356002808,-3.2157509326934814
395,380444,380445,0.03478304669260979,0.08852896094322205,1.0199012756347656,11.37236499786377,38.01201629638672,-2.2062625885009766,0.9224538803100586,-0.16349181532859802,-0.24448777735233307,0.5825727581977844,-1.1525170803070068,-3.22961688041687
396,380454,380455,0.05396194010972977,0.14022424817085266,0.9866037964820862,5.512972354888916,43.5102424621582,-3.6607515811920166,0.9239537715911865,-0.14999249577522278,-0.2459876984357834,0.0795542374253273,-1.276599407196045,-3.271150588989258
397,380464,380465,0.021345971152186394,0.1491028070449829,0.9956671595573425,-3.9169647693634033,38.9094123840332,-4.074584007263184,0.9299534559249878,-0.14399279654026031,-0.23998799920082092,-0.4492766857147217,-1.162276268005371,-3.2847700119018555
398,380474,380475,0.05971689894795418,0.04512816667556763,1.0360342264175415,-7.04770565032959,28.739818572998047,-3.6703217029571533,0.9029548168182373,-0.1319933980703354,-0.2369881421327591,-0.5047407150268555,-1.2421809434890747,-3.4088451862335205
399,380484,380485,-0.03629213944077492,-0.004189015831798315,1.000763177871704,-3.0756068229675293,15.487906455993652,-2.4724678993225098,0.9149542450904846,-0.13799309730529785,-0.2369881421327591,-0.8285974860191345,-1.3817704916000366,-3.4580485820770264
400,380494,380495,-0.10917885601520538,-0.05482145771384239,0.9641170501708984,4.721447944641113,-0.3796919286251068,-0.4009108543395996,0.9164541363716125,-0.14549271762371063,-0.2384880781173706,-0.9710838198661804,-1.3481087684631348,-3.478283166885376
401,380504,380505,-0.03514770790934563,0.02815723977982998,0.9781161546707153,15.743827819824219,-11.902472496032715,2.8863685131073,0.9179540872573853,-0.14699265360832214,-0.23098844289779663,-0.8922856450080872,-1.3160367012023926,-3.501936435699463
402,380514,380515,-0.008533760905265808,0.10298679769039154,0.993240237236023,23.498737335205078,-23.632192611694336,6.137523174285889,0.9089545607566833,-0.15899205207824707,-0.23998799920082092,-0.6247084736824036,-1.12665593624115,-3.4972293376922607
403,380524,380525,-0.0711224302649498,0.0442548468708992,0.9322565197944641,26.709394454956055,-31.76213836669922,9.286914825439453,0.9104544520378113,-0.15749211609363556,-0.24448777735233307,-0.5402941107749939,-0.909338653087616,-3.39839768409729
404,380534,380535,-0.08538242429494858,-0.11676628142595291,1.0214879512786865,25.566543579101562,-34.28384017944336,11.27026653289795,0.9074546098709106,-0.17549122869968414,-0.24448777735233307,-0.07278335094451904,-0.6677924394607544,-3.3391196727752686
405,380544,380545,-0.04136068373918533,-0.12891335785388947,1.1125913858413696,18.448850631713867,-32.17710494995117,12.268644332885742,0.9164541363716125,-0.1814909279346466,-0.24448777735233307,0.2419101893901825,-0.3378073573112488,-3.20833683013916
406,380554,380555,-0.05143314227461815,-0.05198383703827858,1.0607037544250488,15.340923309326172,-30.557451248168945,11.627612113952637,0.9434528350830078,-0.17549122869968414,-0.24148792028427124,0.47293102741241455,-0.2311820685863495,-3.0822722911834717
407,380564,380565,-0.03766339272260666,0.006088742986321449,1.0233441591262817,7.199240684509277,-25.166461944580078,10.990079879760742,0.9374530911445618,-0.18749062716960907,-0.2384880781173706,0.6516114473342896,-0.06926844269037247,-2.94211483001709
408,380574,380575,-0.20944739878177643,-0.019276725128293037,1.0700461864471436,5.110633850097656,-6.247508525848389,11.939043045043945,0.9314534068107605,-0.16349181532859802,-0.24148792028427124,0.960662841796875,-0.1466604620218277,-2.855978488922119
409,380584,380585,-0.16878169775009155,-0.08408815413713455,1.0336520671844482,17.746156692504883,9.95582389831543,14.470987319946289,0.9254537224769592,-0.17249137163162231,-0.2294885218143463,1.0464394092559814,0.059542056173086166,-2.7234947681427
410,380594,380595,-0.11600781977176666,-0.1711777150630951,1.0316087007522583,29.924884796142578,18.524988174438477,17.160091400146484,0.9284535646438599,-0.16949152946472168,-0.2294885218143463,0.7684698700904846,0.31079795956611633,-2.549600839614868
411,380604,380605,-0.011204005219042301,-0.03488050028681755,1.0105737447738647,28.253944396972656,16.864730834960938,18.43450927734375,0.9134542942047119,-0.17249137163162231,-0.23548822104930878,0.7078312039375305,0.45388147234916687,-2.40083384513855
412,380614,380615,-0.008885708637535572,0.021337447687983513,1.0089226961135864,22.17595672607422,14.34377670288086,20.941802978515625,0.9179540872573853,-0.17699114978313446,-0.23998799920082092,0.5289494395256042,0.6940233111381531,-2.2153143882751465
413,380624,380625,0.007028249092400074,0.018866978585720062,1.0021215677261353,11.772787094116211,9.748418807983398,22.546579360961914,0.9164541363716125,-0.18749062716960907,-0.24448777735233307,0.3910064697265625,0.886433482170105,-2.004544258117676
414,380634,380635,0.028939124196767807,0.04222177714109421,1.0059555768966675,-1.2272393703460693,12.401398658752441,24.83727264404297,0.9284535646438599,-0.17549122869968414,-0.24148792028427124,0.20863759517669678,0.8152316808700562,-1.775755763053894
415,380644,380645,-0.011743956245481968,0.025934426113963127,0.9771248698234558,-13.921928405761719,14.180440902709961,26.68157386779785,0.9149542450904846,-0.170991450548172,-0.2459876984357834,0.08325543254613876,0.8304479718208313,-1.5234992504119873
416,380654,380655,-0.017702726647257805,-0.04362523555755615,0.9697030186653137,-18.05975914001465,13.344660758972168,25.659608840942383,0.9089545607566833,-0.16799159348011017,-0.24298784136772156,-0.12186349183320999,0.701312780380249,-1.2579702138900757
417,380664,380665,-0.07953453063964844,-0.08998414874076843,0.9644124507904053,-21.816669464111328,9.798583984375,24.435789108276367,0.911954402923584,-0.16799159348011017,-0.24298784136772156,-0.16619829833507538,0.5020702481269836,-1.0028247833251953
418,380674,380675,-0.01617405377328396,0.006698567885905504,0.9719016551971436,-18.361738204956055,7.82576322555542,23.05511474609375,0.9029548168182373,-0.1619918942451477,-0.2369881421327591,-0.30576092004776,0.4979584217071533,-0.7517076134681702
419,380684,380685,0.03237517550587654,0.016747506335377693,0.9450212121009827,-13.946076393127441,2.6146602630615234,20.54907989501953,0.9164541363716125,-0.16349181532859802,-0.2384880781173706,-0.3931608498096466,0.1870908886194229,-0.527426540851593
420,380694,380695,0.0264205913990736,0.008951283991336823,0.9968584775924683,-13.04550838470459,-5.05850887298584,17.687429428100586,0.9239537715911865,-0.1619918942451477,-0.2369881421327591,-0.6601338982582092,0.1309386044740677,-0.3268454372882843
421,380704,380705,-0.026680465787649155,0.002850600518286228,0.9745182394981384,-9.873346328735352,-10.352355003356934,14.848905563354492,0.919454038143158,-0.15449227392673492,-0.23248836398124695,-0.5181488990783691,-0.03333383798599243,-0.14600232243537903
422,380714,380715,-0.02496098168194294,0.012238558381795883,0.9981560707092285,-4.823843479156494,-14.835387229919434,10.820747375488281,0.9089545607566833,-0.15899205207824707,-0.227988600730896,-0.30098041892051697,-0.12962210178375244,0.007730357814580202
423,380724,380725,-0.012677614577114582,-0.029467323794960976,0.985388457775116,4.316007137298584,-15.211647033691406,8.310771942138672,0.9164541363716125,-0.17249137163162231,-0.22348882257938385,-0.04211694002151489,-0.11907456070184708,0.12749505043029785
424,380734,380735,-0.017774738371372223,0.012343590147793293,0.9680112600326538,12.831958770751953,-11.071866035461426,6.936224460601807,0.9209539294242859,-0.1619918942451477,-0.23398829996585846,0.19452963769435883,-0.11403439193964005,0.21210739016532898
425,380744,380745,-0.013448058627545834,-0.027638934552669525,0.9707919359207153,20.412473678588867,-5.345327377319336,5.836020469665527,0.9299534559249878,-0.16499175131320953,-0.23098844289779663,0.21292978525161743,-0.25296837091445923,0.26493749022483826
426,380754,380755,-0.029991349205374718,-0.0017880861414596438,0.9596439599990845,27.531253814697266,0.295185923576355,5.17167329788208,0.9134542942047119,-0.16949152946472168,-0.2384880781173706,0.2769051492214203,0.17227312922477722,0.3387555480003357
427,380764,380765,-0.008148426190018654,-0.0076256669126451015,0.9788814783096313,33.53163528442383,3.5466396808624268,4.198191165924072,0.9149542450904846,-0.18299084901809692,-0.227988600730896,0.12893112003803253,0.476967453956604,0.385579377412796
428,380774,380775,-0.036384809762239456,-0.019067863002419472,0.9962022304534912,36.8661994934082,4.780228614807129,2.808927536010742,0.919454038143158,-0.17849107086658478,-0.22648866474628448,0.08883052319288254,0.8598580360412598,0.43043890595436096
429,380784,380785,-0.04316648095846176,-0.015019284561276436,1.0006685256958008,32.957096099853516,3.591142416000366,0.8881486654281616,0.9059546589851379,-0.1799909919500351,-0.23098844289779663,0.043114833533763885,1.1088144779205322,0.4547678828239441
430,380794,380795,-0.05041143670678139,-0.04105673357844353,1.0129584074020386,24.295135498046875,-2.9892024993896484,0.09560626745223999,0.9209539294242859,-0.17399129271507263,-0.23398829996585846,0.05021873489022255,1.4906004667282104,0.4679768979549408
431,380804,380805,-0.02849208191037178,-0.03986896574497223,1.0113685131072998,10.870925903320312,-12.947041511535645,-1.4616191387176514,0.9179540872573853,-0.1889905482530594,-0.24298784136772156,0.035586919635534286,1.6307532787322998,0.4589430093765259
432,380814,380815,-0.07008714228868484,-0.017583195120096207,1.008254885673523,-12.068232536315918,-14.949759483337402,-3.263969659805298,0.911954402923584,-0.1889905482530594,-0.227988600730896,0.05524885654449463,1.7752037048339844,0.43235138058662415
433,380824,380825,0.021228255704045296,0.018169498071074486,0.9515588283538818,-29.224702835083008,-15.608370780944824,-4.17709493637085,0.9209539294242859,-0.17699114978313446,-0.24298784136772156,0.3330230116844177,1.5827332735061646,0.4122803211212158
434,380834,380835,0.015008379705250263,0.06333666294813156,0.8500714898109436,-35.723018646240234,-10.507477760314941,-1.5948982238769531,0.9239537715911865,-0.16499175131320953,-0.24898754060268402,0.546157717704773,1.1949297189712524,0.3820981979370117
435,380844,380845,-0.02675079181790352,0.013557462953031063,0.952931821346283,-34.47283172607422,-7.991565227508545,-0.3676396906375885,0.9359531998634338,-0.19199039041996002,-0.23998799920082092,0.6476496458053589,0.8151980638504028,0.3604910969734192
436,380854,380855,-0.06746210157871246,0.004475218243896961,0.9808770418167114,-33.357608795166016,3.2433431148529053,0.7449235916137695,0.9344532489776611,-0.17249137163162231,-0.2384880781173706,0.6460745930671692,0.654628574848175,0.3437694311141968
437,380864,380865,0.0001494292519055307,0.003597832750529051,0.9903618097305298,-33.37162399291992,14.342531204223633,1.3773200511932373,0.9164541363716125,-0.17249137163162231,-0.2384880781173706,0.5447892546653748,0.4140869677066803,0.3343152403831482
438,380874,380875,-0.026156356558203697,0.0274196844547987,1.0592234134674072,-28.37337303161621,19.620752334594727,2.6614694595336914,0.9269536137580872,-0.17399129271507263,-0.23398829996585846,0.3064749538898468,-0.08410322666168213,0.33218199014663696
439,380884,380885,-0.030934510752558708,0.020091872662305832,0.9700640439987183,-15.414783477783203,15.212666511535645,2.827129364013672,0.919454038143158,-0.1604919731616974,-0.2384880781173706,0.19029438495635986,-0.29679757356643677,0.367618590593338
440,380894,380895,-0.013334941118955612,0.03155245631933212,0.9517420530319214,1.3869351148605347,3.806412696838379,2.37931227684021,0.919454038143158,-0.16649167239665985,-0.2384880781173706,0.03649473190307617,-0.3470766842365265,0.39205557107925415
441,380904,380905,-0.00903522688895464,0.00894174724817276,0.9794842004776001,18.410001754760742,-9.53552532196045,1.711022973060608,0.9314534068107605,-0.17549122869968414,-0.2294885218143463,0.07196319848299026,-0.27277305722236633,0.42573097348213196
442,380914,380915,-0.03452972695231438,-0.01936161145567894,0.9953705668449402,32.47662353515625,-21.03789710998535,0.6722105741500854,0.9209539294242859,-0.1799909919500351,-0.23998799920082092,0.23645201325416565,-0.08847055584192276,0.452666699886322
443,380924,380925,-0.018329402431845665,-0.010823224671185017,1.0063390731811523,43.602752685546875,-30.879972457885742,-1.339616298675537,0.9239537715911865,-0.18599069118499756,-0.2369881421327591,0.36069631576538086,0.37557893991470337,0.4496523439884186
444,380934,380935,-0.011585853062570095,0.024676306173205376,1.001935362815857,52.95872497558594,-38.749942779541016,-3.2840607166290283,0.9419528841972351,-0.20398980379104614,-0.25198739767074585,0.3602394461631775,0.7194616198539734,0.40337392687797546
445,380944,380945,-0.03281731531023979,-0.02271668240427971,1.0323177576065063,59.69272994995117,-38.87733840942383,-4.500271797180176,0.9239537715911865,-0.19799008965492249,-0.2459876984357834,1.0188090801239014,1.2758456468582153,0.3968430757522583
446,380954,380955,-0.04011952877044678,-0.01237229909747839,0.9988641142845154,52.81218719482422,-25.52422332763672,-3.888023853302002,0.9329533576965332,-0.20698964595794678,-0.2459876984357834,1.5017801523208618,1.849901795387268,0.3564651608467102
447,380964,380965,-0.08168942481279373,-0.024222666397690773,1.0280640125274658,36.22745132446289,-6.342870235443115,-2.826462745666504,0.9389530420303345,-0.20098994672298431,-0.2369881421327591,1.6608110666275024,2.4004428386688232,0.2941191494464874
448,380974,380975,-0.021778572350740433,-0.028831351548433304,0.9680044651031494,9.67995834350586,8.736194610595703,-1.9350618124008179,0.9269536137580872,-0.19199039041996002,-0.2369881421327591,1.6914644241333008,2.477937698364258,0.28077074885368347
449,380984,380985,-0.05629492923617363,-0.04120233654975891,0.986630916595459,-27.25080108642578,21.31022834777832,-1.8284717798233032,0.9344532489776611,-0.18749062716960907,-0.24148792028427124,1.4903459548950195,2.641310453414917,0.23454977571964264
450,380994,380995,-0.008739657700061798,0.01777699589729309,0.9600237011909485,-63.453495025634766,29.584150314331055,2.5776965618133545,0.9344532489776611,-0.17249137163162231,-0.23548822104930878,1.189645528793335,2.14670729637146,0.2378506064414978
451,381004,381005,-0.023468051105737686,-0.00017163791926577687,1.0064882040023804,-82.86510467529297,33.593048095703125,5.876519680023193,0.9479525685310364,-0.20398980379104614,-0.26098695397377014,0.8513636589050293,1.8194624185562134,0.22176192700862885
452,381014,381015,-0.07093404233455658,-0.008372184820473194,1.0218464136123657,-84.964599609375,32.73899841308594,8.530889511108398,0.9419528841972351,-0.1799909919500351,-0.24298784136772156,0.48313745856285095,0.7561445236206055,0.3071182668209076
453,381024,381025,-0.015048312023282051,0.0015441830037161708,1.02774178981781,-70.42985534667969,30.23819351196289,10.48943042755127,0.9344532489776611,-0.19349032640457153,-0.2474876195192337,0.13726454973220825,-0.08817843347787857,0.3870649039745331
454,381034,381035,-0.006086788605898619,0.031242836266756058,1.0227785110473633,-41.786041259765625,11.654492378234863,8.104042053222656,0.9329533576965332,-0.18599069118499756,-0.25198739767074585,-0.20339275896549225,-0.4752970039844513,0.4419616758823395
455,381044,381045,-0.010034010745584965,0.02888917736709118,1.0265357494354248,-14.752901077270508,-13.828422546386719,6.66777229309082,0.9329533576965332,-0.18599069118499756,-0.25198739767074585,-0.1409805864095688,-0.9354812502861023,0.5686532855033875
456,381054,381055,-0.05390457436442375,-0.01565225049853325,1.0566338300704956,4.030751705169678,-33.09440612792969,3.416825771331787,0.9329533576965332,-0.18599069118499756,-0.25198739767074585,-0.07653825730085373,-1.0764358043670654,0.6234250664710999
457,381064,381065,-0.16033044457435608,-0.1370059847831726,1.0989983081817627,19.84075164794922,-38.93174362182617,3.104193687438965,0.9359531998634338,-0.19799008965492249,-0.25198739767074585,0.45646658539772034,-0.914239227771759,0.6879069209098816
458,381074,381075,-0.10932796448469162,-0.047374315559864044,1.0458389520645142,40.448570251464844,-27.754728317260742,3.058274507522583,0.9269536137580872,-0.19199039041996002,-0.25198739767074585,0.958156943321228,-0.667312741279602,0.7377533316612244
459,381084,381085,-0.049627210944890976,0.14401493966579437,0.9886502623558044,51.89957046508789,-9.821799278259277,4.177466869354248,0.9344532489776611,-0.18749062716960907,-0.2384880781173706,1.1442071199417114,-0.43820467591285706,0.7817355990409851
460,381094,381095,0.020451845601201057,0.0715663880109787,1.1032112836837769,44.37080001831055,5.3490471839904785,4.372453212738037,0.9224538803100586,-0.19649016857147217,-0.24148792028427124,1.2780784368515015,0.27483004331588745,0.8049794435501099
461,381104,381105,-0.01308058388531208,-0.0011926768347620964,1.0192135572433472,29.484893798828125,12.66224193572998,2.9837405681610107,0.9284535646438599,-0.17849107086658478,-0.2474876195192337,1.2218832969665527,0.5408244729042053,0.8672098517417908
462,381114,381115,-0.005392896011471748,0.08681850880384445,1.0587189197540283,6.41391134262085,17.51386260986328,1.163415551185608,0.9224538803100586,-0.18449077010154724,-0.2474876195192337,1.063719391822815,0.9314881563186646,0.8834556341171265
463,381124,381125,0.003701802808791399,0.00014923312119208276,1.150399088859558,-8.704655647277832,22.978744506835938,-0.18476833403110504,0.9314534068107605,-0.1814909279346466,-0.2594870328903198,0.902803361415863,0.8485137224197388,0.9146122336387634
464,381134,381135,-0.15415529906749725,-0.07989499717950821,1.1186480522155762,-18.04880714416504,20.958219528198242,-2.1996846199035645,0.9299534559249878,-0.18599069118499756,-0.2459876984357834,0.5740684270858765,0.7079890966415405,0.9074535369873047
465,381144,381145,-0.2587102949619293,-0.09037604928016663,1.0759624242782593,-17.128293991088867,10.970159530639648,-3.9679148197174072,0.9284535646438599,-0.1904904693365097,-0.25348731875419617,0.4090479910373688,0.42896348237991333,0.9018981456756592
466,381154,381155,-0.26475587487220764,-0.24506069719791412,1.0997591018676758,-0.39744332432746887,-9.077262878417969,-4.572934627532959,0.9269536137580872,-0.1799909919500351,-0.23998799920082092,0.39222830533981323,0.27500203251838684,0.8709664940834045
467,381164,381165,-0.16942688822746277,-0.27721256017684937,1.0384684801101685,14.213340759277344,-29.63848304748535,-6.346914768218994,0.9374530911445618,-0.17849107086658478,-0.23548822104930878,0.41030097007751465,0.37360912561416626,0.8032936453819275
468,381174,381175,-0.1351872980594635,-0.23628492653369904,0.9096996784210205,25.46966552734375,-42.918453216552734,-7.705647945404053,0.9329533576965332,-0.1889905482530594,-0.2369881421327591,0.6395134925842285,0.5569533705711365,0.7306858897209167
469,381184,381185,-0.09818664193153381,-0.11872123926877975,0.8710669875144958,26.40421485900879,-36.53282928466797,-10.470983505249023,0.9359531998634338,-0.19799008965492249,-0.22498874366283417,1.2853853702545166,0.98643559217453,0.6507156491279602
