,timestamp_start,timestamp_end,acc.x,acc.y,acc.z,gyro.x,gyro.y,gyro.z,mag.x,mag.y,mag.z,stabilizer.pitch,stabilizer.roll,stabilizer.yaw
0,50952,50954,-0.07679834961891174,-0.07338472455739975,1.0019978284835815,37.09864807128906,-20.55086326599121,-24.133514404296875,0.9569521546363831,-0.14099295437335968,-0.23098844289779663,0.717300295829773,-2.0393550395965576,-5.054232597351074
1,50962,50964,-0.016562458127737045,-0.018759893253445625,1.0063257217407227,30.890302658081055,-7.239025115966797,-24.166969299316406,0.9569521546363831,-0.14099295437335968,-0.23398829996585846,0.8573772311210632,-1.6763657331466675,-5.286135196685791
2,50972,50974,-0.0798116996884346,-0.10952993482351303,0.9027739763259888,23.893930435180664,9.667137145996094,-23.35888671875,0.950952410697937,-0.13799309730529785,-0.24298784136772156,0.8203845620155334,-1.4617270231246948,-5.515346527099609
3,50982,50984,-0.06471378356218338,-0.04993491992354393,1.0047695636749268,15.836024284362793,24.883012771606445,-18.9213924407959,0.9599519968032837,-0.16799159348011017,-0.23998799920082092,0.5187669396400452,-1.3151097297668457,-5.669741630554199
4,50992,50994,0.040766578167676926,0.08080591261386871,1.0458836555480957,10.85018539428711,33.31529998779297,-14.900959968566895,0.9599519968032837,-0.14699265360832214,-0.23998799920082092,0.10936059802770615,-1.335667610168457,-5.782031536102295
5,51002,51004,-0.028484055772423744,-0.051455121487379074,1.0419641733169556,10.818015098571777,32.27558517456055,-14.206368446350098,0.9599519968032837,-0.1529923528432846,-0.24298784136772156,0.16592098772525787,-0.9942222237586975,-6.117312431335449
6,51012,51014,-0.06503363698720932,-0.120002880692482,0.9576779007911682,12.571650505065918,23.046981811523438,-15.743191719055176,0.9494525194168091,-0.14849257469177246,-0.23548822104930878,-0.39199572801589966,-1.0632388591766357,-6.149130344390869
7,51022,51024,0.0016996136400848627,-0.10205641388893127,1.052188515663147,13.231338500976562,8.826725006103516,-16.503698348999023,0.9599519968032837,-0.14399279654026031,-0.2369881421327591,-0.7374067902565002,-0.9560438394546509,-6.244297504425049
8,51032,51034,0.00784273725003004,-0.1323820948600769,1.095354676246643,9.951641082763672,-8.85903549194336,-15.631204605102539,0.9494525194168091,-0.15749211609363556,-0.23548822104930878,-0.7795937657356262,-0.8001319169998169,-6.386963844299316
9,51042,51044,-0.038686178624629974,-0.07676281034946442,1.071168065071106,7.591372966766357,-21.126220703125,-15.214388847351074,0.9539523124694824,-0.15899205207824707,-0.23998799920082092,-0.30448010563850403,-0.7460585832595825,-6.66522741317749
10,51052,51054,-0.06260202825069427,-0.04568326100707054,1.0419011116027832,6.935866832733154,-21.153884887695312,-12.825799942016602,0.9479525685310364,-0.1529923528432846,-0.2459876984357834,-0.08099757879972458,-0.5815234184265137,-6.806873321533203
11,51062,51064,0.05015072226524353,0.0027065447065979242,1.0031616687774658,10.136512756347656,-31.89165687561035,-7.770643711090088,0.9419528841972351,-0.14699265360832214,-0.24298784136772156,0.13940021395683289,-0.371506005525589,-6.903087615966797
12,51072,51074,-0.09479110687971115,-0.13788974285125732,1.0879387855529785,5.1060380935668945,-44.21915054321289,0.01922958344221115,0.950952410697937,-0.14999249577522278,-0.24898754060268402,0.6371951699256897,-0.40081819891929626,-6.977258682250977
13,51082,51084,-0.10751543194055557,-0.10886231064796448,1.1196097135543823,-7.957272052764893,-41.22250747680664,6.393259525299072,0.9614518880844116,-0.16649167239665985,-0.24148792028427124,1.8644317388534546,-1.0667973756790161,-7.17861795425415
14,51092,51094,-0.023341698572039604,-0.046254754066467285,1.1007670164108276,-22.21684455871582,-22.276777267456055,10.947736740112305,0.9809509515762329,-0.17399129271507263,-0.24898754060268402,2.02085018157959,-1.2548527717590332,-7.026951313018799
15,51102,51104,-0.03636348992586136,0.07182365655899048,1.1733598709106445,-33.73355484008789,8.639798164367676,9.903953552246094,0.9689515233039856,-0.1529923528432846,-0.23098844289779663,2.142184019088745,-1.6629443168640137,-6.908947467803955
16,51112,51114,-0.07571318000555038,0.06082890182733536,1.2210122346878052,-28.72622299194336,42.8222770690918,7.259438514709473,0.9599519968032837,-0.1319933980703354,-0.227988600730896,1.8018208742141724,-1.8823468685150146,-6.807488441467285
17,51122,51124,-0.05239785835146904,0.09289679676294327,1.252213478088379,-12.54443359375,63.939605712890625,5.966674327850342,0.9464526772499084,-0.13049347698688507,-0.22648866474628448,1.171399712562561,-2.17704701423645,-6.725654602050781
18,51132,51134,-0.09914505481719971,0.06403785198926926,1.289878010749817,14.55382251739502,64.48604583740234,5.62599515914917,0.9494525194168091,-0.13049347698688507,-0.22348882257938385,0.37325868010520935,-2.0413615703582764,-6.671027660369873
19,51142,51144,-0.041764866560697556,0.17676948010921478,1.0943520069122314,42.99504089355469,55.5586051940918,5.541411399841309,0.9224538803100586,-0.11249437183141708,-0.23548822104930878,-0.0020710332319140434,-1.6118243932724,-6.713811874389648
20,51152,51154,-0.11455656588077545,0.024285493418574333,1.0516235828399658,69.62369537353516,59.2565803527832,5.788205146789551,0.9299534559249878,-0.1319933980703354,-0.2189890444278717,-0.7913667559623718,-0.8580690622329712,-6.621298313140869
21,51162,51164,-0.054095495492219925,-0.02839845046401024,1.0146228075027466,87.46100616455078,68.02330780029297,3.838477611541748,0.9239537715911865,-0.1319933980703354,-0.227988600730896,-1.5480473041534424,0.2088565081357956,-6.571437358856201
22,51172,51174,-0.1023760437965393,-0.11069566756486893,0.9725991487503052,78.55216217041016,61.20589828491211,2.4472506046295166,0.9164541363716125,-0.14849257469177246,-0.23248836398124695,-2.119253158569336,0.8024972081184387,-6.54671573638916
23,51182,51184,-0.011115585453808308,0.06353400647640228,0.8836055994033813,44.554832458496094,44.823753356933594,-0.11959338188171387,0.9059546589851379,-0.12599369883537292,-0.2189890444278717,-2.7688329219818115,1.7487764358520508,-6.498134613037109
24,51192,51194,-0.02838268131017685,-0.02345447614789009,0.9723270535469055,11.143976211547852,24.709917068481445,1.6602994203567505,0.8984550833702087,-0.12749361991882324,-0.2294885218143463,-3.090406894683838,1.6243809461593628,-6.495934963226318
25,51202,51204,0.01005611289292574,-0.04580869898200035,0.9808016419410706,-20.958303451538086,2.38338565826416,6.931723117828369,0.9074546098709106,-0.10949452221393585,-0.2084895670413971,-3.165289878845215,1.5929759740829468,-6.4494709968566895
26,51212,51214,-0.09208881855010986,-0.023255594074726105,0.8687766194343567,-51.11666488647461,-25.941173553466797,7.7163615226745605,0.9164541363716125,-0.12749361991882324,-0.22048896551132202,-2.755906581878662,1.1365172863006592,-6.420862197875977
27,51222,51224,0.020451540127396584,0.13989987969398499,0.8730076551437378,-74.07732391357422,-45.517234802246094,6.453892230987549,0.9149542450904846,-0.14699265360832214,-0.23998799920082092,-2.446833372116089,0.3767516314983368,-6.363023281097412
28,51232,51234,-0.044177331030368805,0.032304394990205765,0.9256512522697449,-81.08790588378906,-56.49455642700195,8.275818824768066,0.9404529333114624,-0.1514924168586731,-0.23548822104930878,-1.703072428703308,-0.4533935785293579,-6.311338424682617
29,51242,51244,-0.07269413769245148,0.01974499598145485,0.9380334615707397,-78.01844787597656,-59.075069427490234,10.511726379394531,0.9524523615837097,-0.14249287545681,-0.24148792028427124,-1.185920000076294,-1.089928150177002,-6.17255973815918
30,51252,51254,-0.08896926790475845,0.03891840949654579,0.9260382652282715,-74.46991729736328,-42.90174865722656,11.134553909301758,0.9494525194168091,-0.12149392068386078,-0.24148792028427124,-0.6102362871170044,-1.9470287561416626,-6.074068069458008
31,51262,51264,-0.0716848373413086,0.004839431028813124,0.9842453002929688,-57.970401763916016,-21.543581008911133,8.77531623840332,0.9494525194168091,-0.11249437183141708,-0.2384880781173706,-0.5142853260040283,-2.2897658348083496,-5.88836145401001
32,51272,51274,-0.08947694301605225,-0.008108953945338726,0.8972022533416748,-26.887542724609375,3.4774653911590576,8.050060272216797,0.9299534559249878,-0.09899504482746124,-0.22498874366283417,-0.4577707350254059,-2.723315477371216,-5.810746192932129
33,51282,51284,-0.14329944550991058,-0.13589490950107574,0.9732476472854614,3.937929630279541,21.795297622680664,5.878637313842773,0.919454038143158,-0.0944952741265297,-0.22348882257938385,-0.7256271839141846,-2.737584114074707,-5.725954532623291
34,51292,51294,-0.1608661264181137,-0.1277669221162796,0.9125896096229553,31.962966918945312,35.484066009521484,2.1820249557495117,0.919454038143158,-0.09749512374401093,-0.23248836398124695,-1.0535352230072021,-2.380034923553467,-5.672367572784424
35,51302,51304,-0.13606086373329163,-0.095240019261837,0.9520653486251831,43.381404876708984,38.94841384887695,-5.122409343719482,0.9149542450904846,-0.11699414998292923,-0.23398829996585846,-1.5057787895202637,-1.9124451875686646,-5.687529563903809
36,51312,51314,-0.09420705586671829,-0.007488667033612728,0.9494096636772156,43.66156768798828,33.70250701904297,-13.014154434204102,0.9149542450904846,-0.11099445074796677,-0.23098844289779663,-1.8269152641296387,-1.4753456115722656,-5.804963111877441
37,51322,51324,-0.09993918240070343,0.01231404859572649,0.9497525691986084,34.65712356567383,18.104890823364258,-21.82933235168457,0.9179540872573853,-0.11999399960041046,-0.23998799920082092,-2.0764598846435547,-1.1644752025604248,-6.013303756713867
38,51332,51334,0.004662501625716686,0.04025162011384964,0.8916356563568115,19.118562698364258,-0.5248656272888184,-28.537940979003906,0.919454038143158,-0.11249437183141708,-0.2384880781173706,-2.1031792163848877,-1.0707354545593262,-6.3114848136901855
39,51342,51344,0.020657608285546303,-0.06613560765981674,0.8439099788665771,4.889801025390625,-20.122093200683594,-32.59798049926758,0.9284535646438599,-0.13649317622184753,-0.22348882257938385,-1.8320175409317017,-0.9343281984329224,-6.638047695159912
40,51352,51354,-0.05643783137202263,-0.04603835195302963,0.8576270341873169,-5.289152145385742,-29.325660705566406,-35.012237548828125,0.9269536137580872,-0.11999399960041046,-0.24298784136772156,-1.550439715385437,-0.9360469579696655,-6.97645378112793
41,51362,51364,-0.0630192905664444,-0.043916087597608566,0.8503898978233337,-13.25727653503418,-25.076387405395508,-35.58047866821289,0.9329533576965332,-0.11999399960041046,-0.24298784136772156,-1.1823164224624634,-1.0647377967834473,-7.347403049468994
42,51372,51374,-0.03275610879063606,-0.05343788489699364,0.9916722178459167,-13.151559829711914,-15.82630443572998,-34.2226448059082,0.9239537715911865,-0.1229938492178917,-0.227988600730896,-0.9353498816490173,-1.3045152425765991,-7.7154035568237305
43,51382,51384,-0.1524202674627304,-0.09514209628105164,1.035180926322937,-0.3861694633960724,-3.024322986602783,-31.108959197998047,0.9299534559249878,-0.11699414998292923,-0.2369881421327591,-0.8957330584526062,-1.4079606533050537,-8.04151439666748
44,51392,51394,-0.17364224791526794,1.1309142792015336e-05,1.0365543365478516,18.083728790283203,12.489448547363281,-25.272172927856445,0.9389530420303345,-0.12599369883537292,-0.24298784136772156,-1.0968395471572876,-1.2372748851776123,-8.284257888793945
45,51402,51404,-0.0462305061519146,0.10588052123785019,0.8877956867218018,33.16500473022461,20.05528450012207,-20.55775260925293,0.9269536137580872,-0.11999399960041046,-0.2369881421327591,-1.1966572999954224,-0.8197290301322937,-8.4881591796875
46,51412,51414,-0.12043564766645432,-0.02310241013765335,0.8472650647163391,42.312618255615234,21.825693130493164,-17.11769676208496,0.9164541363716125,-0.11849407106637955,-0.23248836398124695,-1.4526365995407104,-0.5368438959121704,-8.691706657409668
47,51422,51424,-0.06896862387657166,-0.05263107642531395,0.9732838869094849,38.682472229003906,21.894569396972656,-15.375679969787598,0.9284535646438599,-0.13049347698688507,-0.24148792028427124,-1.8678447008132935,-0.1189890131354332,-8.816191673278809
48,51432,51434,-0.08616138249635696,-0.04717881232500076,0.9437202215194702,25.986398696899414,14.832271575927734,-13.887954711914062,0.9134542942047119,-0.11549422144889832,-0.22648866474628448,-2.074976682662964,0.08548910170793533,-8.98405933380127
49,51442,51444,-0.02599046565592289,-0.05737338587641716,1.027860403060913,14.845803260803223,4.705825328826904,-10.6078519821167,0.9089545607566833,-0.1049947515130043,-0.23998799920082092,-2.066269874572754,0.09936701506376266,-9.156519889831543
50,51452,51454,-0.03607496619224548,-0.03384307026863098,0.9528098106384277,6.033646583557129,-0.17089703679084778,-8.88425064086914,0.9209539294242859,-0.11699414998292923,-0.2189890444278717,-2.072361946105957,0.19034433364868164,-9.25555419921875
51,51462,51464,-0.039330046623945236,-0.013083208352327347,0.9813917875289917,-2.334210157394409,-4.701649188995361,-8.958399772644043,0.9254537224769592,-0.12149392068386078,-0.23248836398124695,-1.9781287908554077,0.12439838796854019,-9.368189811706543
52,51472,51474,-0.07200897485017776,0.035376857966184616,0.9324256181716919,-6.096707820892334,-5.483194828033447,-9.033592224121094,0.9269536137580872,-0.11999399960041046,-0.22498874366283417,-1.9444209337234497,0.06445278227329254,-9.463932037353516
53,51482,51484,-0.017213845625519753,0.05953773111104965,0.9001690149307251,-11.790206909179688,-8.992338180541992,-7.741447925567627,0.9314534068107605,-0.11549422144889832,-0.22648866474628448,-1.8351072072982788,-0.029762551188468933,-9.547385215759277
54,51492,51494,-0.026698095723986626,0.026132071390748024,0.8819578289985657,-15.100089073181152,-11.11906909942627,-7.429012298583984,0.9299534559249878,-0.113994300365448,-0.227988600730896,-1.731956958770752,-0.23878532648086548,-9.644244194030762
55,51502,51504,-0.024306850507855415,-0.006182200741022825,0.9522989988327026,-19.10982894897461,-15.855548858642578,-7.26444673538208,0.9359531998634338,-0.12599369883537292,-0.2369881421327591,-1.524580717086792,-0.47726190090179443,-9.732407569885254
56,51512,51514,-0.04392971470952034,-0.03614058345556259,1.1319184303283691,-18.274782180786133,-13.415186882019043,-6.886789321899414,0.9284535646438599,-0.11849407106637955,-0.24148792028427124,-1.3276673555374146,-0.6620529294013977,-9.800848007202148
57,51522,51524,-0.05753812566399574,0.003551297588273883,1.0978237390518188,-7.785195350646973,-9.524888038635254,-7.376273155212402,0.919454038143158,-0.11249437183141708,-0.23548822104930878,-1.34940505027771,-0.820858359336853,-9.875691413879395
58,51532,51534,-0.10403770953416824,0.01037084311246872,0.9830809235572815,3.9695656299591064,-1.6873782873153687,-7.912278652191162,0.9269536137580872,-0.10799460113048553,-0.22198890149593353,-1.3235660791397095,-0.7949780225753784,-9.941198348999023
59,51542,51544,-0.01679455302655697,0.025977283716201782,0.923482358455658,19.711091995239258,5.0425825119018555,-9.226804733276367,0.9149542450904846,-0.11699414998292923,-0.22498874366283417,-1.3919258117675781,-0.545698344707489,-9.999890327453613
60,51552,51554,0.03735688701272011,-0.039488762617111206,0.938650369644165,39.39305114746094,2.2149136066436768,-9.720438957214355,0.9209539294242859,-0.11999399960041046,-0.23098844289779663,-1.4637371301651,-0.27041521668434143,-10.101844787597656
61,51562,51564,-0.04028206691145897,-0.1193062886595726,1.0686482191085815,60.215152740478516,-2.051464796066284,-10.21149730682373,0.9434528350830078,-0.13949301838874817,-0.22648866474628448,-1.4771523475646973,0.3684844672679901,-10.172226905822754
62,51572,51574,-0.01685003563761711,-0.06369347870349884,1.1023173332214355,75.42991638183594,-5.825088024139404,-10.826069831848145,0.9179540872573853,-0.14099295437335968,-0.22498874366283417,-1.413621425628662,0.8141722083091736,-10.334870338439941
63,51582,51584,-0.03902164101600647,-0.0732576996088028,0.9512490034103394,81.94224548339844,-6.78556489944458,-13.444865226745605,0.9209539294242859,-0.14099295437335968,-0.23398829996585846,-1.2419744729995728,1.8279508352279663,-10.419546127319336
64,51592,51594,-0.04147753491997719,-0.04134098440408707,1.0076712369918823,90.53836822509766,-14.45138931274414,-12.98037052154541,0.9149542450904846,-0.1319933980703354,-0.23398829996585846,-1.1823818683624268,2.8403496742248535,-10.526167869567871
65,51602,51604,-0.017419883981347084,0.025153452530503273,1.069478988647461,98.25205993652344,-29.60130500793457,-6.538439750671387,0.9299534559249878,-0.14399279654026031,-0.22198890149593353,-0.8799497485160828,3.5179126262664795,-10.69485092163086
66,51612,51614,-0.06908581405878067,-0.03014386259019375,0.9564782977104187,94.56446075439453,-46.45551300048828,1.8139041662216187,0.9239537715911865,-0.14699265360832214,-0.21598920226097107,-0.3866424858570099,4.7892231941223145,-10.680888175964355
67,51622,51624,-0.09448692202568054,-0.06011506915092468,0.9861342906951904,80.94755554199219,-50.91730880737305,10.778717041015625,0.9179540872573853,-0.13799309730529785,-0.227988600730896,-0.010553060099482536,5.324121475219727,-10.730353355407715
68,51632,51634,-0.05031809210777283,-0.04288513585925102,0.8948443531990051,50.523292541503906,-39.93050765991211,18.99144744873047,0.9254537224769592,-0.16349181532859802,-0.23248836398124695,0.5206992030143738,6.070471286773682,-10.58644962310791
69,51642,51644,-0.06710202246904373,-0.08970315009355545,0.8087591528892517,16.7800350189209,-26.267719268798828,24.588098526000977,0.9254537224769592,-0.16349181532859802,-0.23248836398124695,0.7555869817733765,6.058050632476807,-10.46528434753418
70,51652,51654,-0.046178366988897324,-0.10923068970441818,0.7892797589302063,-20.5365047454834,-8.294363021850586,31.017969131469727,0.9254537224769592,-0.16349181532859802,-0.23248836398124695,0.9454547762870789,6.107128620147705,-10.185619354248047
71,51662,51664,-0.015050683170557022,-0.0430813804268837,0.7978184819221497,-54.87016296386719,8.968429565429688,36.77336883544922,0.9299534559249878,-0.1619918942451477,-0.23098844289779663,0.9701126217842102,5.570279121398926,-9.83900260925293
72,51672,51674,-0.07586963474750519,-0.06988342106342316,0.7957895994186401,-83.17144012451172,20.94731903076172,42.16035842895508,0.9614518880844116,-0.16349181532859802,-0.23548822104930878,0.8004083633422852,4.912761688232422,-9.447821617126465
73,51682,51684,-0.026945095509290695,-0.009212798438966274,0.7916122078895569,-95.99466705322266,41.99383544921875,48.201717376708984,0.9524523615837097,-0.18749062716960907,-0.2594870328903198,0.33289816975593567,3.7823872566223145,-9.041512489318848
74,51692,51694,-0.03236664459109306,0.003163773799315095,0.8402116894721985,-103.51617431640625,48.301456451416016,57.126583099365234,0.9434528350830078,-0.16649167239665985,-0.25048747658729553,-0.0640190839767456,3.0758116245269775,-8.471931457519531
75,51702,51704,-0.061333369463682175,-0.10391134023666382,0.9176232218742371,-102.46758270263672,37.132694244384766,62.7669563293457,0.9629518389701843,-0.16799159348011017,-0.23998799920082092,-0.5711968541145325,1.7139263153076172,-7.881032943725586
76,51712,51714,0.025559386238455772,0.010902296751737595,0.9808948040008545,-100.80513763427734,4.032370567321777,63.42976379394531,0.950952410697937,-0.18299084901809692,-0.2459876984357834,-0.7770438194274902,0.6476402878761292,-7.2490315437316895
77,51722,51724,0.18346314132213593,0.24257659912109375,1.1311737298965454,-82.52147674560547,-24.900861740112305,61.48186111450195,0.965951681137085,-0.20698964595794678,-0.27298635244369507,-0.6246156692504883,0.11776967346668243,-6.616588592529297
78,51732,51734,-0.057540975511074066,0.08688110113143921,1.146300196647644,-40.796180725097656,-45.669986724853516,54.651180267333984,0.9704514741897583,-0.19349032640457153,-0.2474876195192337,-0.006349464412778616,-0.4535241723060608,-5.921475410461426
79,51742,51744,-0.08701346069574356,0.03817448019981384,1.1377519369125366,-5.2978644371032715,-43.376319885253906,49.63507843017578,0.9764511585235596,-0.21148942410945892,-0.25048747658729553,0.4008846580982208,-0.3293493390083313,-5.443032264709473
80,51752,51754,-0.07964833825826645,0.004874546546489,1.142577886581421,23.83039665222168,-30.557523727416992,45.190067291259766,0.9629518389701843,-0.20398980379104614,-0.25198739767074585,0.8746898174285889,-0.20951086282730103,-4.9185404777526855
81,51762,51764,-0.05964664742350578,0.06177656725049019,1.1485636234283447,41.356101989746094,-18.305883407592773,41.13949966430664,0.9794510006904602,-0.19649016857147217,-0.24448777735233307,1.0599042177200317,0.3104430139064789,-4.51814079284668
82,51772,51774,-0.0363030731678009,0.08943677693605423,0.9953737854957581,35.96949005126953,-11.100831031799316,34.6612548828125,0.965951681137085,-0.20698964595794678,-0.26098695397377014,1.1343392133712769,0.658085286617279,-4.156704425811768
83,51782,51784,-0.10453252494335175,0.02056858502328396,1.1000492572784424,21.360029220581055,-6.751046657562256,29.98887825012207,0.9539523124694824,-0.20098994672298431,-0.24898754060268402,1.276552438735962,0.8160215020179749,-3.8040735721588135
84,51792,51794,-0.04940188676118851,-0.02740997076034546,1.1351410150527954,-0.7493012547492981,-8.387519836425781,25.853315353393555,0.9644517302513123,-0.18749062716960907,-0.23548822104930878,1.2038086652755737,0.8454769253730774,-3.564539670944214
85,51802,51804,-0.053750377148389816,0.13160911202430725,1.1427892446517944,-24.785940170288086,-12.655657768249512,18.624643325805664,0.9689515233039856,-0.17399129271507263,-0.23098844289779663,1.4214794635772705,0.5948898196220398,-3.303689479827881
86,51812,51814,-0.05137941241264343,0.059187814593315125,1.1552376747131348,-49.630393981933594,-5.908558368682861,10.63012981414795,0.9569521546363831,-0.16799159348011017,-0.2369881421327591,1.4556604623794556,0.24809390306472778,-3.1986775398254395
87,51822,51824,-0.11587339639663696,0.001945283031091094,1.1386557817459106,-54.71331024169922,-7.851750373840332,5.292727947235107,0.9704514741897583,-0.16949152946472168,-0.24448777735233307,1.553771734237671,-0.47964808344841003,-3.078346014022827
88,51832,51834,-0.21212045848369598,-0.06608754396438599,1.1642273664474487,-46.20664596557617,-10.740270614624023,3.11352276802063,0.9674516320228577,-0.15749211609363556,-0.2384880781173706,1.5118237733840942,-1.0936143398284912,-3.044099807739258
89,51842,51844,-0.18532681465148926,0.10905575752258301,1.1220598220825195,-34.38299560546875,-9.728419303894043,-0.7920183539390564,0.958452045917511,-0.14249287545681,-0.23248836398124695,1.661191701889038,-1.382522463798523,-3.0403008460998535
90,51852,51854,-0.10689566284418106,0.008076629601418972,1.1798421144485474,-24.301464080810547,-8.759576797485352,-2.8513216972351074,0.9674516320228577,-0.1514924168586731,-0.24148792028427124,1.74923574924469,-1.8165984153747559,-3.029202699661255
91,51862,51864,-0.18675358593463898,-0.0573880672454834,1.173851728439331,-13.53002643585205,-11.578179359436035,-2.389657497406006,0.9479525685310364,-0.13799309730529785,-0.21598920226097107,1.911460518836975,-1.7636733055114746,-3.102858543395996
92,51872,51874,-0.1921839565038681,0.10733623802661896,1.1574366092681885,0.005003996193408966,-14.344532012939453,-2.4155170917510986,0.9524523615837097,-0.13049347698688507,-0.2294885218143463,2.0995712280273438,-1.8131624460220337,-3.1187567710876465
93,51882,51884,-0.10273454338312149,0.05943749099969864,1.2505786418914795,7.697321891784668,-23.459148406982422,-1.1760121583938599,0.9554522037506104,-0.13649317622184753,-0.23248836398124695,2.3830714225769043,-1.8422244787216187,-3.102837562561035
94,51892,51894,-0.14030641317367554,-0.017558030784130096,1.1772620677947998,29.689882278442383,-24.62189483642578,-1.3542650938034058,0.9479525685310364,-0.13499325513839722,-0.22198890149593353,2.7540972232818604,-1.5642169713974,-3.131514072418213
95,51902,51904,-0.15472398698329926,0.01377110369503498,1.1321110725402832,56.91954803466797,-4.026395320892334,-0.24232825636863708,0.9464526772499084,-0.13949301838874817,-0.22648866474628448,2.9193005561828613,-1.1334762573242188,-3.1257293224334717
96,51912,51914,-0.20896580815315247,-0.08988489955663681,1.0550892353057861,72.8250961303711,20.831796646118164,0.1909969449043274,0.9449527263641357,-0.11999399960041046,-0.21598920226097107,2.756129264831543,-0.43652787804603577,-3.1371822357177734
97,51922,51924,-0.17942145466804504,-0.06717491149902344,1.108951449394226,85.01728820800781,34.81603240966797,2.241241216659546,0.9464526772499084,-0.13649317622184753,-0.21148942410945892,2.430626153945923,0.4237082302570343,-3.1505014896392822
98,51932,51934,-0.14334438741207123,-0.03959272801876068,1.0645437240600586,77.69042205810547,41.472740173339844,7.223249435424805,0.9359531998634338,-0.12599369883537292,-0.22198890149593353,2.104189157485962,1.1583161354064941,-3.0585367679595947
99,51942,51944,-0.12141219526529312,-0.0029269063379615545,1.0142256021499634,46.376102447509766,37.77676010131836,10.784342765808105,0.9209539294242859,-0.1319933980703354,-0.21298934519290924,1.6115095615386963,1.8001991510391235,-2.9602129459381104
100,51952,51954,-0.1594364196062088,-0.01963065192103386,0.9574096202850342,1.1775104999542236,30.62383270263672,10.374711990356445,0.9179540872573853,-0.11099445074796677,-0.19199039041996002,1.2560884952545166,2.1485869884490967,-2.8913252353668213
101,51962,51964,-0.09320954978466034,-0.022923864424228668,0.9689372777938843,-39.87085723876953,27.677059173583984,10.23268985748291,0.9239537715911865,-0.11999399960041046,-0.2189890444278717,1.57699716091156,1.556796669960022,-2.663351058959961
102,51972,51974,-0.12330853193998337,0.0016750929644331336,0.9823552966117859,-68.87570190429688,35.76319885253906,9.033002853393555,0.9314534068107605,-0.13049347698688507,-0.2294885218143463,1.140520453453064,0.6816423535346985,-2.446525812149048
103,51982,51984,-0.0789959579706192,0.0011497787199914455,0.9675914645195007,-74.67877960205078,44.91404342651367,8.601971626281738,0.9524523615837097,-0.12149392068386078,-0.22648866474628448,0.9302408695220947,0.08121388405561447,-2.419079542160034
104,51992,51994,-0.08053973317146301,0.008318518288433552,0.9338700771331787,-70.56890106201172,40.08613204956055,11.337477684020996,0.9329533576965332,-0.113994300365448,-0.2099895030260086,0.3658871352672577,-0.7808316946029663,-2.267796516418457
105,52002,52004,-0.0584845207631588,0.04998617619276047,0.9322007894515991,-60.03976058959961,44.79997634887695,12.438501358032227,0.9284535646438599,-0.11849407106637955,-0.2294885218143463,0.198074072599411,-1.2005871534347534,-2.240929365158081
106,52012,52014,-0.011357135139405727,0.02994551695883274,0.9420212507247925,-33.91503143310547,42.484230041503906,13.311351776123047,0.9134542942047119,-0.10349482297897339,-0.22048896551132202,-0.282444030046463,-1.823001742362976,-2.064180612564087
107,52022,52024,-0.09202221781015396,-0.09531782567501068,0.9226552248001099,-0.6852005124092102,45.1126708984375,15.209641456604004,0.9179540872573853,-0.10199490189552307,-0.227988600730896,-0.8394528031349182,-1.895990014076233,-1.9613591432571411
108,52032,52034,-0.10094121843576431,-0.02219749614596367,0.9468010067939758,29.995685577392578,53.62752914428711,17.691761016845703,0.9089545607566833,-0.09899504482746124,-0.21598920226097107,-1.047196626663208,-1.6336034536361694,-1.8428521156311035
109,52042,52044,-0.07686764001846313,0.004348115995526314,0.8775231242179871,52.632991790771484,63.638328552246094,14.272017478942871,0.911954402923584,-0.10199490189552307,-0.2189890444278717,-1.8717795610427856,-1.0147196054458618,-1.7249418497085571
110,52052,52054,0.03356552496552467,0.07815520465373993,0.8317541480064392,64.69926452636719,67.12125396728516,9.389684677124023,0.9029548168182373,-0.11699414998292923,-0.227988600730896,-2.342010498046875,-0.44355809688568115,-1.6310213804244995
111,52062,52064,0.05613693967461586,0.0833139568567276,0.837099015712738,62.56710433959961,58.56703567504883,4.906766891479492,0.9014549255371094,-0.1334933191537857,-0.23248836398124695,-3.235792636871338,0.20458483695983887,-1.5309070348739624
112,52072,52074,0.051017582416534424,0.01814582198858261,0.7849589586257935,46.51424026489258,45.43727493286133,2.3132362365722656,0.8864556550979614,-0.12149392068386078,-0.2474876195192337,-3.32426118850708,0.5846801400184631,-1.5261523723602295
113,52082,52084,-0.07549003511667252,-0.12362993508577347,0.81284499168396,19.00726318359375,25.56660270690918,-0.19989822804927826,0.8909554481506348,-0.13799309730529785,-0.22498874366283417,-3.6994338035583496,1.001729965209961,-1.515641689300537
114,52092,52094,-0.0666673481464386,-0.08780625462532043,0.7941967248916626,-13.21051025390625,15.857734680175781,1.4831769466400146,0.8924553394317627,-0.11849407106637955,-0.23248836398124695,-3.9242703914642334,1.0693247318267822,-1.5029879808425903
115,52102,52104,0.02890189364552498,0.010807769373059273,0.7583532333374023,-44.57160186767578,8.073395729064941,3.627473831176758,0.8984550833702087,-0.13949301838874817,-0.23548822104930878,-3.8137784004211426,0.5141846537590027,-1.5061417818069458
116,52112,52114,-0.07385522127151489,-0.054633356630802155,0.7789828777313232,-68.08670806884766,3.5659494400024414,3.9102046489715576,0.9059546589851379,-0.15599219501018524,-0.23998799920082092,-4.0211310386657715,-0.34257179498672485,-1.4793879985809326
117,52122,52124,-0.06508371233940125,-0.011554554104804993,0.8366498351097107,-78.299560546875,-1.5394062995910645,3.553434371948242,0.9254537224769592,-0.16349181532859802,-0.25348731875419617,-3.878742218017578,-0.9799414873123169,-1.4399659633636475
118,52132,52134,0.0070599885657429695,0.022088075056672096,0.7904525399208069,-73.77671813964844,-1.826063632965088,1.4397379159927368,0.919454038143158,-0.1604919731616974,-0.2564871609210968,-3.938425064086914,-1.8296961784362793,-1.4303408861160278
119,52142,52144,0.03397707641124725,0.045623984187841415,0.8342331051826477,-50.18146514892578,7.177412033081055,2.3113229274749756,0.9254537224769592,-0.15449227392673492,-0.26248687505722046,-4.026741981506348,-2.542736768722534,-1.4310990571975708
120,52152,52154,-0.04359688237309456,-0.01612844690680504,0.9041054248809814,-9.629110336303711,17.644203186035156,2.7017946243286133,0.9224538803100586,-0.13649317622184753,-0.25348731875419617,-4.264843463897705,-2.6299829483032227,-1.358657717704773
121,52162,52164,-0.09217090904712677,-0.10499752312898636,0.8973677158355713,33.627723693847656,25.774776458740234,4.165635585784912,0.9104544520378113,-0.14549271762371063,-0.23548822104930878,-4.489511489868164,-2.365518808364868,-1.29364812374115
122,52172,52174,-0.08916126936674118,-0.06378521770238876,0.8760715126991272,63.6141242980957,34.38949966430664,4.139468193054199,0.9134542942047119,-0.15749211609363556,-0.2594870328903198,-4.706238746643066,-1.793866753578186,-1.2606595754623413
123,52182,52184,-0.060571569949388504,-0.018843580037355423,0.9860568046569824,75.58351135253906,39.119937896728516,3.8107643127441406,0.9029548168182373,-0.16499175131320953,-0.2549872398376465,-5.1590094566345215,-1.0367214679718018,-1.1901252269744873
124,52192,52194,-0.050241000950336456,-0.025488412007689476,0.9694172143936157,78.50979614257812,39.67735290527344,5.24406099319458,0.8999549746513367,-0.1799909919500351,-0.2669866383075714,-5.453212261199951,-0.41736137866973877,-1.2392659187316895
125,52202,52204,-0.11441943049430847,-0.011487752199172974,0.9646092057228088,69.68421936035156,30.15068817138672,5.911622047424316,0.8999549746513367,-0.170991450548172,-0.25198739767074585,-5.895505428314209,0.46877560019493103,-1.0973536968231201
126,52212,52214,-0.11802157014608383,0.00571085698902607,0.8846331834793091,53.14292526245117,16.144681930541992,8.043272018432617,0.9089545607566833,-0.16799159348011017,-0.25198739767074585,-6.21967077255249,1.218143105506897,-0.9451104998588562
127,52222,52224,-0.04091579094529152,-0.08467547595500946,0.9159876108169556,33.127227783203125,-1.562091588973999,11.020703315734863,0.8954551815986633,-0.16949152946472168,-0.2654867172241211,-6.289829730987549,1.374514102935791,-1.0032976865768433
128,52232,52234,-0.05039989575743675,-0.003979523200541735,0.9444640278816223,9.03674602508545,-13.814587593078613,13.80612564086914,0.9014549255371094,-0.17549122869968414,-0.26248687505722046,-6.060036659240723,1.523428201675415,-0.9291447401046753
129,52242,52244,0.0413835309445858,0.1617378443479538,1.0058550834655762,-11.978495597839355,-19.428211212158203,14.162318229675293,0.9134542942047119,-0.19349032640457153,-0.2474876195192337,-6.036167144775391,1.4324724674224854,-0.8053086400032043
130,52252,52254,0.072064608335495,0.17170511186122894,0.9631208777427673,-22.750185012817383,-15.859790802001953,16.106914520263672,0.9239537715911865,-0.19799008965492249,-0.26098695397377014,-5.784325122833252,1.219030737876892,-0.683897078037262
131,52262,52264,-0.0024527537170797586,0.01608489453792572,1.0130178928375244,-20.477333068847656,-9.087390899658203,16.926198959350586,0.911954402923584,-0.1889905482530594,-0.26998651027679443,-5.589651107788086,0.9197244048118591,-0.5811116695404053
132,52272,52274,-0.08510791510343552,-0.018047956749796867,1.1469991207122803,-5.198925018310547,-4.402642726898193,18.770803451538086,0.9089545607566833,-0.1889905482530594,-0.24298784136772156,-5.585883617401123,0.7570911645889282,-0.4261985421180725
133,52282,52284,-0.08837255090475082,0.08132220059633255,1.0571637153625488,12.701749801635742,-1.634374976158142,19.31159019470215,0.9059546589851379,-0.18599069118499756,-0.26098695397377014,-5.5202226638793945,0.9047370553016663,-0.1745864897966385
134,52292,52294,-0.011326594278216362,0.05291089788079262,0.9818922281265259,22.84690284729004,1.3207584619522095,18.443838119506836,0.9029548168182373,-0.1799909919500351,-0.26998651027679443,-5.526251792907715,1.1421077251434326,0.04236632212996483
135,52302,52304,-0.03166468068957329,0.06372474879026413,0.9861072897911072,25.20108985900879,2.7239887714385986,17.87873077392578,0.8939552903175354,-0.16799159348011017,-0.2669866383075714,-5.705262660980225,1.5607786178588867,0.34529271721839905
136,52312,52314,-0.003436451079323888,0.05956866964697838,1.0284984111785889,22.058500289916992,-2.392988681793213,16.59046173095703,0.9074546098709106,-0.18449077010154724,-0.24448777735233307,-5.8400421142578125,1.667633295059204,0.4052092432975769
137,52322,52324,0.0189015194773674,0.03433297201991081,1.0045474767684937,16.192773818969727,-12.836355209350586,17.84857749938965,0.9029548168182373,-0.170991450548172,-0.24898754060268402,-5.7716498374938965,1.9350364208221436,0.6247583031654358
138,52332,52334,-0.06080285459756851,-0.010556317865848541,0.9873894453048706,7.971532344818115,-28.003679275512695,16.4054012298584,0.9104544520378113,-0.1814909279346466,-0.26248687505722046,-5.54664421081543,1.9114127159118652,0.675900399684906
139,52342,52344,0.05428263545036316,0.09579373896121979,1.0361931324005127,2.0030672550201416,-45.62184143066406,15.949387550354004,0.9164541363716125,-0.18449077010154724,-0.25348731875419617,-5.267369747161865,1.9969311952590942,0.8472365140914917
140,52352,52354,0.04573632404208183,0.09627004712820053,1.0827102661132812,0.5641449093818665,-59.00346374511719,14.703775405883789,0.919454038143158,-0.1904904693365097,-0.25348731875419617,-4.494145393371582,2.0160436630249023,1.0007617473602295
141,52362,52364,0.07152296602725983,0.04616689682006836,1.1035311222076416,-0.17676138877868652,-67.84346771240234,13.766838073730469,0.9254537224769592,-0.19349032640457153,-0.24448777735233307,-4.245527267456055,1.999573826789856,1.0657546520233154
142,52372,52374,-0.009207027032971382,-0.011720085516571999,1.0482769012451172,-2.8946361541748047,-64.53990936279297,16.22287368774414,0.9224538803100586,-0.18749062716960907,-0.25048747658729553,-3.4731040000915527,1.9690802097320557,1.1914734840393066
143,52382,52384,-0.04313644394278526,-0.07389499247074127,1.0224840641021729,3.3925037384033203,-53.20229721069336,13.873377799987793,0.9224538803100586,-0.17849107086658478,-0.2474876195192337,-2.7554194927215576,2.027820587158203,1.3715418577194214
144,52392,52394,-0.16943413019180298,-0.12220710515975952,1.060394287109375,6.51603364944458,-41.22719192504883,13.226560592651367,0.9149542450904846,-0.1799909919500351,-0.2459876984357834,-2.574840784072876,1.963071346282959,1.3409252166748047
145,52402,52404,-0.20757584273815155,-0.10770507901906967,1.0946992635726929,11.327463150024414,-24.570510864257812,16.054487228393555,0.9149542450904846,-0.19199039041996002,-0.25198739767074585,-2.2430591583251953,2.161268949508667,1.5548064708709717
146,52412,52414,-0.08892498910427094,0.03430243954062462,1.0696086883544922,19.58806037902832,-19.02847671508789,13.445934295654297,0.9209539294242859,-0.17399129271507263,-0.24898754060268402,-2.212036609649658,2.2557625770568848,1.6180418729782104
147,52422,52424,0.007558853831142187,0.06631854921579361,1.011892318725586,22.787973403930664,-16.763654708862305,10.762389183044434,0.9284535646438599,-0.18749062716960907,-0.24148792028427124,-1.7362078428268433,2.516634225845337,1.8191992044448853
148,52432,52434,0.054549891501665115,0.05049463361501694,0.9950928092002869,21.001873016357422,-8.506587982177734,10.397631645202637,0.9269536137580872,-0.18299084901809692,-0.2369881421327591,-1.9757729768753052,2.646620035171509,1.7912101745605469
149,52442,52444,0.004776455461978912,-0.013279897160828114,0.9560267329216003,3.958336353302002,-1.3496276140213013,8.087743759155273,0.9209539294242859,-0.18299084901809692,-0.2459876984357834,-2.0703325271606445,2.938544511795044,1.954357385635376
150,52452,52454,-0.024160705506801605,-0.0702534019947052,0.9829918742179871,-20.233415603637695,-4.452590465545654,6.448308944702148,0.9209539294242859,-0.18299084901809692,-0.2459876984357834,-1.9082038402557373,2.735600709915161,1.9977771043777466
151,52462,52464,-0.04359304532408714,-0.05387367308139801,0.9777306318283081,-41.97441482543945,-16.896080017089844,5.270188331604004,0.9209539294242859,-0.18299084901809692,-0.2459876984357834,-1.864456057548523,2.2819180488586426,1.9820126295089722
152,52472,52474,-0.027789533138275146,0.016950421035289764,1.0472267866134644,-58.6902961730957,-41.7307243347168,3.301490306854248,0.9554522037506104,-0.18449077010154724,-0.25048747658729553,-1.519688367843628,1.6023634672164917,1.9543989896774292
153,52482,52484,-0.020804228261113167,0.043750595301389694,1.053438663482666,-66.2367172241211,-76.30697631835938,-3.807668924331665,0.9539523124694824,-0.18299084901809692,-0.23398829996585846,-1.194743275642395,1.1776930093765259,1.9401923418045044
154,52492,52494,-0.006707873661071062,-0.11782330274581909,1.053343415260315,-54.71305465698242,-98.78604888916016,-9.612915992736816,0.9629518389701843,-0.19799008965492249,-0.2459876984357834,-0.11992640048265457,0.3387061357498169,1.8186628818511963
155,52502,52504,-0.17914526164531708,-0.15749385952949524,1.104300856590271,-18.16798210144043,-117.55048370361328,-11.544281005859375,0.9734513163566589,-0.1904904693365097,-0.24148792028427124,1.419925332069397,-0.13200531899929047,1.798534870147705
156,52512,52514,-0.17297467589378357,0.07360697537660599,1.0939265489578247,34.848724365234375,-116.17390441894531,-12.51833724975586,0.9779511094093323,-0.2189890444278717,-0.2459876984357834,2.13047456741333,0.2858824133872986,1.6307910680770874
157,52522,52524,-0.057850997895002365,0.11248528212308884,1.0396143198013306,73.33349609375,-82.98233795166016,-10.124812126159668,0.9674516320228577,-0.1904904693365097,-0.2384880781173706,3.531888723373413,1.1032772064208984,1.6621465682983398
158,52532,52534,-0.07123187929391861,-0.05481209233403206,1.0296111106872559,94.35794830322266,-47.59051513671875,-10.350909233093262,0.9689515233039856,-0.19199039041996002,-0.23398829996585846,3.56486439704895,1.921945333480835,1.4063713550567627
159,52542,52544,-0.07253217697143555,-0.04474284499883652,1.0179153680801392,94.69917297363281,-23.020917892456055,-12.743059158325195,0.9644517302513123,-0.1904904693365097,-0.24448777735233307,4.057264804840088,3.1078391075134277,1.3251452445983887
160,52552,52554,-0.07139230519533157,-0.02918688952922821,1.0563410520553589,74.12352752685547,-3.4994943141937256,-12.503864288330078,0.9689515233039856,-0.20398980379104614,-0.23998799920082092,4.021414279937744,3.639089584350586,1.1709275245666504
161,52562,52564,-0.05886083096265793,0.03567066043615341,1.0476316213607788,30.23838233947754,9.585050582885742,-11.794022560119629,0.9599519968032837,-0.19799008965492249,-0.24298784136772156,4.0292582511901855,4.341775894165039,1.0326530933380127
162,52572,52574,-0.021981986239552498,0.0858587771654129,1.0322734117507935,-14.58005142211914,22.14266586303711,-6.42210578918457,0.9554522037506104,-0.17549122869968414,-0.2294885218143463,3.765697479248047,4.36742639541626,0.9326220750808716
163,52582,52584,-0.11101734638214111,-0.04292234778404236,1.0715001821517944,-54.932518005371094,24.34113883972168,-3.1539387702941895,0.9674516320228577,-0.1904904693365097,-0.23548822104930878,3.501405954360962,3.7923877239227295,0.9498976469039917
164,52592,52594,0.03670969977974892,0.03983734920620918,1.0235344171524048,-83.90076446533203,11.515995025634766,-2.772312641143799,0.9674516320228577,-0.16949152946472168,-0.2294885218143463,3.381913900375366,2.901806116104126,0.9759849905967712
165,52602,52604,-0.11298955976963043,-0.22709493339061737,1.0103237628936768,-89.68462371826172,-1.284858226776123,-5.1204705238342285,0.9839507937431335,-0.1889905482530594,-0.22498874366283417,3.3900034427642822,2.1618289947509766,0.9158069491386414
166,52612,52614,-0.14861580729484558,-0.14644934237003326,0.905237078666687,-77.96371459960938,-8.428997993469238,-6.8003973960876465,0.9914504289627075,-0.1814909279346466,-0.22648866474628448,3.5285215377807617,0.9860390424728394,1.0429450273513794
167,52622,52624,-0.055810581892728806,-0.08182236552238464,0.9238864183425903,-52.12873840332031,-8.258344650268555,-9.358617782592773,0.9794510006904602,-0.17549122869968414,-0.23248836398124695,3.4127845764160156,0.6058394908905029,0.7689531445503235
168,52632,52634,-0.14298346638679504,-0.1564834862947464,1.102208137512207,-23.496313095092773,-4.419134616851807,-7.68873929977417,0.9719513654708862,-0.17399129271507263,-0.22498874366283417,3.6757686138153076,0.19024837017059326,0.744785726070404
169,52642,52644,-0.12275855988264084,-0.08529955893754959,1.0453742742538452,16.2199649810791,-4.947559356689453,-6.039949893951416,0.9599519968032837,-0.16499175131320953,-0.23098844289779663,3.644649028778076,0.32602718472480774,0.5535654425621033
170,52652,52654,-0.06409284472465515,0.014054684899747372,1.0560587644577026,53.339176177978516,-5.208425045013428,-2.9038281440734863,0.9689515233039856,-0.18299084901809692,-0.23098844289779663,3.8345320224761963,0.7175045013427734,0.5187584161758423
171,52662,52664,-0.03401011973619461,0.028991801664233208,1.037435531616211,71.34310150146484,-7.217297077178955,-4.747442722320557,0.9704514741897583,-0.199490025639534,-0.2384880781173706,3.8084356784820557,1.4458856582641602,0.4075801372528076
172,52672,52674,-0.10140316933393478,-0.04171343147754669,1.0117440223693848,63.72234344482422,-13.924517631530762,-7.217412948608398,0.965951681137085,-0.20098994672298431,-0.23398829996585846,3.9188451766967773,1.942315697669983,0.4733507037162781
173,52682,52684,-0.14398238062858582,-0.01916399598121643,0.9762696027755737,42.384849548339844,-16.46064567565918,-10.086206436157227,0.9779511094093323,-0.19199039041996002,-0.227988600730896,4.283891677856445,2.609017848968506,0.3466555178165436
174,52692,52694,-0.09209521114826202,-0.05161776393651962,0.9422857165336609,16.261865615844727,-13.225729942321777,-15.196741104125977,0.9479525685310364,-0.1889905482530594,-0.227988600730896,4.401493072509766,2.938642978668213,0.19788700342178345
175,52702,52704,-0.11864319443702698,-0.06144377961754799,0.8659884929656982,-11.394546508789062,-5.643779754638672,-16.651527404785156,0.9779511094093323,-0.20098994672298431,-0.23998799920082092,4.562812805175781,3.0778698921203613,-0.009944095276296139
176,52712,52714,-0.037269022315740585,-0.012582902796566486,0.9633455872535706,-36.53486633300781,17.30506706237793,-15.662126541137695,0.9839507937431335,-0.19199039041996002,-0.2369881421327591,4.315334796905518,2.5188732147216797,0.036211904138326645
177,52722,52724,-0.034067023545503616,-0.05648402124643326,1.0844817161560059,-44.372215270996094,31.94697380065918,-15.166824340820312,0.9779511094093323,-0.1889905482530594,-0.2189890444278717,3.9760594367980957,2.137922525405884,-0.15142616629600525
178,52732,52734,0.05686390399932861,0.09033352881669998,1.0692155361175537,-37.099674224853516,34.834197998046875,-16.130104064941406,0.9704514741897583,-0.18749062716960907,-0.24148792028427124,3.761868953704834,1.5745702981948853,-0.13820390403270721
179,52742,52744,0.020526738837361336,0.12469568848609924,1.0311259031295776,-22.947660446166992,27.271764755249023,-11.56623363494873,0.9794510006904602,-0.18449077010154724,-0.23548822104930878,3.2666664123535156,1.5610452890396118,-0.5421754717826843
180,52752,52754,-0.008714974857866764,0.12093773484230042,1.0295238494873047,-4.57769775390625,2.126264810562134,-4.246069431304932,0.9839507937431335,-0.18599069118499756,-0.22498874366283417,3.0307199954986572,1.3833690881729126,-0.6291193962097168
181,52762,52764,-0.1510198563337326,0.002398147014901042,1.0732812881469727,4.698057174682617,-22.49334716796875,4.450557231903076,0.9689515233039856,-0.19499024748802185,-0.2459876984357834,3.239243507385254,1.3451017141342163,-0.5781576037406921
182,52772,52774,-0.20306183397769928,-0.09153831750154495,1.0548744201660156,-6.021486282348633,-34.92349624633789,10.252457618713379,0.9884505867958069,-0.19649016857147217,-0.2384880781173706,3.6816813945770264,1.494643211364746,-0.6017753481864929
183,52782,52784,-0.07639286667108536,-0.037245724350214005,1.1032549142837524,-30.565786361694336,-44.856876373291016,11.208271026611328,1.00344979763031,-0.20548972487449646,-0.23248836398124695,4.276618480682373,1.214434027671814,-0.36478158831596375
184,52792,52794,-0.13391438126564026,-0.15325652062892914,1.1255691051483154,-53.22333908081055,-62.53034591674805,4.437671661376953,0.9989500045776367,-0.21298934519290924,-0.2459876984357834,4.732363700866699,0.9312281608581543,-0.42196857929229736
185,52802,52804,-0.0983629897236824,-0.10769233107566833,1.0811268091201782,-65.54434204101562,-56.136104583740234,-1.6780537366867065,0.9974501132965088,-0.2174891233444214,-0.25048747658729553,5.785463809967041,0.1660384237766266,-0.17354607582092285
186,52812,52814,-0.09594172239303589,0.02313266322016716,1.102742314338684,-62.35533905029297,-27.569990158081055,-9.512824058532715,1.0079495906829834,-0.2189890444278717,-0.2459876984357834,5.891599655151367,-0.7196208834648132,-0.09531568735837936
187,52822,52824,-0.08405780792236328,0.09556189924478531,1.0915448665618896,-28.43178367614746,16.313329696655273,-13.59268569946289,1.0109494924545288,-0.1889905482530594,-0.24298784136772156,5.7714056968688965,-1.0142008066177368,-0.4107605814933777
188,52832,52834,-0.084587462246418,0.0011937154922634363,1.1101884841918945,24.294475555419922,55.51467514038086,-11.928566932678223,0.9644517302513123,-0.17249137163162231,-0.24148792028427124,5.2788591384887695,-0.8817424774169922,-0.7080863118171692
189,52842,52844,-0.08315642178058624,-0.011336944065988064,1.1017924547195435,60.77362823486328,85.70123291015625,-11.625486373901367,0.9704514741897583,-0.18449077010154724,-0.2384880781173706,4.828984260559082,-0.2836882174015045,-0.9633550047874451
190,52852,52854,-0.0918811485171318,-0.02368730865418911,1.0793012380599976,92.78147888183594,101.82559967041016,-12.553560256958008,0.9704514741897583,-0.18749062716960907,-0.22648866474628448,3.588876247406006,0.7447128891944885,-1.3353302478790283
191,52862,52864,-0.02918005920946598,-0.0184914693236351,1.0606921911239624,99.6957778930664,102.3471908569336,-14.60537338256836,0.9629518389701843,-0.19199039041996002,-0.23998799920082092,2.82363224029541,1.3647462129592896,-1.0958880186080933
192,52872,52874,-0.051349084824323654,-0.027861101552844048,1.0643742084503174,80.78521728515625,92.0730209350586,-16.702743530273438,0.9404529333114624,-0.1814909279346466,-0.23248836398124695,1.7407056093215942,2.529149293899536,-1.432878017425537
193,52882,52884,-0.06081428378820419,-0.004370454233139753,1.0005762577056885,46.2097282409668,81.65909576416016,-15.947149276733398,0.9389530420303345,-0.16499175131320953,-0.24298784136772156,0.6900983452796936,3.4013583660125732,-1.7431703805923462
194,52892,52894,-0.09438017010688782,-0.018671652302145958,0.9812904000282288,11.075080871582031,64.73481750488281,-11.875930786132812,0.9299534559249878,-0.16799159348011017,-0.23398829996585846,0.29494330286979675,3.3085715770721436,-1.5029950141906738
195,52902,52904,-0.019123941659927368,-0.009189621545374393,0.9737706780433655,-18.690628051757812,51.20643615722656,-9.14276123046875,0.9314534068107605,-0.1604919731616974,-0.22348882257938385,-0.3538840711116791,3.3318498134613037,-1.625506043434143
196,52912,52914,0.06065725162625313,0.08358213305473328,0.94756019115448,-51.6091194152832,31.126834869384766,-4.585833549499512,0.9314534068107605,-0.14549271762371063,-0.22048896551132202,-0.6845999360084534,2.754051446914673,-1.5051350593566895
197,52922,52924,-0.014673086814582348,0.014881938695907593,1.0100945234298706,-76.24700164794922,7.828670501708984,-1.807874083518982,0.9299534559249878,-0.1619918942451477,-0.23398829996585846,-0.8103911876678467,2.0659244060516357,-1.487967610359192
198,52932,52934,0.043488770723342896,0.04615471512079239,1.0404484272003174,-88.46060943603516,-11.08950424194336,0.7534536123275757,0.9524523615837097,-0.14849257469177246,-0.2294885218143463,-0.8812227249145508,1.0706416368484497,-1.4021114110946655
199,52942,52944,-0.024492038413882256,0.020717112347483635,0.9786605834960938,-90.43699645996094,-22.81671142578125,1.233495831489563,0.9314534068107605,-0.17549122869968414,-0.24148792028427124,-0.6587131023406982,0.3441963493824005,-1.4817438125610352
200,52952,52954,-0.026686929166316986,0.0005474367644637823,0.9751545190811157,-79.86617279052734,-22.332923889160156,3.635974645614624,0.9374530911445618,-0.14249287545681,-0.23548822104930878,-0.3098088800907135,-0.507819414138794,-1.4510674476623535
201,52962,52964,-0.01172961201518774,0.01870269700884819,1.0046597719192505,-63.109046936035156,-16.221168518066406,5.432514667510986,0.9374530911445618,-0.13649317622184753,-0.23248836398124695,-0.26639288663864136,-0.9322627186775208,-1.5613458156585693
202,52972,52974,-0.05707855895161629,-0.003788683796301484,0.9961999654769897,-42.573394775390625,0.4201376140117645,7.9942731857299805,0.9299534559249878,-0.12599369883537292,-0.227988600730896,-0.11685972660779953,-1.5551141500473022,-1.45077645778656
203,52982,52984,-0.042893145233392715,-0.050802286714315414,0.9560217261314392,-24.548423767089844,23.09944725036621,9.103594779968262,0.9269536137580872,-0.11699414998292923,-0.23098844289779663,-0.28152069449424744,-1.7917999029159546,-1.4137535095214844
204,52992,52994,-0.0480802021920681,-0.14698021113872528,0.9423738121986389,-6.725498199462891,45.17229461669922,11.49258041381836,0.9104544520378113,-0.11849407106637955,-0.2294885218143463,-0.6689189672470093,-2.146603584289551,-1.2603442668914795
205,53002,53004,-0.04658665135502815,-0.013225161470472813,0.944824755191803,4.420733451843262,60.062957763671875,11.101318359375,0.9164541363716125,-0.11849407106637955,-0.23248836398124695,-1.3095792531967163,-2.1033377647399902,-1.1825177669525146
206,53012,53014,-0.07706419378519058,-0.033207181841135025,0.9552298784255981,14.253594398498535,68.87653350830078,10.24843978881836,0.9269536137580872,-0.1229938492178917,-0.22498874366283417,-1.8761186599731445,-1.8131779432296753,-1.1438267230987549
207,53022,53024,-0.024369481950998306,0.04211298003792763,0.9202389121055603,13.040084838867188,61.27477264404297,8.255583763122559,0.9134542942047119,-0.13049347698688507,-0.2384880781173706,-2.6414313316345215,-1.635881781578064,-1.0678881406784058
208,53032,53034,0.0007331541855819523,-0.003901317249983549,0.9146066904067993,2.5044643878936768,40.24717712402344,5.955196857452393,0.9089545607566833,-0.1319933980703354,-0.23398829996585846,-3.0719683170318604,-1.5994983911514282,-1.0136439800262451
209,53042,53044,0.02244485542178154,-0.028700944036245346,0.9619515538215637,-8.610360145568848,11.39132308959961,3.243335247039795,0.9134542942047119,-0.12149392068386078,-0.22048896551132202,-3.3940556049346924,-1.6669565439224243,-0.9613767266273499
210,53052,53054,-0.028993839398026466,0.0002788056153804064,0.9201359748840332,-19.753503799438477,-17.458799362182617,0.08403229713439941,0.9059546589851379,-0.13799309730529785,-0.24298784136772156,-3.4052822589874268,-1.8536185026168823,-0.9341810345649719
211,53062,53064,-0.006862022448331118,0.03311264514923096,0.9457005858421326,-27.05160903930664,-38.719390869140625,-3.0341954231262207,0.9179540872573853,-0.14999249577522278,-0.23998799920082092,-2.5855000019073486,-2.190678358078003,-1.0445077419281006
212,53072,53074,0.0557020865380764,0.1199977844953537,1.00222909450531,-29.796092987060547,-44.42972946166992,-5.048593521118164,0.9224538803100586,-0.16349181532859802,-0.24448777735233307,-2.0977118015289307,-2.6302905082702637,-1.0895177125930786
213,53082,53084,-0.024239663034677505,0.04539823904633522,0.9481093883514404,-27.201820373535156,-34.056663513183594,-5.401785850524902,0.9449527263641357,-0.1619918942451477,-0.23998799920082092,-1.8904539346694946,-2.8619284629821777,-1.0667994022369385
214,53092,53094,0.005148665048182011,0.05071535333991051,0.9518105387687683,-22.318864822387695,-15.09011459350586,-4.158823490142822,0.9404529333114624,-0.14549271762371063,-0.23248836398124695,-1.6068460941314697,-3.0297486782073975,-1.09634268283844
215,53102,53104,-0.04643886163830757,-0.0004837180604226887,0.9756833910942078,-11.229618072509766,6.993102073669434,-2.226942300796509,0.9314534068107605,-0.12749361991882324,-0.24148792028427124,-1.5194827318191528,-3.2296946048736572,-1.1405733823776245
216,53112,53114,-0.11750341206789017,-0.05930453538894653,0.9876624345779419,-0.4484451711177826,25.249736785888672,-1.6901164054870605,0.9074546098709106,-0.11249437183141708,-0.2294885218143463,-1.73090660572052,-3.2476210594177246,-1.1317671537399292
217,53122,53124,-0.055139750242233276,-0.00889935065060854,0.9721441268920898,12.973409652709961,40.55945587158203,-2.570131778717041,0.9089545607566833,-0.12899354100227356,-0.2459876984357834,-2.312615156173706,-3.218277931213379,-1.0822944641113281
218,53132,53134,-0.053578343242406845,0.0071226442232728004,0.9758077263832092,35.88875961303711,45.08613586425781,-4.328386306762695,0.9134542942047119,-0.12749361991882324,-0.23548822104930878,-2.7900357246398926,-2.9196906089782715,-1.1034390926361084
219,53142,53144,0.02369125373661518,-0.0007608899031765759,0.8957949280738831,59.93020248413086,27.963869094848633,-3.2187554836273193,0.9269536137580872,-0.14399279654026031,-0.23998799920082092,-3.283498525619507,-2.302891731262207,-1.0761401653289795
220,53152,53154,0.029060781002044678,0.053363192826509476,0.9117879867553711,78.59368133544922,2.507132053375244,-1.2193610668182373,0.911954402923584,-0.1529923528432846,-0.24898754060268402,-3.2980611324310303,-1.6469557285308838,-1.1839274168014526
221,53162,53164,-0.0125009436160326,0.1323886513710022,0.9277079701423645,81.91650390625,-19.926563262939453,0.3492615222930908,0.9074546098709106,-0.16649167239665985,-0.24148792028427124,-3.2960262298583984,-0.8584814071655273,-1.161596655845642
222,53172,53174,-0.04419618099927902,0.040490683168172836,0.9216393828392029,66.74967956542969,-40.60353469848633,2.282717227935791,0.911954402923584,-0.1799909919500351,-0.2549872398376465,-3.0927937030792236,-0.2619462013244629,-1.1550443172454834
223,53182,53184,-0.0517265610396862,-0.025420907884836197,0.8990002274513245,41.381282806396484,-58.25537872314453,3.1952157020568848,0.9374530911445618,-0.18449077010154724,-0.25048747658729553,-2.360497236251831,0.38816699385643005,-1.2002142667770386
224,53192,53194,0.01348469965159893,-0.013365654274821281,0.9044786691665649,9.914801597595215,-57.61450958251953,2.593040943145752,0.9209539294242859,-0.18299084901809692,-0.23998799920082092,-1.6608576774597168,0.6650803685188293,-1.2196035385131836
225,53202,53204,-0.07228457927703857,-0.012224866077303886,0.9527450203895569,-25.93633270263672,-41.8290901184082,2.2006046772003174,0.9359531998634338,-0.1889905482530594,-0.2459876984357834,-1.1263357400894165,0.44926393032073975,-1.266286015510559
226,53212,53214,-0.06769778579473495,-0.08651036769151688,1.0035974979400635,-52.08302688598633,-18.52155113220215,2.8567605018615723,0.9449527263641357,-0.170991450548172,-0.23398829996585846,-1.0351649522781372,-0.060927171260118484,-1.2091387510299683
227,53222,53224,-0.050423167645931244,-0.07524173706769943,1.07710599899292,-61.305179595947266,0.8397559523582458,2.6423966884613037,0.9479525685310364,-0.1619918942451477,-0.2459876984357834,-1.105148196220398,-0.6803693771362305,-1.1496801376342773
228,53232,53234,-0.038776297122240067,0.020722119137644768,1.0285248756408691,-56.53932571411133,16.153940200805664,4.906676769256592,0.9404529333114624,-0.1514924168586731,-0.2594870328903198,-1.3284062147140503,-1.2951499223709106,-1.0781885385513306
229,53242,53244,0.0059866406954824924,0.07640117406845093,1.1457349061965942,-37.496116638183594,24.529666900634766,7.436435222625732,0.9389530420303345,-0.14999249577522278,-0.24298784136772156,-1.5670158863067627,-1.93038809299469,-1.0570210218429565
230,53252,53254,0.07555273920297623,0.13427822291851044,1.0956865549087524,-15.0330228805542,22.9262638092041,8.287693977355957,0.9434528350830078,-0.14249287545681,-0.24448777735233307,-1.9133508205413818,-2.069190740585327,-0.9015805721282959
231,53262,53264,-0.04602691903710365,0.015284845605492592,1.0634042024612427,9.881465911865234,10.748600959777832,8.406161308288574,0.9434528350830078,-0.14249287545681,-0.24448777735233307,-2.1595993041992188,-2.0098915100097656,-0.7711753249168396
232,53272,53274,-0.07001601159572601,-0.000853902951348573,1.0523849725723267,27.172075271606445,-9.716567039489746,8.713272094726562,0.9434528350830078,-0.14249287545681,-0.24448777735233307,-2.1546151638031006,-1.8018298149108887,-0.6820781826972961
233,53282,53284,-0.04752909392118454,-0.02131768874824047,1.0430430173873901,33.58864974975586,-35.0013313293457,6.992771625518799,0.9359531998634338,-0.15599219501018524,-0.23998799920082092,-1.7783719301223755,-1.366957426071167,-0.6026968955993652
234,53292,53294,-0.02225952409207821,-0.006059608887881041,1.055884838104248,33.14391326904297,-57.116580963134766,7.207940101623535,0.9434528350830078,-0.16649167239665985,-0.2384880781173706,-1.5552387237548828,-1.1668295860290527,-0.4946753978729248
235,53302,53304,-0.08707050234079361,-0.06692976504564285,1.0724332332611084,28.681737899780273,-63.84403991699219,6.25806188583374,0.9299534559249878,-0.1619918942451477,-0.23998799920082092,-0.6983609795570374,-0.7145016193389893,-0.4467756748199463
236,53312,53314,-0.015453692525625229,0.03810986503958702,1.0013893842697144,32.30176544189453,-57.612606048583984,7.8315815925598145,0.9464526772499084,-0.1814909279346466,-0.25048747658729553,0.04183736816048622,-0.5089695453643799,-0.44787654280662537
237,53322,53324,-0.015913639217615128,-0.008024017326533794,0.9921920299530029,31.09608268737793,-46.69218063354492,9.469850540161133,0.9389530420303345,-0.1799909919500351,-0.24298784136772156,0.2076149880886078,-0.31539633870124817,-0.287309855222702
238,53332,53334,-0.062396224588155746,-0.02702324464917183,1.0236408710479736,19.241300582885742,-34.98916244506836,8.159475326538086,0.9434528350830078,-0.16349181532859802,-0.23548822104930878,0.6429345011711121,0.16087841987609863,-0.14072205126285553
239,53342,53344,-0.016363007947802544,0.0277717262506485,0.9864155054092407,0.6784753203392029,-13.377883911132812,5.924252986907959,0.9344532489776611,-0.16949152946472168,-0.22648866474628448,0.7529482841491699,0.3107564449310303,-0.01660466007888317
240,53352,53354,-0.02352714352309704,-0.00556673901155591,0.9607654213905334,-11.070934295654297,12.42392635345459,3.3621826171875,0.9449527263641357,-0.14399279654026031,-0.23998799920082092,0.6184110641479492,0.10723771899938583,0.03407207503914833
241,53362,53364,-0.0928332507610321,-0.004967710468918085,0.9912586808204651,-12.313068389892578,31.285507202148438,1.2831299304962158,0.9479525685310364,-0.15599219501018524,-0.2459876984357834,0.3909876346588135,-0.08197560906410217,0.04485684633255005
242,53372,53374,-0.02114126831293106,-0.02425907552242279,0.9746703505516052,-6.240957260131836,33.759395599365234,-0.09868580847978592,0.9524523615837097,-0.17249137163162231,-0.2384880781173706,0.07856346666812897,-0.2346634864807129,0.031123772263526917
243,53382,53384,-0.004731861408799887,0.022912336513400078,0.9945599436759949,7.361430644989014,16.502988815307617,0.7078043818473816,0.9314534068107605,-0.15749211609363556,-0.23248836398124695,-0.23174872994422913,-0.17544898390769958,0.04679925739765167
244,53392,53394,-0.004195047542452812,-0.005352657753974199,0.9611191749572754,22.6959171295166,-12.947372436523438,2.073728322982788,0.9464526772499084,-0.17249137163162231,-0.23248836398124695,-0.22342094779014587,0.056170012801885605,0.06524378061294556
245,53402,53404,-0.03765944764018059,0.016604630276560783,1.0217392444610596,22.49064826965332,-36.81639862060547,5.786745548248291,0.9524523615837097,-0.1904904693365097,-0.2294885218143463,0.11277611553668976,0.2316872924566269,0.08043692260980606
246,53412,53414,-0.06037668138742447,-0.03985391557216644,0.9906688928604126,11.0191011428833,-52.58859634399414,8.261443138122559,0.9539523124694824,-0.1889905482530594,-0.227988600730896,0.500277578830719,0.3390926122665405,0.1548871546983719
247,53422,53424,-0.04802733287215233,-0.023044414818286896,1.0404857397079468,1.9528872966766357,-58.1487922668457,8.963078498840332,0.9569521546363831,-0.19199039041996002,-0.2459876984357834,1.1516700983047485,0.492972731590271,0.22982437908649445
248,53432,53434,-0.11272178590297699,-0.012591633014380932,1.0730451345443726,-3.5830862522125244,-52.05746841430664,8.658218383789062,0.9749512076377869,-0.18299084901809692,-0.23398829996585846,1.879868984222412,0.44111916422843933,0.28621792793273926
249,53442,53444,-0.03005169704556465,-0.011665421538054943,1.0438264608383179,-6.695245742797852,-35.6578369140625,7.330852508544922,0.9614518880844116,-0.19649016857147217,-0.2384880781173706,1.930708646774292,0.3778936564922333,0.4136340618133545
250,53452,53454,-0.005930554587393999,0.028205642476677895,1.0310615301132202,-1.7523752450942993,-18.274477005004883,6.495439529418945,0.965951681137085,-0.170991450548172,-0.2369881421327591,2.2829298973083496,0.29566067457199097,0.4701644778251648
251,53462,53464,-0.08638107776641846,0.012954151257872581,1.085694432258606,8.75908374786377,-9.452144622802734,7.045886516571045,0.958452045917511,-0.16949152946472168,-0.22348882257938385,2.1235969066619873,0.3336942791938782,0.5647709369659424
252,53472,53474,-0.06510590761899948,-0.0024762724060565233,1.058550477027893,16.66180419921875,-7.27518367767334,7.6629958152771,0.9524523615837097,-0.1814909279346466,-0.2384880781173706,2.302586078643799,0.6064127087593079,0.6168034076690674
253,53482,53484,-0.03620181232690811,0.028713077306747437,1.0558868646621704,19.18021583557129,-10.671521186828613,10.675275802612305,0.9479525685310364,-0.1799909919500351,-0.227988600730896,2.3364458084106445,0.7705976366996765,0.7102396488189697
254,53492,53494,-0.12035275995731354,0.0036594404373317957,1.0657702684402466,9.66514778137207,-18.958820343017578,16.551349639892578,0.9569521546363831,-0.17399129271507263,-0.2189890444278717,2.58646821975708,0.8389432430267334,0.8425478339195251
255,53502,53504,-0.10145328938961029,-0.03349149227142334,1.0666072368621826,-2.5182747840881348,-29.845245361328125,21.937456130981445,0.9674516320228577,-0.17849107086658478,-0.2294885218143463,2.8294060230255127,0.7807547450065613,1.0471230745315552
256,53512,53514,-0.037447866052389145,0.09425228834152222,1.0263211727142334,-16.500524520874023,-41.43910217285156,25.114456176757812,0.9854506850242615,-0.1814909279346466,-0.2294885218143463,3.3398234844207764,0.6740824580192566,1.2743542194366455
257,53522,53524,0.07582390308380127,0.22616837918758392,1.0168187618255615,-35.24844741821289,-43.62757873535156,25.882970809936523,0.9914504289627075,-0.19649016857147217,-0.23548822104930878,3.683645486831665,0.37690702080726624,1.538105845451355
258,53532,53534,-0.047040652483701706,0.03620610386133194,1.0852073431015015,-49.435123443603516,-25.33145523071289,21.983463287353516,1.0019499063491821,-0.19199039041996002,-0.23098844289779663,3.8338239192962646,-0.023481346666812897,1.7700045108795166
259,53542,53544,-0.04101765155792236,-0.059067822992801666,1.093342900276184,-49.4167366027832,1.1607710123062134,16.855934143066406,0.9974501132965088,-0.1814909279346466,-0.22648866474628448,4.214564800262451,-0.793106198310852,2.0405313968658447
260,53552,53554,-0.09457515180110931,0.02955423668026924,1.0644673109054565,-43.39047622680664,16.608943939208984,11.434037208557129,0.9914504289627075,-0.17849107086658478,-0.2384880781173706,4.197015285491943,-1.265479564666748,2.1833956241607666
261,53562,53564,-0.062262505292892456,0.060443103313446045,1.0259073972702026,-20.35914421081543,37.18083953857422,10.040777206420898,0.9794510006904602,-0.17849107086658478,-0.23548822104930878,3.878528356552124,-1.3568341732025146,2.1795740127563477
262,53572,53574,-0.04612915217876434,0.04245448857545853,1.0034056901931763,7.148237228393555,49.565364837646484,10.388594627380371,0.9644517302513123,-0.16649167239665985,-0.22648866474628448,3.3150486946105957,-1.5079405307769775,2.3064281940460205
263,53582,53584,-0.014263887889683247,0.011727199889719486,1.0078378915786743,25.930522918701172,48.760902404785156,8.049555778503418,0.9719513654708862,-0.16499175131320953,-0.227988600730896,2.7604079246520996,-1.2453603744506836,2.3463149070739746
264,53592,53594,0.021389668807387352,0.027684437111020088,1.01518714427948,27.753807067871094,37.153839111328125,4.0074462890625,0.958452045917511,-0.16949152946472168,-0.2294885218143463,2.225651264190674,-0.8490516543388367,2.3561270236968994
265,53602,53604,0.02691490948200226,0.0807700976729393,1.10087251663208,13.352753639221191,15.701107025146484,-2.618201732635498,0.9494525194168091,-0.15749211609363556,-0.2294885218143463,2.084740161895752,-0.6755990386009216,2.3687996864318848
266,53612,53614,-0.03082478605210781,-0.07993999868631363,1.0502663850784302,-3.6877384185791016,-4.777095317840576,-8.738349914550781,0.9614518880844116,-0.16649167239665985,-0.24448777735233307,2.2177894115448,-0.6090345978736877,2.2919657230377197
267,53622,53624,-0.04616929963231087,-0.08253845572471619,0.9727839231491089,-13.930377006530762,-16.349193572998047,-17.7491455078125,0.9629518389701843,-0.17699114978313446,-0.2369881421327591,2.341701030731201,-0.7161417603492737,2.174940586090088
268,53632,53634,-0.16516481339931488,-0.09676481038331985,1.0607408285140991,-6.881219387054443,-19.339750289916992,-25.010183334350586,0.9629518389701843,-0.17399129271507263,-0.227988600730896,2.6180078983306885,-0.9118834733963013,1.9928475618362427
269,53642,53644,-0.20057792961597443,-0.13499130308628082,1.0722731351852417,15.787938117980957,-17.696317672729492,-29.943382263183594,0.9674516320228577,-0.1604919731616974,-0.22048896551132202,2.9828999042510986,-0.8798539042472839,1.7142717838287354
270,53652,53654,-0.11406855285167694,-0.009449210949242115,1.013275384902954,51.25846862792969,-14.215485572814941,-31.7539005279541,0.9674516320228577,-0.16649167239665985,-0.22648866474628448,2.9362077713012695,-0.5400047302246094,1.422490119934082
271,53662,53664,-0.07234985381364822,0.14950285851955414,0.9581402540206909,78.0146713256836,-8.027021408081055,-29.587900161743164,0.9689515233039856,-0.18599069118499756,-0.23998799920082092,3.0722694396972656,0.20967517793178558,1.0677660703659058
272,53672,53674,0.036853499710559845,0.19299498200416565,1.0494115352630615,95.39070892333984,-4.547874927520752,-25.463436126708984,0.9614518880844116,-0.1904904693365097,-0.2294885218143463,3.1868371963500977,1.1688519716262817,0.7357137799263
273,53682,53684,0.005831913556903601,0.10212170332670212,1.1269184350967407,96.17932891845703,-4.170510292053223,-22.658815383911133,0.9569521546363831,-0.19499024748802185,-0.23398829996585846,3.2862415313720703,1.9739038944244385,0.5712270140647888
274,53692,53694,-0.08646395802497864,0.002190446248278022,1.043487787246704,75.11659240722656,7.5250701904296875,-17.75733757019043,0.9524523615837097,-0.1814909279346466,-0.23248836398124695,3.3480353355407715,2.9231975078582764,0.33199024200439453
275,53702,53704,-0.17881067097187042,-0.08333902060985565,0.964607298374176,32.269893646240234,29.32346534729004,-10.08570384979248,0.9554522037506104,-0.18449077010154724,-0.22648866474628448,3.296133041381836,3.1271986961364746,0.3898506760597229
276,53712,53714,-0.13621151447296143,-0.07336339354515076,0.9121906161308289,-16.257280349731445,53.433929443359375,-5.5567498207092285,0.9599519968032837,-0.170991450548172,-0.22498874366283417,2.5881197452545166,3.1874589920043945,0.36197537183761597
277,53722,53724,-0.015314816497266293,0.022055169567465782,0.93466717004776,-54.156803131103516,70.09822845458984,0.625734806060791,0.9494525194168091,-0.16649167239665985,-0.2384880781173706,1.9485856294631958,2.8429317474365234,0.3767413794994354
278,53732,53734,-0.06778070330619812,-0.02018790692090988,0.9815900325775146,-78.12271118164062,73.584228515625,7.452692985534668,0.9599519968032837,-0.1799909919500351,-0.23398829996585846,1.1973896026611328,2.1272525787353516,0.46909618377685547
279,53742,53744,-0.08431345969438553,-0.06649262458086014,0.9357584714889526,-89.26679229736328,67.33831787109375,11.496582984924316,0.9719513654708862,-0.17699114978313446,-0.2459876984357834,0.3639620542526245,1.2367442846298218,0.5899438858032227
280,53752,53754,0.008624483831226826,0.06821353733539581,1.0577208995819092,-80.01007843017578,46.5510139465332,12.894774436950684,0.965951681137085,-0.1799909919500351,-0.2369881421327591,-0.17593654990196228,0.49775266647338867,0.6793468594551086
281,53762,53764,0.07761534303426743,0.19844740629196167,1.035597324371338,-66.51483154296875,16.371204376220703,11.23629093170166,0.9704514741897583,-0.17549122869968414,-0.24148792028427124,-0.46135103702545166,-0.35883116722106934,0.8672767877578735
282,53772,53774,-0.08512910455465317,0.04110559821128845,1.0884524583816528,-44.48906707763672,-16.37472152709961,6.816677570343018,0.958452045917511,-0.18749062716960907,-0.23548822104930878,-0.4100954532623291,-0.8680628538131714,0.9482843279838562
283,53782,53784,-0.06486490368843079,0.15421804785728455,1.1492071151733398,-12.223358154296875,-39.908687591552734,4.938380718231201,0.9614518880844116,-0.2084895670413971,-0.25048747658729553,0.004948738031089306,-1.1400489807128906,1.0182675123214722
284,53792,53794,-0.043956443667411804,0.10326014459133148,1.1582249402999878,23.9296932220459,-45.7386474609375,2.7208213806152344,0.9689515233039856,-0.20398980379104614,-0.25198739767074585,0.6931126117706299,-1.0590531826019287,1.086850643157959
285,53802,53804,-0.036124490201473236,0.04935476928949356,1.0860532522201538,63.648494720458984,-39.11777114868164,5.4188151359558105,0.9734513163566589,-0.199490025639534,-0.25048747658729553,1.1449291706085205,-0.15026651322841644,0.9958587288856506
286,53812,53814,-0.03372266888618469,0.040945179760456085,1.049889326095581,85.7120132446289,-31.321086883544922,10.308130264282227,0.958452045917511,-0.21448926627635956,-0.24448777735233307,1.3385318517684937,0.7141797542572021,1.0322667360305786
287,53822,53824,-0.05283326655626297,-0.09962797164916992,0.9805415272712708,74.49533081054688,-17.509572982788086,12.489668846130371,0.965951681137085,-0.20698964595794678,-0.2459876984357834,1.5509146451950073,1.148453950881958,1.2353705167770386
288,53832,53834,-0.10129684954881668,-0.2474491149187088,1.0358848571777344,30.80535316467285,-1.2848687171936035,9.367932319641113,0.9644517302513123,-0.18749062716960907,-0.24148792028427124,1.7277817726135254,1.7424668073654175,1.3435349464416504
289,53842,53844,-0.10490721464157104,-0.23799358308315277,0.9555594325065613,-19.69382095336914,10.61633014678955,1.0550562143325806,0.9494525194168091,-0.18749062716960907,-0.22648866474628448,1.6574445962905884,1.8747506141662598,1.3909151554107666
290,53852,53854,-0.11365711688995361,-0.14393329620361328,0.8916723132133484,-59.45403289794922,23.061847686767578,-7.617132186889648,0.9689515233039856,-0.19799008965492249,-0.2369881421327591,1.3583966493606567,1.3173633813858032,1.3790171146392822
291,53862,53864,-0.1185547336935997,-0.16495004296302795,0.9288546442985535,-71.1291732788086,40.500301361083984,-8.99333667755127,0.9614518880844116,-0.17849107086658478,-0.24448777735233307,0.9060245156288147,0.35584110021591187,1.3516576290130615
292,53872,53874,-0.054481059312820435,-0.06820960342884064,1.0269138813018799,-55.99958801269531,52.34675979614258,-7.9074506759643555,0.9569521546363831,-0.170991450548172,-0.2549872398376465,0.40745994448661804,-0.2067330926656723,1.2450283765792847
293,53882,53884,-0.05481361970305443,0.05826658010482788,1.0672024488449097,-26.540306091308594,53.67462921142578,-5.177664279937744,0.9539523124694824,-0.1619918942451477,-0.24298784136772156,-0.20676980912685394,-0.47206348180770874,1.1342766284942627
294,53892,53894,-0.09984508156776428,-0.024718765169382095,1.0829150676727295,9.560158729553223,40.054786682128906,-4.8441033363342285,0.9404529333114624,-0.17549122869968414,-0.23548822104930878,-0.32020822167396545,-0.41885510087013245,1.107068419456482
295,53902,53904,-0.11860254406929016,0.0014993607765063643,1.1125246286392212,36.95085906982422,19.077890396118164,-3.1813063621520996,0.9494525194168091,-0.17549122869968414,-0.2384880781173706,-0.7752540707588196,-0.010191713459789753,1.022933840751648
296,53912,53914,-0.07622739672660828,-0.029509151354432106,0.9935182929039001,50.90774917602539,-3.5679550170898438,-3.4697985649108887,0.9449527263641357,-0.19199039041996002,-0.24298784136772156,-0.7457095980644226,0.3608534634113312,1.011094093322754
297,53922,53924,-0.17130014300346375,-0.08890912681818008,0.9442324042320251,48.350101470947266,-17.686473846435547,-3.5277950763702393,0.9359531998634338,-0.20398980379104614,-0.23998799920082092,-0.5255175828933716,1.073159098625183,0.965108335018158
298,53932,53934,-0.05143123120069504,-0.0019028671085834503,1.0067980289459229,31.850688934326172,-22.62879753112793,1.706315279006958,0.9479525685310364,-0.19799008965492249,-0.24298784136772156,-0.1629590392112732,1.7551416158676147,0.9473776817321777
299,53942,53944,0.031068840995430946,0.08670350909233093,0.8891208171844482,1.5366357564926147,-29.486841201782227,5.374577045440674,0.9434528350830078,-0.19649016857147217,-0.2564871609210968,-0.13823913037776947,1.5645010471343994,0.9615926146507263
300,53952,53954,0.06385540962219238,0.14928613603115082,0.8396135568618774,-37.866615295410156,-34.58015060424805,6.287242412567139,0.9704514741897583,-0.18749062716960907,-0.23548822104930878,0.2849369943141937,1.2414079904556274,1.0270682573318481
301,53962,53964,0.1261824071407318,0.13412246108055115,0.8984947204589844,-70.12223052978516,-22.53801727294922,3.422344923019409,0.965951681137085,-0.19499024748802185,-0.23998799920082092,0.48669394850730896,0.5778350234031677,1.0723742246627808
302,53972,53974,-0.03974205255508423,-0.003379144473001361,1.0609084367752075,-88.61419677734375,-1.7418967485427856,-5.912168025970459,0.9689515233039856,-0.18599069118499756,-0.2459876984357834,0.5899019241333008,-0.437502384185791,1.0596027374267578
303,53982,53984,-0.021943775936961174,-0.07191888242959976,1.0524516105651855,-70.38289642333984,12.076667785644531,-11.616941452026367,0.9719513654708862,-0.170991450548172,-0.24898754060268402,0.4994215965270996,-1.45378577709198,0.9545847177505493
304,53992,53994,-0.04629213735461235,-0.0043113259598612785,1.0227242708206177,-16.016576766967773,23.78654670715332,-13.490071296691895,0.9479525685310364,-0.16799159348011017,-0.23098844289779663,0.20808853209018707,-1.610735297203064,0.8173350691795349
305,54002,54004,-0.04822532460093498,0.02353556640446186,1.0791701078414917,45.945133209228516,30.74794578552246,-12.28014087677002,0.9539523124694824,-0.1619918942451477,-0.23098844289779663,-0.18807688355445862,-1.4075794219970703,0.6691948175430298
306,54012,54014,0.004578630439937115,0.12063546478748322,1.1402771472930908,93.27677917480469,36.01153564453125,-10.128252983093262,0.9419528841972351,-0.20398980379104614,-0.24298784136772156,-0.36308053135871887,-0.4052700996398926,0.5724513530731201
307,54022,54024,-0.027059214189648628,0.09431395679712296,1.134131908416748,110.76541137695312,40.98309326171875,-8.122314453125,0.9314534068107605,-0.19349032640457153,-0.2474876195192337,-0.7980522513389587,0.6780505180358887,0.48672986030578613
308,54032,54034,-0.04168986901640892,-0.018117669969797134,1.119948387145996,103.49844360351562,34.41387176513672,-6.8765363693237305,0.9419528841972351,-0.19799008965492249,-0.24298784136772156,-1.2977279424667358,2.0792083740234375,0.44284766912460327
309,54042,54044,-0.10587143152952194,-0.08409696817398071,0.9913707971572876,69.61872100830078,18.745643615722656,-4.417379379272461,0.9314534068107605,-0.18749062716960907,-0.24148792028427124,-1.4221080541610718,2.5468735694885254,0.35507112741470337
310,54052,54054,-0.18844929337501526,-0.10549346357584,1.015034794807434,27.091951370239258,3.663269281387329,-0.9897872805595398,0.9209539294242859,-0.18299084901809692,-0.24298784136772156,-1.3412569761276245,3.0124547481536865,0.3295072317123413
311,54062,54064,-0.10924544930458069,-0.05933547392487526,1.1032487154006958,-16.65380859375,-3.5626447200775146,2.6442575454711914,0.9344532489776611,-0.1604919731616974,-0.22348882257938385,-1.4059817790985107,2.844680070877075,0.29843246936798096
312,54072,54074,0.0030136515852063894,0.011419199407100677,1.1530019044876099,-54.480403900146484,-1.2758649587631226,5.631227970123291,0.9449527263641357,-0.17399129271507263,-0.2369881421327591,-1.3837512731552124,2.3070597648620605,0.3140382766723633
313,54082,54084,0.01204909197986126,0.00819198414683342,1.0364950895309448,-73.52287292480469,1.4312570095062256,5.974992752075195,0.9449527263641357,-0.17399129271507263,-0.2369881421327591,-1.2076442241668701,1.7037630081176758,0.3960267901420593
314,54092,54094,-0.05458032339811325,-0.04212918132543564,1.0126049518585205,-73.12628936767578,3.4207115173339844,8.78643798828125,0.9449527263641357,-0.17399129271507263,-0.2369881421327591,-1.2810591459274292,0.7797378301620483,0.4245806336402893
315,54102,54104,-0.08682861179113388,-0.13964195549488068,1.0659829378128052,-57.491912841796875,1.8550480604171753,11.112996101379395,0.9449527263641357,-0.17399129271507263,-0.2369881421327591,-1.356003761291504,0.11229382455348969,0.511353611946106
316,54112,54114,-0.06732192635536194,-0.20565570890903473,1.0718134641647339,-33.6620979309082,-4.799770832061768,11.712289810180664,0.9254537224769592,-0.16349181532859802,-0.23548822104930878,-1.2286454439163208,-0.03026118129491806,0.7244012951850891
317,54122,54124,-0.09557721018791199,-0.16683262586593628,0.987589418888092,-18.110010147094727,-9.895866394042969,13.6746187210083,0.919454038143158,-0.13949301838874817,-0.22648866474628448,-1.172124981880188,-0.3773498833179474,0.8232890367507935
318,54132,54134,-0.11826419830322266,-0.12634418904781342,0.9246766567230225,-5.196340084075928,-8.568751335144043,14.02956771850586,0.911954402923584,-0.14099295437335968,-0.2189890444278717,-1.1282702684402466,-0.3559921085834503,0.9851846098899841
319,54142,54144,-0.04982500895857811,-0.030479617416858673,0.942545473575592,6.550222873687744,1.2564688920974731,16.69158935546875,0.9134542942047119,-0.13949301838874817,-0.2174891233444214,-1.0889474153518677,-0.43183496594429016,1.1127276420593262
320,54152,54154,-0.09553731232881546,-0.12314480543136597,0.9879886507987976,9.305885314941406,10.26125431060791,16.09540367126465,0.919454038143158,-0.14549271762371063,-0.22648866474628448,-1.189354419708252,-0.14066582918167114,1.3305742740631104
321,54162,54164,-0.11496037989854813,-0.22530366480350494,0.8978747129440308,3.3887596130371094,17.094945907592773,13.885515213012695,0.9179540872573853,-0.11999399960041046,-0.22198890149593353,-1.4039281606674194,-0.14915697276592255,1.4459737539291382
322,54172,54174,-0.030397411435842514,-0.0956900417804718,0.8221385478973389,-13.664904594421387,17.657920837402344,9.75031852722168,0.911954402923584,-0.14699265360832214,-0.2189890444278717,-1.7456620931625366,-0.15533392131328583,1.5615555047988892
323,54182,54184,-0.056105632334947586,-0.003017827868461609,0.873562216758728,-33.658260345458984,10.961843490600586,5.5735273361206055,0.9224538803100586,-0.13649317622184753,-0.2384880781173706,-1.9527276754379272,-0.3599119186401367,1.6370277404785156
324,54192,54194,0.03594585508108139,0.046115048229694366,0.8559971451759338,-32.99090576171875,12.810189247131348,3.2182905673980713,0.9299534559249878,-0.14099295437335968,-0.22498874366283417,-2.1797378063201904,-0.8046205639839172,1.6425241231918335
325,54202,54204,0.013728033751249313,0.018364278599619865,0.9492307305335999,-10.597724914550781,3.6807146072387695,3.263094902038574,0.9239537715911865,-0.14999249577522278,-0.23098844289779663,-2.3342134952545166,-0.838797926902771,1.7381280660629272
326,54212,54214,0.10175023227930069,0.08772438019514084,0.9539907574653625,11.956137657165527,-14.002785682678223,1.8429149389266968,0.9164541363716125,-0.14549271762371063,-0.22648866474628448,-2.062861442565918,-0.875092089176178,1.755168080329895
327,54222,54224,0.028905091807246208,0.09203244745731354,0.9835829734802246,21.452089309692383,-22.229801177978516,1.7438056468963623,0.9344532489776611,-0.16349181532859802,-0.2384880781173706,-1.7784554958343506,-0.6225617527961731,1.808880090713501
328,54232,54234,0.06513085216283798,0.21002987027168274,0.918900728225708,25.179014205932617,-30.347806930541992,1.7143192291259766,0.9314534068107605,-0.16649167239665985,-0.2384880781173706,-1.5340484380722046,-0.31890973448753357,1.8515734672546387
329,54242,54244,0.12231605499982834,0.24589845538139343,0.9226629734039307,20.36687469482422,-33.925106048583984,2.542299509048462,0.9389530420303345,-0.1889905482530594,-0.2369881421327591,-1.2268853187561035,-0.16666939854621887,1.8467940092086792
330,54252,54254,0.2602192163467407,0.30433210730552673,0.8414624929428101,12.343398094177246,-27.391881942749023,3.7771425247192383,0.9434528350830078,-0.16949152946472168,-0.2384880781173706,-1.026276707649231,0.003108606208115816,1.8921056985855103
331,54262,54264,-0.07590024918317795,-0.023039234802126884,1.0131915807724,-0.3895319402217865,-18.493131637573242,3.752769708633423,0.9209539294242859,-0.15599219501018524,-0.23998799920082092,-0.6121792197227478,0.03836715966463089,1.9122601747512817
332,54272,54274,-0.13725247979164124,0.005772883538156748,1.149920105934143,-12.46784782409668,-9.099127769470215,5.453005790710449,0.9464526772499084,-0.17549122869968414,-0.24448777735233307,-0.483027845621109,-0.08633960783481598,1.9423588514328003
333,54282,54284,-0.21269336342811584,-0.0623401515185833,1.0815349817276,-19.393762588500977,6.314495086669922,6.019947528839111,0.9434528350830078,-0.17249137163162231,-0.2294885218143463,-0.46089717745780945,-0.319468230009079,1.97398841381073
334,54292,54294,-0.10294283926486969,-0.05009830370545387,0.9916300177574158,-28.297935485839844,20.430482864379883,5.1790947914123535,0.9494525194168091,-0.17249137163162231,-0.24148792028427124,-0.6160193085670471,-0.6925357580184937,1.9843956232070923
335,54302,54304,-0.07585985213518143,0.005891864653676748,0.9685340523719788,-29.274513244628906,24.913415908813477,2.3047196865081787,0.9404529333114624,-0.15449227392673492,-0.24448777735233307,-0.9156561493873596,-0.8845164179801941,2.0615313053131104
336,54312,54314,-0.040672026574611664,0.011317270807921886,0.9767786860466003,-19.66339111328125,19.57251739501953,0.4560748338699341,0.9449527263641357,-0.14399279654026031,-0.24298784136772156,-1.2743459939956665,-1.3055050373077393,2.020357370376587
337,54322,54324,-0.00692635215818882,0.04261830821633339,1.005861520767212,-0.2708374261856079,6.840188503265381,0.2756689190864563,0.9464526772499084,-0.16649167239665985,-0.2474876195192337,-1.3528707027435303,-1.269853949546814,2.063464879989624
338,54332,54334,-0.13914509117603302,-0.02881411276757717,1.1064571142196655,17.462820053100586,-10.95118522644043,1.0791997909545898,0.9479525685310364,-0.16799159348011017,-0.23398829996585846,-1.2653552293777466,-1.2355294227600098,2.051281690597534
339,54342,54344,-0.1543489545583725,-0.045133162289857864,1.0911459922790527,26.671913146972656,-18.82332420349121,2.79764723777771,0.9419528841972351,-0.16499175131320953,-0.2459876984357834,-1.0237754583358765,-0.8762953877449036,2.112351894378662
340,54352,54354,-0.14211177825927734,-0.06914976239204407,1.0186767578125,23.409526824951172,-22.393047332763672,2.6504714488983154,0.9329533576965332,-0.18299084901809692,-0.2369881421327591,-0.7288474440574646,-0.5700169801712036,2.1520016193389893
341,54362,54364,-0.08923117816448212,-0.02028786949813366,0.9771394729614258,9.311396598815918,-28.624645233154297,-1.0375808477401733,0.9359531998634338,-0.1799909919500351,-0.23398829996585846,-0.27766188979148865,-0.2708350419998169,2.1836559772491455
342,54372,54374,-0.06748910993337631,0.0415768176317215,0.9348790049552917,-4.982239723205566,-34.9556999206543,-7.509699821472168,0.9524523615837097,-0.17249137163162231,-0.2294885218143463,-0.1795557141304016,-0.49120742082595825,2.1013848781585693
343,54382,54384,-0.027330143377184868,0.07019560784101486,0.9652148485183716,-11.185883522033691,-35.66266632080078,-13.948293685913086,0.9479525685310364,-0.16499175131320953,-0.24298784136772156,0.37210434675216675,-0.6191064119338989,1.966055154800415
344,54392,54394,-0.011255200952291489,0.17708005011081696,1.0452566146850586,-1.9280619621276855,-33.482086181640625,-19.271453857421875,0.9554522037506104,-0.16649167239665985,-0.2294885218143463,0.6114783883094788,-0.7562954425811768,1.805639624595642
345,54402,54404,-0.018063396215438843,0.13707607984542847,1.131868600845337,20.959232330322266,-28.5642032623291,-22.85846710205078,0.9629518389701843,-0.18599069118499756,-0.22198890149593353,0.9028090238571167,-0.5982815027236938,1.6237396001815796
346,54412,54414,0.043475788086652756,0.09212160855531693,1.0840189456939697,52.352012634277344,-32.13225173950195,-23.74094009399414,0.9449527263641357,-0.17399129271507263,-0.23998799920082092,1.3909121751785278,-0.26222699880599976,1.3609609603881836
347,54422,54424,0.0669262707233429,0.07989096641540527,0.8932632207870483,91.60212707519531,-32.287113189697266,-19.080514907836914,0.9419528841972351,-0.17699114978313446,-0.227988600730896,1.469470500946045,0.3948172628879547,1.161244511604309
348,54432,54434,-0.02945135347545147,0.08213506639003754,1.0344104766845703,120.53340911865234,-37.077781677246094,-11.321409225463867,0.9494525194168091,-0.18749062716960907,-0.25348731875419617,1.8527066707611084,1.843355655670166,1.0523611307144165
349,54442,54444,0.01206910703331232,0.14649933576583862,1.0580706596374512,126.5499496459961,-24.010364532470703,-5.729008674621582,0.950952410697937,-0.18599069118499756,-0.2459876984357834,2.1911284923553467,2.746962547302246,0.9138763546943665
350,54452,54454,-0.029964575543999672,0.11178959161043167,1.0080150365829468,114.32615661621094,0.008834640495479107,1.9186129570007324,0.9449527263641357,-0.20098994672298431,-0.24298784136772156,2.4706757068634033,4.343000411987305,0.8880168199539185
351,54462,54464,-0.051470257341861725,-0.0336642749607563,0.9101754426956177,88.10640716552734,19.05672264099121,8.05881404876709,0.9419528841972351,-0.22198890149593353,-0.23398829996585846,2.3064117431640625,5.330533981323242,0.9505735039710999
352,54472,54474,-0.05657704547047615,-0.17177990078926086,0.8564414978027344,35.09220504760742,30.337688446044922,14.009136199951172,0.9524523615837097,-0.2084895670413971,-0.23248836398124695,1.9285811185836792,5.7116289138793945,1.0930242538452148
353,54482,54484,0.014469929970800877,-0.12275537848472595,0.8955176472663879,-28.69679069519043,37.41177749633789,20.108871459960938,0.9479525685310364,-0.19799008965492249,-0.23098844289779663,1.5205165147781372,5.562467098236084,1.3096379041671753
354,54492,54494,-0.07916296273469925,-0.09706147015094757,0.9201036691665649,-80.98934173583984,41.24301528930664,24.86554718017578,0.9539523124694824,-0.19799008965492249,-0.2369881421327591,1.245254635810852,4.969478130340576,1.5777729749679565
355,54502,54504,-0.12732529640197754,-0.11414998024702072,0.9268444776535034,-122.8642578125,51.8372917175293,31.0017147064209,0.9749512076377869,-0.20398980379104614,-0.26098695397377014,0.5347149968147278,3.7960925102233887,1.8501075506210327
356,54512,54514,-0.04126675799489021,0.03340062499046326,1.0067598819732666,-142.28453063964844,56.14313507080078,33.38298797607422,0.9629518389701843,-0.2189890444278717,-0.24898754060268402,-0.11882376670837402,2.2791202068328857,2.183058738708496
357,54522,54524,-0.036849524825811386,0.09087397158145905,1.0199428796768188,-135.06027221679688,50.76511764526367,36.2485466003418,0.9704514741897583,-0.23248836398124695,-0.25048747658729553,-0.6120948791503906,1.1925758123397827,2.526522159576416
358,54532,54534,0.011805452406406403,0.05633280426263809,1.018593192100525,-108.51393127441406,42.453800201416016,38.369388580322266,0.9809509515762329,-0.2099895030260086,-0.25198739767074585,-1.2054773569107056,-0.42625412344932556,2.889695644378662
359,54542,54544,0.017347266897559166,0.09467606991529465,1.0496665239334106,-73.47283172607422,31.20905303955078,37.57371520996094,0.9614518880844116,-0.19649016857147217,-0.25348731875419617,-1.447891116142273,-0.8282830119132996,3.282958745956421
360,54552,54554,-0.06909103691577911,-0.08318904787302017,1.0783427953720093,-33.8668327331543,11.54910945892334,32.81525802612305,0.9599519968032837,-0.19199039041996002,-0.2459876984357834,-1.8133647441864014,-1.458749771118164,3.594149112701416
361,54562,54564,-0.025555238127708435,-0.049067940562963486,1.0631197690963745,-0.5932663083076477,-12.696783065795898,27.45716667175293,0.9494525194168091,-0.199490025639534,-0.24148792028427124,-1.7120250463485718,-1.3726739883422852,3.916076421737671
362,54572,54574,-0.00919960904866457,0.18929244577884674,1.046085238456726,19.115467071533203,-27.973169326782227,24.288711547851562,0.9644517302513123,-0.21448926627635956,-0.2564871609210968,-1.3664650917053223,-1.2573270797729492,4.22141170501709
363,54582,54584,0.07387068122625351,0.11481262743473053,1.0311903953552246,25.459274291992188,-36.89094161987305,19.846858978271484,0.9614518880844116,-0.21148942410945892,-0.2564871609210968,-0.9188815355300903,-0.9108640551567078,4.482690811157227
364,54592,54594,-0.007222258951514959,0.027304446324706078,1.0301963090896606,20.201175689697266,-45.707820892333984,15.801265716552734,0.9479525685310364,-0.20698964595794678,-0.2579870820045471,-0.6080750823020935,-0.6231033205986023,4.65276575088501
365,54602,54604,-0.06868410110473633,-0.011565512977540493,1.0566457509994507,6.100935935974121,-47.79740524291992,13.318709373474121,0.965951681137085,-0.20698964595794678,-0.25198739767074585,-0.023806318640708923,-0.409003883600235,4.825506210327148
366,54612,54614,-0.044597920030355453,0.04759368672966957,1.0932329893112183,-7.375494480133057,-41.518455505371094,9.012019157409668,0.9629518389701843,-0.20698964595794678,-0.24298784136772156,0.17688889801502228,-0.5716752409934998,4.913869380950928
367,54622,54624,-0.14617428183555603,-0.05460043624043465,1.092031478881836,-17.391679763793945,-23.583837509155273,3.1854779720306396,0.9614518880844116,-0.199490025639534,-0.23548822104930878,0.809496283531189,-0.5955827236175537,5.00834321975708
368,54632,54634,-0.09506846964359283,-0.0379156656563282,1.0792250633239746,-7.3789896965026855,3.419055700302124,-3.304960250854492,0.9674516320228577,-0.1904904693365097,-0.24448777735233307,0.7359625101089478,-1.1018602848052979,4.9895172119140625
369,54642,54644,-0.007998105138540268,0.03159593790769577,1.1193511486053467,17.354536056518555,29.48508644104004,-5.952905178070068,0.9539523124694824,-0.18599069118499756,-0.2369881421327591,0.4971226453781128,-1.0292857885360718,4.935567855834961
370,54652,54654,-0.0040320525877177715,-0.032764069736003876,1.0735375881195068,44.2236328125,40.772857666015625,-5.413906574249268,0.9599519968032837,-0.1889905482530594,-0.24898754060268402,0.04691549763083458,-0.4674351215362549,4.871139049530029
371,54662,54664,-0.08875122666358948,-0.008756676688790321,1.063767910003662,58.920806884765625,37.48488235473633,-3.67649507522583,0.9539523124694824,-0.18299084901809692,-0.25198739767074585,-0.35878902673721313,0.1763322502374649,4.823127746582031
372,54672,54674,-0.059640951454639435,-0.019782831892371178,1.0500068664550781,56.99201202392578,24.38633918762207,0.2339562028646469,0.9404529333114624,-0.1904904693365097,-0.2474876195192337,-0.6368288993835449,0.7622220516204834,4.808511257171631
373,54682,54684,-0.1708633452653885,-0.06855186820030212,1.0788218975067139,32.93373107910156,0.2002868950366974,1.8185265064239502,0.950952410697937,-0.18299084901809692,-0.23998799920082092,-0.8453897833824158,0.7698914408683777,4.817483425140381
374,54692,54694,-0.13364650309085846,-0.010104690678417683,1.0673900842666626,-10.296603202819824,-25.65315055847168,4.3678879737854,0.9554522037506104,-0.19349032640457153,-0.23248836398124695,-0.5948765873908997,1.0550905466079712,4.837613105773926
375,54702,54704,-0.04888755455613136,-0.0124861691147089,1.0502158403396606,-45.18098068237305,-41.93717575073242,0.9622201323509216,0.9554522037506104,-0.199490025639534,-0.2384880781173706,-0.04812939837574959,0.6933725476264954,4.851048946380615
376,54712,54714,-0.11126518994569778,-0.07484404742717743,1.0596542358398438,-67.34767150878906,-45.779571533203125,-1.9266239404678345,0.965951681137085,-0.20398980379104614,-0.2549872398376465,0.332958847284317,-0.12206923961639404,4.842066764831543
377,54722,54724,-0.1834629774093628,-0.0648086816072464,1.1202727556228638,-84.69161987304688,-40.566322326660156,-5.075631141662598,0.9749512076377869,-0.2099895030260086,-0.24298784136772156,0.8335862159729004,-0.760497510433197,4.818074703216553
378,54732,54734,-0.17215247452259064,0.011839778162539005,1.1182646751403809,-76.30320739746094,-29.922508239746094,-10.727500915527344,0.9674516320228577,-0.1814909279346466,-0.25348731875419617,1.1369960308074951,-1.2801146507263184,4.752538204193115
379,54742,54744,-0.08193724602460861,-0.021282169967889786,1.073215126991272,-43.36290740966797,-23.26136589050293,-16.69976806640625,0.9839507937431335,-0.17699114978313446,-0.25198739767074585,1.472883939743042,-2.357285737991333,4.629236221313477
380,54752,54754,-0.12688156962394714,-0.14301510155200958,1.0174767971038818,-2.587908983230591,-14.884424209594727,-20.79037857055664,0.9524523615837097,-0.16649167239665985,-0.2294885218143463,1.4955251216888428,-2.175837755203247,4.44407320022583
381,54762,54764,-0.09284200519323349,0.07666975259780884,0.9454815983772278,39.104469299316406,-2.1116902828216553,-22.665973663330078,0.9449527263641357,-0.170991450548172,-0.227988600730896,1.7131452560424805,-1.9555535316467285,4.22020149230957
382,54772,54774,0.05235734581947327,0.17257779836654663,0.9626926779747009,69.97846221923828,13.639302253723145,-22.200767517089844,0.9479525685310364,-0.17399129271507263,-0.23098844289779663,1.578140377998352,-1.1246734857559204,3.9807655811309814
383,54782,54784,0.032807789742946625,0.04326007142663002,0.9811995029449463,83.65704345703125,23.385828018188477,-19.628368377685547,0.9479525685310364,-0.170991450548172,-0.2369881421327591,1.2987964153289795,-0.5601342916488647,3.795023202896118
384,54792,54794,-0.038158759474754333,-0.00469535868614912,0.9620004296302795,74.30313873291016,28.10215950012207,-17.132905960083008,0.9449527263641357,-0.17699114978313446,-0.23398829996585846,0.9342647194862366,0.3467978835105896,3.6115996837615967
385,54802,54804,0.001473052310757339,0.017780382186174393,0.9958261847496033,50.444339752197266,28.596044540405273,-15.181589126586914,0.9359531998634338,-0.1799909919500351,-0.2369881421327591,0.7835009098052979,0.7143259048461914,3.46417498588562
386,54812,54814,0.10833082348108292,0.13078446686267853,0.9979592561721802,17.094085693359375,22.10401153564453,-12.426401138305664,0.9479525685310364,-0.15899205207824707,-0.23398829996585846,0.35663869976997375,1.3355709314346313,3.316657543182373
387,54822,54824,0.13467071950435638,0.18738892674446106,0.9678871035575867,-20.48438835144043,11.72830867767334,-8.806771278381348,0.9419528841972351,-0.15899205207824707,-0.23398829996585846,0.29178744554519653,1.3643851280212402,3.198019027709961
388,54832,54834,0.05683300644159317,0.011216736398637295,0.9196911454200745,-58.24591827392578,1.000510334968567,-6.422232627868652,0.9479525685310364,-0.17699114978313446,-0.23398829996585846,0.3505275845527649,0.7631818056106567,3.1412742137908936
389,54842,54844,-0.02484278939664364,-0.01823984459042549,0.912908673286438,-77.22794342041016,-2.9974284172058105,-5.279685974121094,0.950952410697937,-0.18599069118499756,-0.23398829996585846,0.3739491403102875,-0.10396859794855118,3.103886127471924
390,54852,54854,-0.0903182327747345,-0.06714803725481033,0.8917384743690491,-85.0412368774414,-6.635348320007324,-4.054592132568359,0.9479525685310364,-0.17699114978313446,-0.2369881421327591,0.3767559230327606,-0.6950555443763733,3.0261788368225098
391,54862,54864,-0.037575386464595795,-0.10401608049869537,0.9576901793479919,-80.04515838623047,-8.616533279418945,-4.31463098526001,0.965951681137085,-0.1799909919500351,-0.2459876984357834,0.42492541670799255,-1.7821934223175049,3.0179295539855957
392,54872,54874,-0.09362214803695679,-0.11283349245786667,0.9786965250968933,-66.60692596435547,-12.60970687866211,-5.238377571105957,0.9404529333114624,-0.16649167239665985,-0.24148792028427124,0.5305733680725098,-2.234421968460083,2.938350200653076
393,54882,54884,-0.025232527405023575,0.026735465973615646,1.0231683254241943,-45.52269744873047,-14.109347343444824,-7.553359031677246,0.965951681137085,-0.1619918942451477,-0.23098844289779663,0.6458319425582886,-2.7731130123138428,2.8839011192321777
394,54892,54894,-0.046616241335868835,0.06037662923336029,1.1029285192489624,-23.253469467163086,-14.44820785522461,-10.894725799560547,0.9599519968032837,-0.15599219501018524,-0.22498874366283417,0.9022274017333984,-3.0370595455169678,2.7752292156219482
395,54902,54904,-0.04641178622841835,0.04566887393593788,1.1176321506500244,2.9003002643585205,-25.295257568359375,-16.164777755737305,0.9599519968032837,-0.15599219501018524,-0.22498874366283417,0.9381341338157654,-2.934767007827759,2.648231267929077
396,54912,54914,-0.07635292410850525,-0.006312873214483261,1.114025592803955,31.254365921020508,-31.424592971801758,-18.500783920288086,0.9599519968032837,-0.15599219501018524,-0.22498874366283417,1.366258978843689,-2.969454765319824,2.487647294998169
397,54922,54924,-0.08075498044490814,-0.162913516163826,1.0703191757202148,70.4109878540039,-24.790081024169922,-18.564111709594727,0.9599519968032837,-0.15599219501018524,-0.22498874366283417,1.6157559156417847,-2.5931499004364014,2.3439877033233643
398,54932,54934,-0.08653440326452255,-0.11181309074163437,1.0409282445907593,103.36991882324219,-5.404424667358398,-15.163311004638672,0.9644517302513123,-0.17549122869968414,-0.2384880781173706,1.9471628665924072,-1.4520853757858276,2.09702467918396
399,54942,54944,-0.038025807589292526,0.001184244523756206,0.9978194832801819,116.35682678222656,19.009838104248047,-12.454368591308594,0.9524523615837097,-0.19649016857147217,-0.24148792028427124,1.7894283533096313,-0.027671830728650093,1.939820408821106
400,54952,54954,-0.04001610726118088,-0.031333159655332565,0.9951218962669373,103.00225067138672,43.81293487548828,-10.41066837310791,0.9614518880844116,-0.18449077010154724,-0.2474876195192337,1.3447800874710083,0.543007493019104,1.9641114473342896
401,54962,54964,-0.018884537741541862,-0.05695553869009018,0.9760116338729858,68.3682632446289,57.40554428100586,-7.946875095367432,0.9464526772499084,-0.1814909279346466,-0.2384880781173706,0.6300618052482605,1.6956367492675781,1.8920869827270508
402,54972,54974,0.030195340514183044,-0.05833787843585014,0.9204686284065247,15.145242691040039,56.93232345581055,-5.465775966644287,0.9299534559249878,-0.17399129271507263,-0.2369881421327591,0.18193699419498444,1.7273881435394287,1.8782016038894653
403,54982,54984,0.06277410686016083,-0.018939480185508728,0.862833559513092,-38.62238311767578,43.61656188964844,-2.7027714252471924,0.9419528841972351,-0.18599069118499756,-0.23998799920082092,-0.5619853138923645,1.6935088634490967,1.8909294605255127
404,54992,54994,-0.06795746088027954,-0.08350789546966553,0.9391815662384033,-76.93775939941406,24.40109634399414,-0.038907989859580994,0.965951681137085,-0.1799909919500351,-0.2459876984357834,-0.6923472881317139,1.089550495147705,1.8519355058670044
405,55002,55004,-0.19277240335941315,-0.12197864800691605,1.0624202489852905,-97.04586791992188,1.9123514890670776,2.2627930641174316,0.9569521546363831,-0.19199039041996002,-0.24298784136772156,-0.759196400642395,-0.019228391349315643,1.8866465091705322
406,55012,55014,-0.07942713797092438,-0.010203493759036064,1.057874083518982,-94.5673828125,-18.129188537597656,2.191807508468628,0.958452045917511,-0.19649016857147217,-0.24448777735233307,-0.6652442216873169,-1.1377339363098145,1.9240511655807495
407,55022,55024,-0.09928390383720398,-0.061903443187475204,1.143380880355835,-74.6345443725586,-43.1465950012207,0.036291059106588364,0.9764511585235596,-0.1904904693365097,-0.2474876195192337,-0.21082048118114471,-1.6246517896652222,1.890848159790039
408,55032,55034,-0.08260120451450348,-0.10652033239603043,1.0740896463394165,-42.143917083740234,-62.365264892578125,-1.6724047660827637,0.9704514741897583,-0.19349032640457153,-0.2474876195192337,0.403522253036499,-2.298084020614624,1.9010844230651855
409,55042,55044,-0.08094342052936554,-0.07968354970216751,0.9945226311683655,-4.498249053955078,-68.61831665039062,-3.9571878910064697,0.9719513654708862,-0.20098994672298431,-0.2459876984357834,0.9591463208198547,-2.4381332397460938,1.904459834098816
410,55052,55054,-0.056540947407484055,-0.01119357068091631,1.0428310632705688,34.66700744628906,-64.16776275634766,-4.929855823516846,0.9629518389701843,-0.1889905482530594,-0.23998799920082092,1.7268697023391724,-2.1278018951416016,1.8575332164764404
411,55062,55064,-0.030728571116924286,0.07869057357311249,1.0859854221343994,71.5596923828125,-56.981849670410156,-1.9867515563964844,0.965951681137085,-0.1889905482530594,-0.23998799920082092,2.3799760341644287,-1.3365079164505005,1.8079941272735596
412,55072,55074,-0.05150492116808891,0.05622153356671333,1.0515496730804443,97.51309967041016,-51.59628677368164,-0.3190741240978241,0.965951681137085,-0.18599069118499756,-0.23398829996585846,2.9208478927612305,-0.6616092324256897,1.8255668878555298
413,55082,55084,-0.05919085443019867,-0.013160902075469494,0.9769569635391235,100.48560333251953,-44.5816650390625,-0.7754805684089661,0.9704514741897583,-0.19349032640457153,-0.25048747658729553,3.565730094909668,0.6413622498512268,1.7430379390716553
414,55092,55094,-0.1583140790462494,-0.05731493607163429,1.0863211154937744,91.10877227783203,-21.95248794555664,-0.7622760534286499,0.9704514741897583,-0.19649016857147217,-0.23548822104930878,3.820235252380371,1.4597480297088623,1.78312349319458
415,55102,55104,-0.2266552746295929,-0.19556912779808044,1.1022816896438599,72.84544372558594,3.7023863792419434,-3.632392644882202,0.9614518880844116,-0.18749062716960907,-0.24148792028427124,3.945401668548584,2.1084699630737305,1.8006263971328735
416,55112,55114,-0.24676820635795593,-0.2556736171245575,1.0844333171844482,39.44672775268555,27.629613876342773,-8.082983016967773,0.9449527263641357,-0.18599069118499756,-0.22198890149593353,3.7530603408813477,2.394672155380249,1.8405615091323853
417,55122,55124,-0.2255449742078781,-0.35568344593048096,1.0102468729019165,1.7939759492874146,55.249969482421875,-11.685005187988281,0.9614518880844116,-0.16349181532859802,-0.22048896551132202,3.215252161026001,2.7004640102386475,1.7468328475952148
418,55132,55134,-0.24165669083595276,-0.42362773418426514,0.9557620286941528,-34.54418182373047,86.44774627685547,-10.15714168548584,0.9524523615837097,-0.1604919731616974,-0.23248836398124695,2.1807947158813477,2.403491258621216,1.735949993133545
419,55142,55144,-0.04151510074734688,-0.1964549571275711,0.8636894226074219,-51.80042266845703,105.56212615966797,-6.805427551269531,0.9434528350830078,-0.1814909279346466,-0.23248836398124695,1.3049650192260742,2.124190092086792,1.6361695528030396
420,55152,55154,0.04303879290819168,0.0036290965508669615,0.8680288195610046,-55.75208282470703,106.82173919677734,-2.5677711963653564,0.9404529333114624,-0.16949152946472168,-0.22348882257938385,-0.13754448294639587,1.575606346130371,1.6205754280090332
421,55162,55164,-0.06491303443908691,0.02205398678779602,0.9550025463104248,-50.340248107910156,89.93879699707031,0.15448082983493805,0.9389530420303345,-0.13499325513839722,-0.23098844289779663,-0.8239310383796692,1.111305594444275,1.6357170343399048
422,55172,55174,-0.09619561582803726,-0.09108152240514755,0.9520151019096375,-43.030372619628906,55.78132247924805,2.201289653778076,0.9359531998634338,-0.14699265360832214,-0.22198890149593353,-1.7173631191253662,0.5414005517959595,1.667803168296814
423,55182,55184,-0.10309737175703049,-0.08442838490009308,0.9666891694068909,-32.89897918701172,12.78110408782959,2.976315498352051,0.9239537715911865,-0.15599219501018524,-0.23398829996585846,-1.9924352169036865,0.08253774791955948,1.7310349941253662
424,55192,55194,0.03712444379925728,0.005339078605175018,1.000575065612793,-18.96165657043457,-31.288040161132812,1.9980717897415161,0.9404529333114624,-0.16649167239665985,-0.2294885218143463,-1.8312231302261353,-0.005496581085026264,1.7357707023620605
425,55202,55204,-0.05169377475976944,-0.06438808888196945,1.0068554878234863,-2.1735761165618896,-61.93138885498047,1.9470844268798828,0.9494525194168091,-0.1814909279346466,-0.2384880781173706,-1.1181130409240723,-0.24017593264579773,1.8097119331359863
426,55212,55214,-0.07099640369415283,-0.03396769240498543,0.9416970014572144,12.929726600646973,-76.39871978759766,2.7295947074890137,0.9464526772499084,-0.199490025639534,-0.2294885218143463,-0.37730929255485535,0.17751285433769226,1.7964619398117065
427,55222,55224,-0.06571713835000992,-0.04960515722632408,0.9404208064079285,19.269357681274414,-72.08775329589844,4.2926249504089355,0.9449527263641357,-0.18599069118499756,-0.227988600730896,0.4819793105125427,0.19991275668144226,1.8504319190979004
428,55232,55234,-0.0890086218714714,-0.13711878657341003,0.9312369227409363,22.342201232910156,-47.920413970947266,5.434704780578613,0.9569521546363831,-0.1889905482530594,-0.227988600730896,0.9934969544410706,0.39801931381225586,1.8859062194824219
429,55242,55244,-0.13097302615642548,-0.14587049186229706,0.953621506690979,21.19133949279785,-9.635666847229004,5.205906391143799,0.950952410697937,-0.17399129271507263,-0.227988600730896,1.1795728206634521,0.7348793148994446,1.9155023097991943
430,55252,55254,-0.1199246421456337,-0.18769584596157074,0.9431390762329102,15.802763938903809,33.74375915527344,4.191892147064209,0.9479525685310364,-0.15899205207824707,-0.227988600730896,1.0363730192184448,0.9023799896240234,1.9698200225830078
431,55262,55264,-0.11443183571100235,-0.24341937899589539,0.9290708899497986,5.518235683441162,67.38917541503906,2.7200591564178467,0.9479525685310364,-0.16799159348011017,-0.2189890444278717,0.5812530517578125,1.0741642713546753,2.0149292945861816
432,55272,55274,-0.08759655058383942,-0.11141451448202133,0.9158706068992615,-9.435660362243652,80.8808364868164,1.866507649421692,0.9329533576965332,-0.170991450548172,-0.2369881421327591,-0.387900710105896,1.0059846639633179,2.034963607788086
433,55282,55284,0.011670811101794243,0.0009725948330014944,0.9513853788375854,-21.48828887939453,73.48394775390625,2.74336576461792,0.9404529333114624,-0.16949152946472168,-0.2294885218143463,-0.9096099734306335,0.6800931692123413,2.10748028755188
434,55292,55294,-0.030815409496426582,-0.057569440454244614,0.9552287459373474,-31.612037658691406,48.82223892211914,3.7747910022735596,0.9254537224769592,-0.14849257469177246,-0.23548822104930878,-1.7621296644210815,0.33207178115844727,2.1249659061431885
435,55302,55304,0.011142143979668617,0.03420671820640564,0.9489359259605408,-28.383073806762695,15.405628204345703,3.846924304962158,0.9209539294242859,-0.17699114978313446,-0.2369881421327591,-2.0980000495910645,0.037678882479667664,2.1665310859680176
436,55312,55314,-0.08558438718318939,-0.06143604591488838,0.9893170595169067,-20.225500106811523,-9.683241844177246,2.3094141483306885,0.9344532489776611,-0.17549122869968414,-0.22048896551132202,-1.9129568338394165,-0.3073277473449707,2.2209649085998535
437,55322,55324,-0.19113153219223022,-0.2424313724040985,0.9856880307197571,-12.052947998046875,-27.150165557861328,0.4010239839553833,0.9479525685310364,-0.18299084901809692,-0.24298784136772156,-1.5935381650924683,-0.3580962121486664,2.248544216156006
438,55332,55334,-0.24862268567085266,-0.34665143489837646,0.9545714855194092,-10.38631534576416,-41.92931365966797,-1.717986822128296,0.9494525194168091,-0.1814909279346466,-0.24448777735233307,-1.3494666814804077,-0.1041502133011818,2.2649614810943604
439,55342,55344,-0.1367383897304535,-0.18926942348480225,0.8779481053352356,-9.811163902282715,-49.20515823364258,-0.6326538920402527,0.9539523124694824,-0.17699114978313446,-0.227988600730896,-0.6551854610443115,-0.27402085065841675,2.2702088356018066
440,55352,55354,-0.07320504635572433,-0.08153072744607925,0.7939823865890503,-7.957064628601074,-43.37845230102539,-1.6556891202926636,0.965951681137085,-0.1889905482530594,-0.25198739767074585,-0.5605741143226624,-0.3416711390018463,2.2287771701812744
441,55362,55364,-0.06085940822958946,-0.07013271003961563,0.774175763130188,-11.48837947845459,-27.737197875976562,-4.215367317199707,0.9434528350830078,-0.17549122869968414,-0.2384880781173706,-0.031202703714370728,-0.35258230566978455,2.226292371749878
442,55372,55374,-0.029648568481206894,-0.09471115469932556,0.8312525153160095,-15.512253761291504,-11.773430824279785,-8.255585670471191,0.9539523124694824,-0.16799159348011017,-0.24298784136772156,-0.010127062909305096,-0.5423774719238281,2.1455299854278564
443,55382,55384,-0.07619983702898026,-0.09117081761360168,0.9294436573982239,-8.220429420471191,2.7244741916656494,-13.553189277648926,0.950952410697937,-0.1619918942451477,-0.22498874366283417,0.06514173746109009,-0.7018687129020691,2.028264045715332
444,55392,55394,-0.15289552509784698,-0.1634349375963211,0.9832761883735657,8.825008392333984,19.03404426574707,-16.958784103393555,0.9329533576965332,-0.16799159348011017,-0.24298784136772156,0.01920185424387455,-0.7595539093017578,1.8602368831634521
445,55402,55404,-0.19909751415252686,-0.15344218909740448,0.977073073387146,26.948972702026367,32.41902542114258,-17.91408348083496,0.9449527263641357,-0.16799159348011017,-0.22498874366283417,-0.2455727607011795,-0.49052906036376953,1.6933881044387817
446,55412,55414,-0.17467916011810303,-0.1346110701560974,0.9425081014633179,36.828468322753906,39.00686264038086,-18.216289520263672,0.9314534068107605,-0.17849107086658478,-0.2384880781173706,-0.8869199156761169,0.017847901210188866,1.5302581787109375
447,55422,55424,-0.19592690467834473,-0.10671267658472061,0.9064377546310425,36.349205017089844,39.00206756591797,-18.75782585144043,0.9314534068107605,-0.17249137163162231,-0.2474876195192337,-1.4249510765075684,0.38507863879203796,1.340791940689087
448,55432,55434,-0.0708613395690918,-0.06633295863866806,0.913602352142334,24.484071731567383,36.123966217041016,-16.8731689453125,0.9419528841972351,-0.19499024748802185,-0.227988600730896,-1.7099878787994385,0.8840866684913635,1.1988999843597412
449,55442,55444,0.002738413168117404,0.039943695068359375,1.0168044567108154,5.908566951751709,17.78756332397461,-14.865504264831543,0.9449527263641357,-0.1889905482530594,-0.2459876984357834,-2.216916561126709,1.0331310033798218,1.0468500852584839
450,55452,55454,0.05014817416667938,0.11321733146905899,0.9854384064674377,-17.322059631347656,-2.4353950023651123,-11.10756778717041,0.9359531998634338,-0.1799909919500351,-0.24298784136772156,-2.0139150619506836,0.7807424664497375,0.8912870287895203
451,55462,55464,-0.03583458438515663,-0.08074469864368439,0.9813619256019592,-39.20488739013672,-23.015674591064453,-8.784027099609375,0.9629518389701843,-0.19199039041996002,-0.23998799920082092,-1.7941076755523682,0.13088014721870422,0.7173672318458557
452,55472,55474,-0.07042749971151352,-0.19364655017852783,1.02006196975708,-52.42826461791992,-40.926937103271484,-8.811649322509766,0.9554522037506104,-0.1904904693365097,-0.2474876195192337,-1.4744611978530884,-0.1257028877735138,0.6814287900924683
453,55482,55484,-0.002578909508883953,-0.02054375596344471,1.033920168876648,-55.71567153930664,-42.71480941772461,-7.726418495178223,0.9569521546363831,-0.20098994672298431,-0.2669866383075714,-0.9027754068374634,-0.8453880548477173,0.5633565187454224
454,55492,55494,0.10013771802186966,0.03287498280405998,0.9867261052131653,-49.430397033691406,-35.81515884399414,-7.117749214172363,0.9569521546363831,-0.18599069118499756,-0.2459876984357834,-0.6272215247154236,-1.5979915857315063,0.43179240822792053
455,55502,55504,0.014032413251698017,0.04727177321910858,0.9766268134117126,-31.64244842529297,-20.60851287841797,-6.246878147125244,0.9734513163566589,-0.1814909279346466,-0.25348731875419617,-0.29808613657951355,-1.5819023847579956,0.49240681529045105
456,55512,55514,-0.04629988968372345,0.023041456937789917,1.0681852102279663,-11.435508728027344,-9.159496307373047,-6.314024448394775,0.9629518389701843,-0.18599069118499756,-0.24898754060268402,-0.29059675335884094,-1.8502172231674194,0.4160609245300293
457,55522,55524,-0.03469827026128769,-0.014063894748687744,1.063533067703247,10.228157997131348,5.22975492477417,-4.948313236236572,0.9569521546363831,-0.1619918942451477,-0.24298784136772156,-0.2998305559158325,-1.8571141958236694,0.36053526401519775
458,55532,55534,-0.042059771716594696,-0.10476472228765488,1.060407280921936,21.89369010925293,12.736266136169434,-4.055563449859619,0.9569521546363831,-0.17399129271507263,-0.24898754060268402,-0.4109622538089752,-1.5504051446914673,0.34623005986213684
459,55542,55544,-0.07106782495975494,-0.10637558251619339,1.07156240940094,27.4672908782959,13.790738105773926,-3.8538730144500732,0.950952410697937,-0.17699114978313446,-0.2459876984357834,-0.5988297462463379,-1.3157423734664917,0.30228954553604126
460,55552,55554,-0.0842885971069336,-0.15396055579185486,0.9999164342880249,20.75647735595703,11.715069770812988,-2.7567269802093506,0.9359531998634338,-0.1799909919500351,-0.2369881421327591,-0.7806867361068726,-1.0635056495666504,0.27056631445884705
461,55562,55564,-0.16062462329864502,-0.277042418718338,0.9728099703788757,8.473689079284668,0.4871942698955536,-2.971010684967041,0.9524523615837097,-0.16949152946472168,-0.2294885218143463,-0.8132086992263794,-0.7983968257904053,0.2609027326107025
462,55572,55574,-0.04882313311100006,-0.22217914462089539,1.003354549407959,-6.485091209411621,-13.83190631866455,-3.7828617095947266,0.9479525685310364,-0.1619918942451477,-0.23398829996585846,-0.7121388912200928,-0.8574983477592468,0.2093496024608612
463,55582,55584,0.021172838285565376,-0.05792888253927231,0.9756129384040833,-13.08413314819336,-22.411846160888672,-4.340655326843262,0.9629518389701843,-0.170991450548172,-0.2369881421327591,-0.4199150800704956,-1.0156644582748413,0.1425940841436386
464,55592,55594,0.03721540421247482,0.011262407526373863,0.9946509003639221,-10.102903366088867,-22.479101181030273,-5.112872123718262,0.9479525685310364,-0.17399129271507263,-0.23998799920082092,-0.19627197086811066,-1.228286623954773,0.07567034661769867
465,55602,55604,0.020213885232806206,0.031145548447966576,0.9973493814468384,-5.594101905822754,-17.636110305786133,-5.302670001983643,0.9479525685310364,-0.1619918942451477,-0.23998799920082092,-0.08064284920692444,-1.3004250526428223,0.03941885009407997
466,55612,55614,0.05574462190270424,0.09086841344833374,0.9499178528785706,6.244277477264404,-15.813801765441895,-4.415957450866699,0.9494525194168091,-0.17549122869968414,-0.2564871609210968,-0.03987972438335419,-1.1698646545410156,0.03210604935884476
467,55622,55624,0.2007659673690796,0.19565153121948242,0.9159197807312012,22.91741943359375,-22.83492088317871,-3.032193899154663,0.9464526772499084,-0.16649167239665985,-0.23548822104930878,-0.04156031832098961,-1.045649766921997,0.01894097588956356
468,55632,55634,0.10751776397228241,0.12838366627693176,1.0070441961288452,32.93436050415039,-27.600250244140625,-1.310075044631958,0.9704514741897583,-0.16649167239665985,-0.23548822104930878,0.25275078415870667,-0.5971351861953735,0.018214276060461998
469,55642,55644,-0.0976279005408287,-0.07545880973339081,1.043819785118103,22.91806411743164,-22.5380916595459,0.7775147557258606,0.950952410697937,-0.16499175131320953,-0.23998799920082092,0.46201425790786743,-0.26925092935562134,0.031678974628448486
470,55652,55654,-0.003854337614029646,0.04876019060611725,1.0716283321380615,7.74974250793457,-17.882431030273438,1.5260846614837646,0.9524523615837097,-0.16949152946472168,-0.23548822104930878,0.8547540903091431,-0.14813461899757385,0.003920271061360836
471,55662,55664,-0.0008896358776837587,0.10564851015806198,1.1170753240585327,-14.442225456237793,-7.985006809234619,3.1898117065429688,0.9614518880844116,-0.19349032640457153,-0.24148792028427124,1.0329960584640503,-0.2807484269142151,0.009724823758006096
472,55672,55674,-0.11328466236591339,-0.052988216280937195,1.0621304512023926,-31.098451614379883,2.1536810398101807,3.8081777095794678,0.9749512076377869,-0.1799909919500351,-0.23998799920082092,0.9756648540496826,-0.6403539180755615,0.04523148387670517
473,55682,55684,-0.12708623707294464,-0.0722234919667244,1.1062389612197876,-43.63527297973633,13.133706092834473,3.3064687252044678,0.9689515233039856,-0.17399129271507263,-0.24898754060268402,0.9747321605682373,-1.1958410739898682,0.06572369486093521
474,55692,55694,-0.1533614844083786,-0.09918462485074997,1.123394250869751,-54.28976058959961,16.673118591308594,3.035344362258911,0.9704514741897583,-0.16349181532859802,-0.24448777735233307,0.7322335243225098,-1.7050379514694214,0.10995757579803467
