,gyro.x,gyro.y,gyro.z,stabilizer.pitch,stabilizer.roll,stabilizer.yaw,label
0,0.031721554696559906,-0.01144352275878191,0.011977200396358967,0.4331326484680176,-1.0927494764328003,-0.005029615014791489,1
1,0.03289707377552986,0.028742462396621704,0.03062392957508564,0.4218798875808716,-1.1754488945007324,-0.004876317456364632,1
2,-0.015257427468895912,-0.0014358985936269164,0.011014055460691452,0.4776545763015747,-1.107111930847168,-0.0035024506505578756,1
3,-0.21053804457187653,-0.019011937081813812,0.053209640085697174,0.453836053609848,-1.0582261085510254,-0.004308185540139675,1
4,0.017527788877487183,0.03029697947204113,-0.03292282298207283,0.17512580752372742,-1.1526274681091309,-0.009802109561860561,1
5,-0.032630909234285355,-0.01977759227156639,-0.025397423654794693,0.2961171865463257,-1.2218544483184814,-0.007786159869283438,1
6,-0.017029691487550735,0.037833310663700104,0.010674674063920975,0.38624218106269836,-1.0759459733963013,-0.005566229112446308,1
7,-0.13219311833381653,0.15554198622703552,-0.018423408269882202,0.3864404261112213,-1.1008665561676025,-0.00564283924177289,1
8,-0.03561505302786827,-0.05457295477390289,0.0231734961271286,0.3218260109424591,-1.3145009279251099,-0.007984745316207409,1
9,-0.02397117204964161,0.013613815419375896,0.02741416171193123,0.6017622351646423,-1.2743855714797974,-0.004548104479908943,1
10,0.02353717014193535,-0.006327055860310793,0.01568281650543213,0.15289786458015442,-1.0476100444793701,-0.007625150494277477,1
11,0.016628293320536613,-0.04221184179186821,-0.10017505288124084,0.4127694368362427,-1.2752745151519775,-0.006191759370267391,1
12,0.07689325511455536,0.0061091273091733456,0.028923720121383667,0.40687820315361023,-1.2451324462890625,-0.006459842901676893,1
13,-0.013360287062823772,0.0013204010901972651,-0.012123111635446548,0.4683501422405243,-0.9601430296897888,-0.005862104240804911,1
14,0.03356914222240448,-0.06162629276514053,0.06278842687606812,0.25001147389411926,-1.0800042152404785,-0.009043934755027294,1
15,0.07247937470674515,-0.02566809393465519,-0.09588850289583206,0.5501108169555664,-1.2335546016693115,-0.0037684720009565353,1
16,-0.07734250277280807,0.053179286420345306,-0.0361214205622673,0.44068440794944763,-1.214656949043274,-0.005494609475135803,1
17,0.02510465867817402,-0.06077975779771805,-0.014548959210515022,0.4260067343711853,-1.2661032676696777,-0.005612995941191912,1
18,0.024080034345388412,-0.029618071392178535,-0.08305799961090088,0.41524916887283325,-1.0440762042999268,-0.007736999075859785,1
19,-0.09627559781074524,0.0054964227601885796,0.08239439874887466,0.40740105509757996,-1.2053583860397339,-0.007052160799503326,1
20,-0.03627777099609375,0.03950183093547821,0.03062015399336815,0.4018012583255768,-1.258313536643982,-0.0061452193185687065,1
21,0.03959676995873451,0.06320981681346893,0.07945221662521362,0.1396949142217636,-1.1026312112808228,-0.008165164850652218,1
22,-0.04322109743952751,0.10303445905447006,-0.01236589066684246,0.33626261353492737,-1.1843109130859375,-0.00628049299120903,1
23,0.06935878098011017,-0.015942273661494255,-0.0034387267660349607,0.7416556477546692,-1.0484555959701538,-0.0012467600172385573,1
24,0.027348538860678673,0.018223855644464493,0.08966546505689621,0.38183993101119995,-1.0807336568832397,-0.006403543520718813,1
25,0.03872362896800041,0.12180091440677643,0.027908341959118843,0.5120110511779785,-1.3033274412155151,-0.0010461854981258512,1
26,0.10911359637975693,-0.08442600816488266,0.0846562460064888,0.3420087993144989,-1.2653366327285767,-0.0033156643621623516,1
27,-0.09397436678409576,-0.05777682363986969,0.018962940201163292,0.15311653912067413,-1.1713218688964844,-0.004510818514972925,1
28,0.037724465131759644,-0.0934322401881218,0.06747958809137344,0.35034406185150146,-0.7026472687721252,6.190733256516978e-05,1
29,-0.0172886960208416,-0.005535890348255634,0.07087519019842148,0.22566364705562592,-1.1598418951034546,-0.006892486475408077,1
30,0.02477366104722023,0.0015980559401214123,0.024518022313714027,0.4709610342979431,-1.2948739528656006,-0.0014689209638163447,1
31,0.03600818291306496,-0.08141403645277023,0.07727917283773422,0.44862157106399536,-1.1253117322921753,-0.0007258908590301871,1
32,-0.0784357562661171,0.13781623542308807,-0.0011954641668125987,0.36456942558288574,-1.33702552318573,-0.00152235955465585,1
33,0.11962209641933441,-0.12394850701093674,0.04052860662341118,0.3706376552581787,-1.287998080253601,-0.0013340131845325232,1
34,-0.0618119053542614,0.0995115339756012,0.077950119972229,0.4416258931159973,-1.2515735626220703,-0.0008417452336288989,1
35,0.13513827323913574,-0.08860967308282852,-0.0331859365105629,0.42568257451057434,-1.2249575853347778,-0.00020623928867280483,1
36,0.07370945811271667,0.017496207728981972,0.07856906950473785,0.14548343420028687,-1.0694081783294678,-0.0004520548682194203,1
37,-0.006124671548604965,-0.030127571895718575,-0.07174773514270782,0.41320836544036865,-1.2285170555114746,0.00028751842910423875,1
38,-0.09124290943145752,-0.011022434569895267,0.03813055530190468,0.8076989054679871,-1.0073860883712769,0.0024583102203905582,1
39,-0.07872837036848068,-0.04336169734597206,-0.013134176842868328,0.287641704082489,-1.2565276622772217,0.00012292282190173864,1
40,0.005517012905329466,-0.0077532208524644375,0.012939772568643093,0.1727987676858902,-1.1621745824813843,-0.001852658111602068,1
41,-0.02918057329952717,-0.02907368913292885,0.03788100928068161,0.29750415682792664,-1.1620609760284424,-0.0003001470468007028,1
42,0.011001242324709892,-0.07652957737445831,-0.010592687875032425,0.5317263603210449,-1.2323811054229736,0.002482288982719183,1
43,-0.02475976198911667,0.13323065638542175,0.03470788523554802,0.3513382077217102,-1.2139873504638672,0.0006963969790376723,1
44,-0.0032900446094572544,0.045469097793102264,0.046756353229284286,0.7828038334846497,-1.1298319101333618,0.003347663674503565,1
45,-0.06639360636472702,0.07162381708621979,-0.05377056077122688,0.25188902020454407,-1.1412490606307983,-0.0008346843533217907,1
46,-0.12920384109020233,0.14864061772823334,0.015935270115733147,0.2837827503681183,-1.0054959058761597,-0.0013586936984211206,1
47,0.028518537059426308,0.190604105591774,0.014102485030889511,0.3068838119506836,-1.1911931037902832,-0.0009491898817941546,1
48,0.056352946907281876,0.04435887932777405,-0.012918919324874878,0.3243904113769531,-1.2545971870422363,-0.0007444652146659791,1
49,-0.06001898646354675,-0.042722463607788086,-0.022654104977846146,0.3383133113384247,-1.018118143081665,0.00022815812553744763,1
50,-0.01627509668469429,-0.019043009728193283,0.015993842855095863,0.3488960266113281,-1.1979985237121582,-0.0009628096013329923,1
51,-0.05308258906006813,0.126565083861351,0.03496832400560379,0.2862367331981659,-1.2581895589828491,-0.0018973147962242365,1
52,0.06826779991388321,0.05466695502400398,0.005817238241434097,0.44925743341445923,-1.2313157320022583,0.00021264648239593953,1
53,0.07206842303276062,0.0535133071243763,0.07632451504468918,0.7075573205947876,-1.0704705715179443,0.0021227896213531494,1
54,0.04610944539308548,0.07303105294704437,0.05879376083612442,0.47368577122688293,-1.16531503200531,0.0016375313280150294,1
55,-0.17980611324310303,0.01573188044130802,0.04875908046960831,0.2997448742389679,-1.0946786403656006,-0.0012135164579376578,1
56,-0.03834002837538719,-0.02953590638935566,0.03743660822510719,0.10394665598869324,-1.1140260696411133,-0.0038100522942841053,1
57,0.001807214692234993,0.04052749276161194,0.0651339590549469,0.17375633120536804,-1.1979790925979614,-0.0029990174807608128,1
58,-0.011225711554288864,0.04997847229242325,0.04598488658666611,0.4337460398674011,-1.1890512704849243,0.0012077136198058724,1
59,-0.03263891860842705,0.06046876311302185,0.039006806910037994,0.34180763363838196,-1.2529575824737549,0.00013319612480700016,1
60,0.07818710058927536,-0.03737872093915939,0.02246921882033348,0.41636860370635986,-1.2282720804214478,0.0012513872934505343,1
61,-0.03228112682700157,-0.05052996799349785,-0.01206216774880886,0.32878100872039795,-0.997109591960907,0.001800855970941484,1
62,-0.0003768058668356389,-0.12676043808460236,0.10493136197328568,0.19523826241493225,-1.0421913862228394,-0.00033388903830200434,1
63,0.01380106620490551,-0.04923855885863304,-0.018688248470425606,0.3853628635406494,-1.07585871219635,0.0036885999143123627,1
64,0.07406056672334671,0.11450573801994324,-0.023878587409853935,0.38225653767585754,-1.3180381059646606,0.0012700344668701291,1
65,-0.05903884023427963,-0.0719323605298996,-0.09391210973262787,0.5270265340805054,-1.2790381908416748,0.0032857139594852924,1
66,-0.12486932426691055,0.011934828013181686,0.0305210929363966,0.41311004757881165,-1.250083565711975,0.001859333016909659,1
67,-0.11223926395177841,-0.0002864457492250949,-0.007336300332099199,0.4013298749923706,-1.2282836437225342,0.0017806132091209292,1
68,-0.010799590498209,-0.02746802195906639,0.11891584098339081,0.16841991245746613,-1.1364024877548218,0.0006198644987307489,1
69,0.0028700947295874357,-0.03266580402851105,0.06265480816364288,0.36666035652160645,-1.1420732736587524,0.002027988201007247,1
70,-0.07760626822710037,0.04503459855914116,-0.021766075864434242,0.2910121977329254,-1.2217860221862793,0.001830788911320269,1
71,-0.02520540915429592,-0.10839539021253586,0.06805189698934555,0.38433992862701416,-1.2059648036956787,0.0026155447121709585,1
72,-0.013437245972454548,0.005060011520981789,-0.000879898201674223,0.37851306796073914,-1.1939252614974976,0.0028708765748888254,1
73,-0.032346125692129135,-0.03415568172931671,-0.04742918908596039,0.518139123916626,-1.1851400136947632,0.0038037269841879606,1
74,0.006586816627532244,0.04351451247930527,-0.0033900653943419456,0.691908061504364,-0.9617018103599548,0.002864429960027337,1
75,0.026760628446936607,-0.07497100532054901,0.04191022738814354,0.4597134292125702,-1.2314132452011108,0.004472763277590275,1
76,0.02317940443754196,0.018377363681793213,-0.06664830446243286,0.4275127351284027,-1.2145922183990479,0.0037509959656745195,1
77,-0.0980973020195961,-0.003583192825317383,0.07378162443637848,0.0,0.0,0.0,1
78,0.11795152723789215,-0.02531488984823227,-0.03236185386776924,-0.4311659038066864,-0.8413241505622864,-0.002894320525228977,1
79,-0.07959573715925217,0.032993752509355545,0.09291735291481018,3.1944034099578857,0.21597054600715637,-0.00988286454230547,1
80,-0.044104404747486115,-0.08888763934373856,-0.005308424588292837,0.9921218752861023,-0.03215501829981804,0.002654294716194272,1
81,-0.02921833097934723,0.023414673283696175,0.0711396336555481,1.443337321281433,-2.367306709289551,0.05902937799692154,1
82,-0.04166344553232193,0.049218498170375824,-0.034624893218278885,0.6109703779220581,-1.7387421131134033,0.03894428908824921,1
83,0.08640355616807938,-0.020502427592873573,0.010576160624623299,0.9125150442123413,-1.1387602090835571,0.029494209215044975,1
84,0.13162900507450104,-0.07592855393886566,0.07629390060901642,-0.38087722659111023,0.18232551217079163,0.025699110701680183,1
85,-0.0840076357126236,0.03256571292877197,0.006110232789069414,2.2650210857391357,-0.5358189344406128,0.021341675892472267,1
86,0.036041028797626495,0.000825240567792207,-0.006179971154779196,1.9952630996704102,-0.9461746215820312,0.03307098522782326,1
87,0.011366880498826504,-0.025260079652071,-0.013817836530506611,1.7947595119476318,-0.8201689124107361,0.02846197970211506,1
88,0.007424732204526663,-0.08820242434740067,0.03869568184018135,1.6362863779067993,-0.7522215247154236,0.026302015408873558,1
89,-0.03791157528758049,-0.01376805268228054,-0.08489246666431427,1.4611740112304688,-0.7101003527641296,0.025472547858953476,1
90,-0.05386924743652344,-0.028870530426502228,0.010028792545199394,1.3582451343536377,-0.7069710493087769,0.024865681305527687,1
91,0.0001832452544476837,-0.02043401636183262,0.052981194108724594,1.270029067993164,0.17377857863903046,-0.0005971877253614366,1
92,0.0030046417377889156,-0.006804400123655796,0.019790029153227806,0.6609281897544861,-0.9170722961425781,0.024278957396745682,1
93,-0.026050934568047523,-0.004148880019783974,-0.05183679983019829,1.008548378944397,-0.8675198554992676,0.02595428377389908,1
94,0.02180088497698307,0.0848153829574585,-0.0250388290733099,0.9991815686225891,-0.8370051383972168,0.024982549250125885,1
95,-0.01626947522163391,-0.06718873977661133,0.0441429503262043,0.9858773350715637,-0.822783887386322,0.02430521324276924,1
96,-0.07432009279727936,-0.07825123518705368,0.0698385089635849,0.9704704880714417,-0.8208418488502502,0.024412481114268303,1
97,-0.08672969043254852,0.012509885244071484,-0.03639020770788193,0.951093316078186,-0.21840231120586395,0.018156562000513077,1
98,0.013963425531983376,-0.0435161367058754,0.02911735139787197,0.5464265942573547,-0.4029504060745239,0.01910107396543026,1
99,0.05358370766043663,0.07219449430704117,-0.03847967088222504,1.0033268928527832,-0.9036788940429688,0.023473840206861496,1
100,-0.14422741532325745,0.086419016122818,0.011148100718855858,0.9526458978652954,-1.080914855003357,0.023678915575146675,1
101,-0.046828001737594604,-0.01970948837697506,-0.02685907483100891,0.9119676351547241,-1.035820484161377,0.02330433577299118,1
102,0.016012713313102722,-0.037878189235925674,0.0029591028578579426,0.8779008984565735,-0.34002232551574707,0.020073527470231056,1
103,-0.09491926431655884,-0.04842514172196388,0.0013378397561609745,1.63913893699646,-0.4988131821155548,0.020257050171494484,1
104,-0.036325085908174515,0.08984655886888504,-0.0450144000351429,1.3892017602920532,-0.613737940788269,0.022225840017199516,1
105,-0.01642729341983795,-0.04187171161174774,-0.048229821026325226,1.0562697649002075,-1.2922762632369995,0.03518163412809372,1
106,-0.03405977413058281,-0.03201790153980255,0.029553035274147987,0.5265882015228271,-1.2003096342086792,0.033835384994745255,1
107,-0.11885369569063187,0.014108993113040924,-0.031372927129268646,0.7064324617385864,-1.1366506814956665,0.03226987272500992,1
108,-0.031855449080467224,-0.07592327147722244,0.04400033503770828,0.6960281729698181,-0.6864112019538879,0.032175518572330475,1
109,-0.0372016467154026,-0.12198719382286072,-0.04760944843292236,0.42331379652023315,-1.0260454416275024,0.033491577953100204,1
110,-0.03468899801373482,0.028693968430161476,-0.026956254616379738,0.6113638281822205,-1.1395349502563477,0.029581815004348755,1
111,-0.027938252314925194,0.005572255700826645,-0.008959292434155941,0.7431277632713318,-1.096143126487732,0.028044158592820168,1
112,-0.06511854380369186,-0.012894213199615479,-0.035032860934734344,0.7131204009056091,-1.066120982170105,0.028742335736751556,1
113,-0.00181416398845613,-0.0032255221158266068,-0.12928207218647003,0.5720152854919434,-0.5786022543907166,0.038510512560606,1
114,0.047796569764614105,0.00531906820833683,0.05365365371108055,0.6977118849754333,-1.0296201705932617,0.028616726398468018,1
115,-0.02512001246213913,-0.007053720764815807,-0.06764126569032669,0.9991361498832703,-0.8029879927635193,0.02876286208629608,1
116,-0.07484669238328934,-0.048369042575359344,-0.016967786476016045,0.5731103420257568,-1.1741820573806763,0.028849372640252113,1
117,0.01609228551387787,-0.020348766818642616,-0.019845569506287575,0.17032718658447266,-0.9214770793914795,0.03816656768321991,1
118,0.09216723591089249,0.016608795151114464,-0.024622837081551552,0.4868629574775696,-1.1443883180618286,0.027800917625427246,1
119,-0.11333154141902924,-0.04323861747980118,0.12030381709337234,0.5135340690612793,-1.1060943603515625,0.028576049953699112,1
120,-0.01953527145087719,-0.07181177288293839,0.0097592668607831,0.6273291707038879,-1.0800570249557495,0.02832697331905365,1
121,0.007126152981072664,-0.06477922201156616,-0.017052140086889267,0.6113168597221375,-1.061275839805603,0.029309259727597237,1
122,-0.015806224197149277,0.05344529077410698,-0.039924465119838715,0.597271740436554,-0.764133095741272,0.036866605281829834,1
123,-0.045467525720596313,0.009932052344083786,0.0631541833281517,0.5857060551643372,-0.8361916542053223,0.035097818821668625,1
124,0.06331278383731842,0.001602858304977417,-0.010095953941345215,0.5765807032585144,-1.0741299390792847,0.029554026201367378,1
125,-0.015914086252450943,0.035970594733953476,-0.01760612241923809,0.659877598285675,-1.152687668800354,0.026786116883158684,1
126,0.013877268880605698,0.07231427729129791,-0.013617532327771187,0.44622811675071716,-1.1180585622787476,0.030512837693095207,1
127,-0.026297718286514282,-0.032365523278713226,-0.013311157934367657,0.2925843596458435,-0.8229115009307861,0.041260797530412674,1
128,-0.017556488513946533,-0.08127933740615845,0.07411912828683853,0.5411663055419922,-1.1514561176300049,0.027371076866984367,1
129,0.07909659296274185,-0.1141657903790474,-0.007881258614361286,0.5417336225509644,-1.1191514730453491,0.02886754646897316,1
130,0.0007665339508093894,0.0030365600250661373,0.08577089011669159,0.7169046998023987,-1.0964359045028687,0.026482347398996353,1
131,0.011627212166786194,-0.004474788438528776,-0.0325751006603241,0.664834201335907,-1.080787181854248,0.028318122029304504,1
132,-0.07485881447792053,-0.009355003014206886,-0.007788282819092274,0.45332714915275574,-0.37943151593208313,0.046022772789001465,1
133,-0.00670694001019001,0.06869924068450928,-0.0008418050711043179,0.4747289717197418,-1.24497389793396,0.025821860879659653,1
134,0.03631170094013214,-0.05973633751273155,-0.03643576800823212,0.4035981297492981,-1.1916435956954956,0.02721959911286831,1
135,-0.0447981059551239,0.03176106512546539,-0.009151476435363293,0.5211177468299866,-1.1538498401641846,0.026575563475489616,1
136,-0.06629833579063416,-0.07099989801645279,0.04801051691174507,0.4368591606616974,-1.1272636651992798,0.028933405876159668,1
137,-0.035910412669181824,0.04459251090884209,-0.011820189654827118,0.628914475440979,-0.9398072957992554,0.03085724636912346,1
138,-0.018858622759580612,-0.019967054948210716,0.02884810045361519,0.6828529238700867,-1.0582473278045654,0.027109453454613686,1
139,-0.03154516592621803,0.04818408191204071,0.05025801807641983,0.5506746768951416,-1.060860514640808,0.02888910472393036,1
140,-0.03080621547996998,0.029283972457051277,0.01165050733834505,0.878438413143158,-0.978265106678009,0.02572111412882805,1
141,0.02211998589336872,0.04058964177966118,0.02800142392516136,0.6065060496330261,-1.174472689628601,0.027526220306754112,1
142,0.015395819209516048,-0.06211021542549133,0.06071852147579193,0.32001131772994995,-1.1480543613433838,0.032103437930345535,1
143,-0.0702117383480072,-0.04149465635418892,0.014790568500757217,0.19552035629749298,-0.8754754066467285,0.04035993292927742,1
144,0.06995712220668793,0.050942566245794296,0.058188118040561676,0.2730099558830261,-1.0993574857711792,0.032727330923080444,1
145,0.047747787088155746,-0.002622312633320689,0.06941874325275421,0.4977733790874481,-1.1780449151992798,0.027904924005270004,1
146,-0.03605140373110771,-0.10802774131298065,0.02440360188484192,0.49553126096725464,-1.152902603149414,0.029275882989168167,1
147,0.02088085375726223,-0.11301074922084808,-0.022145304828882217,0.49336689710617065,-0.8862178325653076,0.037635162472724915,1
148,0.006298201158642769,-0.05493273586034775,0.08197899162769318,0.4910077154636383,-1.1043100357055664,0.03147920221090317,1
149,-0.06856886297464371,-0.010231033898890018,0.0574546679854393,0.4910532236099243,-1.1033174991607666,0.03180127218365669,1
150,-0.012769619934260845,-0.037656381726264954,-0.016258029267191887,0.4885703921318054,-1.182837963104248,0.03026670031249523,1
151,-0.0544729121029377,-0.10342042148113251,-0.04856888949871063,0.8910019993782043,-0.9180809855461121,0.029680496081709862,1
152,0.11508505046367645,-0.035978060215711594,0.08243308216333389,0.22198191285133362,-0.9665305018424988,0.03616541624069214,1
153,-0.03325165808200836,0.1096402108669281,-0.039004527032375336,0.4478488564491272,-1.2416462898254395,0.02881278470158577,1
154,0.05881544202566147,-0.13167327642440796,-0.08815102279186249,0.8517622947692871,-1.046126127243042,0.02723442018032074,1
155,-0.056362949311733246,-0.07065501064062119,-0.032491493970155716,0.35841506719589233,-1.2200337648391724,0.030379973351955414,1
156,0.01851346716284752,-0.12857802212238312,0.1251671314239502,0.3091992735862732,-1.1903363466262817,0.031441960483789444,1
157,-0.0552523247897625,-0.05414845794439316,0.021569985896348953,0.5865896940231323,-1.0120803117752075,0.03150245547294617,1
158,-0.054757848381996155,0.04110100865364075,-0.08759857714176178,0.47687679529190063,-1.1942473649978638,0.029774924740195274,1
159,0.029002804309129715,0.07321346551179886,0.1368066817522049,0.4723329544067383,-1.1720261573791504,0.02991335839033127,1
160,0.052618999034166336,-0.026853788644075394,-0.06423214077949524,0.4683504104614258,-1.1552380323410034,0.03151249140501022,1
161,-0.027196211740374565,0.029696278274059296,0.0306455846875906,0.46519947052001953,-1.1438459157943726,0.031209778040647507,1
162,-0.14240354299545288,0.0917818695306778,0.027837784960865974,0.7679753303527832,-1.0601776838302612,0.027488725259900093,1
163,-0.04514753445982933,0.013626746833324432,0.004468455910682678,0.38114455342292786,-1.1527193784713745,0.03246183320879936,1
164,0.07557567954063416,-0.07220127433538437,0.04770352318882942,0.3999631702899933,-1.1435954570770264,0.032778237015008926,1
165,0.04860270395874977,0.024803703650832176,-0.0438060536980629,0.18738435208797455,-0.8344982266426086,0.042865850031375885,1
166,0.013774857856333256,-0.03808223828673363,-0.04713963344693184,0.4067401587963104,-1.1343787908554077,0.0322968065738678,1
167,-0.05064955726265907,-0.0005743178771808743,0.038176510483026505,0.26914918422698975,-1.0562597513198853,0.0351337306201458,1
168,0.03383855149149895,0.008725199848413467,-0.010760065168142319,0.46611288189888,-0.9991209506988525,0.03597826138138771,1
169,-0.01774776354432106,0.060445237904787064,0.0016198416706174612,0.5357238054275513,-1.1800696849822998,0.030840083956718445,1
170,-0.030387384817004204,-0.008804217912256718,0.017941875383257866,0.43852996826171875,-1.1660267114639282,0.032105010002851486,1
171,-0.04430203139781952,-0.047959499061107635,-0.01573111116886139,0.44168150424957275,-1.2293875217437744,0.030729595571756363,1
172,-0.025245441123843193,0.03413187339901924,-0.00840901117771864,0.4434102773666382,-1.2022894620895386,0.03107871301472187,1
173,0.07299710810184479,-0.029119588434696198,0.03440290316939354,0.4448101818561554,-0.7417919635772705,0.04037151485681534,1
174,-0.04521927610039711,0.014512182213366032,0.06662309914827347,0.37267717719078064,-1.280508279800415,0.02961476892232895,1
175,0.016527414321899414,-0.0035518924705684185,0.021455761045217514,0.824642539024353,-1.0250040292739868,0.03156038001179695,1
176,-0.08898238092660904,0.03940335661172867,0.09923194348812103,0.6474049687385559,-1.2739746570587158,0.03133717179298401,1
177,0.08499744534492493,-0.011710187420248985,-0.04443087801337242,0.22018645703792572,-1.2392910718917847,0.036422643810510635,1
178,-0.05759270861744881,-0.01539512537419796,0.12375994026660919,0.3394550383090973,-0.9896905422210693,0.03811955451965332,1
179,-0.014093291945755482,-0.04300883412361145,-0.010489990003407001,0.35839828848838806,-1.1766955852508545,0.03506242856383324,1
180,-0.0894986167550087,0.04973193258047104,-0.04570725932717323,0.37295132875442505,-1.168578863143921,0.03500515595078468,1
181,-0.03383346274495125,-0.11824620515108109,-0.07550325244665146,0.38419321179389954,-1.1632755994796753,0.0344952829182148,1
182,0.03152894973754883,-0.05023222044110298,0.05044535920023918,0.39304617047309875,-1.2326312065124512,0.032375410199165344,1
183,0.021901700645685196,-0.17281101644039154,-0.012185120023787022,0.47393035888671875,-0.9893021583557129,0.03718052804470062,1
184,-0.07227091491222382,-0.05489064380526543,0.050670936703681946,0.3877972662448883,-1.1754298210144043,0.03420735150575638,1
185,-0.06803853809833527,-0.02508407272398472,-0.10094894468784332,0.25102680921554565,-1.0226399898529053,0.03872428834438324,1
186,-0.05294995754957199,-0.005701382644474506,0.06665357947349548,0.43936458230018616,-1.0557576417922974,0.03557005152106285,1
187,-0.017638569697737694,-0.022493937984108925,-0.028832679614424706,0.43369460105895996,-1.0805546045303345,0.03539327159523964,1
188,0.029472026973962784,0.051348041743040085,-0.018018003553152084,0.4283812642097473,-1.2442960739135742,0.031768910586833954,1
189,0.021085258573293686,0.09341557323932648,-0.02279716171324253,0.4233711063861847,-1.074388861656189,0.034963130950927734,1
190,-0.07787997275590897,-0.11637545377016068,0.014348859898746014,0.4200284779071808,-1.0940464735031128,0.03437241166830063,1
191,-0.04210110753774643,0.019091613590717316,0.06836505234241486,0.4177069067955017,-1.2553081512451172,0.03156261891126633,1
192,0.06088879704475403,-0.056740425527095795,-0.030423885211348534,0.5630224347114563,-1.2289406061172485,0.03124166652560234,1
193,0.020880648866295815,-0.06833706051111221,0.06687677651643753,0.2358095943927765,-1.0648612976074219,0.03707215189933777,1
194,-0.0068721044808626175,0.03533150628209114,-0.07916847616434097,0.7844907641410828,-1.0893231630325317,0.0326363705098629,1
195,-0.004496908280998468,0.042723398655653,0.08640898764133453,0.3367548882961273,-1.2500669956207275,0.03396430239081383,1
196,-0.02307601273059845,0.0186496302485466,-0.01550192292779684,0.357782781124115,-1.2276039123535156,0.03416561707854271,1
197,-0.06549890339374542,0.03161705657839775,0.06023252382874489,0.37396711111068726,-1.2813905477523804,0.03306970372796059,1
198,-0.06215847283601761,-0.027152609080076218,0.030888650566339493,0.5264639258384705,-1.2509933710098267,0.031495120376348495,1
199,0.0034100834745913744,0.06509274244308472,0.07063543051481247,0.42910122871398926,-1.087532639503479,0.03500121086835861,1
200,-0.06947889924049377,0.0008947371388785541,0.04258235543966293,0.4260670244693756,-1.1764878034591675,0.03502597659826279,1
201,-0.017408637329936028,0.10609602183103561,0.02111302688717842,0.2832082211971283,-1.2426178455352783,0.03634544834494591,1
202,0.026375016197562218,0.03503955155611038,-0.023508280515670776,0.38479092717170715,-1.221980094909668,0.035545408725738525,1
203,-0.07555844634771347,0.06443800032138824,-0.010180463083088398,0.4596550166606903,-1.0018082857131958,0.03778718411922455,1
204,0.11352421343326569,0.06968311965465546,0.04666968062520027,0.44567593932151794,-1.0439685583114624,0.03695720434188843,1
205,0.0599091462790966,-0.007040305063128471,-0.0119344312697649,0.4357720911502838,-1.2811514139175415,0.033997584134340286,1
206,0.01313155796378851,0.08013025671243668,-0.08029946684837341,0.7012688517570496,-1.047066569328308,0.03421277552843094,1
207,0.05731700733304024,-0.01661105826497078,-0.05362315475940704,0.489362895488739,-1.2139357328414917,0.034255269914865494,1
208,-0.03777151554822922,0.021792065352201462,0.08454812318086624,0.19681420922279358,-1.269644856452942,0.03506915643811226,1
209,-0.05233746021986008,0.05111382529139519,-0.02353435941040516,0.25083646178245544,-1.2433615922927856,0.035629142075777054,1
210,-0.2072034478187561,0.08322164416313171,-0.05697128176689148,0.7582400441169739,-1.0869790315628052,0.032911550253629684,1
211,-0.024524277076125145,-0.11162061244249344,-0.04443487524986267,0.13050083816051483,-0.9662959575653076,0.03832636773586273,1
212,0.01928594522178173,0.18910463154315948,0.5291682481765747,0.4635075628757477,-1.0052160024642944,0.036204420030117035,1
213,-0.22373837232589722,-0.26105499267578125,-2.8898348808288574,0.10976185649633408,-1.1627528667449951,0.03837843984365463,1
214,0.05655635520815849,-0.6244910955429077,-3.3924362659454346,0.5181958079338074,-1.2719966173171997,0.03135880082845688,1
215,-0.3057127892971039,-0.36501970887184143,0.4796929955482483,0.6816345453262329,-1.0161585807800293,0.027698133140802383,1
216,-0.08243373781442642,0.02310759574174881,0.5573987364768982,0.5974688529968262,-1.222368597984314,0.028137780725955963,1
217,-0.30255642533302307,0.37885019183158875,-0.5023293495178223,0.27026471495628357,-0.9743515253067017,0.03579210862517357,1
218,0.17496389150619507,0.35596251487731934,1.819591760635376,0.2883886396884918,-0.9836755990982056,0.03643229231238365,1
219,2.8805971145629883,3.3162901401519775,2.2479312419891357,0.28786659240722656,-1.103587031364441,0.05358389392495155,1
220,2.8187806606292725,2.365057945251465,0.18416741490364075,0.29321038722991943,-1.115427851676941,0.07244949042797089,1
221,-3.7833564281463623,-4.063215255737305,2.586651563644409,0.123314268887043,-0.8895493149757385,0.08655007183551788,1
222,1.816391944885254,2.2861549854278564,1.1997332572937012,0.4411454498767853,-1.0374009609222412,0.10953854024410248,1
223,-2.29718017578125,-3.0692784786224365,-6.195033550262451,0.4188866913318634,-0.8759957551956177,0.11193276196718216,1
224,5.139501094818115,3.9426848888397217,-11.622459411621094,0.4592471122741699,-1.0056116580963135,0.041189808398485184,1
225,-6.654992580413818,0.2253154069185257,-10.911406517028809,0.3874332308769226,-1.0346301794052124,-0.07398728281259537,1
226,-0.38830438256263733,-3.0279111862182617,-7.2658586502075195,0.39626193046569824,-1.0360872745513916,-0.17849093675613403,1
227,6.369467258453369,5.565485000610352,-3.1818015575408936,0.3331678807735443,-0.4053334891796112,-0.23780836164951324,1
228,-6.311927318572998,2.3264682292938232,1.0675469636917114,0.2670360207557678,-0.5275102257728577,-0.26498475670814514,1
229,1.3839131593704224,1.2823588848114014,2.6724281311035156,-0.08832576125860214,-0.8413426876068115,-0.27666109800338745,1
230,5.076359272003174,5.462594509124756,2.8731319904327393,-0.05716539919376373,-0.9895694851875305,-0.254154771566391,1
231,8.178356170654297,6.288579940795898,2.914867401123047,-0.15626420080661774,-0.8400073647499084,-0.22319546341896057,1
232,12.96250057220459,-3.3457131385803223,1.6175965070724487,0.42113494873046875,-0.4437291920185089,-0.15513166785240173,1
233,12.823691368103027,-16.04452896118164,2.3890838623046875,-0.00018228490080218762,-0.35838690400123596,-0.16255414485931396,1
234,5.585227012634277,-21.537052154541016,3.67592191696167,0.2676621377468109,-0.24559111893177032,-0.1300758421421051,1
235,-7.188931465148926,-18.74405860900879,3.271393299102783,0.9387598037719727,-0.5545408725738525,-0.06946070492267609,1
236,-5.902523040771484,-8.301406860351562,0.15322794020175934,0.9826014041900635,-0.601911723613739,-0.050490524619817734,1
237,7.703727722167969,5.274714946746826,0.15353062748908997,0.9870790243148804,-0.5399548411369324,-0.05633845180273056,1
238,20.50539207458496,15.425869941711426,2.2107224464416504,1.013950228691101,0.11858527362346649,-0.07160673290491104,1
239,17.77289581298828,19.573741912841797,3.0685529708862305,-0.02678031474351883,-1.1852405071258545,-0.058620575815439224,1
240,4.691786289215088,21.47890853881836,3.429750919342041,0.4397467076778412,-0.5229166150093079,0.006866991054266691,1
241,-6.423068523406982,14.980707168579102,3.0639448165893555,-0.2769010365009308,-0.8296046853065491,0.009329919703304768,1
242,-7.832662582397461,4.515872478485107,2.3385770320892334,-3.3036134243011475,0.44640931487083435,-0.07688650488853455,1
243,3.5949032306671143,-2.214179515838623,2.8029634952545166,-2.5726163387298584,0.42580437660217285,0.048994727432727814,1
244,12.80979061126709,-17.93883514404297,1.1613556146621704,0.10602745413780212,0.3237744867801666,0.3861279785633087,1
245,9.96774959564209,-38.3871955871582,-0.5192885994911194,-1.4781535863876343,0.9275506138801575,0.2611823081970215,1
246,1.4228638410568237,-47.095428466796875,-1.5417606830596924,-0.6901584267616272,0.9704338908195496,0.3182697296142578,1
247,-10.694500923156738,-57.41632843017578,-1.384501338005066,1.2589994668960571,0.9794747829437256,0.5861070156097412,1
248,-21.709325790405273,-59.00933837890625,-2.2082760334014893,2.1065666675567627,0.7421120405197144,0.5490710735321045,1
249,-33.77894973754883,-51.63203048706055,-1.5649194717407227,2.9468743801116943,-0.12425731867551804,0.5693984627723694,1
250,-40.1610107421875,-38.19050598144531,-0.8421040177345276,3.7140564918518066,-0.2543717920780182,0.592013955116272,1
251,-37.97343826293945,-14.703907012939453,-0.571431040763855,3.6602261066436768,-1.3529000282287598,0.589138925075531,1
252,-28.045730590820312,17.652490615844727,1.0458825826644897,3.4931023120880127,-1.6494710445404053,0.5388802886009216,1
253,-10.718855857849121,53.37298583984375,3.3058929443359375,2.211009979248047,-1.7401082515716553,0.4223199784755707,1
254,9.761943817138672,82.27806091308594,4.2342529296875,1.399685025215149,-1.8610179424285889,0.38255903124809265,1
255,31.316329956054688,90.56494140625,4.408686637878418,0.6693940758705139,-1.3521486520767212,0.3034924268722534,1
256,49.11248779296875,85.1780776977539,3.7941927909851074,-0.9687963128089905,-0.8957550525665283,0.3231405019760132,1
257,53.2921142578125,66.03276062011719,2.391235828399658,-1.2653108835220337,0.306044340133667,0.2904045283794403,1
258,41.588680267333984,32.96974182128906,2.130526304244995,-2.787680149078369,0.6293889880180359,0.2509891390800476,1
259,16.74842643737793,-4.257713794708252,1.2483705282211304,-2.9491217136383057,0.9619947671890259,0.2801123559474945,1
260,-15.684261322021484,-42.030784606933594,1.508078694343567,-4.143411159515381,-0.6982357501983643,-0.38258108496665955,1
261,-39.63823699951172,-69.02600860595703,2.4099457263946533,-1.8203567266464233,-1.9727579355239868,-0.5877452492713928,1
262,-42.75057601928711,-90.77520751953125,2.381108283996582,0.8663378953933716,-2.283135175704956,-0.44493168592453003,1
263,-28.501373291015625,-114.32105255126953,3.916661262512207,2.3109710216522217,-2.5624516010284424,-0.3499560058116913,1
264,3.4551174640655518,-113.22879028320312,6.28675651550293,2.919665813446045,-1.5671366453170776,-0.16481517255306244,1
265,29.26454734802246,-87.67745971679688,7.205653190612793,3.3157906532287598,0.7537906169891357,-0.16031159460544586,1
266,37.75019073486328,-49.17010498046875,8.067770004272461,3.2879443168640137,1.5205003023147583,-0.11647515743970871,1
267,32.59134292602539,-2.0813214778900146,9.11652660369873,3.4648759365081787,1.3403940200805664,0.09007599949836731,1
268,21.14729118347168,32.162574768066406,6.718719482421875,2.4175264835357666,1.9184271097183228,-0.0019426763756200671,1
269,0.04095520079135895,47.94325637817383,3.0504417419433594,2.5665957927703857,1.0615655183792114,0.422611802816391,1
270,-27.55474090576172,45.72464370727539,0.519487738609314,1.6977922916412354,3.1920299530029297,-0.3480198085308075,1
271,-36.55470657348633,44.53844451904297,2.1635899543762207,0.2831703722476959,1.4760472774505615,-0.22165042161941528,1
272,-42.745121002197266,34.70875549316406,3.5682320594787598,-0.9391412734985352,0.6972779035568237,-0.3103458285331726,1
273,-42.44020080566406,20.08969497680664,5.8596343994140625,-0.9518887400627136,-0.17540866136550903,-0.17550277709960938,1
274,-39.30427932739258,-2.3079488277435303,6.334841728210449,-2.451000690460205,-0.42373520135879517,-0.23910479247570038,1
275,-29.154979705810547,-29.066801071166992,7.771466255187988,-1.436694622039795,-0.631942629814148,-0.218794047832489,1
276,-21.54891586303711,-54.88555908203125,10.405134201049805,1.0233434438705444,-2.2618587017059326,-0.32049915194511414,1
277,-11.9388427734375,-67.68037414550781,11.340234756469727,4.439286231994629,-2.8489770889282227,0.3800800144672394,1
278,-0.09765812754631042,-66.21106719970703,7.563127517700195,4.865878582000732,-2.709165334701538,0.4337621033191681,1
279,13.012478828430176,-48.754703521728516,7.046450138092041,7.192403316497803,-2.322679281234741,0.4569902718067169,1
280,31.000019073486328,-26.898019790649414,6.511940002441406,6.867292404174805,-2.160313606262207,0.4552310109138489,1
281,45.875423431396484,11.224666595458984,8.253056526184082,5.252028942108154,-0.8831955194473267,0.15452079474925995,1
282,44.21074295043945,49.87900924682617,9.485374450683594,3.815174102783203,-0.5955191850662231,0.5666182041168213,1
283,28.36768913269043,79.59687805175781,6.0899457931518555,2.5427701473236084,-0.44756507873535156,0.9519389867782593,1
284,10.521890640258789,96.46354675292969,2.1266930103302,1.1692004203796387,0.5807583332061768,0.7851166725158691,1
285,-4.907276630401611,92.3214111328125,0.24738094210624695,-0.006105762906372547,0.20934654772281647,1.0055371522903442,1
286,-17.8338623046875,63.62617111206055,-0.5913596153259277,-0.915505051612854,0.20335285365581512,0.9909854531288147,1
287,-19.10976219177246,26.39543342590332,-0.3540251851081848,-1.1446309089660645,-0.2412833869457245,1.0872888565063477,1
288,-8.58253288269043,-10.14586067199707,1.0583995580673218,-0.2090316116809845,-0.7697852253913879,1.1179455518722534,1
289,8.104074478149414,-43.954647064208984,2.576864719390869,2.175013780593872,-1.0811505317687988,1.2510132789611816,1
290,24.21966552734375,-54.653995513916016,3.983556032180786,4.621750831604004,-1.4528658390045166,1.5035831928253174,1
291,40.01487731933594,-44.063602447509766,4.988646030426025,4.349130630493164,-1.0213476419448853,1.4763113260269165,1
292,47.724937438964844,-18.36244773864746,5.94036865234375,4.165801048278809,-0.10833524912595749,1.3768715858459473,1
293,43.89264678955078,19.68349838256836,5.8228349685668945,3.4952633380889893,1.3457142114639282,1.0735557079315186,1
294,26.258956909179688,55.01683044433594,6.724122047424316,2.2143867015838623,1.905643105506897,1.0640162229537964,1
295,2.1450865268707275,71.18578338623047,6.679746627807617,0.9144893884658813,1.2765825986862183,1.3179620504379272,1
296,-23.883590698242188,67.7005386352539,5.252943992614746,-1.1915855407714844,1.0258054733276367,1.2592636346817017,1
297,-46.06060791015625,52.93898010253906,4.420480728149414,-1.702193260192871,0.7302386164665222,1.3659884929656982,1
298,-54.35297393798828,28.89200782775879,4.551181316375732,-2.1707170009613037,-0.016626249998807907,1.3960074186325073,1
299,-46.9366455078125,2.5280776023864746,4.2556962966918945,-2.243616819381714,-0.42226508259773254,1.4885462522506714,1
300,-24.688119888305664,-19.20225715637207,3.374497413635254,-1.8503811359405518,-1.046803593635559,1.5378658771514893,1
301,3.6332156658172607,-29.02444839477539,4.358517646789551,0.0019495238084346056,-0.8018786907196045,1.8466278314590454,1
302,31.14969825744629,-32.402862548828125,6.123125076293945,0.6131331324577332,-0.6864393949508667,1.9366601705551147,1
303,49.780189514160156,-26.847412109375,9.200953483581543,0.034023478627204895,-0.02670500986278057,2.028031587600708,1
304,49.52082824707031,-8.999215126037598,11.293951988220215,0.16419290006160736,0.9595730900764465,2.253398895263672,1
305,34.72303771972656,10.613570213317871,11.070165634155273,0.2285618931055069,1.8942419290542603,2.463212490081787,1
306,13.659286499023438,27.57904052734375,10.720848083496094,-0.37063804268836975,1.0271265506744385,2.2637078762054443,1
307,-11.423060417175293,41.35576629638672,11.639840126037598,-1.0322344303131104,2.433734178543091,2.5809166431427,1
308,-31.790529251098633,40.316810607910156,12.935046195983887,-1.4911534786224365,1.5248502492904663,2.5094738006591797,1
309,-47.738975524902344,30.21013641357422,12.697579383850098,-2.758756637573242,0.9655140042304993,2.361739158630371,1
310,-54.590309143066406,14.987730979919434,12.988933563232422,-3.26303768157959,-0.7485153675079346,1.9945626258850098,1
311,-50.75261306762695,-1.6979477405548096,13.616363525390625,-2.493603467941284,-0.603355884552002,2.536734104156494,1
312,-32.815399169921875,-19.005123138427734,11.197135925292969,-1.792304515838623,-1.2611041069030762,2.666069746017456,1
313,-3.311922311782837,-34.0804328918457,8.797110557556152,-1.3537042140960693,-1.6516187191009521,2.7508254051208496,1
314,26.340225219726562,-37.94728469848633,7.2097039222717285,-1.4014750719070435,-2.012092351913452,2.712958335876465,1
315,52.39452362060547,-33.74745178222656,6.724334716796875,-0.5320559740066528,0.37081119418144226,3.5689444541931152,1
316,69.63611602783203,-25.684764862060547,4.763466835021973,-0.5817378163337708,1.2271283864974976,3.7674472332000732,1
317,73.6111068725586,-14.180032730102539,3.058154344558716,0.016743218526244164,1.5400714874267578,3.6995232105255127,1
318,57.354820251464844,-3.3542709350585938,2.1880319118499756,0.1520087718963623,2.853402614593506,3.89028263092041,1
319,27.8845157623291,5.5316290855407715,1.492156982421875,0.5393803715705872,1.8595620393753052,3.618936777114868,1
320,-10.124921798706055,12.934261322021484,1.6318014860153198,-0.22498084604740143,2.2740464210510254,3.527651309967041,1
321,-45.29134750366211,16.584218978881836,2.859907388687134,-0.2821469008922577,1.1728360652923584,3.420395612716675,1
322,-65.13752746582031,16.779029846191406,4.277866840362549,-0.12032443284988403,0.7742558717727661,3.5513551235198975,1
323,-70.67381286621094,15.56900691986084,5.6403422355651855,-0.4371717870235443,-0.3329786956310272,3.502957582473755,1
324,-57.855525970458984,12.464489936828613,5.897299289703369,-0.9652564525604248,-2.422293186187744,3.2690234184265137,1
325,-32.647281646728516,8.125036239624023,8.025166511535645,-1.746164321899414,-3.029844284057617,3.242449998855591,1
326,2.1116831302642822,0.9028077721595764,10.853487968444824,-1.3572919368743896,-4.240651607513428,3.114442825317383,1
327,42.54887771606445,-8.952299118041992,12.636269569396973,-0.9288130402565002,-3.2455594539642334,3.374920129776001,1
328,81.34762573242188,-18.476177215576172,13.724564552307129,-1.2168700695037842,-2.303908586502075,3.7036242485046387,1
329,103.05866241455078,-21.859987258911133,14.90731143951416,-0.8723735809326172,-0.41661974787712097,4.0559892654418945,1
330,103.09190368652344,-23.201108932495117,14.814718246459961,-0.05910627916455269,2.347271203994751,4.449428081512451,1
331,82.22541046142578,-21.893489837646484,14.011665344238281,-0.261287659406662,4.269096374511719,4.811954021453857,1
332,45.32980728149414,-14.866096496582031,13.231060028076172,0.2570604681968689,4.5812554359436035,4.87476110458374,1
333,-3.2494454383850098,-9.364689826965332,11.214475631713867,0.39325860142707825,4.89531135559082,4.976582050323486,1
334,-48.84835433959961,-1.906757116317749,8.196427345275879,0.42559465765953064,4.678237438201904,5.046482086181641,1
335,-84.47138214111328,5.960837364196777,6.008358001708984,0.4153721034526825,3.2074215412139893,5.067742347717285,1
336,-105.6666259765625,13.538376808166504,4.687256813049316,0.278035044670105,1.6135315895080566,5.070810794830322,1
337,-101.44855499267578,19.628231048583984,4.225144386291504,0.04642349109053612,-0.46357905864715576,5.042403697967529,1
338,-76.80770111083984,22.714189529418945,3.926933526992798,-1.4069247245788574,-2.49042010307312,4.54755973815918,1
339,-34.3233528137207,21.303241729736328,4.836097240447998,-1.0070379972457886,-2.6498262882232666,4.786832332611084,1
340,17.108142852783203,14.264512062072754,2.386171579360962,-1.2185909748077393,-2.5104100704193115,4.872859477996826,1
341,64.92996215820312,1.1754027605056763,0.15386542677879333,-1.2831274271011353,-1.6962109804153442,4.969181060791016,1
342,94.79317474365234,-11.5618896484375,-1.1119182109832764,-1.3905845880508423,-0.8866963386535645,4.999671936035156,1
343,101.63720703125,-23.890933990478516,-2.0676581859588623,-1.197387933731079,0.5150535702705383,5.0608673095703125,1
344,85.48133087158203,-33.85139083862305,-3.287890672683716,-0.17215141654014587,1.308052897453308,4.91880464553833,1
345,53.02079391479492,-41.525333404541016,-3.7715084552764893,1.2191145420074463,2.255107879638672,4.847095012664795,1
346,14.170157432556152,-42.33935546875,-6.225088119506836,3.099151611328125,2.6358487606048584,4.8170013427734375,1
347,-21.980609893798828,-27.229494094848633,-9.09811782836914,3.5799357891082764,2.7909066677093506,4.743307590484619,1
348,-48.95763397216797,-1.5790374279022217,-11.593038558959961,4.333978176116943,2.5460243225097656,4.728449821472168,1
349,-62.615684509277344,31.75620460510254,-13.666632652282715,4.44314432144165,1.9887616634368896,4.660821437835693,1
350,-62.675010681152344,68.28214263916016,-15.090984344482422,3.6869492530822754,1.374947428703308,4.420676231384277,1
351,-48.9280891418457,100.23258972167969,-15.514447212219238,3.334108591079712,1.058756947517395,4.2555718421936035,1
352,-29.45853042602539,116.18402862548828,-15.49524974822998,2.079464912414551,0.6036680936813354,4.060322284698486,1
353,-10.95307445526123,119.5639877319336,-16.392101287841797,1.7055325508117676,0.5118255019187927,4.005419731140137,1
354,6.2116851806640625,108.99320983886719,-17.41842269897461,-0.028075087815523148,0.7448523044586182,3.628204822540283,1
355,16.9021053314209,90.2543716430664,-17.43034553527832,-0.47555163502693176,0.7431196570396423,3.590304136276245,1
356,19.885499954223633,64.2930908203125,-17.51235580444336,-1.637392282485962,0.9392614960670471,3.3866782188415527,1
357,16.159826278686523,43.08525466918945,-16.968679428100586,-2.0752291679382324,0.9972712993621826,3.2613396644592285,1
358,6.82056999206543,22.748245239257812,-16.259809494018555,-2.8352267742156982,1.088267207145691,3.046752452850342,1
359,-2.102834463119507,9.217422485351562,-15.83393669128418,-2.5788004398345947,1.1072101593017578,2.948089361190796,1
360,-10.447139739990234,3.4237701892852783,-15.239836692810059,-2.906069040298462,0.9884306788444519,2.7441213130950928,1
361,-16.075773239135742,9.788862228393555,-13.494451522827148,-2.430614948272705,1.0292739868164062,2.7106716632843018,1
362,-18.331438064575195,20.526105880737305,-12.458427429199219,-2.5660080909729004,0.7777080535888672,2.5567781925201416,1
363,-19.218242645263672,35.8031120300293,-10.930635452270508,-2.597975492477417,0.6501981616020203,2.4894373416900635,1
364,-18.953990936279297,49.7354621887207,-10.583929061889648,-3.454378366470337,0.291814386844635,2.2752788066864014,1
365,-18.164201736450195,60.07100296020508,-10.211199760437012,-3.3985183238983154,0.30721262097358704,2.3195714950561523,1
366,-14.656039237976074,64.3830337524414,-10.446577072143555,-4.399907112121582,-0.07724769413471222,2.095346212387085,1
367,-12.077188491821289,66.3951416015625,-10.637530326843262,-4.833364009857178,-0.04478665813803673,2.0938172340393066,1
368,-9.110330581665039,61.996307373046875,-10.47763729095459,-6.010252952575684,-0.1987784206867218,1.9473011493682861,1
369,-7.092755317687988,53.723716735839844,-10.525069236755371,-5.615296840667725,-0.16050955653190613,1.947318196296692,1
370,-3.220766067504883,40.0880126953125,-11.022873878479004,-6.514702320098877,-0.3007258474826813,1.7884831428527832,1
371,-1.6997698545455933,29.793067932128906,-9.78807258605957,-6.506361484527588,-0.2534182667732239,1.7371116876602173,1
372,-2.384078025817871,20.181550979614258,-9.136269569396973,-6.830178737640381,-0.34985101222991943,1.5863736867904663,1
373,-5.4149861335754395,13.209827423095703,-8.000688552856445,-6.991148948669434,-0.38667839765548706,1.4955754280090332,1
374,-9.21685791015625,7.581836223602295,-7.064760684967041,-7.227009296417236,-0.4807853102684021,1.3978071212768555,1
375,-12.868854522705078,4.55483341217041,-5.959209442138672,-7.223818778991699,-0.48932161927223206,1.4128642082214355,1
376,-16.636287689208984,5.093246936798096,-6.417020320892334,-7.613399028778076,-0.7173536419868469,1.295870065689087,1
377,-18.749439239501953,8.385112762451172,-6.301900863647461,-7.282980918884277,-0.8412343263626099,1.2590839862823486,1
378,-17.416515350341797,8.663224220275879,-5.93375825881958,-7.68433141708374,-1.1173954010009766,1.14340341091156,1
379,-12.04053020477295,7.76641845703125,-4.574293613433838,-7.617674350738525,-1.3973581790924072,0.9553901553153992,1
380,-7.0425872802734375,8.027642250061035,-2.7908856868743896,-7.6909308433532715,-1.4270408153533936,0.9986624717712402,1
381,-3.5780107975006104,6.154891490936279,-1.4104182720184326,-7.665635108947754,-1.5431535243988037,0.9087767601013184,1
382,-2.995147466659546,2.8258512020111084,-1.5411245822906494,-7.673982620239258,-1.548744559288025,0.9252596497535706,1
383,-4.567599773406982,-0.01177321095019579,-1.3979270458221436,-7.840034008026123,-1.698258638381958,0.8036714792251587,1
384,-4.823706150054932,-4.380604267120361,-1.1487326622009277,-7.606496334075928,-1.548867106437683,0.9562506675720215,1
385,-4.774240016937256,-9.860283851623535,-1.0577529668807983,-7.648898124694824,-1.645470380783081,0.9185194969177246,1
386,-7.015984058380127,-13.657700538635254,-1.0716334581375122,-7.5342326164245605,-1.6002421379089355,1.0095959901809692,1
387,-7.2010273933410645,-13.867552757263184,-1.2252798080444336,-7.4507293701171875,-1.8033599853515625,0.866639256477356,1
388,-7.591923236846924,-13.693623542785645,-0.9849298000335693,-7.197436809539795,-1.8514127731323242,0.8594448566436768,1
389,-9.82861328125,-10.656900405883789,-0.7502689361572266,-7.038015365600586,-2.0765061378479004,0.7029519081115723,1
390,-10.724488258361816,-5.568511486053467,-1.1171454191207886,-7.017335891723633,-2.2321243286132812,0.6599632501602173,1
391,-7.01814079284668,-3.644155979156494,-1.4749693870544434,-7.097055912017822,-2.3433430194854736,0.6732358336448669,1
392,-2.404874801635742,-5.378772258758545,-2.459789991378784,-7.079195499420166,-2.3017778396606445,0.76456618309021,1
393,1.4736520051956177,-8.358183860778809,-4.862445831298828,-6.939645767211914,-2.3616349697113037,0.6767042279243469,1
394,4.640968322753906,-13.260252952575684,-6.007943153381348,-6.579453945159912,-2.4345200061798096,0.46661102771759033,1
395,6.9538092613220215,-18.18464469909668,-5.659739971160889,-6.51582145690918,-2.298800230026245,0.5320301651954651,1
396,8.13447093963623,-19.53423500061035,-5.792496204376221,-6.379567623138428,-2.2895376682281494,0.45434510707855225,1
397,8.290030479431152,-17.81841468811035,-6.9542083740234375,-6.157941818237305,-2.1762044429779053,0.42476820945739746,1
398,8.846513748168945,-16.801876068115234,-8.208364486694336,-5.950523376464844,-2.2841742038726807,0.1870598942041397,1
399,9.5907621383667,-15.194260597229004,-7.892867088317871,-5.8568925857543945,-2.1994543075561523,0.12339498847723007,1
400,11.025568008422852,-14.146854400634766,-7.359972953796387,-5.744042873382568,-2.020803689956665,0.13484518229961395,1
401,12.120607376098633,-10.69128131866455,-7.849817752838135,-5.726316928863525,-1.825225591659546,0.1728377342224121,1
402,13.480463027954102,-8.84880256652832,-8.83287525177002,-5.65247917175293,-1.6942973136901855,0.11553321778774261,1
403,13.350265502929688,-9.897157669067383,-10.414463996887207,-5.647159576416016,-1.55307936668396,0.0617455318570137,1
404,12.113932609558105,-13.115813255310059,-11.535442352294922,-5.595835208892822,-1.6535167694091797,-0.18180765211582184,1
405,12.727766036987305,-18.050546646118164,-11.320540428161621,-5.304825782775879,-1.506205677986145,-0.3143238425254822,1
406,14.331501960754395,-23.133899688720703,-10.475398063659668,-5.15354061126709,-1.4844579696655273,-0.47260358929634094,1
407,16.49357795715332,-26.154985427856445,-11.405656814575195,-4.844648838043213,-1.3403294086456299,-0.5879870057106018,1
408,17.70769691467285,-28.960712432861328,-12.479562759399414,-4.562338352203369,-1.1685290336608887,-0.6954877376556396,1
409,19.31082534790039,-28.665790557861328,-13.322404861450195,-4.259375095367432,-0.8976057171821594,-0.7676945328712463,1
410,20.500579833984375,-26.63252067565918,-14.186829566955566,-3.958299398422241,-0.6078379154205322,-0.8558787703514099,1
411,20.337255477905273,-18.459548950195312,-13.70262336730957,-4.11464786529541,-0.6182068586349487,-1.0079913139343262,1
412,20.287813186645508,-6.412540912628174,-12.290792465209961,-3.8634979724884033,-0.31132906675338745,-1.1138789653778076,1
413,21.69080924987793,5.484805583953857,-9.146733283996582,-3.886122941970825,-0.15494684875011444,-1.2357901334762573,1
414,23.4382266998291,13.734128952026367,-5.082986831665039,-4.043946266174316,0.18165548145771027,-1.2609401941299438,1
415,24.5963191986084,13.794439315795898,-1.996890902519226,-4.188589572906494,0.30936914682388306,-1.339107632637024,1
416,20.046661376953125,3.3619375228881836,0.0969034805893898,-4.1088385581970215,0.7177781462669373,-1.3191850185394287,1
417,13.397010803222656,-10.217430114746094,1.7054932117462158,-4.279926776885986,0.7224338054656982,-1.3610434532165527,1
418,5.651535987854004,-17.238584518432617,4.115260124206543,-3.9586117267608643,0.8475357294082642,-1.3475626707077026,1
419,1.4457333087921143,-26.41277313232422,5.892438888549805,-3.8880674839019775,0.872514545917511,-1.3129404783248901,1
420,-2.09006667137146,-36.31984329223633,8.219478607177734,-3.3435380458831787,0.8329938054084778,-1.258858561515808,1
421,-4.052030563354492,-44.39828872680664,9.939166069030762,-3.257760763168335,0.9022964239120483,-1.1737847328186035,1
422,-2.1702046394348145,-47.401512145996094,11.429808616638184,-2.6711294651031494,0.8850653171539307,-1.0667238235473633,1
423,0.7507030963897705,-40.9951171875,13.371941566467285,-2.1207759380340576,0.9055161476135254,-0.9449378252029419,1
424,4.27083683013916,-28.495819091796875,15.402000427246094,-1.656673789024353,0.9730252623558044,-0.803276002407074,1
425,3.824086904525757,-13.098894119262695,17.017057418823242,-1.7206463813781738,1.062657356262207,-0.6879780292510986,1
426,-0.9163839817047119,3.0525104999542236,16.68535614013672,-1.6426682472229004,1.1037564277648926,-0.5234957933425903,1
427,-5.06816291809082,15.201067924499512,14.580379486083984,-1.640501618385315,1.143123984336853,-0.35498398542404175,1
428,-6.875569820404053,22.822986602783203,12.253621101379395,-1.7902424335479736,1.054004430770874,-0.20976634323596954,1
429,-10.881587028503418,26.69034194946289,8.980368614196777,-1.9781296253204346,1.061500906944275,-0.08909294754266739,1
430,-12.504764556884766,24.15241050720215,6.299849510192871,-2.1195147037506104,0.9326785206794739,0.02283165417611599,1
431,-10.5692777633667,18.619367599487305,4.779443740844727,-1.9123303890228271,0.6602473855018616,0.18198102712631226,1
432,-9.259621620178223,11.417993545532227,3.5564193725585938,-2.3001527786254883,0.5695847868919373,0.19006949663162231,1
433,-5.041389465332031,5.200717449188232,2.7715036869049072,-2.102872133255005,0.3044528365135193,0.2998736798763275,1
434,-0.13008347153663635,0.6322324872016907,0.959820032119751,-2.0641822814941406,0.2798861861228943,0.33476579189300537,1
435,5.2429022789001465,-5.5151519775390625,0.12368591129779816,-1.9519729614257812,0.2614913582801819,0.3634175956249237,1
436,10.010117530822754,-16.313413619995117,-0.754673182964325,-1.711775779724121,0.2534067928791046,0.3992089331150055,1
437,15.4121732711792,-25.44224739074707,-1.8077224493026733,-1.6120250225067139,0.70359867811203,0.3196899890899658,1
438,17.4638729095459,-27.767608642578125,-0.3701074719429016,-1.4677432775497437,0.8952456116676331,0.2766662836074829,1
439,12.944612503051758,-21.0499267578125,1.2402918338775635,-0.9037039875984192,1.2841737270355225,0.26726824045181274,1
440,3.732280731201172,-10.100984573364258,1.9810841083526611,-0.5153805017471313,1.2415974140167236,0.3412218391895294,1
441,-7.8303542137146,4.666182041168213,1.9048471450805664,0.0820876955986023,1.187166690826416,0.46441036462783813,1
442,-17.365434646606445,17.177236557006836,0.2021203190088272,-0.1002085730433464,1.1860021352767944,0.4367399215698242,1
443,-24.869857788085938,24.635957717895508,-1.0915319919586182,-0.4394663870334625,0.5932712554931641,0.5390948057174683,1
444,-28.71226692199707,30.78171157836914,-2.6945910453796387,-0.8763002753257751,0.3788452744483948,0.4853535294532776,1
445,-26.084617614746094,36.994667053222656,-3.353705644607544,-1.3964886665344238,-0.5049279928207397,0.6216741800308228,1
446,-16.55597496032715,39.74569320678711,-4.093062400817871,-1.9810487031936646,-2.1055259704589844,0.9872963428497314,1
447,-1.6800894737243652,37.307132720947266,-4.708539009094238,-2.547250747680664,-1.9554264545440674,0.8179786801338196,1
448,21.582843780517578,23.002113342285156,-3.20951771736145,-2.960512399673462,-1.5903795957565308,0.6550933122634888,1
449,47.41139221191406,0.02845584787428379,-2.144965410232544,-3.0529251098632812,-0.9294537901878357,0.5157647728919983,1
450,66.7153549194336,-25.467388153076172,-0.30449286103248596,-3.1155431270599365,-0.416546493768692,0.49295490980148315,1
451,73.19265747070312,-44.92825698852539,1.9566022157669067,-2.5939009189605713,0.6705194711685181,0.4089186191558838,1
452,67.22144317626953,-51.78805923461914,4.181944370269775,-2.221937417984009,1.164625883102417,0.4716358482837677,1
453,50.98774719238281,-53.191139221191406,4.527688026428223,-1.5618146657943726,2.0637760162353516,0.4545929729938507,1
454,28.886436462402344,-40.39822769165039,5.356433391571045,-1.190569519996643,2.5067272186279297,0.48251858353614807,1
455,5.598106861114502,-21.32393455505371,5.817208766937256,-0.9049660563468933,2.877655506134033,0.48670533299446106,1
456,-15.672422409057617,-6.908130168914795,6.214896202087402,-0.8455000519752502,3.068636178970337,0.48212099075317383,1
457,-32.04375076293945,0.6797246932983398,7.516522407531738,-0.8177995681762695,2.8514010906219482,0.5480257272720337,1
458,-42.63653564453125,0.3085053265094757,8.733975410461426,-0.7061061859130859,2.612194538116455,0.620404064655304,1
459,-47.05809020996094,-7.564463138580322,9.378260612487793,-0.8063225150108337,2.304976224899292,0.6513189673423767,1
460,-42.895267486572266,-18.696073532104492,8.911656379699707,-0.7969093322753906,2.044976234436035,0.659389853477478,1
461,-37.283424377441406,-20.576635360717773,7.766410827636719,-0.41671621799468994,1.4886225461959839,0.8200926184654236,1
462,-29.090412139892578,-23.361717224121094,6.775961875915527,-0.5336101055145264,1.4804253578186035,0.7143821716308594,1
463,-16.471721649169922,-28.487154006958008,7.289548873901367,0.01714877411723137,1.1921261548995972,0.8568622469902039,1
464,-4.534454345703125,-29.309711456298828,7.644713878631592,0.03286826238036156,1.1726735830307007,0.8212138414382935,1
465,2.5218029022216797,-23.993486404418945,8.114148139953613,0.4016018211841583,1.161777377128601,0.903282105922699,1
466,3.5848710536956787,-18.766586303710938,8.506298065185547,0.7821574211120605,1.2217187881469727,0.9931253790855408,1
467,-1.9006165266036987,-16.95336151123047,7.310917377471924,0.6345266103744507,1.3859723806381226,0.9454165101051331,1
468,-10.877203941345215,-19.042747497558594,7.549627304077148,1.0225290060043335,1.2271897792816162,1.113440990447998,1
469,-23.528362274169922,-17.141849517822266,7.19429874420166,1.098375678062439,1.244787335395813,1.1007970571517944,1
470,-33.02043914794922,-9.827489852905273,6.182493686676025,1.3437811136245728,0.7869808673858643,1.2762234210968018,1
471,-39.88527297973633,0.7889696955680847,5.533187389373779,0.9227068424224854,0.6237411499023438,1.1503762006759644,1
472,-40.95880889892578,7.407188892364502,5.905492782592773,0.9904922246932983,0.16605092585086823,1.244295358657837,1
473,-35.245018005371094,11.36302661895752,5.702200889587402,0.7102628946304321,0.1699584424495697,1.0720314979553223,1
474,-24.96053695678711,9.785261154174805,8.095026016235352,0.5690263509750366,-0.22194534540176392,1.1568926572799683,1
475,-16.311283111572266,5.522317886352539,8.722199440002441,0.4761695861816406,-0.45635250210762024,1.2373257875442505,1
476,-14.524513244628906,-0.956896960735321,9.440617561340332,0.5472195148468018,-0.6067580580711365,1.3314329385757446,1
477,-16.171968460083008,-9.939704895019531,9.202958106994629,0.5862873196601868,-0.4712631106376648,1.2873237133026123,1
478,-21.95615577697754,-23.13112449645996,9.192883491516113,0.7932640314102173,-0.7737115025520325,1.4481987953186035,1
479,-29.724756240844727,-28.297325134277344,8.898613929748535,1.0099776983261108,-0.953249454498291,1.5174732208251953,1
480,-36.01874542236328,-27.25599479675293,7.3838372230529785,1.111139178276062,-1.4738062620162964,1.7088640928268433,1
481,-38.18805694580078,-18.891557693481445,5.68543815612793,1.302313208580017,-1.686171531677246,1.7111722230911255,1
482,-33.909446716308594,-7.521123886108398,5.59482479095459,1.622328281402588,-2.26674747467041,1.8747111558914185,1
483,-25.447500228881836,-0.8928591012954712,4.323724269866943,1.7045737504959106,-2.297883987426758,1.7739778757095337,1
484,-11.66950798034668,4.679211616516113,4.093337535858154,1.7045986652374268,-2.6064565181732178,1.8518221378326416,1
485,-3.119133710861206,10.634995460510254,3.078519344329834,1.5900530815124512,-2.711683750152588,1.891970157623291,1
486,0.550113320350647,14.933403968811035,1.577723741531372,1.4666355848312378,-2.6970279216766357,1.8956177234649658,1
487,0.30100682377815247,14.250191688537598,0.9699626564979553,1.3091057538986206,-2.651435613632202,1.8867018222808838,1
488,-2.2254414558410645,12.171298027038574,1.2588918209075928,1.3028404712677002,-2.8414762020111084,1.9670647382736206,1
489,-6.056757926940918,9.444663047790527,1.4041030406951904,0.8327444791793823,-2.6319501399993896,1.926315188407898,1
490,-12.096734046936035,5.6172380447387695,1.6364411115646362,0.8619438409805298,-2.7368111610412598,1.9277057647705078,1
491,-20.411117553710938,2.028552293777466,0.9280403852462769,0.8680635094642639,-2.8828110694885254,1.930298924446106,1
492,-24.67324447631836,-5.314648151397705,0.968032717704773,0.8062583208084106,-3.273186206817627,2.047459125518799,1
493,-24.20281982421875,-15.578296661376953,-0.9018668532371521,1.1183981895446777,-3.5386953353881836,1.9969290494918823,1
494,-17.263235092163086,-14.45529842376709,-2.34574294090271,1.0303789377212524,-3.5394694805145264,1.9441299438476562,1
495,-4.5068678855896,-7.405914306640625,-3.206164598464966,1.0803136825561523,-3.669750213623047,1.9450076818466187,1
496,5.824682235717773,2.774679660797119,-3.0648820400238037,1.222914457321167,-3.6027145385742188,1.8441170454025269,1
497,11.81078815460205,12.141589164733887,-1.9917349815368652,1.2545509338378906,-3.621673345565796,1.826659917831421,1
498,15.645416259765625,19.967525482177734,-1.7274149656295776,1.1364998817443848,-3.4657886028289795,1.7844454050064087,1
499,17.57768440246582,23.253049850463867,-1.5642560720443726,0.8431082963943481,-3.259270191192627,1.7697720527648926,1
500,14.458224296569824,22.587182998657227,-1.5409728288650513,0.5851844549179077,-3.2123024463653564,1.803231954574585,1
501,8.998339653015137,19.406906127929688,-1.0288845300674438,0.3433710038661957,-3.132960319519043,1.8059401512145996,1
502,3.8088109493255615,11.94029426574707,0.20844583213329315,-0.3620164692401886,-2.9244446754455566,1.9618791341781616,1
503,0.8111414313316345,2.2260546684265137,0.18861065804958344,-0.37808501720428467,-3.0131449699401855,1.9691776037216187,1
504,-2.6859633922576904,-8.276749610900879,0.23523075878620148,-0.31800079345703125,-3.072108030319214,1.9597233533859253,1
505,-2.9642908573150635,-16.67695426940918,0.8578439950942993,-0.11606632173061371,-3.1492254734039307,1.931265115737915,1
506,-1.4184179306030273,-29.468318939208984,2.602787733078003,-0.012473959475755692,-3.136552095413208,1.9785962104797363,1
507,3.40452241897583,-39.88908767700195,3.362755537033081,0.3757098913192749,-3.1495442390441895,1.9940838813781738,1
508,8.594000816345215,-41.19435119628906,3.987903118133545,0.851340651512146,-3.153163433074951,2.0328917503356934,1
509,11.547575950622559,-29.242280960083008,4.182271957397461,1.2252551317214966,-3.0841541290283203,2.106389045715332,1
510,16.916187286376953,-10.047737121582031,4.788518905639648,1.2100348472595215,-2.9443092346191406,2.277770757675171,1
511,21.490432739257812,8.94627857208252,4.495705604553223,1.2796903848648071,-2.7104523181915283,2.3122363090515137,1
512,24.15509796142578,19.081777572631836,5.331525802612305,1.1648802757263184,-2.4909138679504395,2.3609139919281006,1
513,20.883220672607422,24.95167350769043,6.086069107055664,0.9669695496559143,-2.196107864379883,2.3820579051971436,1
514,14.866893768310547,19.76953125,7.165860176086426,0.7033013105392456,-2.055131196975708,2.4663238525390625,1
515,7.009855270385742,10.239821434020996,7.562143325805664,0.6386785507202148,-2.029802083969116,2.5201234817504883,1
516,0.40101659297943115,0.5166629552841187,8.115564346313477,0.6504330635070801,-1.963367223739624,2.555274724960327,1
517,-3.5928096771240234,-6.161163330078125,8.599879264831543,0.7181695103645325,-1.8360072374343872,2.576934814453125,1
518,-2.642671585083008,-9.460063934326172,9.628480911254883,0.4119805693626404,-2.0410053730010986,2.847234010696411,1
519,-0.4770159125328064,-8.086116790771484,9.318804740905762,0.5914937853813171,-2.0484375953674316,2.913536548614502,1
520,3.10135555267334,-8.069486618041992,8.744051933288574,0.5915202498435974,-2.0861828327178955,3.035930871963501,1
521,7.0763115882873535,-10.630043983459473,9.467313766479492,0.9325394630432129,-1.9680484533309937,3.0307493209838867,1
522,10.5116548538208,-9.870064735412598,9.132803916931152,0.9690405130386353,-2.09950852394104,3.2055468559265137,1
523,12.32525634765625,-5.825432777404785,8.641708374023438,0.8901774287223816,-1.7955981492996216,3.293919801712036,1
524,14.14404296875,3.276219606399536,8.155004501342773,1.0047862529754639,-1.6193753480911255,3.3447508811950684,1
525,14.5800199508667,11.319108963012695,7.159857273101807,0.8992490768432617,-1.5042096376419067,3.4438626766204834,1
526,13.205713272094727,13.081729888916016,6.313769340515137,0.8702396154403687,-1.32053804397583,3.4783897399902344,1
527,12.439635276794434,9.549596786499023,5.044100284576416,0.6966940760612488,-1.1601368188858032,3.536442756652832,1
528,13.233623504638672,5.828773021697998,4.526950359344482,0.7364928126335144,-1.0707000494003296,3.5651590824127197,1
529,14.09711742401123,1.6417583227157593,5.412933349609375,0.6773493885993958,-1.112546443939209,3.654254198074341,1
530,12.302306175231934,-1.7950116395950317,5.710999488830566,0.3191821873188019,-0.8529517650604248,3.744027853012085,1
531,10.106532096862793,-1.6351832151412964,5.229542255401611,0.38762521743774414,-0.7073726058006287,3.7870771884918213,1
532,9.282316207885742,-4.029669284820557,4.999965667724609,0.466758131980896,-0.5864934921264648,3.8261454105377197,1
533,8.492265701293945,-11.133261680603027,4.910289287567139,0.6157174706459045,-0.5550506711006165,3.877110242843628,1
534,7.911027431488037,-14.672414779663086,5.161436080932617,0.8473069667816162,-0.4588533043861389,3.911210298538208,1
535,7.442275524139404,-11.957581520080566,4.770645618438721,1.148855209350586,-0.36856478452682495,3.9466235637664795,1
536,8.488717079162598,-14.717119216918945,4.673364162445068,0.9171881675720215,-0.5013796091079712,4.066311359405518,1
537,10.759916305541992,-18.957056045532227,3.1995725631713867,1.0742613077163696,-0.3631224036216736,4.102763652801514,1
538,14.22054672241211,-17.841468811035156,2.063678741455078,1.5541422367095947,-0.3331511914730072,4.138195991516113,1
539,15.894396781921387,-7.879228591918945,1.065618872642517,1.685664176940918,-0.1055930107831955,4.139796257019043,1
540,18.872333526611328,3.199284553527832,1.5389028787612915,1.7958683967590332,0.1587635725736618,4.127092361450195,1
541,18.158935546875,11.693614959716797,1.558784008026123,1.8939204216003418,0.35710012912750244,4.138698101043701,1
542,14.347355842590332,20.977375030517578,1.5942306518554688,1.148388385772705,0.441305011510849,4.165052890777588,1
543,9.847973823547363,24.78431510925293,1.6958961486816406,0.9410673379898071,0.5404917597770691,4.192892551422119,1
544,4.340027332305908,25.67025375366211,1.2749003171920776,0.6862731575965881,0.5556199550628662,4.227890968322754,1
545,1.3992242813110352,18.54244613647461,0.7374035716056824,0.4837636351585388,0.5845482349395752,4.248604774475098,1
546,-1.9061169624328613,4.745790481567383,-1.16758131980896,0.4458256959915161,0.5565615892410278,4.275086402893066,1
547,-3.5766711235046387,-0.4998958706855774,-5.147865295410156,0.3339461386203766,0.5671829581260681,4.244284629821777,1
548,-3.0922393798828125,-9.032166481018066,-8.087891578674316,0.5724348425865173,0.5687772035598755,4.208590507507324,1
549,-3.0183358192443848,-14.289041519165039,-10.483393669128418,0.7587314248085022,0.4155489504337311,4.156503200531006,1
550,-1.1821175813674927,-11.471670150756836,-12.634088516235352,1.1040116548538208,0.5130835175514221,4.056271076202393,1
551,3.0197415351867676,-3.036283493041992,-14.580202102661133,1.1156175136566162,0.5791507363319397,3.8996775150299072,1
552,5.64472770690918,9.628965377807617,-15.458211898803711,1.252432107925415,0.6928342580795288,3.75984263420105,1
553,3.539402723312378,21.86920738220215,-16.570453643798828,0.5626813173294067,0.2861312925815582,3.592381000518799,1
554,0.11163060367107391,30.606346130371094,-17.330488204956055,0.27190619707107544,0.3915803134441376,3.4067940711975098,1
555,-2.222410202026367,31.818830490112305,-17.613603591918945,0.04944808408617973,0.21089991927146912,3.280411958694458,1
556,-2.044355630874634,23.367586135864258,-17.540790557861328,-0.275838702917099,0.25406041741371155,3.0951004028320312,1
557,-0.2539461553096771,5.828857421875,-17.697229385375977,-0.38384583592414856,0.3068644404411316,2.9324636459350586,1
558,2.1218152046203613,-2.8349103927612305,-16.589000701904297,-0.3436061441898346,0.24168965220451355,2.7801263332366943,1
559,7.319359302520752,-16.68962287902832,-16.157697677612305,-0.19009636342525482,0.39405277371406555,2.6217992305755615,1
560,17.678377151489258,-30.53752326965332,-14.843586921691895,0.18429794907569885,0.5847252011299133,2.4872336387634277,1
561,29.770559310913086,-32.055946350097656,-11.57645320892334,0.5249791741371155,0.8833133578300476,2.337512493133545,1
562,37.531593322753906,-21.396047592163086,-9.158378601074219,0.8461533784866333,0.8814796209335327,2.24812650680542,1
563,39.042945861816406,-5.202892303466797,-7.423248291015625,0.9460034370422363,1.2915774583816528,2.134888172149658,1
564,33.78155517578125,12.87148666381836,-6.366641998291016,0.997881293296814,1.8967634439468384,2.047891139984131,1
565,21.71062469482422,26.704723358154297,-6.141334533691406,0.6218698620796204,2.1102254390716553,1.9458166360855103,1
566,5.684268474578857,34.962486267089844,-5.851794719696045,0.21935945749282837,2.244370222091675,1.8721660375595093,1
567,-9.696380615234375,36.502479553222656,-4.272616863250732,-0.027460666373372078,2.269622325897217,1.8625869750976562,1
568,-20.69027328491211,31.215167999267578,-3.262143850326538,-0.47400858998298645,2.0714592933654785,1.8158769607543945,1
569,-25.661569595336914,22.527467727661133,-3.002046823501587,-0.6465961933135986,1.66169011592865,1.840888261795044,1
570,-23.3944149017334,12.000815391540527,-2.505291223526001,-0.8239666819572449,1.3178329467773438,1.8328864574432373,1
571,-13.979805946350098,2.9701123237609863,-2.4252865314483643,-0.8391246199607849,1.0777937173843384,1.8422282934188843,1
572,0.380596786737442,-3.505133628845215,-2.407041549682617,-0.9623256921768188,1.0248734951019287,1.7884507179260254,1
573,14.14752197265625,-12.99118423461914,-1.7941257953643799,-0.863415539264679,1.1283206939697266,1.7823983430862427,1
574,23.86260986328125,-23.628929138183594,-1.3641412258148193,-0.5302574634552002,1.341815710067749,1.826533317565918,1
575,28.102481842041016,-33.48763656616211,-0.46193280816078186,-0.09601849317550659,1.4567962884902954,1.8595647811889648,1
576,25.17536163330078,-38.539302825927734,0.26262518763542175,0.6842848658561707,1.9678937196731567,1.9897253513336182,1
577,15.311843872070312,-38.622745513916016,0.45793139934539795,0.7108078598976135,2.2084624767303467,1.8631219863891602,1
578,2.005276918411255,-31.922353744506836,1.26221764087677,1.005607008934021,2.32997465133667,1.8279145956039429,1
579,-11.055769920349121,-20.531129837036133,1.457671880722046,1.5327500104904175,2.2278847694396973,1.9080183506011963,1
580,-20.090740203857422,-10.964139938354492,0.633762776851654,1.8024673461914062,2.094914436340332,1.9415409564971924,1
581,-24.090742111206055,0.7296823859214783,-0.05893951654434204,1.5972764492034912,1.8453099727630615,1.8322890996932983,1
582,-23.5559139251709,21.82859230041504,0.9205840826034546,1.1263978481292725,1.6358600854873657,1.6764217615127563,1
583,-16.534461975097656,38.374088287353516,2.401578187942505,0.7598291039466858,1.4804039001464844,1.642874002456665,1
584,-3.86733078956604,41.287620544433594,3.9683725833892822,0.30673420429229736,1.2556324005126953,1.6553542613983154,1
585,8.103865623474121,35.01260757446289,5.240373611450195,-0.21249909698963165,1.3115551471710205,1.6602681875228882,1
586,14.57339096069336,19.106441497802734,5.940889358520508,-0.5496287941932678,1.5235651731491089,1.7143069505691528,1
587,15.207830429077148,-3.1261234283447266,6.811653137207031,-0.49586957693099976,1.7145673036575317,1.8516528606414795,1
588,8.488898277282715,-21.64396858215332,7.477301597595215,-0.19080592691898346,1.854871153831482,2.0032503604888916,1
589,-3.251695156097412,-44.649410247802734,7.2572102546691895,-0.0003993759455624968,1.9219285249710083,2.0516018867492676,1
590,-16.712146759033203,-57.76044464111328,7.29074239730835,0.800826907157898,1.7864623069763184,2.2231059074401855,1
591,-27.447683334350586,-54.343971252441406,5.163785457611084,1.1672999858856201,1.4399003982543945,2.2047054767608643,1
592,-33.33184051513672,-29.315406799316406,4.23013162612915,1.6069154739379883,0.9557079672813416,2.227445125579834,1
593,-29.774768829345703,3.0175516605377197,3.2500576972961426,1.8812305927276611,0.6785730123519897,2.2702996730804443,1
594,-17.346237182617188,22.59861946105957,2.7352042198181152,1.5734177827835083,0.4451755881309509,2.220806360244751,1
595,-4.264767169952393,40.125755310058594,2.3186192512512207,1.3279082775115967,0.2764156758785248,2.2505433559417725,1
596,6.771325588226318,47.073150634765625,0.08429525792598724,0.7065544128417969,0.38953834772109985,2.2039942741394043,1
597,11.03789234161377,43.010765075683594,-1.8445239067077637,0.2116972655057907,0.5455363392829895,2.192563056945801,1
598,12.788938522338867,32.7672119140625,-1.9845844507217407,-0.30835816264152527,0.5257555246353149,2.1671953201293945,1
599,11.897141456604004,19.71543312072754,-2.392148494720459,-0.39571863412857056,0.8243166208267212,2.188148021697998,1
600,7.934789180755615,0.17508690059185028,-2.066626787185669,-0.4559458792209625,1.0656949281692505,2.184385299682617,1
601,4.53220796585083,-22.757198333740234,-1.5232962369918823,-0.39286553859710693,0.9510297179222107,2.17535662651062,1
602,-4.308586120605469,-41.515071868896484,-2.112929344177246,0.15544594824314117,1.0384973287582397,2.2104172706604004,1
603,-10.84447956085205,-50.05802536010742,-3.014089345932007,0.9758822321891785,1.0632119178771973,2.2542452812194824,1
604,-11.401552200317383,-44.42426681518555,-4.055428504943848,2.2249507904052734,0.2201560139656067,2.3883914947509766,1
605,-7.443748950958252,-30.18788719177246,-6.414849758148193,3.0513484477996826,0.6151641011238098,2.3819289207458496,1
606,-3.800651788711548,-13.821637153625488,-9.989258766174316,3.166583299636841,0.027551570907235146,2.3400380611419678,1
607,-0.9328204393386841,8.919892311096191,-13.975013732910156,2.824381113052368,0.12025594711303711,2.1489250659942627,1
608,2.2169783115386963,31.280025482177734,-15.04092025756836,3.0827696323394775,0.7394440770149231,1.9501454830169678,1
609,8.950347900390625,41.863502502441406,-13.984128952026367,2.232111930847168,0.541568398475647,1.7876362800598145,1
610,6.113420486450195,48.880680084228516,-13.451708793640137,1.4780362844467163,0.3264133036136627,1.6763908863067627,1
611,1.6748621463775635,55.231544494628906,-13.234224319458008,0.9210792183876038,0.5036365389823914,1.5171128511428833,1
612,5.058359146118164,44.750457763671875,-12.561979293823242,0.11489950120449066,0.8019357919692993,1.3138988018035889,1
613,11.846515655517578,25.431079864501953,-11.938037872314453,-0.42307135462760925,0.8685569167137146,1.1809684038162231,1
614,20.589101791381836,7.682602882385254,-11.867209434509277,0.20538771152496338,2.1262612342834473,0.9903037548065186,1
615,26.293237686157227,-3.786081075668335,-9.38560962677002,0.1350174993276596,2.4166595935821533,0.8687450289726257,1
616,20.419700622558594,-8.05967903137207,-5.944405555725098,0.05365897715091705,2.499192953109741,0.7840217351913452,1
617,4.671262264251709,-3.5500659942626953,-3.8874289989471436,0.15256935358047485,2.5643153190612793,0.7396244406700134,1
618,-17.482839584350586,2.5041251182556152,-2.8454558849334717,0.028361231088638306,2.552833318710327,0.6768143773078918,1
619,-40.935203552246094,16.46013641357422,-2.486903190612793,-0.11567269265651703,2.0142579078674316,0.6551742553710938,1
620,-57.94005584716797,23.88269805908203,-0.4599114954471588,-0.49705371260643005,1.598924994468689,0.5976889133453369,1
621,-64.39936065673828,30.64268684387207,0.31135469675064087,-0.845235288143158,0.751737117767334,0.5852640271186829,1
622,-62.73631286621094,30.600128173828125,2.101579427719116,-1.035955548286438,0.23546653985977173,0.6173468828201294,1
623,-50.95487594604492,26.41813087463379,2.103522777557373,-1.477635145187378,-0.4749297499656677,0.6101402640342712,1
624,-35.220726013183594,18.267810821533203,1.4711865186691284,-1.598036289215088,-1.108606219291687,0.6398093104362488,1
625,-17.456117630004883,13.70559310913086,0.3706122040748596,-1.9250054359436035,-1.5877654552459717,0.6181545257568359,1
626,-3.4167675971984863,8.669878005981445,-0.2849477231502533,-2.0899479389190674,-1.7915757894515991,0.6083426475524902,1
627,10.2103271484375,-2.503204345703125,-1.7929089069366455,-2.177560329437256,-1.7651116847991943,0.6066368222236633,1
628,20.767148971557617,-15.792937278747559,-2.7474663257598877,-2.0475010871887207,-1.539772629737854,0.6081137657165527,1
629,28.073747634887695,-23.78073501586914,-2.466053009033203,-1.7423036098480225,-1.1724839210510254,0.6114718317985535,1
630,30.1438045501709,-23.12579917907715,-3.258756399154663,-1.6111267805099487,-0.725907027721405,0.6256235241889954,1
631,25.288352966308594,-23.88372039794922,-3.3420495986938477,-1.2449028491973877,-0.31525349617004395,0.6128599643707275,1
632,14.807393074035645,-24.43149757385254,-3.575640916824341,-0.5150148868560791,-0.7683761119842529,0.3951568305492401,1
633,-1.6379801034927368,-24.213912963867188,-3.649123191833496,-1.2750986814498901,-0.07924824953079224,0.5668660402297974,1
634,-16.26953887939453,-21.14565658569336,-5.421469211578369,-1.1066346168518066,-0.13247470557689667,0.5343390703201294,1
635,-25.498003005981445,-14.464970588684082,-7.0660400390625,-0.7954853773117065,-0.3818330466747284,0.4529874622821808,1
636,-30.207733154296875,-3.7152764797210693,-7.553066730499268,-0.6520435810089111,-0.7411181330680847,0.3591904640197754,1
637,-27.735416412353516,1.4716709852218628,-7.875838756561279,-0.5577458739280701,-1.1135071516036987,0.26308345794677734,1
638,-19.702537536621094,7.71219539642334,-10.070374488830566,-0.5589812397956848,-1.3850520849227905,0.1747458428144455,1
639,-5.835405349731445,14.536160469055176,-11.66651439666748,-0.6700612306594849,-1.5374631881713867,0.07285643368959427,1
640,10.25242805480957,18.751855850219727,-12.791829109191895,-0.8730409145355225,-1.8070406913757324,-0.09498195350170135,1
641,24.840681076049805,19.576139450073242,-13.852751731872559,-1.0433303117752075,-1.5066062211990356,-0.20372091233730316,1
642,35.745513916015625,10.800244331359863,-14.471522331237793,-1.207152009010315,-1.0048617124557495,-0.3021015524864197,1
643,39.948402404785156,-2.4420828819274902,-14.564143180847168,-1.1857903003692627,-0.5456683039665222,-0.44843509793281555,1
644,33.45021438598633,-16.24143409729004,-13.822076797485352,-0.2796051502227783,-2.5896339416503906,-1.2501401901245117,1
645,21.0323486328125,-32.45948791503906,-11.935704231262207,-0.14494584500789642,-2.055414915084839,-1.3212995529174805,1
646,14.721002578735352,-35.124351501464844,-11.55331802368164,0.2036438137292862,-1.9166203737258911,-1.4403572082519531,1
647,15.855474472045898,-33.53475570678711,-11.194751739501953,0.4971179962158203,-1.5057286024093628,-1.4875938892364502,1
648,22.569917678833008,-21.190448760986328,-10.149893760681152,0.6742517352104187,-1.1239371299743652,-1.5256096124649048,1
649,31.79493522644043,-3.780552625656128,-9.084935188293457,0.8498191833496094,-0.932311475276947,-1.6208248138427734,1
650,38.74588394165039,15.177736282348633,-8.432682991027832,0.6403539180755615,-0.21581551432609558,-1.6183216571807861,1
651,45.11383056640625,31.35556411743164,-6.88967227935791,0.30608928203582764,0.508083164691925,-1.6327717304229736,1
652,44.103004455566406,43.53964614868164,-5.542614459991455,-0.40596896409988403,1.0272818803787231,-1.6041442155838013,1
653,34.54570770263672,51.781166076660156,-5.416422367095947,-0.658153772354126,1.2172389030456543,-1.706645131111145,1
654,18.93123435974121,45.111961364746094,-5.937536239624023,-1.1642415523529053,1.8240042924880981,-1.7256319522857666,1
655,8.554741859436035,33.341712951660156,-6.036038875579834,-1.680933952331543,2.116089344024658,-1.7489227056503296,1
656,0.9804443120956421,17.19420051574707,-5.632594108581543,-2.035463571548462,2.165931463241577,-1.7963639497756958,1
657,-3.2340331077575684,3.881739616394043,-4.3675055503845215,-2.133948564529419,2.190415620803833,-1.8461434841156006,1
658,-4.111040115356445,-12.970588684082031,-3.642423152923584,-2.117579936981201,2.0089151859283447,-1.9132746458053589,1
659,-2.2331128120422363,-29.244203567504883,-2.513805866241455,-2.2168490886688232,2.2387514114379883,-1.903504490852356,1
660,0.3982176184654236,-36.44306182861328,-1.351088285446167,-1.6244982481002808,2.2435898780822754,-1.9282053709030151,1
661,3.928244113922119,-42.43218231201172,1.430436372756958,-0.46974003314971924,2.0626308917999268,-1.9528993368148804,1
662,1.304345965385437,-39.552772521972656,3.5411922931671143,-0.052980002015829086,2.2161521911621094,-1.9306483268737793,1
663,-2.4658756256103516,-31.0994930267334,5.1235175132751465,0.898482084274292,2.2159454822540283,-1.8615256547927856,1
664,-7.1864237785339355,-17.863643646240234,4.819038391113281,1.6193536520004272,2.5354177951812744,-1.7326403856277466,1
665,-10.821690559387207,-1.5786938667297363,4.189319610595703,1.7384364604949951,2.5227322578430176,-1.6914477348327637,1
666,-14.773141860961914,19.113252639770508,4.343751907348633,1.628583550453186,2.2819247245788574,-1.6720308065414429,1
667,-21.81659507751465,44.92066192626953,4.600285530090332,1.0517407655715942,1.9571218490600586,-1.6851521730422974,1
668,-27.45421028137207,64.62026977539062,5.455451488494873,0.08607980608940125,1.5336670875549316,-1.7099032402038574,1
669,-29.09891128540039,65.06239318847656,7.498727798461914,-0.44759708642959595,1.693997859954834,-1.6073830127716064,1
670,-22.459123611450195,52.433326721191406,7.943406105041504,-1.0455259084701538,1.3811991214752197,-1.508148431777954,1
671,-10.949883460998535,25.119068145751953,8.762823104858398,-1.848449945449829,1.308892011642456,-1.4706655740737915,1
672,-1.5546754598617554,-4.332651138305664,9.184886932373047,-1.9815266132354736,1.2479809522628784,-1.3632835149765015,1
673,4.512279987335205,-30.066617965698242,9.520280838012695,-2.121642827987671,1.390903353691101,-1.3019006252288818,1
674,7.3411478996276855,-46.331546783447266,10.486238479614258,-1.414162278175354,1.360676884651184,-1.1536805629730225,1
675,7.024715900421143,-44.74024200439453,12.221892356872559,-1.5515201091766357,1.6665730476379395,-1.1386457681655884,1
676,1.4513627290725708,-29.70505714416504,14.837018013000488,-1.147590160369873,1.671014666557312,-1.040453314781189,1
677,-11.596580505371094,-11.018777847290039,16.743793487548828,-0.8796548247337341,1.8297960758209229,-0.876129150390625,1
678,-31.019006729125977,7.22395658493042,17.014911651611328,-0.7553157210350037,1.5511282682418823,-0.7241147756576538,1
679,-53.44508743286133,19.708345413208008,17.205339431762695,-0.9771156907081604,1.4623782634735107,-0.5454881191253662,1
680,-69.27011108398438,18.82082748413086,17.01228904724121,-1.1330199241638184,0.7134377360343933,-0.38676366209983826,1
681,-76.7627944946289,8.582133293151855,16.05742835998535,-1.4313396215438843,-0.5317632555961609,-0.31276312470436096,1
682,-70.34423828125,-0.3826504945755005,13.807884216308594,-1.489028811454773,-0.8052235841751099,-0.08173678070306778,1
683,-48.823326110839844,-5.340298652648926,11.235596656799316,-1.576461672782898,-1.2698280811309814,0.072323277592659,1
684,-24.29019546508789,-6.058177471160889,8.675053596496582,-1.4527376890182495,-1.6032629013061523,0.21210433542728424,1
685,-0.7819226980209351,-4.2601728439331055,7.653610706329346,-1.4193395376205444,-1.9145488739013672,0.2795366942882538,1
686,15.992267608642578,0.8243836164474487,7.579448699951172,-1.520211935043335,-1.8740490674972534,0.3565866947174072,1
687,24.82395362854004,3.899163007736206,6.851783752441406,-1.5190255641937256,-1.618405818939209,0.445835143327713,1
688,22.365652084350586,4.09530782699585,4.738514423370361,-1.3869266510009766,-1.3825931549072266,0.50019770860672,1
689,11.46008586883545,-5.37794303894043,4.218186855316162,-1.2720738649368286,-1.1020328998565674,0.549180269241333,1
690,-3.885538339614868,-15.808699607849121,4.634674072265625,-0.30431920289993286,-1.1115165948867798,0.5006540417671204,1
691,-20.254060745239258,-16.568832397460938,5.276417255401611,-0.5310890078544617,-1.8520110845565796,0.47877514362335205,1
692,-33.9376106262207,-10.887809753417969,5.605191707611084,-0.21926486492156982,-2.565481662750244,0.4455133080482483,1
693,-40.86494827270508,2.0454156398773193,4.901410102844238,0.4392402768135071,-2.111372947692871,0.5273367166519165,1
694,-37.08561325073242,11.544771194458008,4.591135501861572,-0.25335654616355896,-3.7476322650909424,0.5463258624076843,1
695,-25.463966369628906,16.801856994628906,3.9047083854675293,-0.42017507553100586,-3.7040390968322754,0.6331286430358887,1
696,-5.631816387176514,22.834720611572266,2.848088026046753,-0.686705470085144,-4.2691731452941895,0.6455130577087402,1
697,19.39086151123047,27.509796142578125,2.8244576454162598,-1.0367681980133057,-5.355639457702637,0.5856785774230957,1
698,45.72486877441406,27.858837127685547,2.5375726222991943,-1.7534774541854858,-4.684360980987549,0.7811334729194641,1
699,66.14207458496094,24.752527236938477,2.50317120552063,-1.9415671825408936,-4.022743225097656,0.7716081142425537,1
700,80.03667449951172,11.814103126525879,1.5826923847198486,-2.3747658729553223,-3.225072145462036,0.8851686716079712,1
701,78.74880981445312,-4.827191352844238,-1.2711546421051025,-2.391918659210205,-2.082977294921875,0.911963164806366,1
702,66.37667083740234,-27.371204376220703,-4.782725811004639,-2.5558035373687744,-1.6185567378997803,0.9533274173736572,1
703,50.51947784423828,-51.17161178588867,-7.514851093292236,-1.9227991104125977,-0.5823201537132263,0.8316383957862854,1
704,30.511817932128906,-62.44662857055664,-10.314139366149902,-1.8464035987854004,-0.25779983401298523,0.921084463596344,1
705,11.826597213745117,-66.00240325927734,-12.621077537536621,-1.0485949516296387,0.19792793691158295,0.7858699560165405,1
706,-2.3152737617492676,-64.95693969726562,-14.739885330200195,-0.6301897168159485,0.35216113924980164,0.7600446343421936,1
707,-10.070758819580078,-49.420745849609375,-15.932064056396484,0.12672731280326843,0.3884534239768982,0.5741231441497803,1
708,-9.951208114624023,-23.58982276916504,-15.515959739685059,0.6947522163391113,0.5057056546211243,0.4081995189189911,1
709,0.5553334355354309,4.639493465423584,-13.333568572998047,0.7352880835533142,0.5351709723472595,0.31285980343818665,1
710,11.562577247619629,25.171791076660156,-11.868135452270508,0.5154932141304016,0.6538047194480896,0.22954535484313965,1
711,19.036428451538086,28.268474578857422,-9.878894805908203,0.00851678941398859,0.9281309843063354,0.18244853615760803,1
712,16.688859939575195,21.1249942779541,-9.102218627929688,-0.15700089931488037,1.0170222520828247,0.06321601569652557,1
713,8.964615821838379,8.06373405456543,-8.980013847351074,-0.38194575905799866,1.333581566810608,-0.010777809657156467,1
714,-1.227546215057373,-4.457525730133057,-9.687291145324707,-0.2327304184436798,1.4088279008865356,-0.1281052678823471,1
715,-8.211860656738281,-14.819851875305176,-9.62652587890625,-0.5045347213745117,1.2665290832519531,-0.1972716748714447,1
716,-11.106406211853027,-23.800302505493164,-9.703985214233398,-0.1462540179491043,1.118105411529541,-0.3125258684158325,1
717,-6.085306644439697,-37.07466125488281,-9.940338134765625,0.32382166385650635,1.1281914710998535,-0.42327335476875305,1
718,6.062171936035156,-39.02040481567383,-10.409324645996094,0.9876642823219299,1.2707135677337646,-0.5392377972602844,1
719,15.520857810974121,-28.7779483795166,-9.493500709533691,0.9639699459075928,1.435685634613037,-0.6551740765571594,1
720,19.332605361938477,-10.731216430664062,-7.687372207641602,1.3286724090576172,1.6999655961990356,-0.7587652206420898,1
721,14.182498931884766,5.5066680908203125,-7.647197246551514,1.454993724822998,1.9545671939849854,-0.8402026295661926,1
722,3.3068909645080566,12.664390563964844,-7.572610378265381,1.3829677104949951,2.0861308574676514,-0.9123441576957703,1
723,-9.671008110046387,17.061277389526367,-6.899735450744629,0.6359456777572632,1.7211120128631592,-0.9950059056282043,1
724,-24.13874053955078,12.953934669494629,-5.67780065536499,0.5951670408248901,1.6641703844070435,-1.050143837928772,1
725,-33.163597106933594,6.951976776123047,-3.8917529582977295,0.39726173877716064,1.3260421752929688,-1.100757122039795,1
726,-36.60959243774414,-4.398331642150879,-2.550935745239258,0.4670529067516327,0.8084481954574585,-1.088236689567566,1
727,-30.16636848449707,-24.336170196533203,-0.8874480724334717,0.6350359320640564,1.267368197441101,-1.2189534902572632,1
728,-19.916879653930664,-43.501953125,0.4957493841648102,1.1290110349655151,0.7783275842666626,-1.1606569290161133,1
729,-15.034996032714844,-51.815181732177734,0.6233781576156616,1.3287582397460938,0.5795916318893433,-1.2014403343200684,1
730,-11.492034912109375,-48.12816619873047,-0.5537652969360352,1.9566417932510376,0.4480586647987366,-1.1838395595550537,1
731,-10.97774887084961,-35.75993347167969,-1.1683881282806396,2.6101109981536865,0.42783668637275696,-1.183372139930725,1
732,-14.090785026550293,-19.108936309814453,-2.265331268310547,2.736635208129883,0.23364394903182983,-1.2111536264419556,1
733,-15.486889839172363,-0.6743721961975098,-2.728386878967285,2.7106754779815674,0.22908949851989746,-1.3034347295761108,1
734,-13.806973457336426,7.444876670837402,-1.9576257467269897,2.7595598697662354,0.06842640787363052,-1.319745421409607,1
735,-10.46654987335205,13.993912696838379,-0.557621419429779,2.74237060546875,-0.13336195051670074,-1.3062735795974731,1
736,-4.737475872039795,14.711091041564941,0.5878249406814575,2.6610655784606934,-0.2567746639251709,-1.2961143255233765,1
737,-0.4044059216976166,21.09674072265625,2.273604393005371,2.5037505626678467,-0.2868880033493042,-1.2901127338409424,1
738,2.527139186859131,12.495962142944336,2.621201992034912,2.360985279083252,-0.33218997716903687,-1.246437668800354,1
739,1.1877293586730957,3.093104362487793,2.280521869659424,1.8482608795166016,0.1559087336063385,-1.441394329071045,1
740,-4.304900646209717,-0.755692720413208,2.6901497840881348,1.972921371459961,0.2629204988479614,-1.450850009918213,1
741,-14.372639656066895,-9.593855857849121,2.4293782711029053,2.1118087768554688,0.0929059162735939,-1.369681715965271,1
742,-25.87264060974121,-18.267311096191406,1.8003417253494263,2.2495107650756836,-0.17646951973438263,-1.29939603805542,1
743,-33.96451187133789,-25.313182830810547,1.4371929168701172,2.658182144165039,-0.7555100321769714,-1.138167381286621,1
744,-31.820602416992188,-23.17662811279297,0.5300703644752502,2.203878879547119,-0.8451215624809265,-1.2568386793136597,1
745,-24.688173294067383,-12.63715648651123,1.2312041521072388,2.5966806411743164,-1.180663824081421,-1.2314420938491821,1
746,-15.345304489135742,-2.25747013092041,2.2887156009674072,2.7452571392059326,-1.5316258668899536,-1.1657763719558716,1
747,-6.170450687408447,12.572357177734375,2.9284799098968506,2.8924262523651123,-1.4956729412078857,-1.2291553020477295,1
748,0.9963089823722839,26.609901428222656,3.3174495697021484,2.708686590194702,-1.7004400491714478,-1.132542610168457,1
749,3.1620311737060547,40.61870574951172,3.703054666519165,2.2976791858673096,-1.7336760759353638,-1.0780402421951294,1
750,1.2907110452651978,45.4072265625,3.2989542484283447,1.727360725402832,-1.2375470399856567,-1.254498839378357,1
751,0.7311866879463196,43.58552169799805,3.2062556743621826,1.1280708312988281,-1.4593065977096558,-1.112677812576294,1
752,-3.2995808124542236,25.819244384765625,1.4149608612060547,0.8425724506378174,-1.5551562309265137,-1.0697118043899536,1
753,-6.749691009521484,3.5256857872009277,0.6983829140663147,0.6606735587120056,-1.3389077186584473,-1.171749234199524,1
754,-9.008085250854492,-13.309761047363281,1.6625690460205078,0.8074415326118469,-1.4815813302993774,-1.159601092338562,1
755,-8.15064525604248,-18.153749465942383,2.796372890472412,0.9812501072883606,-1.699730634689331,-1.0943992137908936,1
756,-5.817318916320801,-20.289283752441406,3.529021739959717,1.2759921550750732,-1.881866216659546,-1.0436348915100098,1
757,0.11058852821588516,-10.448275566101074,5.416990756988525,1.4145116806030273,-1.8300950527191162,-1.0213730335235596,1
758,7.232451915740967,3.534318447113037,8.055461883544922,1.5861736536026,-1.8994642496109009,-0.9497072100639343,1
759,9.611332893371582,14.508062362670898,9.229460716247559,1.5406030416488647,-1.8095765113830566,-0.8749962449073792,1
760,5.0573883056640625,23.35609245300293,9.840972900390625,1.1734551191329956,-1.7386127710342407,-0.7383251786231995,1
761,-2.7352805137634277,27.149913787841797,9.673130989074707,1.0924458503723145,-1.7638615369796753,-0.6636723279953003,1
762,-10.77648639678955,32.333587646484375,9.720664024353027,0.6870133876800537,-1.8462820053100586,-0.539628267288208,1
763,-13.156139373779297,32.3969841003418,10.753827095031738,0.24972616136074066,-1.7062745094299316,-0.48859062790870667,1
764,-10.16336441040039,20.669513702392578,11.734248161315918,-0.07773763686418533,-1.7310094833374023,-0.40654662251472473,1
765,-3.118316411972046,9.109271049499512,11.960567474365234,-0.2105683833360672,-1.6772676706314087,-0.33364224433898926,1
766,3.98508882522583,-3.0531163215637207,12.896811485290527,-0.15589626133441925,-1.7436543703079224,-0.24162419140338898,1
767,10.293707847595215,-10.870543479919434,14.994067192077637,0.14186826348304749,-1.7623138427734375,-0.1614195853471756,1
768,7.953709125518799,-15.975602149963379,15.56241512298584,0.07058899849653244,-1.744779348373413,0.048406150192022324,1
769,1.3827526569366455,-8.688862800598145,15.799129486083984,0.29743078351020813,-1.7131638526916504,0.194159135222435,1
770,-6.799983978271484,2.6765029430389404,14.803242683410645,0.4436913728713989,-1.7248815298080444,0.3349655568599701,1
771,-14.077713012695312,20.719804763793945,14.356325149536133,0.32845208048820496,-2.019136667251587,0.5115097761154175,1
772,-19.498146057128906,36.735939025878906,13.651490211486816,0.010104058310389519,-2.24727201461792,0.6724836826324463,1
773,-19.657705307006836,46.226566314697266,12.921924591064453,-0.21468637883663177,-2.515106439590454,0.7523304224014282,1
774,-13.146727561950684,44.197174072265625,13.811991691589355,-0.9046463370323181,-2.645099639892578,0.9191495776176453,1
775,-5.437777042388916,35.58553695678711,12.460304260253906,-1.4084844589233398,-2.811232328414917,1.0530091524124146,1
776,5.461460113525391,24.35719108581543,10.526493072509766,-1.5805282592773438,-2.889310121536255,1.1057662963867188,1
777,16.690420150756836,4.903883457183838,9.820758819580078,-1.8931103944778442,-2.692544460296631,1.2343791723251343,1
778,26.109317779541016,-14.360505104064941,7.431929111480713,-1.7148613929748535,-2.321401596069336,1.2794231176376343,1
779,34.4069938659668,-32.47609329223633,6.427038192749023,-1.3883267641067505,-2.0490927696228027,1.3048182725906372,1
780,38.270042419433594,-42.689212799072266,6.161201477050781,-1.0456894636154175,-1.5107908248901367,1.4095251560211182,1
781,36.69887161254883,-40.42863082885742,4.89654016494751,-0.24950994551181793,-1.2793562412261963,1.3412706851959229,1
782,32.48527526855469,-27.208293914794922,4.405599594116211,0.30270859599113464,-0.6983087658882141,1.3782485723495483,1
783,24.688434600830078,-4.768155097961426,4.027028560638428,1.3986868858337402,0.39757269620895386,1.2834137678146362,1
784,13.828861236572266,20.865467071533203,4.024224281311035,1.239424467086792,0.7961751222610474,1.3827557563781738,1
785,-2.3710076808929443,45.84861755371094,3.6935129165649414,0.6576574444770813,0.08122695237398148,1.4235039949417114,1
786,-22.70033073425293,63.96023941040039,3.740259885787964,-0.2610975205898285,-0.10086964070796967,1.5244319438934326,1
787,-34.46014404296875,66.8580322265625,4.5023393630981445,-2.129361629486084,-0.7820307612419128,1.6972626447677612,1
788,-36.70997619628906,49.02703857421875,4.5755295753479,-2.8887548446655273,-1.7811598777770996,1.6517360210418701,1
789,-29.995431900024414,18.82600975036621,4.915898323059082,-3.1435511112213135,-1.9666540622711182,1.6887654066085815,1
790,-11.485381126403809,-16.049869537353516,4.444039344787598,-3.0081300735473633,-2.185532331466675,1.707420825958252,1
791,13.012487411499023,-44.92265319824219,4.592763900756836,-2.3503434658050537,-2.1076576709747314,1.7312122583389282,1
792,36.818519592285156,-67.49740600585938,5.684985160827637,-0.6461265087127686,-1.0545032024383545,1.840085506439209,1
793,52.5349006652832,-75.4837417602539,7.7970967292785645,0.5081873536109924,-0.14713117480278015,1.9686896800994873,1
794,56.83470153808594,-62.8881721496582,10.571609497070312,1.6638603210449219,0.6474656462669373,2.046077013015747,1
795,44.92001724243164,-31.56100082397461,12.7880277633667,2.399170398712158,0.9502899050712585,2.0813803672790527,1
796,18.38808250427246,10.22876262664795,14.156349182128906,2.492293357849121,2.8428380489349365,2.419693946838379,1
797,-14.524394035339355,55.1942253112793,12.320380210876465,2.0150818824768066,2.7458693981170654,2.559983015060425,1
798,-48.31705856323242,91.79312133789062,10.88213062286377,0.9403091073036194,2.09798526763916,2.6694161891937256,1
799,-79.68572235107422,110.59455871582031,12.010615348815918,-0.24051783978939056,1.180938720703125,2.767465829849243,1
800,-97.0687484741211,108.86730194091797,15.191245079040527,-1.6355713605880737,0.35414889454841614,2.873250722885132,1
801,-97.24041748046875,89.85064697265625,17.52550506591797,-2.741286277770996,-0.9398249983787537,2.984093427658081,1
802,-81.74810791015625,62.565914154052734,19.79477882385254,-3.763763666152954,-1.8384824991226196,3.1290032863616943,1
803,-52.25154113769531,28.4360294342041,19.877544403076172,-4.328665256500244,-2.5791008472442627,3.3123369216918945,1
804,-19.589977264404297,-7.139191627502441,18.22538185119629,-4.453618049621582,-3.2596590518951416,3.4441676139831543,1
805,10.738324165344238,-40.455360412597656,16.507776260375977,-4.0764617919921875,-3.373624801635742,3.64260196685791,1
806,34.15922546386719,-57.62408447265625,16.021713256835938,-3.677351474761963,-3.031708002090454,3.9007136821746826,1
807,44.87268829345703,-59.28265380859375,15.429594993591309,-2.8849830627441406,-2.500620126724243,4.145445823669434,1
808,44.711265563964844,-43.50485610961914,13.735309600830078,-2.896639823913574,-2.5160794258117676,4.1656694412231445,1
809,31.762775421142578,-19.785816192626953,11.571962356567383,-2.4154107570648193,-2.126124858856201,4.286633014678955,1
810,17.010705947875977,2.015958786010742,8.879587173461914,-2.8585197925567627,-2.4328665733337402,4.200942039489746,1
811,2.5144529342651367,15.153539657592773,7.054111957550049,-3.018481969833374,-2.2343192100524902,4.318880558013916,1
812,-5.336905479431152,18.940025329589844,5.4848313331604,-3.1582911014556885,-2.54559588432312,4.218682289123535,1
813,-8.234540939331055,19.56239891052246,4.375258922576904,-3.3597352504730225,-2.6124775409698486,4.262497901916504,1
814,0.06545432657003403,8.324729919433594,2.9406096935272217,-3.657911777496338,-2.6241114139556885,4.344263076782227,1
815,12.561721801757812,-2.8733534812927246,1.3343942165374756,-3.692584991455078,-2.6132843494415283,4.345489501953125,1
816,24.97335433959961,-15.998739242553711,0.783177375793457,-3.4501259326934814,-2.23711895942688,4.445685863494873,1
817,37.520545959472656,-29.383745193481445,-0.5441060662269592,-3.5057461261749268,-2.037682056427002,4.46143913269043,1
818,41.327049255371094,-40.66020584106445,-1.5759787559509277,-3.1036646366119385,-1.6957858800888062,4.420454025268555,1
819,38.181007385253906,-46.517906188964844,-2.8176186084747314,-2.5831754207611084,-1.0515738725662231,4.529491424560547,1
820,34.41391372680664,-53.97991180419922,-4.462566375732422,-2.320281744003296,-1.0696779489517212,4.321908473968506,1
821,27.69997215270996,-58.26348876953125,-5.129056930541992,-1.4736653566360474,-0.5535229444503784,4.336249828338623,1
822,17.883325576782227,-53.84404373168945,-8.402015686035156,-1.3286298513412476,-0.6333410739898682,4.17591667175293,1
823,10.001960754394531,-47.38999557495117,-11.885777473449707,-0.4777052104473114,-0.5303064584732056,4.012441158294678,1
824,9.472350120544434,-31.420310974121094,-15.701523780822754,-0.3046782612800598,-0.5114525556564331,3.8866817951202393,1
825,18.174196243286133,-16.690078735351562,-17.167648315429688,0.07473907619714737,-0.40728092193603516,3.712822437286377,1
826,28.45754623413086,-2.3492743968963623,-16.759687423706055,0.04868362098932266,-0.07829180359840393,3.605180263519287,1
827,38.25558090209961,2.15429949760437,-16.167221069335938,0.25000372529029846,0.5756155252456665,3.539851188659668,1
828,40.427433013916016,1.6416113376617432,-15.462496757507324,0.0829983502626419,0.41626352071762085,3.2240047454833984,1
829,35.91069030761719,-10.195496559143066,-14.69548511505127,0.2655511200428009,1.1597437858581543,3.1567800045013428,1
830,30.406654357910156,-20.555246353149414,-13.579899787902832,0.48129603266716003,1.7923702001571655,3.072545051574707,1
831,21.94413185119629,-24.155141830444336,-10.911231994628906,0.871048092842102,1.4893025159835815,2.8366987705230713,1
832,10.7623291015625,-16.87253189086914,-8.259832382202148,1.0116857290267944,1.7347147464752197,2.725641965866089,1
833,-4.550452709197998,-2.517764091491699,-8.60208511352539,1.334041953086853,1.8718187808990479,2.6691410541534424,1
834,-12.884576797485352,14.501229286193848,-8.55443000793457,1.2379149198532104,1.6136090755462646,2.5596814155578613,1
835,-21.594499588012695,26.519474029541016,-7.535428524017334,1.1150530576705933,1.5721646547317505,2.492393970489502,1
836,-26.680171966552734,28.930259704589844,-6.757687568664551,0.5011242032051086,1.1322132349014282,2.3503825664520264,1
837,-25.913381576538086,15.164480209350586,-7.283351898193359,0.5999735593795776,0.8735478520393372,2.3743832111358643,1
838,-19.445728302001953,-9.159388542175293,-10.67375373840332,0.3507489264011383,0.6044544577598572,2.253054141998291,1
839,-9.8276948928833,-26.46530532836914,-15.357712745666504,0.0772983580827713,0.37984466552734375,2.0272703170776367,1
840,9.058353424072266,-33.21442794799805,-19.40334701538086,0.6113533973693848,0.478348046541214,1.9193814992904663,1
841,26.46195411682129,-33.06155776977539,-21.325071334838867,0.8901462554931641,0.5143840312957764,1.712260365486145,1
842,39.52939224243164,-25.83892822265625,-22.416366577148438,1.4002362489700317,1.176802396774292,1.506883144378662,1
843,49.1292839050293,-12.248781204223633,-22.5230770111084,1.2666010856628418,1.492274522781372,1.1945478916168213,1
844,51.71758270263672,-2.4137446880340576,-22.675872802734375,1.3931405544281006,2.3449933528900146,0.9199700951576233,1
845,45.189876556396484,3.4603447914123535,-20.32820701599121,1.330348253250122,2.4195141792297363,0.753689706325531,1
846,28.553543090820312,0.013771956786513329,-19.547290802001953,1.409755825996399,2.8288464546203613,0.5903299450874329,1
847,9.926090240478516,-1.4198262691497803,-17.959470748901367,1.3536628484725952,3.1651477813720703,0.35972917079925537,1
848,-5.467986583709717,-0.5091143250465393,-14.221369743347168,1.3846783638000488,3.2803077697753906,0.1892796754837036,1
849,-16.09659767150879,3.9855990409851074,-11.630975723266602,1.4463756084442139,3.1714632511138916,0.0941619947552681,1
850,-19.764286041259766,9.565964698791504,-8.048635482788086,1.417913794517517,2.870096445083618,0.034739915281534195,1
851,-16.900381088256836,14.532544136047363,-3.773500680923462,1.4317072629928589,2.6353187561035156,0.0425633080303669,1
852,-10.060138702392578,16.54253578186035,0.7007656097412109,1.2271521091461182,2.489108085632324,-0.005546156316995621,1
853,-5.435080528259277,14.680953025817871,4.068613529205322,0.5283839106559753,2.4503960609436035,-0.2733061611652374,1
854,-6.370267391204834,13.009836196899414,8.548075675964355,0.5047609210014343,2.491389751434326,-0.18526606261730194,1
855,-11.194570541381836,8.516610145568848,9.031227111816406,0.3763517439365387,2.4025421142578125,-0.09892501682043076,1
856,-20.32416343688965,-7.528968334197998,7.096662998199463,0.3986479341983795,2.1891119480133057,0.04387565702199936,1
857,-27.978801727294922,-28.566038131713867,3.598341226577759,0.7180413007736206,2.0504138469696045,0.18802690505981445,1
858,-26.986604690551758,-43.92375946044922,0.07879309356212616,1.0376538038253784,1.7040300369262695,0.2154291570186615,1
859,-19.456897735595703,-50.85014724731445,-3.7075343132019043,1.318626046180725,1.4338618516921997,0.10254966467618942,1
860,-5.4751667976379395,-52.172237396240234,-6.111865997314453,2.203687906265259,1.2596572637557983,0.24285705387592316,1
861,10.225407600402832,-51.75719451904297,-7.914607524871826,2.539055347442627,1.3675347566604614,0.037344738841056824,1
862,25.376806259155273,-27.56089973449707,-9.822996139526367,3.031916856765747,1.7330434322357178,-0.10005200654268265,1
863,31.16083526611328,-10.458629608154297,-10.588289260864258,3.2758750915527344,1.8641873598098755,-0.15135924518108368,1
864,28.35173225402832,11.214265823364258,-12.218045234680176,3.219980239868164,2.3234972953796387,-0.3608277440071106,1
865,20.78476333618164,21.042957305908203,-12.403968811035156,3.224677324295044,2.6108574867248535,-0.41384145617485046,1
866,8.892562866210938,21.64097023010254,-12.779423713684082,2.9766619205474854,2.727147102355957,-0.507187008857727,1
867,-5.807092189788818,10.851749420166016,-12.797517776489258,2.8234691619873047,2.8530306816101074,-0.6321003437042236,1
868,-20.494611740112305,-2.6842734813690186,-11.725772857666016,2.8645524978637695,2.7887017726898193,-0.6981048583984375,1
869,-32.17140579223633,-20.04924201965332,-10.901768684387207,3.0088932514190674,2.3437411785125732,-0.6836806535720825,1
870,-36.078216552734375,-24.081186294555664,-10.929762840270996,2.9426684379577637,1.9527279138565063,-0.8949548602104187,1
871,-31.038267135620117,-20.232297897338867,-9.766407012939453,3.280214309692383,1.5659375190734863,-0.949044406414032,1
872,-19.158729553222656,-18.44780158996582,-7.889254093170166,3.4717628955841064,1.3358417749404907,-1.07272469997406,1
873,-2.9807839393615723,-13.0081787109375,-5.645963191986084,3.807706356048584,1.2607580423355103,-1.1041194200515747,1
874,13.814923286437988,-3.027198314666748,-2.9827616214752197,3.8404977321624756,1.4663523435592651,-1.274216890335083,1
875,21.4614315032959,8.710026741027832,0.9884092211723328,3.6345081329345703,1.7716320753097534,-1.4537774324417114,1
876,17.421009063720703,26.495258331298828,5.918628692626953,3.7067925930023193,1.853158950805664,-1.2644599676132202,1
877,-1.4148335456848145,38.778419494628906,6.53013277053833,3.2122130393981934,1.949588418006897,-1.253020167350769,1
878,-31.51403045654297,48.73011016845703,6.48150634765625,2.613011598587036,1.6869559288024902,-1.1542589664459229,1
879,-57.579498291015625,50.37306594848633,7.735163688659668,1.8728832006454468,1.0617729425430298,-1.0293877124786377,1
880,-66.4652099609375,45.68009948730469,7.840028285980225,1.3405888080596924,0.6925839781761169,-1.0971007347106934,1
881,-59.879478454589844,32.884315490722656,7.280002593994141,0.9505157470703125,0.07496119290590286,-1.0278046131134033,1
882,-37.77904510498047,23.484817504882812,7.478498935699463,0.6570090651512146,-0.7265419363975525,-0.8230516910552979,1
883,-11.441174507141113,8.009513854980469,7.050384044647217,0.4941577613353729,-1.1069071292877197,-0.710812509059906,1
884,15.895889282226562,-0.40260031819343567,8.096232414245605,0.44640159606933594,-0.7484617233276367,-0.8029789924621582,1
885,32.365806579589844,-1.5078094005584717,10.611655235290527,0.559565007686615,-0.3540210425853729,-0.7708499431610107,1
886,38.21442794799805,-9.682703018188477,11.204194068908691,0.6773778200149536,-0.010354548692703247,-0.6523608565330505,1
887,30.336179733276367,-10.888970375061035,12.892606735229492,0.8592010736465454,0.5310602188110352,-0.5799375176429749,1
888,9.058892250061035,-14.761232376098633,11.059258460998535,1.065340518951416,0.7187107801437378,-0.4294566512107849,1
889,-17.21957778930664,-20.450422286987305,7.728137016296387,1.4436068534851074,0.5872297286987305,-0.2515956163406372,1
890,-38.57377624511719,-27.35247802734375,4.693780422210693,1.59075927734375,0.19644878804683685,-0.15174205601215363,1
891,-45.25080108642578,-16.6121883392334,0.8658321499824524,1.9788655042648315,-0.09727072715759277,-0.13875217735767365,1
892,-36.72459411621094,-4.569259166717529,-0.8812448978424072,1.4743322134017944,-0.3511635661125183,-0.22629207372665405,1
893,-20.25783920288086,6.349407196044922,-1.754234790802002,1.5173081159591675,-0.773396909236908,-0.2116544395685196,1
894,-0.5295282602310181,10.297537803649902,-2.6858890056610107,1.4356021881103516,-0.7199969291687012,-0.28014102578163147,1
895,19.02716636657715,11.418122291564941,-2.9777133464813232,1.3423069715499878,-0.729882001876831,-0.2945520281791687,1
896,29.6597843170166,11.726628303527832,-1.5711756944656372,1.2156590223312378,-0.3361232578754425,-0.3599529266357422,1
897,35.576595306396484,17.3922061920166,-1.375679612159729,1.021779179573059,-0.050496116280555725,-0.3657356798648834,1
898,26.57856559753418,16.301816940307617,-1.2821462154388428,0.9640160202980042,0.2565525472164154,-0.3789480924606323,1
899,1.4671648740768433,13.893194198608398,-2.7155487537384033,0.7843633890151978,0.3113839030265808,-0.3733349144458771,1
900,-18.004024505615234,18.614791870117188,-3.388118267059326,0.5727869868278503,0.09373337775468826,-0.37088820338249207,1
901,-33.87888717651367,21.538936614990234,-5.239847183227539,0.4545455276966095,-0.2518764138221741,-0.3980482220649719,1
902,-36.87774658203125,23.313507080078125,-5.65222692489624,0.13136491179466248,-0.8024841547012329,-0.42161795496940613,1
903,-32.63750457763672,23.07425308227539,-5.988326072692871,-0.11742241680622101,-1.076047658920288,-0.4926633834838867,1
904,-23.92551612854004,25.216650009155273,-5.25592565536499,-0.4628363251686096,-1.392479658126831,-0.5457634329795837,1
905,-11.601968765258789,27.583147048950195,-4.406404495239258,-0.5988479256629944,-1.4436758756637573,-0.6219161152839661,1
906,5.0112504959106445,23.016517639160156,-3.7635085582733154,-0.8725259304046631,-1.6378391981124878,-0.6681031584739685,1
907,18.623184204101562,7.940927982330322,-3.0355045795440674,-1.0369982719421387,-1.4053689241409302,-0.7108450531959534,1
908,28.40800666809082,-1.1148309707641602,-0.92417311668396,-1.0042238235473633,-0.990919291973114,-0.7413632869720459,1
909,32.04801940917969,-4.580814361572266,1.8499754667282104,-0.7225061058998108,-0.48834916949272156,-0.7733862996101379,1
910,28.455541610717773,-6.996474266052246,4.876926898956299,-0.48200321197509766,-0.24637550115585327,-0.7831947803497314,1
911,15.997467041015625,-2.8265249729156494,5.979220390319824,-0.36191603541374207,-0.08642903715372086,-0.7481026649475098,1
912,2.9634792804718018,6.527368545532227,6.706479549407959,-0.45994994044303894,0.03041304275393486,-0.6690172553062439,1
913,-11.365767478942871,8.846675872802734,5.43943452835083,-0.5574702620506287,-0.09780764579772949,-0.6142348051071167,1
914,-22.368301391601562,18.16335105895996,4.32908296585083,-0.6855244040489197,-0.42545557022094727,-0.5880697965621948,1
915,-28.849443435668945,20.807104110717773,4.123903751373291,-0.8249048590660095,-0.6458731889724731,-0.5507256984710693,1
916,-24.95564842224121,21.792678833007812,3.465911626815796,-1.1451618671417236,-1.1106833219528198,-0.5291520953178406,1
917,-11.618690490722656,24.6134033203125,2.9721460342407227,-1.4975966215133667,-0.9999752640724182,-0.4189424216747284,1
918,3.944943428039551,24.704200744628906,1.9034122228622437,-1.702417016029358,-1.0485210418701172,-0.3984045386314392,1
919,23.113052368164062,16.523170471191406,1.8374080657958984,-1.81436026096344,-1.0972630977630615,-0.44443464279174805,1
920,32.178714752197266,6.7185821533203125,3.2793667316436768,-1.9418444633483887,-0.6716628074645996,-0.38602080941200256,1
921,30.794761657714844,-3.0590741634368896,5.875028610229492,-1.9071366786956787,-0.5332236289978027,-0.41594064235687256,1
922,21.03585433959961,-3.593248128890991,8.73679256439209,-1.7996288537979126,-0.018029717728495598,-0.289016991853714,1
923,10.192197799682617,-13.715788841247559,9.592196464538574,-1.6599336862564087,0.21922336518764496,-0.18937280774116516,1
924,-5.14244270324707,-26.93190574645996,9.573553085327148,-1.2402931451797485,0.22237452864646912,-0.15216310322284698,1
925,-23.439285278320312,-37.35313034057617,8.579638481140137,-1.028388500213623,-0.08177556097507477,-0.10613587498664856,1
926,-28.7574462890625,-37.77060317993164,8.005556106567383,-0.41807112097740173,-0.5357176661491394,-0.12107376754283905,1
927,-29.17443084716797,-39.38884735107422,6.816126823425293,0.03869717940688133,-0.7949660420417786,-0.036702241748571396,1
928,-20.290863037109375,-24.906829833984375,5.767218112945557,0.5089594721794128,-1.1192169189453125,-0.0003328475577291101,1
929,-6.687619686126709,-0.771486759185791,4.692193984985352,0.5617383122444153,-1.4712903499603271,0.020838947966694832,1
930,9.290682792663574,26.096487045288086,4.278433322906494,0.3321634531021118,-1.3971806764602661,0.11001179367303848,1
931,21.56598663330078,49.68770217895508,3.9001169204711914,-0.23293748497962952,-1.1732914447784424,0.20688584446907043,1
932,33.185142517089844,67.09695434570312,3.6310694217681885,-1.0540157556533813,-0.6487129330635071,0.34731096029281616,1
933,36.96147155761719,72.39317321777344,3.604701042175293,-2.1740095615386963,-0.18349231779575348,0.4882844388484955,1
934,33.74003601074219,65.35897064208984,3.862959623336792,-2.547910690307617,0.025277679786086082,0.41657745838165283,1
935,19.045894622802734,42.953243255615234,4.45177698135376,-3.303654432296753,0.0888504758477211,0.4089181125164032,1
936,-4.821472644805908,8.504446029663086,3.8447954654693604,-3.5394463539123535,0.05206356942653656,0.38608092069625854,1
937,-25.611082077026367,-28.45986557006836,2.246452808380127,-3.1458911895751953,-0.19654832780361176,0.3200007379055023,1
938,-36.95014572143555,-52.35725021362305,-0.16875246167182922,-2.7170443534851074,-0.5437886714935303,0.3114040493965149,1
939,-36.88032531738281,-55.2173957824707,-2.5292463302612305,-1.8490742444992065,-1.0430389642715454,0.21526454389095306,1
940,-23.158538818359375,-38.5321159362793,-6.95299768447876,-1.5375174283981323,-1.2477203607559204,0.26816678047180176,1
941,-2.978637456893921,-13.322282791137695,-12.768904685974121,-1.1195871829986572,-1.3831419944763184,0.18158364295959473,1
942,18.95816421508789,8.70160961151123,-17.21323013305664,-1.2498369216918945,-1.2553356885910034,0.11138655990362167,1
943,42.163089752197266,35.58208465576172,-20.22665786743164,-1.6671229600906372,-0.7371438145637512,0.06926747411489487,1
944,60.56886291503906,44.0727424621582,-23.781707763671875,-1.8748350143432617,-0.3604309856891632,-0.22667016088962555,1
945,64.12688446044922,50.815269470214844,-26.853158950805664,-2.6136837005615234,0.6674262285232544,-0.25535503029823303,1
946,52.78733444213867,43.2728385925293,-31.136653900146484,-3.000781774520874,0.877366840839386,-0.724155604839325,1
947,30.361473083496094,27.38831901550293,-32.89519119262695,-3.4837679862976074,1.420800805091858,-0.9761495590209961,1
948,4.655951976776123,1.4503543376922607,-32.850799560546875,-3.587599754333496,1.6881827116012573,-1.273409366607666,1
949,-17.85801887512207,-22.782352447509766,-31.885955810546875,-3.275331735610962,1.5432018041610718,-1.6648614406585693,1
950,-36.93367385864258,-42.15190124511719,-30.778236389160156,-2.997748613357544,1.0749191045761108,-2.1046128273010254,1
951,-47.71943283081055,-51.50971984863281,-29.150907516479492,-2.1937403678894043,0.36267489194869995,-2.5680766105651855,1
952,-41.45669937133789,-58.82399368286133,-26.27083396911621,-1.9957715272903442,-0.1035459041595459,-2.852719783782959,1
953,-21.552101135253906,-56.630340576171875,-24.376962661743164,-1.3015512228012085,-0.4064638018608093,-3.077194929122925,1
954,2.4124674797058105,-56.20626449584961,-21.091421127319336,-0.5627521276473999,-0.334035187959671,-3.1985580921173096,1
955,23.952362060546875,-42.399452209472656,-18.321598052978516,0.19209258258342743,-0.06010967120528221,-3.315004825592041,1
956,39.668941497802734,-28.41547393798828,-15.045730590820312,0.2612094581127167,0.22268995642662048,-3.4922142028808594,1
957,49.04674530029297,-9.934364318847656,-11.984031677246094,0.5393717885017395,0.8944677710533142,-3.574796438217163,1
958,55.113399505615234,5.890279769897461,-10.456104278564453,0.6074733734130859,1.4906741380691528,-3.6656134128570557,1
959,57.23734664916992,13.814752578735352,-7.55227518081665,0.48786962032318115,1.9909441471099854,-3.772623300552368,1
960,53.26486587524414,12.329237937927246,-4.070407867431641,0.3362014591693878,2.473367214202881,-3.8499507904052734,1
961,37.9574089050293,11.030338287353516,-0.8972414135932922,0.23034542798995972,3.219365358352661,-3.8168857097625732,1
962,12.650120735168457,18.998708724975586,2.7990293502807617,0.02578427642583847,3.214332342147827,-3.8583381175994873,1
963,-10.592731475830078,13.27077579498291,7.502624034881592,-0.1555357128381729,3.180602550506592,-3.8229193687438965,1
964,-27.840909957885742,11.591996192932129,12.115598678588867,-0.25478771328926086,3.050318717956543,-3.7134451866149902,1
965,-34.10529327392578,13.859248161315918,16.001344680786133,-0.614078938961029,2.585702657699585,-3.64554762840271,1
966,-38.94282913208008,23.229839324951172,21.955360412597656,-0.7962958812713623,2.043645143508911,-3.4624478816986084,1
967,-39.50182342529297,16.954744338989258,26.379375457763672,-1.1827166080474854,1.7722088098526,-3.2523155212402344,1
968,-38.99319076538086,9.175875663757324,29.530418395996094,-1.27151620388031,1.2749598026275635,-2.9654197692871094,1
969,-38.902748107910156,-8.461812019348145,31.054597854614258,-1.1734451055526733,0.9401110410690308,-2.6242411136627197,1
970,-33.17089080810547,-28.868755340576172,30.112911224365234,-0.7507525086402893,0.3745785355567932,-2.276486873626709,1
971,-24.67165184020996,-43.50287628173828,28.08531951904297,-0.019401218742132187,0.5823899507522583,-1.8174024820327759,1
972,-10.419872283935547,-46.206932067871094,25.251047134399414,0.5563388466835022,0.38887539505958557,-1.5119404792785645,1
973,4.069744110107422,-43.53740310668945,22.079748153686523,1.1906471252441406,0.41825777292251587,-1.2281371355056763,1
974,15.001055717468262,-22.616506576538086,22.34724235534668,1.1171646118164062,0.7264909744262695,-1.095884084701538,1
975,20.644054412841797,-0.10696038603782654,21.73975944519043,0.9978576302528381,0.9156306982040405,-0.9270537495613098,1
976,18.067262649536133,23.86019515991211,21.83418846130371,0.8040202260017395,1.174353837966919,-0.7226718664169312,1
977,5.778011322021484,38.03932189941406,21.26181983947754,0.3530939519405365,1.118387222290039,-0.5228103995323181,1
978,-10.87277889251709,45.19224166870117,20.78687858581543,-0.33983752131462097,1.0388739109039307,-0.3551977872848511,1
979,-26.929086685180664,43.667266845703125,21.31510353088379,-0.7318487167358398,1.063594102859497,-0.14079944789409637,1
