,gyro.x,gyro.y,gyro.z,stabilizer.pitch,stabilizer.roll,stabilizer.yaw,label
0,-0.005451096687465906,-0.039684560149908066,0.2006068229675293,-0.030963923782110214,-1.466118335723877,-31.81364631652832,1
1,-0.014875517226755619,-0.074447862803936,0.1014556959271431,0.21421682834625244,-1.2675706148147583,-31.779253005981445,1
2,-0.005810532718896866,-0.08476943522691727,0.18688204884529114,-0.2943271994590759,-1.123862862586975,-31.753931045532227,1
3,0.014712922275066376,0.07784254103899002,0.298941969871521,-0.2332007884979248,-0.9573649168014526,-31.720991134643555,1
4,0.05996166169643402,-0.06288067251443863,0.2699928283691406,-0.06547888368368149,-1.0202341079711914,-31.684398651123047,1
5,0.13860873878002167,-0.019422410055994987,0.21900659799575806,-0.06370231509208679,-1.3109288215637207,-31.65372085571289,1
6,-0.026112353429198265,0.007943864911794662,0.29887425899505615,0.30458560585975647,-1.3429324626922607,-31.613351821899414,1
7,0.06834796816110611,0.00021778731024824083,0.30304479598999023,-0.09545216709375381,-1.3044809103012085,-31.58553123474121,1
8,0.00788557343184948,-0.21365660429000854,0.21671633422374725,-0.02468450926244259,-1.2757560014724731,-31.55307388305664,1
9,0.004396353382617235,-0.01201619766652584,0.20720437169075012,-0.34192490577697754,-1.1317740678787231,-31.523401260375977,1
10,-0.056903060525655746,-0.03466681391000748,0.26924240589141846,-0.2691352963447571,-1.2728420495986938,-31.492040634155273,1
11,0.00204478669911623,0.01838965341448784,0.32028114795684814,0.0941886156797409,-1.43956458568573,-31.460481643676758,1
12,0.006279589142650366,-0.17049020528793335,0.2901906371116638,-0.19529548287391663,-1.0669916868209839,-31.424545288085938,1
13,0.07586628943681717,-0.03796330466866493,0.239855095744133,-0.03542111814022064,-1.4122722148895264,-31.394115447998047,1
14,0.10888247191905975,-0.02184169366955757,0.22594036161899567,-0.23002517223358154,-1.2299741506576538,-31.3602352142334,1
15,0.1410335749387741,-0.1750371754169464,0.3413551449775696,0.003127755830064416,-0.8423410654067993,-31.324113845825195,1
16,0.04965350404381752,-0.13376441597938538,0.1101912260055542,0.11363313347101212,-0.9334883093833923,-31.289573669433594,1
17,0.04336929693818092,-0.046191055327653885,0.20908740162849426,-0.057539116591215134,-1.0028927326202393,-31.263246536254883,1
18,0.027920443564653397,-0.15850841999053955,0.214491605758667,-0.0577942356467247,-1.243918538093567,-31.23006820678711,1
19,-0.06060892716050148,-0.07254516333341599,0.22427891194820404,-0.05875622481107712,-1.2335009574890137,-31.198366165161133,1
20,0.004140725824981928,-0.0926605835556984,0.2669069766998291,-0.05946914106607437,-1.035224437713623,-31.1669979095459,1
21,0.0982707291841507,-0.09947013109922409,0.1798241138458252,0.06869485229253769,-1.0151374340057373,-31.131519317626953,1
22,-0.02432357519865036,-0.08168652653694153,0.1945551186800003,-0.15683358907699585,-1.0653377771377563,-31.10707664489746,1
23,-0.0032656618859618902,-0.057044532150030136,0.2781800925731659,-0.003085550619289279,-1.1034550666809082,-31.069908142089844,1
24,0.038210589438676834,-0.17695406079292297,0.15455590188503265,-0.21049295365810394,-1.5815846920013428,-31.042818069458008,1
25,0.09949896484613419,-0.09230080246925354,0.25413861870765686,0.279685378074646,-1.2254884243011475,-31.006113052368164,1
26,0.0733758807182312,-0.1046268492937088,0.26616206765174866,-0.06599051505327225,-1.2201457023620605,-30.976261138916016,1
27,-0.04701927676796913,-0.10730572789907455,0.2249433398246765,-0.002848738571628928,-1.0836353302001953,-30.945941925048828,1
28,0.08258502930402756,0.0012837048852816224,0.30587124824523926,-0.08389443904161453,-1.1141316890716553,-30.914628982543945,1
29,-0.012066181749105453,-0.15085764229297638,0.33930060267448425,-0.014385856688022614,-1.0723011493682861,-30.88159942626953,1
30,0.05606846883893013,-0.08203524351119995,0.1191699281334877,-0.1563209444284439,-1.106782078742981,-30.852062225341797,1
31,0.029407426714897156,-0.07138840854167938,0.24327880144119263,-0.0024226917885243893,-1.6493730545043945,-30.81638526916504,1
32,-0.07064357399940491,-0.07074876874685287,0.192519873380661,-0.27847251296043396,-1.5316256284713745,-30.784500122070312,1
33,0.04904744401574135,-0.015075252391397953,0.2130991667509079,0.23268017172813416,-1.1213884353637695,-30.75909996032715,1
34,-0.006296026520431042,-0.21492412686347961,0.2607848346233368,-0.1693935990333557,-1.465959906578064,-30.72132110595703,1
35,0.04355774074792862,-0.06439962238073349,0.2366257607936859,-0.14196501672267914,-0.9354563355445862,-30.68995475769043,1
36,0.040665868669748306,-0.06981685757637024,0.21684369444847107,0.2066756784915924,-1.2001687288284302,-30.65804672241211,1
37,0.05303075909614563,-0.20472656190395355,0.19751308858394623,-0.12525078654289246,-1.4592664241790771,-30.62584686279297,1
38,0.0052925716154277325,-0.10848353058099747,0.30165910720825195,0.152094304561615,-1.1937817335128784,-30.597702026367188,1
39,0.05430766940116882,-0.0649852305650711,0.3000089228153229,-0.16329452395439148,-0.9372609257698059,-30.5688419342041,1
40,0.09778889268636703,-0.08977378904819489,0.17508132755756378,0.1205977201461792,-1.1354897022247314,-30.53148078918457,1
41,0.06789038330316544,-0.08872455358505249,0.26819169521331787,-0.05757497623562813,-1.3419960737228394,-30.500673294067383,1
42,-0.00797337107360363,-0.07773221284151077,0.16300010681152344,-0.12359979003667831,-0.9834715127944946,-30.472562789916992,1
43,0.025085819885134697,-0.01730194501578808,0.21474577486515045,-0.17244692146778107,-1.0422208309173584,-30.442481994628906,1
44,0.015119259245693684,-0.08059263229370117,0.25216349959373474,-0.3343188464641571,-1.4030286073684692,-30.41820526123047,1
45,0.04521910473704338,-0.12814214825630188,0.21728765964508057,-0.1972152441740036,-1.0262765884399414,-30.376848220825195,1
46,4.169673442840576,-4.203656196594238,33.00674819946289,0.055942602455616,-1.2417254447937012,-30.345203399658203,1
47,-13.480097770690918,12.9459867477417,45.262638092041016,0.020893516018986702,-0.9046192169189453,-29.976736068725586,1
48,-7.709067344665527,8.607667922973633,39.98127746582031,0.04247162491083145,-0.883419394493103,-29.214717864990234,1
49,-1.5085326433181763,2.7202086448669434,37.06760787963867,0.315109521150589,-0.5327852964401245,-28.793603897094727,1
50,-2.041780710220337,3.382014751434326,30.440820693969727,0.269835889339447,-0.4198562204837799,-28.38434600830078,1
51,1.0897852182388306,-0.028923526406288147,24.132524490356445,0.22836725413799286,-0.32323208451271057,-28.04922103881836,1
52,-2.3907487392425537,1.7781398296356201,25.57965660095215,0.15550123155117035,-0.3153195083141327,-27.77983856201172,1
53,3.288214683532715,-2.767765998840332,18.37508201599121,-0.11276967078447342,-0.3170248568058014,-27.538867950439453,1
54,-2.00689435005188,2.0197548866271973,15.008136749267578,0.07699348777532578,-0.7107765078544617,-27.284107208251953,1
55,14.23372745513916,-15.378615379333496,141.5953369140625,0.0527409128844738,-0.7109845876693726,-27.066980361938477,1
56,-10.089890480041504,8.693641662597656,75.63018035888672,-0.5882097482681274,-0.6526826024055481,-25.953872680664062,1
57,-4.813517093658447,3.142327308654785,39.381263732910156,-0.559394121170044,-0.7979564070701599,-25.073318481445312,1
58,6.083596706390381,-5.212825298309326,29.124874114990234,-0.5122711658477783,-0.8760730028152466,-24.600969314575195,1
59,-5.476296424865723,3.2850141525268555,17.838825225830078,0.11375199258327484,-0.7424253821372986,-24.210006713867188,1
60,3.798642158508301,-3.56026554107666,2.3052709102630615,-0.2668960690498352,-0.9158092141151428,-24.026565551757812,1
61,2.014401435852051,-2.3046605587005615,1.2445619106292725,-0.28411605954170227,-0.8575401902198792,-23.956640243530273,1
62,-3.5832903385162354,3.370076894760132,-0.23340235650539398,-0.3421609401702881,-1.0532581806182861,-23.94028663635254,1
63,1.4413373470306396,-1.8673611879348755,0.6857722997665405,-0.4324052333831787,-1.6614149808883667,-23.94684410095215,1
64,0.014581486582756042,0.269123375415802,-0.41752591729164124,-0.2160634845495224,-1.254865288734436,-23.89605140686035,1
65,-0.5869806408882141,0.7397741079330444,-0.1630239188671112,-0.28644657135009766,-1.102626085281372,-23.86598014831543,1
66,1.082201361656189,-1.4608263969421387,0.8109704852104187,-0.24536821246147156,-1.340432047843933,-23.849708557128906,1
67,-0.81834876537323,0.9542151093482971,-0.11244615912437439,-0.5283304452896118,-1.3124372959136963,-23.819416046142578,1
68,-0.12901607155799866,-0.05093146860599518,0.4318482279777527,-0.5158966779708862,-1.212938904762268,-23.79086685180664,1
69,0.5340626239776611,-0.880218505859375,0.5439642071723938,-0.49258318543434143,-1.5057990550994873,-23.782512664794922,1
70,-0.5749775171279907,0.8725616335868835,-0.12239518016576767,-0.49069318175315857,-1.503793478012085,-23.75665283203125,1
71,0.6403353214263916,-0.9198879599571228,0.5134376883506775,-0.3383214771747589,-1.433611512184143,-23.73195457458496,1
72,0.05090287700295448,-0.09314649552106857,0.12277953326702118,-0.2809317111968994,-1.141471028327942,-23.688488006591797,1
73,-0.41110315918922424,0.4560239017009735,-0.001638303860090673,0.0,0.0,0.0,1
74,0.4005966782569885,-0.7190900444984436,0.44261983036994934,-0.002221527509391308,-0.0019158008508384228,0.0006841949070803821,1
75,-0.1843360960483551,0.2191006988286972,0.015577875077724457,-0.33274540305137634,-0.00833601038902998,0.002658404875546694,1
76,-0.03212716057896614,0.08799635618925095,0.19486093521118164,-0.3187972605228424,-0.06070994585752487,0.005012606270611286,1
77,0.2973988354206085,-0.44739288091659546,0.35608676075935364,0.1487860381603241,-1.0966016054153442,0.005458330735564232,1
78,-0.3383033871650696,0.31671029329299927,0.07529903203248978,-0.5398939251899719,-0.27008217573165894,0.009063110686838627,1
79,0.024744948372244835,-0.21876539289951324,0.28934168815612793,0.059160955250263214,-0.8736686706542969,0.0093987500295043,1
80,0.15701456367969513,-0.3043380677700043,0.3374215066432953,-1.18730628490448,-0.1969008892774582,0.017012538388371468,1
81,-0.15149155259132385,0.24984019994735718,0.180860236287117,0.15882469713687897,-0.31493690609931946,0.016283605247735977,1
82,0.21256627142429352,-0.3778219223022461,0.33162981271743774,-0.5151333808898926,-0.4402635097503662,0.018816713243722916,1
83,-0.013601875863969326,-0.20266085863113403,0.2282576709985733,0.0012152683921158314,-0.5362042784690857,0.020372683182358742,1
84,-0.0791073888540268,0.0864824429154396,0.14763949811458588,-0.5267946720123291,-0.6224817037582397,0.02257128804922104,1
85,0.2575557827949524,-0.2918342649936676,0.30071014165878296,-0.4800804555416107,-0.31559401750564575,0.02677956409752369,1
86,-0.08956389129161835,-0.08730333298444748,0.20270219445228577,-0.07746357470750809,-0.13841477036476135,0.02949213795363903,1
87,0.028638513758778572,-0.07165667414665222,0.24039022624492645,-1.1483232975006104,-0.7188777327537537,0.025760307908058167,1
88,0.22863028943538666,-0.3690491318702698,0.2793860137462616,-0.0036974025424569845,-0.8016976118087769,0.02908492460846901,1
89,-0.009305320680141449,0.01892682909965515,0.19422276318073273,-0.10166112333536148,-0.8628625273704529,0.031144723296165466,1
90,-0.10093988478183746,-0.05997363105416298,0.1923666149377823,-0.6934018731117249,-0.9172038435935974,0.03468608483672142,1
91,0.13265259563922882,-0.20534184575080872,0.270389199256897,-0.593174934387207,-0.9664874076843262,0.03555851802229881,1
92,-0.08563754707574844,0.09187539666891098,0.17921766638755798,-0.28719523549079895,-1.4593316316604614,0.030381223186850548,1
93,-0.012485343031585217,-0.16964082419872284,0.42419013381004333,-0.0850972905755043,-1.5776801109313965,0.030094949528574944,1
94,-0.03605539724230766,-0.14857254922389984,0.23212826251983643,-0.1532319039106369,-1.2469788789749146,0.035338226705789566,1
95,-0.011761549860239029,0.02754814550280571,0.25319305062294006,-0.20089641213417053,-1.215202808380127,0.03922220319509506,1
96,0.11426657438278198,-0.22071853280067444,0.3168529272079468,-0.8001185655593872,-1.00900399684906,0.05685223639011383,1
97,0.04076418653130531,-0.16823992133140564,0.19531580805778503,-0.1348380446434021,-1.2275956869125366,0.042344413697719574,1
98,-0.09915690124034882,0.03229829668998718,0.21163518726825714,-0.3553188741207123,-1.039704442024231,0.051254671066999435,1
99,0.17719709873199463,-0.1397446095943451,0.22661980986595154,-0.5133660435676575,-0.914264976978302,0.057718075811862946,1
100,0.03797190636396408,0.011695979163050652,0.18874777853488922,-0.15005840361118317,-1.294297695159912,0.04926517605781555,1
101,0.09747884422540665,-0.013414655812084675,0.2975706160068512,-0.644547164440155,-1.1124908924102783,0.06300818175077438,1
102,-0.014189418405294418,-0.15325945615768433,0.2498263716697693,-0.5595849752426147,-1.1307164430618286,0.06297530233860016,1
103,-0.04509991407394409,-0.049397651106119156,0.21220825612545013,-0.22041060030460358,-1.1475460529327393,0.05793021246790886,1
104,0.006031590513885021,-0.08034703135490417,0.2948717176914215,-0.3776756525039673,-1.163177251815796,0.06384764611721039,1
105,-0.029138008132576942,-0.07579304277896881,0.28730055689811707,-0.10340911149978638,-1.1757333278656006,0.0605093352496624,1
106,-0.056761737912893295,0.024707376956939697,0.23536784946918488,-0.38605788350105286,-1.1069574356079102,0.0698072612285614,1
107,0.07161501049995422,-0.18274487555027008,0.18387463688850403,-0.12537012994289398,-1.1388682126998901,0.06667940318584442,1
108,0.10079925507307053,-0.09507309645414352,0.16050046682357788,-0.5221114158630371,-1.1634687185287476,0.0758902058005333,1
109,-0.011267147958278656,-0.04863300174474716,0.11021939665079117,-0.35020387172698975,-1.1831190586090088,0.07425787299871445,1
110,-0.0021108079236000776,-0.20947928726673126,0.28374236822128296,-0.3350764811038971,-1.1991534233093262,0.07586193084716797,1
111,-0.005508486647158861,-0.11478616297245026,0.23727639019489288,-0.10463408380746841,-1.650977373123169,0.07158640772104263,1
112,-0.037176117300987244,-0.047033607959747314,0.21835944056510925,-0.15350443124771118,-1.1184111833572388,0.07444979250431061,1
113,0.020014755427837372,-0.1978946030139923,0.16609564423561096,-0.18848983943462372,-1.2591170072555542,0.077845498919487,1
114,0.05412369221448898,-0.08706604689359665,0.17634108662605286,-0.21620184183120728,-1.4670733213424683,0.0818810984492302,1
115,-0.09135514497756958,-0.017121855169534683,0.1501092165708542,-0.23718956112861633,-1.414810299873352,0.08407711982727051,1
116,-0.02609388530254364,-0.13941407203674316,0.28234896063804626,-0.25260552763938904,-1.3758642673492432,0.08651133626699448,1
117,0.15011265873908997,-0.16825394332408905,0.2613971531391144,-0.46274662017822266,-1.047767162322998,0.09467602521181107,1
118,-0.013234038837254047,-0.04719389230012894,0.30616116523742676,-0.3239644467830658,-1.0055921077728271,0.09358657151460648,1
119,-0.02721540257334709,0.011453134007751942,0.26078861951828003,-0.3192325532436371,-1.1688144207000732,0.09591622650623322,1
120,0.027213403955101967,-0.19288437068462372,0.24291536211967468,-0.40649595856666565,-1.1945475339889526,0.1000126302242279,1
121,0.04163826256990433,-0.09799254685640335,0.2177385836839676,-0.1966971904039383,-1.6654973030090332,0.09670615941286087,1
122,0.09295541793107986,-0.007822621613740921,0.20875093340873718,-0.22467398643493652,-1.2092738151550293,0.09954984486103058,1
123,0.02461419813334942,-0.12292439490556717,0.16359737515449524,-0.24460819363594055,-1.2258491516113281,0.10205025225877762,1
124,-0.039748936891555786,-0.0522303506731987,0.2147868126630783,-0.5994100570678711,-1.154781460762024,0.1133657917380333,1
125,-0.020087214186787605,-0.019471177831292152,0.22439943253993988,-0.1876184195280075,-1.3555628061294556,0.1045013889670372,1
126,0.04302847757935524,-0.06447945535182953,0.21159155666828156,-0.21812401711940765,-1.3355525732040405,0.10740573704242706,1
127,-0.024485182017087936,-0.15770094096660614,0.1804186999797821,-0.23953860998153687,-1.3214750289916992,0.11031126976013184,1
128,-0.05867479741573334,-0.08552365005016327,0.20276257395744324,-0.3350795805454254,-1.0718464851379395,0.11445463448762894,1
129,-0.05174921452999115,-0.03083989769220352,0.16716869175434113,-0.4050699472427368,-1.2081410884857178,0.11755160242319107,1
130,0.007218247279524803,0.02257654257118702,0.1862584352493286,-0.2217308133840561,-1.2276368141174316,0.11638597398996353,1
131,0.06408733874559402,-0.049630049616098404,0.14946502447128296,-0.47632119059562683,-1.164723515510559,0.12273816019296646,1
132,0.08155427873134613,-0.01575385592877865,0.15115459263324738,-0.352847158908844,-1.1969332695007324,0.12202268093824387,1
133,0.09209130704402924,-0.15242135524749756,0.19416047632694244,-0.2598067820072174,-1.6067522764205933,0.11970128864049911,1
134,-0.07700291275978088,0.001254397677257657,0.19543865323066711,-0.4243130385875702,-1.2920897006988525,0.12738549709320068,1
135,0.09953886270523071,-0.10974686592817307,0.2021447867155075,-0.311959445476532,-1.2137742042541504,0.12713438272476196,1
136,0.17090904712677002,-0.1665198802947998,0.24667368829250336,-0.1519387811422348,-1.4630728960037231,0.12460099905729294,1
137,0.01341942511498928,-0.08880854398012161,0.2282542884349823,-0.3412008285522461,-1.263500452041626,0.13166271150112152,1
138,0.07786621153354645,-0.22371767461299896,0.3136340081691742,-0.1747308224439621,-1.3468196392059326,0.1300094574689865,1
139,-0.11211109161376953,-0.08085209876298904,0.23968738317489624,-0.3560941219329834,-1.2581837177276611,0.1374841034412384,1
140,0.021475354209542274,-0.12165617942810059,0.25853240489959717,-0.33674752712249756,-1.1190240383148193,0.13977587223052979,1
141,0.12372110038995743,-0.0625557079911232,0.2244635820388794,-0.024096300825476646,-1.241324782371521,0.13663838803768158,1
142,0.02877860702574253,-0.0833880603313446,0.20710410177707672,-0.242920383810997,-1.4063224792480469,0.14285387098789215,1
143,0.05553585663437843,-0.17131802439689636,0.22852380573749542,-0.3287551701068878,-1.3044321537017822,0.14610125124454498,1
144,0.03155815601348877,-0.21203409135341644,0.24101120233535767,-0.3172764480113983,-1.229190468788147,0.14805929362773895,1
145,-0.056894250214099884,-0.027372824028134346,0.14573585987091064,-0.2346765100955963,-1.3982226848602295,0.14896290004253387,1
146,0.004764626733958721,-0.12275824695825577,0.16739077866077423,-0.09981919080018997,-1.2240298986434937,0.14759831130504608,1
147,-0.0044601112604141235,-0.09516971558332443,0.21162061393260956,-0.22388483583927155,-1.2449427843093872,0.15160532295703888,1
148,0.03526472672820091,-0.07224105298519135,0.2782770097255707,-0.31600698828697205,-1.2594341039657593,0.15564444661140442,1
149,0.0834803581237793,-0.1046333834528923,0.30619895458221436,-0.3097158372402191,-1.270923376083374,0.15757174789905548,1
150,0.0451582670211792,-0.08486658334732056,0.2905849516391754,-0.5255990624427795,-1.2788722515106201,0.1631167232990265,1
151,0.004239371512085199,-0.05617876350879669,0.16152161359786987,-0.3894951641559601,-1.285292387008667,0.1635487675666809,1
152,0.10246048867702484,-0.1483955979347229,0.3379788100719452,-0.215091735124588,-1.2896699905395508,0.16361041367053986,1
153,0.06318514049053192,-0.0996982604265213,0.16004317998886108,-0.23255951702594757,-1.2199351787567139,0.16665227711200714,1
154,0.03192179650068283,-0.12080471217632294,0.23178550601005554,-0.24561035633087158,-1.6066104173660278,0.1679316610097885,1
155,0.0423823818564415,-0.15043430030345917,0.3130948543548584,-0.25550761818885803,-1.3821277618408203,0.16983813047409058,1
156,0.015179632231593132,-0.08109854906797409,0.2089419960975647,-0.33556801080703735,-1.2153730392456055,0.17453394830226898,1
157,0.14120544493198395,-0.12999102473258972,0.18719635903835297,-0.32211217284202576,-1.454578161239624,0.17543424665927887,1
158,-0.026083434000611305,-0.1204279214143753,0.20589202642440796,-0.23967893421649933,-1.4151699542999268,0.1754094958305359,1
159,0.1300514042377472,-0.054852258414030075,0.3241513669490814,-0.39368483424186707,-1.2412184476852417,0.1817193627357483,1
160,0.07635337114334106,-0.06491999328136444,0.14730441570281982,-0.3645647168159485,-1.2575968503952026,0.18362164497375488,1
161,-0.008541586808860302,0.0338672436773777,0.27598610520362854,-0.34381991624832153,-1.3391228914260864,0.18414701521396637,1
162,0.04243205487728119,0.019655564799904823,0.37861257791519165,-0.1912938952445984,-1.1901148557662964,0.18539059162139893,1
163,0.06212306022644043,-0.07015140354633331,0.22874435782432556,-0.21917979419231415,-1.3575259447097778,0.1883246749639511,1
164,-0.026234926655888557,-0.06393744796514511,0.3459353446960449,-0.2387126386165619,-1.273732304573059,0.19105800986289978,1
165,0.022486282512545586,-0.20678484439849854,0.2241119146347046,-0.2518500089645386,-1.1469151973724365,0.19363802671432495,1
166,-0.0911673828959465,-0.059562839567661285,0.21327853202819824,-0.26146605610847473,-1.395315170288086,0.19648896157741547,1
167,0.001866886275820434,-0.039094798266887665,0.1748376488685608,-0.2688375413417816,-1.3712377548217773,0.19879154860973358,1
168,0.11115475744009018,-0.05753545090556145,0.23176296055316925,-0.2745150923728943,-1.284821629524231,0.20036828517913818,1
169,-0.002162985736504197,-0.058105021715164185,0.1884237825870514,-0.6857659220695496,-1.222651720046997,0.20683354139328003,1
170,-0.010641383938491344,-0.15657195448875427,0.12686660885810852,-0.16810812056064606,-1.316184639930725,0.2039465606212616,1
171,-0.04391654580831528,-0.06213533133268356,0.1546194702386856,-0.19870693981647491,-1.3834091424942017,0.2050001472234726,1
172,0.09842029213905334,-0.08083344995975494,0.216902494430542,-0.2896134555339813,-1.293784737586975,0.2077290564775467,1
173,-0.0011337213218212128,-0.1036195158958435,0.26653632521629333,-0.21866634488105774,-1.297297716140747,0.2089468091726303,1
174,0.036239657551050186,-0.028780020773410797,0.24581082165241241,-0.305366575717926,-1.3004225492477417,0.21247398853302002,1
175,-0.03589100390672684,-0.13952310383319855,0.23511727154254913,-0.29953089356422424,-1.2343089580535889,0.21474023163318634,1
176,0.01705019176006317,-0.20096783339977264,0.2097114473581314,-0.2946940064430237,-1.4631736278533936,0.21630777418613434,1
177,0.0698813796043396,-0.018730873242020607,0.20866866409778595,-0.22285336256027222,-1.3518614768981934,0.21760773658752441,1
178,-0.0017293523997068405,-0.16714692115783691,0.24184033274650574,-0.2398156076669693,-1.2017006874084473,0.21917875111103058,1
179,-0.025307010859251022,-0.03649615868926048,0.10033885389566422,-0.25307515263557434,-1.2325191497802734,0.2210121601819992,1
180,0.007952696643769741,-0.09161341190338135,0.16830982267856598,-0.26174676418304443,-1.392624855041504,0.22254152595996857,1
181,-0.012373114004731178,-0.1450156718492508,0.2492019236087799,-0.26736921072006226,-1.3689998388290405,0.2246294915676117,1
182,0.01416406873613596,-0.0321248434484005,0.12000513821840286,-0.27292996644973755,-1.3521592617034912,0.22666330635547638,1
183,-0.08435045182704926,-0.07663130015134811,0.16598597168922424,-0.2761216461658478,-1.3396310806274414,0.22804658114910126,1
184,0.07770057767629623,-0.06954480707645416,0.28183895349502563,-0.2789980173110962,-1.330077886581421,0.2299758940935135,1
185,0.12714144587516785,-0.05361362174153328,0.36030539870262146,-0.28121134638786316,-1.467794418334961,0.2327432781457901,1
186,-0.05512826889753342,-0.1439630687236786,0.20418138802051544,-0.3571489453315735,-1.1998320817947388,0.23671956360340118,1
187,0.05061282590031624,-0.12194636464118958,0.2388993203639984,-0.3381407558917999,-1.300740361213684,0.23812009394168854,1
188,0.048239096999168396,-0.061495497822761536,0.3011801540851593,-0.24757921695709229,-1.3009382486343384,0.23985880613327026,1
189,0.10491304099559784,-0.11382146179676056,0.18681104481220245,-0.17968341708183289,-1.3000752925872803,0.24202552437782288,1
190,0.17405404150485992,-0.09782394021749496,0.2905271053314209,-0.17834292352199554,-1.2973881959915161,0.2441401332616806,1
191,0.03969889506697655,-0.166946679353714,0.2926531434059143,-0.357298344373703,-1.144776463508606,0.2472676932811737,1
192,0.0624132975935936,-0.09642729163169861,0.21296009421348572,-0.6416226029396057,-1.1855725049972534,0.24870432913303375,1
193,0.07385100424289703,-0.15799939632415771,0.1682630330324173,-0.3196442425251007,-1.2175500392913818,0.25149503350257874,1
194,0.08188446611166,-0.15397997200489044,0.14694251120090485,-0.15125922858715057,-1.2426570653915405,0.25376325845718384,1
195,-0.017198489978909492,0.010923407971858978,0.19223912060260773,-0.17931656539440155,-1.2622147798538208,0.2552533745765686,1
196,0.09039109200239182,0.024321768432855606,0.32038071751594543,-0.20348939299583435,-1.2785440683364868,0.25681185722351074,1
197,-0.03771575167775154,-0.10242383182048798,0.23052705824375153,-0.22220174968242645,-1.213807463645935,0.2587757110595703,1
198,0.07069099694490433,-0.11968351155519485,0.23245958983898163,-0.23503299057483673,-1.472276210784912,0.2618122398853302,1
199,0.049622856080532074,-0.1025066003203392,0.2019767016172409,-0.2445657104253769,-1.587770700454712,0.26466262340545654,1
200,0.010039453394711018,-0.09145485609769821,0.25051650404930115,-0.32684773206710815,-1.2983684539794922,0.26624107360839844,1
201,0.010618888773024082,-0.11988434195518494,0.2488149106502533,-0.2393959015607834,-1.3800842761993408,0.2680712640285492,1
202,-0.014015407301485538,-0.12949323654174805,0.13506008684635162,-0.24816471338272095,-1.659712553024292,0.27055060863494873,1
203,-0.00643586739897728,-0.06458751112222672,0.25119054317474365,-0.5470160245895386,-1.1370928287506104,0.2774531841278076,1
204,0.13848687708377838,-0.010824569500982761,0.251138836145401,-0.18586675822734833,-1.258404016494751,0.27465131878852844,1
205,0.01927686110138893,-0.05591757595539093,0.2806367874145508,-0.28035566210746765,-1.2738906145095825,0.2774672508239746,1
206,-0.00807392317801714,-0.009621298871934414,0.2187568098306656,-0.277459979057312,-1.2864594459533691,0.2796824276447296,1
207,0.0003527392982505262,-0.14078441262245178,0.23206770420074463,-0.2761051058769226,-1.2972438335418701,0.2816159427165985,1
208,0.08133195340633392,-0.05150077864527702,0.16695617139339447,-0.20198442041873932,-1.3048585653305054,0.28315526247024536,1
209,-0.11287933588027954,-0.11722537875175476,0.28723904490470886,-0.4322987198829651,-1.3104228973388672,0.28477582335472107,1
210,0.015282727777957916,-0.13250207901000977,0.24374093115329742,-0.2490805983543396,-1.2465097904205322,0.28758054971694946,1
211,0.2525499165058136,-0.15479253232479095,0.9604693055152893,-0.25313374400138855,-1.269307017326355,0.29028838872909546,1
212,-0.31848278641700745,0.3194385766983032,-0.28217270970344543,-0.1828344762325287,-1.2066421508789062,0.2954178750514984,1
213,0.47049063444137573,-1.1228660345077515,0.674237072467804,-0.21162372827529907,-1.5188263654708862,0.29815953969955444,1
214,-1.0100501775741577,2.118030548095703,-0.4543342590332031,-0.21112003922462463,-1.382997751235962,0.2960891127586365,1
215,0.3066299259662628,-0.7270585298538208,-0.05176803097128868,-0.434287428855896,-1.2767441272735596,0.3048170506954193,1
216,2.1080915927886963,-2.4058775901794434,1.2296075820922852,-0.18832458555698395,-1.2704048156738281,0.30631327629089355,1
217,1.261316180229187,-2.9868056774139404,-1.741549015045166,-0.4354323148727417,-1.199524998664856,0.3120618462562561,1
218,5.753111362457275,-6.0040364265441895,0.5066016912460327,-0.32896697521209717,-1.145009160041809,0.31516802310943604,1
219,7.7742815017700195,-7.592201232910156,0.351171612739563,-0.03708086162805557,-0.9523323774337769,0.3187125623226166,1
220,8.988717079162598,-8.932317733764648,1.7970479726791382,0.21788766980171204,-0.970087468624115,0.33740437030792236,1
221,9.352348327636719,-8.830208778381348,2.2073144912719727,0.3020595908164978,-0.662852942943573,0.3559330403804779,1
222,10.502720832824707,-11.261239051818848,3.2772774696350098,-0.030986985191702843,-0.5366729497909546,0.36703357100486755,1
223,-2.690521478652954,-3.3014538288116455,1.3662605285644531,0.15796808898448944,-0.43229472637176514,0.3969112038612366,1
224,-4.541858196258545,-5.485153675079346,4.258816242218018,0.6007551550865173,-0.5181542634963989,0.45500507950782776,1
225,7.346139430999756,2.379460334777832,-0.7929419279098511,0.2829623818397522,-0.5321711301803589,0.4536759853363037,1
226,-6.647135257720947,11.437027931213379,-0.45977142453193665,0.3506086468696594,-0.7732606530189514,0.46348652243614197,1
227,-7.718733310699463,4.944009780883789,3.8229029178619385,-0.017616581171751022,-0.8461446762084961,0.4506496787071228,1
228,4.711935043334961,-2.9554080963134766,5.555342197418213,0.4246743619441986,-0.8555890321731567,0.5332963466644287,1
229,12.821650505065918,-4.256982326507568,3.7465362548828125,0.17817513644695282,-0.39209800958633423,0.5403662323951721,1
230,15.473957061767578,-11.946242332458496,3.1444718837738037,0.1133599653840065,-0.39688989520072937,0.5675809979438782,1
231,12.719364166259766,-7.638387680053711,4.592715740203857,0.28758957982063293,0.11651696264743805,0.5840586423873901,1
232,11.311094284057617,4.378323078155518,7.060821533203125,0.42356202006340027,0.2828466594219208,0.6490305662155151,1
233,11.285407066345215,6.039992809295654,7.630791187286377,0.3714303970336914,0.7671308517456055,0.690960168838501,1
234,6.683962821960449,5.333312034606934,7.527388572692871,-0.006570123136043549,0.47281843423843384,0.7382583618164062,1
235,-3.5181190967559814,4.8641037940979,8.203654289245605,0.418885737657547,-0.06321114301681519,0.9641940593719482,1
236,-13.193821907043457,5.359213829040527,6.801151275634766,0.2511861026287079,-0.16238656640052795,1.023070216178894,1
237,-8.403419494628906,4.231968402862549,6.071290016174316,0.11316143721342087,-1.0681706666946411,1.1361851692199707,1
238,3.422821521759033,-0.19185255467891693,5.472535610198975,2.099141836166382,-0.663467288017273,1.4611151218414307,1
239,19.917850494384766,2.527775287628174,4.812187671661377,2.75095796585083,0.05283825471997261,1.4941749572753906,1
240,34.026004791259766,17.801156997680664,4.155206680297852,3.0851361751556396,0.45688024163246155,1.5534120798110962,1
241,38.856388092041016,32.36763381958008,6.6997389793396,2.591017007827759,0.5947325825691223,1.6345819234848022,1
242,22.592138290405273,52.82472610473633,6.0391154289245605,2.951479911804199,1.6441618204116821,1.5888406038284302,1
243,-2.4192237854003906,68.421142578125,5.998495578765869,2.1390085220336914,1.9550862312316895,1.5277844667434692,1
244,-24.442291259765625,84.992919921875,5.959809303283691,2.303373336791992,2.9695918560028076,1.5385231971740723,1
245,-46.503902435302734,93.50875854492188,5.239448547363281,1.6052781343460083,2.6851794719696045,1.638887882232666,1
246,-57.94472885131836,94.37216186523438,4.530317783355713,0.8082910776138306,2.3675947189331055,1.7686721086502075,1
247,-63.86084747314453,90.00678253173828,2.960839033126831,-0.5024230480194092,1.7193593978881836,1.627779483795166,1
248,-64.99060821533203,88.86795806884766,1.825048804283142,-1.4421826601028442,0.8372871279716492,1.6731499433517456,1
249,-62.5469970703125,78.17282104492188,2.3102355003356934,-2.599597215652466,0.05595708265900612,1.4704374074935913,1
250,-57.9927864074707,67.82398986816406,2.653148651123047,-3.745844602584839,-0.739262044429779,1.3231321573257446,1
251,-48.9603385925293,56.71322250366211,3.3023478984832764,-5.059525489807129,-1.41904616355896,1.1467211246490479,1
252,-36.496368408203125,38.360382080078125,6.441957950592041,-5.854742050170898,-1.897943377494812,1.0882033109664917,1
253,-24.5037841796875,23.621795654296875,7.635581016540527,-6.177135467529297,-2.1968798637390137,1.1528159379959106,1
254,-16.655086517333984,8.386736869812012,7.130964756011963,-7.083168029785156,-2.335231304168701,1.3137143850326538,1
255,-9.577352523803711,-4.885318756103516,5.632239818572998,-6.580276966094971,-2.9309325218200684,0.8922096490859985,1
256,-4.631297588348389,-15.197239875793457,5.736575603485107,-6.951817512512207,-3.46671986579895,0.6223406791687012,1
257,1.2720966339111328,-20.824403762817383,5.856316566467285,-6.802898406982422,-3.708923578262329,0.4902389347553253,1
258,13.305723190307617,-30.410444259643555,4.433694839477539,-6.195874214172363,-4.588724613189697,-0.4779609143733978,1
259,24.06817626953125,-41.22687530517578,5.78814697265625,-6.3266282081604,-4.324592113494873,-0.13757012784481049,1
260,35.37556076049805,-46.339027404785156,3.743774890899658,-4.6861701011657715,-3.7615950107574463,-0.3578324019908905,1
261,45.14699172973633,-47.04440689086914,2.848421096801758,-4.720357894897461,-3.358853578567505,-0.03879976272583008,1
262,49.43342208862305,-37.049903869628906,1.338496208190918,-4.002579212188721,-3.3633084297180176,-0.5271453261375427,1
263,48.169254302978516,-26.128238677978516,1.0919002294540405,-4.146152496337891,-2.668957233428955,-0.1215408593416214,1
264,45.00599670410156,-14.28563117980957,-0.06711074709892273,-3.7041070461273193,-2.3129985332489014,-0.27602651715278625,1
265,39.215030670166016,-0.7635637521743774,-0.5594182014465332,-4.195404529571533,-1.6185462474822998,0.12028311938047409,1
266,32.74243927001953,12.817708969116211,-1.710774302482605,-4.015738010406494,-1.6949925422668457,-0.24265152215957642,1
267,24.221921920776367,19.613319396972656,-0.12109235674142838,-4.537622928619385,-1.236131191253662,-0.06603444367647171,1
268,18.75151252746582,18.877660751342773,0.46061331033706665,-4.723280429840088,-0.8300555944442749,0.057347945868968964,1
269,17.04024314880371,14.30870532989502,0.7173846364021301,-5.187368869781494,-0.33523276448249817,0.29993581771850586,1
270,14.734254837036133,3.0453364849090576,0.8392351865768433,-5.169061660766602,1.1787109375,1.1568964719772339,1
271,10.60379409790039,-15.611661911010742,-2.333547830581665,-4.5700883865356445,1.3535517454147339,1.1879785060882568,1
272,0.22255785763263702,-33.33972930908203,-2.753161668777466,-4.653430461883545,1.2167940139770508,1.0031764507293701,1
273,-12.806679725646973,-46.29034423828125,-0.35586732625961304,-5.022215366363525,0.759627640247345,0.5945620536804199,1
274,-25.629037857055664,-52.9550666809082,3.4791457653045654,-4.422578811645508,0.5711542367935181,0.6050084829330444,1
275,-35.34233856201172,-55.625282287597656,5.467410087585449,-3.4280142784118652,-0.02445618435740471,0.5711847543716431,1
276,-39.1531867980957,-52.966495513916016,5.428177833557129,-3.1765480041503906,-0.3616046905517578,0.583489179611206,1
277,-33.16482925415039,-43.975467681884766,5.333470344543457,-2.687892198562622,-0.7462946176528931,0.6350129842758179,1
278,-24.26729393005371,-36.0792350769043,5.988969326019287,-3.009974479675293,-1.2390928268432617,0.5274621248245239,1
279,-14.22605037689209,-32.612510681152344,6.128877639770508,-2.715852975845337,-1.4242936372756958,0.5966446995735168,1
280,1.7562289237976074,-33.22694396972656,5.278912544250488,-2.796971082687378,-1.528491497039795,0.6374763250350952,1
281,17.688385009765625,-35.79113006591797,4.916579723358154,-2.1628520488739014,-1.4876723289489746,0.6896898746490479,1
282,31.411771774291992,-38.4643440246582,4.6056060791015625,-1.7556971311569214,-1.3946688175201416,0.7227432727813721,1
283,37.551063537597656,-35.2924690246582,4.732380390167236,-1.2178030014038086,-0.9182090759277344,0.7923680543899536,1
284,36.73985290527344,-35.296634674072266,4.724302291870117,-1.2985681295394897,-0.6317282319068909,0.8485057950019836,1
285,26.5864200592041,-34.56861114501953,4.8993401527404785,-0.6744399070739746,-0.282339870929718,0.9002892374992371,1
286,12.357481002807617,-36.20417404174805,5.593584060668945,-0.6459841132164001,-0.004121182486414909,0.9453195929527283,1
287,-4.856396198272705,-37.85920715332031,5.190267562866211,-0.19878515601158142,0.014241598546504974,1.0095826387405396,1
288,-24.404659271240234,-40.024505615234375,3.9022374153137207,-0.04637051001191139,-0.11328824609518051,1.0465774536132812,1
289,-38.051082611083984,-41.0955924987793,2.192312240600586,0.7352895140647888,-0.5663106441497803,1.1518125534057617,1
290,-39.40221405029297,-39.639713287353516,-0.6048802137374878,1.1042156219482422,-0.8894039988517761,1.1513851881027222,1
291,-29.631914138793945,-29.0997257232666,-2.7709827423095703,1.0585912466049194,-1.1387939453125,1.0848095417022705,1
292,-10.738530158996582,-19.75860595703125,-5.480626106262207,1.5276073217391968,-1.328041672706604,1.0372254848480225,1
293,14.812739372253418,-13.936019897460938,-8.465206146240234,1.759525179862976,-1.0973933935165405,0.8690832257270813,1
294,40.35447311401367,-10.463558197021484,-7.344539165496826,1.7832117080688477,-0.6511385440826416,0.6881572008132935,1
295,58.655826568603516,-4.017995834350586,-4.872581481933594,1.4040799140930176,-0.380802720785141,0.7077513933181763,1
296,68.03955078125,-7.024911403656006,-2.2124722003936768,1.7346948385238647,0.2702942490577698,0.6537652611732483,1
297,63.92918395996094,-18.74571990966797,1.2086145877838135,1.6080002784729004,0.6883699297904968,0.7527307271957397,1
298,38.21380615234375,-34.0968132019043,1.8096920251846313,2.2237613201141357,1.2526227235794067,0.8128448724746704,1
299,8.562408447265625,-44.55733871459961,1.5872021913528442,2.4569761753082275,1.2891149520874023,0.9357114434242249,1
300,-18.70731544494629,-49.862422943115234,0.19771328568458557,3.0439486503601074,1.3526973724365234,0.9395320415496826,1
301,-44.97174072265625,-45.72429656982422,-2.977827548980713,3.2656707763671875,0.9654412269592285,0.9330156445503235,1
302,-57.633056640625,-30.25115966796875,-5.721603870391846,3.9681267738342285,0.43254607915878296,0.9835150837898254,1
303,-48.865848541259766,-11.550407409667969,-5.754692077636719,4.081589698791504,0.09885100275278091,0.7429337501525879,1
304,-24.255844116210938,5.755876064300537,-3.5332722663879395,4.41514253616333,-0.14208336174488068,0.6105825304985046,1
305,3.0398223400115967,20.58936882019043,-2.0814249515533447,4.202980041503906,-0.20520268380641937,0.47744086384773254,1
306,26.589683532714844,31.210073471069336,-2.479945659637451,4.57000207901001,-0.5604732036590576,0.8798718452453613,1
307,38.73359680175781,35.03658676147461,-5.403467178344727,4.203987121582031,0.17542226612567902,0.5015738010406494,1
308,43.993919372558594,35.379940032958984,-4.460345268249512,3.8002824783325195,1.6696267127990723,-0.40827128291130066,1
309,37.84796905517578,29.023475646972656,-0.9973806738853455,4.114147186279297,2.16374135017395,-0.38077011704444885,1
310,22.203330993652344,23.250513076782227,0.6554390788078308,3.8350138664245605,2.5007846355438232,-0.37323492765426636,1
311,-1.0931681394577026,20.034454345703125,1.0266077518463135,5.487406253814697,2.6904258728027344,0.01048139575868845,1
312,-23.36701202392578,27.475784301757812,0.6702306270599365,4.975139617919922,2.265467405319214,0.22285103797912598,1
313,-38.28185272216797,35.28586959838867,-0.12272319942712784,4.2542853355407715,1.6547082662582397,0.37176626920700073,1
314,-43.150054931640625,42.96819305419922,-1.1161776781082153,3.5782346725463867,0.6351416707038879,0.7827800512313843,1
315,-41.38136672973633,47.6588020324707,-0.9038103818893433,2.502340078353882,0.5565386414527893,0.29982849955558777,1
316,-28.859256744384766,44.022464752197266,-2.527397871017456,3.543637752532959,-0.9757479429244995,1.5678136348724365,1
317,-10.117103576660156,43.60164260864258,-3.498154401779175,2.4717540740966797,-1.1490111351013184,1.3641079664230347,1
318,8.74406623840332,43.20887756347656,-0.9342173933982849,1.8433328866958618,-0.9263103008270264,1.125108003616333,1
319,22.368974685668945,41.197059631347656,1.0232868194580078,0.8771877288818359,-0.535892903804779,0.9329468011856079,1
320,29.32265853881836,34.21636199951172,2.1338250637054443,0.5852776765823364,0.06394445896148682,0.7854401469230652,1
321,31.916019439697266,29.529006958007812,3.6246707439422607,-0.042813219130039215,0.5647578835487366,0.7025087475776672,1
322,29.605722427368164,21.107284545898438,4.240330219268799,-0.58851158618927,1.051437258720398,0.6894703507423401,1
323,21.08263397216797,18.386571884155273,4.9447503089904785,-0.5276960730552673,1.2053853273391724,0.783830463886261,1
324,10.159097671508789,11.725122451782227,5.304975509643555,-0.8299232125282288,1.3680824041366577,0.824553906917572,1
325,-2.0857560634613037,2.739405870437622,4.8916239738464355,-1.2373424768447876,1.4830378293991089,0.8199482560157776,1
326,-14.931865692138672,-6.120787143707275,4.410109043121338,-1.011549949645996,1.5238356590270996,0.9042333364486694,1
327,-26.84737777709961,-10.816061019897461,3.546964168548584,-0.6960723400115967,0.5402860045433044,0.9320094585418701,1
328,-32.025856018066406,-9.93919849395752,2.5986244678497314,-0.6721903085708618,0.30450791120529175,0.9482408761978149,1
329,-31.484872817993164,-4.7899370193481445,2.419735908508301,-0.5850876569747925,-0.05937010794878006,0.9692462682723999,1
330,-23.56026268005371,0.5183107256889343,2.6020359992980957,-0.581167459487915,-0.07721557468175888,1.032823920249939,1
331,-12.81977367401123,4.749668121337891,2.429856061935425,-0.6479969024658203,0.13822294771671295,1.1152151823043823,1
332,-5.58241605758667,6.384900093078613,2.4408164024353027,-0.8420596718788147,-0.003133439924567938,1.116341471672058,1
333,-0.5563997030258179,4.747981548309326,2.1697239875793457,-0.8761498928070068,-0.02880341373383999,1.1440348625183105,1
334,2.5779709815979004,1.8041431903839111,2.4951651096343994,-1.0852686166763306,-0.05638078227639198,1.1458160877227783,1
335,4.096241474151611,1.0621156692504883,2.5581774711608887,-1.0629056692123413,0.04447188228368759,1.186219573020935,1
336,6.871953964233398,0.9153071045875549,3.163179874420166,-1.3122773170471191,-1.0478912591934204,0.9534726738929749,1
337,13.216442108154297,0.3972823917865753,4.076093673706055,-1.3604981899261475,-0.7120568156242371,1.0465409755706787,1
338,19.751108169555664,1.4683380126953125,4.946606636047363,-1.3934239149093628,-0.38160982728004456,1.1313437223434448,1
339,24.051746368408203,-2.127474069595337,6.417639255523682,-1.2720478773117065,0.08765223622322083,1.248520016670227,1
340,23.789548873901367,-4.775223731994629,7.4891557693481445,-1.1105167865753174,0.49249449372291565,1.3549078702926636,1
341,16.523359298706055,-2.7371296882629395,8.281994819641113,-1.0917459726333618,-0.21967481076717377,1.1868798732757568,1
342,9.005202293395996,-1.0068204402923584,9.305740356445312,-0.9704328179359436,0.15330255031585693,1.3397682905197144,1
343,1.7288509607315063,0.17016713321208954,9.507349967956543,-0.8854915499687195,0.364458292722702,1.4707943201065063,1
344,-2.06246018409729,2.0322909355163574,9.374435424804688,-0.9792973399162292,0.6990156173706055,1.6429963111877441,1
345,-2.4937210083007812,5.907135963439941,9.583672523498535,-1.0184824466705322,0.6769225001335144,1.7399890422821045,1
346,-3.1238925457000732,9.06567668914795,10.191706657409668,-1.1592507362365723,0.7445576786994934,1.8549985885620117,1
347,-6.794608116149902,8.518902778625488,11.057013511657715,-1.4534705877304077,-0.8087016344070435,1.603558897972107,1
348,-10.445257186889648,5.542411804199219,13.130834579467773,-1.3436070680618286,-0.438351035118103,1.8354283571243286,1
349,-6.243526458740234,0.6340423822402954,15.325397491455078,-1.261002779006958,-0.34106922149658203,2.0275588035583496,1
350,1.3289775848388672,-3.8530797958374023,15.563632011413574,-1.1827234029769897,-0.23293344676494598,2.2153875827789307,1
351,6.9448981285095215,-5.8763747215271,15.139259338378906,-1.0686602592468262,-0.02452053129673004,2.4093117713928223,1
352,10.072562217712402,-7.048570156097412,13.661551475524902,-1.0088871717453003,0.3448678255081177,2.6210014820098877,1
353,9.510247230529785,-7.120384216308594,11.377203941345215,-0.9352993965148926,0.5404115319252014,2.769108533859253,1
354,3.11012864112854,-4.336054801940918,8.915641784667969,-0.8863469362258911,0.5841618180274963,2.8659238815307617,1
355,-6.355496406555176,0.8985316157341003,7.0210161209106445,-0.9695546627044678,0.8332030177116394,2.9951937198638916,1
356,-14.625998497009277,6.257013320922852,5.561975955963135,-1.1110485792160034,-0.8206396698951721,2.7464253902435303,1
357,-20.54420280456543,8.400254249572754,6.239582538604736,-1.089430570602417,-0.6370760798454285,2.8726847171783447,1
358,-18.15204429626465,5.594908714294434,6.751074314117432,-1.1968144178390503,-0.7122066617012024,2.9638454914093018,1
359,-7.651309490203857,0.8899514079093933,6.529475212097168,-1.0921432971954346,-0.22121550142765045,3.151355504989624,1
360,4.552811622619629,-5.729536056518555,5.333098411560059,-0.9829899072647095,-0.03539419174194336,3.251105308532715,1
361,11.868263244628906,-10.106736183166504,3.9881203174591064,-0.8636382818222046,0.2761726379394531,3.341174602508545,1
362,11.78285026550293,-10.676027297973633,3.5083420276641846,-0.7157875299453735,0.6488451957702637,3.420957565307617,1
363,3.5842459201812744,-6.4560322761535645,2.927020788192749,-0.549075186252594,0.6952475905418396,3.448136568069458,1
364,-7.380308151245117,0.09307647496461868,2.21604585647583,-0.49325573444366455,0.578508734703064,3.4608190059661865,1
365,-15.328575134277344,2.6271650791168213,2.174006223678589,-0.4379650056362152,0.5943760275840759,3.504333972930908,1
366,-15.413070678710938,2.792609453201294,1.657724142074585,-0.5348095893859863,0.5419613122940063,3.5347201824188232,1
367,-8.114847183227539,4.486935615539551,0.8163583278656006,-0.43712711334228516,0.6132884621620178,3.5757620334625244,1
368,5.815737724304199,6.272383689880371,1.3038749694824219,-0.5171786546707153,0.5768793821334839,3.5816330909729004,1
369,14.106378555297852,8.087482452392578,4.784468173980713,-0.617466926574707,0.7141332030296326,3.609574317932129,1
370,11.281845092773438,5.692972183227539,9.409724235534668,-0.7587699890136719,0.807957649230957,3.6681785583496094,1
371,-1.202431559562683,-1.314023733139038,13.584535598754883,-0.7423943877220154,0.8206818103790283,3.7818562984466553,1
372,-15.162080764770508,-10.176518440246582,16.348678588867188,-0.7325882315635681,0.8142486214637756,3.9324791431427,1
373,-26.59065055847168,-16.31336784362793,17.602218627929688,-0.6667311191558838,1.0577210187911987,4.1310529708862305,1
374,-34.250396728515625,-17.426332473754883,17.97528648376465,-0.4083308279514313,0.6353409886360168,4.3109049797058105,1
375,-35.002685546875,-15.908073425292969,18.484149932861328,-0.16748666763305664,0.05000804737210274,4.487427711486816,1
376,-33.01636505126953,-10.95107650756836,17.51459312438965,-0.0026792269200086594,-0.03721320629119873,4.683040142059326,1
377,-26.167810440063477,-3.1977484226226807,16.87604331970215,0.11130665242671967,-0.2720164358615875,4.8636393547058105,1
378,-18.045896530151367,5.131438255310059,15.9013090133667,0.029567940160632133,-0.7082432508468628,5.023053169250488,1
379,-13.221869468688965,12.5258150100708,14.956765174865723,-0.0339980348944664,-0.6964322328567505,5.178997993469238,1
380,-5.5829243659973145,15.353130340576172,14.860069274902344,-0.17736677825450897,-0.9981361627578735,5.327457427978516,1
381,-2.828117609024048,17.796171188354492,15.038385391235352,-0.297936350107193,-0.92421555519104,5.474705219268799,1
382,-2.520374059677124,15.89982795715332,15.503774642944336,-0.48265016078948975,-1.0439460277557373,5.62715482711792,1
383,-2.337170362472534,12.422321319580078,16.070419311523438,-0.7480917572975159,-1.205515742301941,5.788376331329346,1
384,-4.663227558135986,7.88282585144043,16.178861618041992,-0.9339661002159119,-1.3049194812774658,5.9536824226379395,1
385,-6.287796497344971,2.6980133056640625,16.47460174560547,-1.0231599807739258,-1.488242506980896,6.116198539733887,1
386,-4.121915340423584,-2.9168126583099365,16.492536544799805,-1.0797011852264404,-3.036130666732788,6.227175235748291,1
387,-0.9992794394493103,-6.890010356903076,16.73432159423828,-1.002466082572937,-2.951493740081787,6.395768642425537,1
388,7.545758247375488,-11.158621788024902,17.081533432006836,-0.7969734072685242,-2.577000856399536,6.56640625,1
389,22.769390106201172,-12.858333587646484,16.625940322875977,-0.5582720637321472,-2.2297489643096924,6.723936080932617,1
390,34.83844757080078,-10.445651054382324,16.62425994873047,-0.2783515155315399,-1.877587914466858,6.855170249938965,1
391,36.961143493652344,-6.143256187438965,15.598621368408203,-0.5432953238487244,-1.5760914087295532,7.111097812652588,1
392,31.20634651184082,-1.6412209272384644,13.238280296325684,-0.3000231683254242,-1.0446596145629883,7.214217662811279,1
393,20.1247501373291,0.5291762948036194,10.456184387207031,-0.3319067060947418,-0.6185404658317566,7.3491387367248535,1
394,9.044120788574219,-1.3679320812225342,7.17755126953125,-0.21424734592437744,-0.38958871364593506,7.4153265953063965,1
395,-1.5546165704727173,-1.8545539379119873,4.019639492034912,-0.3586054742336273,-0.3386816680431366,7.507070064544678,1
396,-10.289408683776855,-2.858372688293457,0.8239829540252686,-0.2006397694349289,0.23719336092472076,7.5244221687316895,1
397,-16.144010543823242,-6.525267601013184,-2.0409772396087646,-0.6891677379608154,-0.046585895121097565,7.603272438049316,1
398,-20.724822998046875,-5.418158531188965,-5.330073356628418,-0.2980293035507202,-0.3269837498664856,7.521900653839111,1
399,-19.648643493652344,-4.341734409332275,-8.515144348144531,0.03770405799150467,-0.6779325008392334,7.417358875274658,1
400,-15.758525848388672,-5.4370808601379395,-11.070316314697266,-0.5249894261360168,-1.5724010467529297,7.379827976226807,1
401,-8.839068412780762,-6.92927885055542,-13.296622276306152,-0.04844824597239494,-0.8097466230392456,7.222946643829346,1
402,2.6513288021087646,-5.585723876953125,-14.258342742919922,0.23581725358963013,-0.8644036054611206,7.057671546936035,1
403,14.763702392578125,-3.141049861907959,-14.070379257202148,-0.27927327156066895,-1.3235957622528076,6.984287738800049,1
404,20.798269271850586,2.3689494132995605,-13.197309494018555,0.3553198277950287,-0.7130174040794373,6.7654900550842285,1
405,20.9627685546875,4.065266132354736,-12.029202461242676,-0.3559019863605499,-1.056203007698059,6.729372501373291,1
406,14.769654273986816,6.573151588439941,-11.344792366027832,0.19737517833709717,-0.38555407524108887,6.53046178817749,1
407,7.522258281707764,7.735752105712891,-8.609453201293945,-0.505451500415802,1.505827784538269,6.449501991271973,1
408,-2.844855546951294,8.020851135253906,-6.496340751647949,-0.6071687340736389,1.487748146057129,6.376186370849609,1
409,-22.17780113220215,9.038259506225586,-5.866982936859131,-0.5856409668922424,1.229112148284912,6.3140130043029785,1
410,-43.88954544067383,3.232914924621582,-6.281599998474121,-0.6588488221168518,0.6386011242866516,6.2563276290893555,1
411,-58.84701156616211,-3.7451999187469482,-8.488214492797852,-0.4836331307888031,-0.0095605980604887,6.1902875900268555,1
412,-61.956172943115234,-5.0123138427734375,-10.916280746459961,-0.32981371879577637,-0.6321339011192322,6.10228967666626,1
413,-54.527095794677734,0.9001864790916443,-13.577866554260254,-0.3031120300292969,-1.551119327545166,5.982167720794678,1
414,-43.65771484375,11.815550804138184,-15.767990112304688,-0.21161048114299774,-1.7884548902511597,5.837075710296631,1
415,-26.025480270385742,24.38733673095703,-16.370594024658203,-0.40354248881340027,-2.159517765045166,5.670432090759277,1
416,-7.012562274932861,29.776636123657227,-16.58894157409668,-0.5875121355056763,-2.4937829971313477,5.491612434387207,1
417,15.2650728225708,35.086387634277344,-15.02805233001709,-0.9988021850585938,-2.4544174671173096,5.32387113571167,1
418,24.351552963256836,39.57255935668945,-14.225659370422363,-1.550399661064148,-2.1983625888824463,5.181079387664795,1
419,24.737852096557617,41.41413116455078,-14.12370777130127,-1.636531114578247,-2.248321533203125,4.9725422859191895,1
420,20.021757125854492,37.02488327026367,-13.97979736328125,-2.147594928741455,-2.0183868408203125,4.830831050872803,1
421,13.213563919067383,30.2175235748291,-13.357711791992188,-2.4010777473449707,-1.9619930982589722,4.6565446853637695,1
422,3.0461721420288086,22.2382755279541,-12.284611701965332,-2.690946578979492,-2.034315824508667,4.497494697570801,1
423,-5.774672508239746,7.678950309753418,-11.324567794799805,-2.781252861022949,-2.0991430282592773,4.34824275970459,1
424,-10.457107543945312,-8.711079597473145,-11.534161567687988,-2.4652833938598633,-2.2626802921295166,4.164034366607666,1
425,-12.027254104614258,-20.979785919189453,-12.334366798400879,-2.2181777954101562,-2.4556775093078613,4.018324375152588,1
426,-10.383925437927246,-25.04524803161621,-12.84695053100586,-1.9328570365905762,-2.557544708251953,3.8963143825531006,1
427,-7.385587215423584,-22.377601623535156,-13.898414611816406,-1.564592719078064,-2.691993236541748,3.7471141815185547,1
428,-2.6511759757995605,-6.2429351806640625,-14.08349323272705,-1.5989700555801392,-2.677025556564331,3.6760435104370117,1
429,4.774539947509766,11.987381935119629,-15.619412422180176,-1.695485234260559,-2.776970863342285,3.531449794769287,1
430,10.777841567993164,25.83413314819336,-16.610471725463867,-1.8884227275848389,-2.7015511989593506,3.3432204723358154,1
431,18.1656494140625,41.980995178222656,-16.91644287109375,-1.9841420650482178,-2.593010187149048,3.091149091720581,1
432,23.09273338317871,48.03474426269531,-17.9887638092041,-2.5173184871673584,-2.227865219116211,2.9514617919921875,1
433,26.64095115661621,48.521446228027344,-20.202999114990234,-3.1279942989349365,-1.950661540031433,2.7805349826812744,1
434,29.39801025390625,46.015254974365234,-21.828250885009766,-3.9492783546447754,-1.4702367782592773,2.69145131111145,1
435,31.389799118041992,36.40615463256836,-23.94590950012207,-4.361046314239502,-1.0411819219589233,2.4851951599121094,1
436,33.19367218017578,21.082265853881836,-24.273530960083008,-4.415106773376465,-0.8297139406204224,2.153486728668213,1
437,34.160560607910156,4.800282955169678,-24.089658737182617,-4.595553874969482,-0.34978336095809937,1.9735745191574097,1
438,35.08998107910156,-16.454471588134766,-23.25973892211914,-4.387389183044434,-0.1700139343738556,1.6521410942077637,1
439,29.93709373474121,-32.94532012939453,-21.30583953857422,-3.9888362884521484,0.0021871780045330524,1.3540470600128174,1
440,19.61568260192871,-38.18593215942383,-19.485820770263672,-3.5418553352355957,0.14633342623710632,1.1026127338409424,1
441,15.166906356811523,-39.985496520996094,-17.865846633911133,-2.93497633934021,0.3884532153606415,0.915955662727356,1
442,12.899975776672363,-37.71638107299805,-16.346914291381836,-2.4917056560516357,0.34125229716300964,0.6650993227958679,1
443,13.426650047302246,-31.653165817260742,-13.884514808654785,-1.8729846477508545,0.3571677803993225,0.4469989538192749,1
444,16.932170867919922,-17.167341232299805,-11.938122749328613,-2.1321990489959717,0.3487188518047333,0.29943594336509705,1
445,20.719757080078125,2.082109212875366,-10.39259147644043,-1.9464833736419678,0.641627311706543,0.2171088308095932,1
446,24.450439453125,23.98820686340332,-7.92736291885376,-2.254429817199707,0.9959825873374939,0.18111161887645721,1
447,24.692642211914062,41.77377700805664,-5.814704418182373,-2.720054864883423,1.3809312582015991,0.16981278359889984,1
448,22.806482315063477,48.57869338989258,-3.643691062927246,-3.263293981552124,1.195218563079834,-0.008066631853580475,1
449,18.980125427246094,46.04018783569336,-1.499619483947754,-3.8621246814727783,1.5465991497039795,0.0254635252058506,1
450,14.371623039245605,35.179866790771484,0.22176715731620789,-4.2904181480407715,1.817862868309021,0.06733065098524094,1
451,9.859161376953125,18.71041488647461,1.9552809000015259,-4.429795265197754,1.770206332206726,0.03622419387102127,1
452,3.586700916290283,1.580251693725586,3.234889268875122,-4.5008063316345215,1.9563064575195312,0.1158507689833641,1
453,-1.51515531539917,-14.157954216003418,4.277040481567383,-4.114421844482422,1.970824956893921,0.19458945095539093,1
454,-4.557308673858643,-30.89032745361328,5.725459575653076,-3.8670945167541504,1.941839337348938,0.23558537662029266,1
455,-6.2752885818481445,-37.6136589050293,7.735663414001465,-3.5943262577056885,1.8185843229293823,0.24454396963119507,1
456,-6.7942304611206055,-35.67174530029297,9.819286346435547,-2.967813014984131,1.524796724319458,0.27439358830451965,1
457,-3.774719476699829,-23.80428695678711,12.288686752319336,-2.5141782760620117,1.7043178081512451,0.49870067834854126,1
458,-2.743783473968506,-15.258332252502441,14.006628036499023,-2.3535521030426025,1.7684398889541626,0.6520029306411743,1
459,-6.290969371795654,1.2789883613586426,15.614228248596191,-2.3673651218414307,1.5067604780197144,0.6996546387672424,1
460,-10.219144821166992,5.795098304748535,16.390653610229492,-2.347409963607788,1.6492860317230225,0.9570893049240112,1
461,-13.646560668945312,8.909870147705078,16.004390716552734,-2.5482287406921387,1.3983848094940186,1.0428389310836792,1
462,-14.085648536682129,13.472369194030762,15.745588302612305,-2.7220542430877686,1.2785314321517944,1.1948939561843872,1
463,-15.661615371704102,12.59634017944336,14.578145027160645,-2.694059133529663,0.9934635758399963,1.346004605293274,1
464,-19.687467575073242,2.0176405906677246,13.977298736572266,-2.761035442352295,0.8212609887123108,1.4893444776535034,1
465,-15.264612197875977,-8.03330135345459,12.575190544128418,-2.650279998779297,0.544388473033905,1.6113741397857666,1
466,-2.898167133331299,-17.125328063964844,10.328185081481934,-2.2733569145202637,0.5669180750846863,1.8205686807632446,1
467,12.314613342285156,-22.919328689575195,8.55534553527832,-1.8491719961166382,0.663300633430481,1.9766002893447876,1
468,25.32062530517578,-21.90096664428711,7.096524238586426,-0.7468620538711548,1.0621429681777954,2.3097875118255615,1
469,35.80068588256836,-21.140155792236328,4.554654121398926,-0.4062595069408417,2.00106143951416,2.5205836296081543,1
470,38.46670913696289,-10.484053611755371,4.021965980529785,-0.3534787595272064,2.300966501235962,2.5150320529937744,1
471,24.65643882751465,1.9891384840011597,4.647428035736084,-0.415515661239624,3.34165096282959,2.6309995651245117,1
472,3.235826015472412,18.48786163330078,4.764853477478027,-0.4283254146575928,3.8377888202667236,2.749718427658081,1
473,-24.218957901000977,32.202674865722656,3.29624080657959,-0.9284871220588684,1.944124460220337,2.5878567695617676,1
474,-55.748207092285156,37.30997848510742,3.806737184524536,-1.4601503610610962,2.413365364074707,2.639763593673706,1
475,-70.87123107910156,31.25784683227539,4.453828811645508,-1.9859143495559692,0.7094427347183228,2.5648038387298584,1
476,-71.78533935546875,16.45068359375,4.714696407318115,-2.2938807010650635,-0.10680962353944778,2.5810794830322266,1
477,-58.101741790771484,1.3628157377243042,4.592089653015137,-2.336869478225708,-1.122074842453003,2.614234685897827,1
478,-31.75056266784668,-8.841541290283203,4.414926528930664,-2.197791576385498,-0.922698438167572,2.7335174083709717,1
479,-3.9817986488342285,-11.408673286437988,3.6219351291656494,-2.056685447692871,-1.0437380075454712,2.789447546005249,1
480,18.066965103149414,-9.118071556091309,4.452287197113037,-2.0678632259368896,-0.8384883999824524,2.813025712966919,1
481,27.242982864379883,-4.491071701049805,4.948431015014648,-1.9920512437820435,-0.5853835344314575,2.8661606311798096,1
482,29.270681381225586,-2.5247836112976074,1.5049654245376587,-1.8910088539123535,-0.2637655436992645,2.9097886085510254,1
483,28.199560165405273,-0.6030575037002563,-1.7627317905426025,-2.020447015762329,0.04608796164393425,2.884066104888916,1
484,17.05902862548828,-13.747112274169922,-4.644724369049072,-1.6477431058883667,0.35726428031921387,2.8892323970794678,1
485,6.215270042419434,-19.986003875732422,-6.989339828491211,-2.0842502117156982,0.3387247323989868,2.753737688064575,1
486,-1.269165277481079,-17.984155654907227,-7.941190242767334,-1.8970180749893188,0.33457544445991516,2.67303729057312,1
487,-11.430194854736328,-16.563005447387695,-8.162542343139648,-1.6035809516906738,0.24902021884918213,2.6035234928131104,1
488,-16.092830657958984,-25.77261734008789,-8.08426284790039,-1.4266608953475952,0.13605158030986786,2.520655632019043,1
489,-11.914222717285156,-28.448820114135742,-9.115707397460938,-1.4369248151779175,-0.10487031191587448,2.402182102203369,1
490,-6.9959211349487305,-24.031963348388672,-9.361259460449219,-1.0447107553482056,-0.17769306898117065,2.3221473693847656,1
491,2.2958273887634277,-11.347257614135742,-8.178116798400879,-0.7514035105705261,-0.12010441720485687,2.2444560527801514,1
492,14.300372123718262,-5.862868785858154,-6.500345230102539,-0.6269339323043823,0.046452660113573074,2.174565076828003,1
493,19.980070114135742,2.86190128326416,-4.148074150085449,-0.5593069791793823,-0.025478068739175797,2.132685899734497,1
494,16.534330368041992,11.585426330566406,-3.657346487045288,-1.322736144065857,0.19518963992595673,2.061070203781128,1
495,5.073685169219971,16.278064727783203,-4.319051265716553,-1.4242790937423706,0.32706087827682495,2.021059036254883,1
496,-11.951310157775879,10.197654724121094,-5.05012845993042,-1.4703865051269531,0.20721955597400665,1.9788256883621216,1
497,-23.26766586303711,-3.1001431941986084,-6.0551886558532715,-1.6313831806182861,-0.19956941902637482,1.9237895011901855,1
498,-29.46210479736328,-19.718708038330078,-7.345180034637451,-1.219742774963379,-0.4272334575653076,1.8647781610488892,1
499,-25.410934448242188,-34.30984878540039,-8.241715431213379,-0.7481316328048706,-0.7102555632591248,1.7929201126098633,1
500,-12.843111038208008,-47.099021911621094,-9.266499519348145,-0.052672065794467926,-0.8988566994667053,1.7134736776351929,1
501,2.146239757537842,-45.963069915771484,-9.781784057617188,-0.8202768564224243,-0.8379224538803101,1.6170192956924438,1
502,15.464996337890625,-36.43008041381836,-9.296723365783691,-0.2604098618030548,-0.6427658200263977,1.515122890472412,1
503,27.505172729492188,-27.916967391967773,-9.678364753723145,0.3334469795227051,-0.3062748908996582,1.4054830074310303,1
504,31.096445083618164,-33.25379943847656,-10.002910614013672,1.0124961137771606,0.19017165899276733,1.267255187034607,1
505,31.46232032775879,-28.318161010742188,-8.503279685974121,0.7692214846611023,0.2668111324310303,1.2311047315597534,1
506,24.60077667236328,-15.915502548217773,-5.964512348175049,1.2658578157424927,0.5627002120018005,1.1466195583343506,1
507,15.339909553527832,-2.4748036861419678,-2.0393409729003906,1.2357405424118042,0.8620638847351074,1.086332082748413,1
508,-1.6995818614959717,9.55285930633545,1.6049110889434814,1.2071138620376587,0.9025850296020508,1.0921372175216675,1
509,-16.868263244628906,13.040667533874512,5.361073017120361,1.087636113166809,0.8020034432411194,1.1319948434829712,1
510,-34.242897033691406,16.6190242767334,8.3088960647583,0.9829067587852478,0.2483922690153122,1.279784917831421,1
511,-42.07282638549805,11.380443572998047,9.666609764099121,0.8929023146629333,-0.1253555417060852,1.3657827377319336,1
512,-39.95247268676758,-3.322521686553955,8.980428695678711,1.0189951658248901,-0.6512539386749268,1.49228036403656,1
513,-28.871923446655273,-21.362056732177734,7.056541442871094,0.693891167640686,-0.8795749545097351,1.5374574661254883,1
514,-10.326396942138672,-36.450965881347656,4.659119606018066,1.2619925737380981,-1.052474021911621,1.5921006202697754,1
515,8.489334106445312,-42.64376449584961,3.041557788848877,1.9471222162246704,-0.9108331203460693,1.585241436958313,1
516,26.041166305541992,-33.02362823486328,2.3316152095794678,2.3656344413757324,-0.40911781787872314,1.5023912191390991,1
517,35.459110260009766,-16.208576202392578,2.1571059226989746,2.3510284423828125,-0.1092732846736908,1.5445671081542969,1
518,33.741153717041016,8.875402450561523,1.9968827962875366,2.2231736183166504,-0.0004948386922478676,1.6723507642745972,1
519,24.83171844482422,27.208703994750977,0.7474703788757324,2.0294435024261475,0.2941240668296814,1.6867713928222656,1
520,5.680222034454346,42.77293395996094,-2.2048816680908203,1.611236572265625,0.6085960865020752,1.6113966703414917,1
521,-11.727073669433594,47.67544937133789,-3.2344281673431396,0.9750801920890808,0.4705480933189392,1.6343958377838135,1
522,-27.627578735351562,42.67749786376953,-3.4266538619995117,0.6094139218330383,0.0707845613360405,1.6825459003448486,1
523,-36.211181640625,30.492435455322266,-3.36919903755188,0.3320740759372711,-0.3511577844619751,1.6816990375518799,1
524,-38.42049026489258,8.492751121520996,-5.1439948081970215,0.22147761285305023,-0.7513794898986816,1.6472288370132446,1
525,-29.725387573242188,-8.4780855178833,-7.209051132202148,0.3423633277416229,-0.9017011523246765,1.5124884843826294,1
526,-17.241376876831055,-20.48545265197754,-8.51927375793457,0.6693969964981079,-1.1847518682479858,1.4420663118362427,1
527,-1.9929040670394897,-26.632658004760742,-10.424538612365723,0.9631826877593994,-1.3016592264175415,1.3534953594207764,1
528,10.340106010437012,-27.42253303527832,-11.053964614868164,1.2256983518600464,-1.185558795928955,1.225196123123169,1
529,18.765459060668945,-17.220083236694336,-11.379895210266113,1.694745421409607,-0.9002538919448853,1.0562764406204224,1
530,24.302160263061523,3.654956579208374,-10.676280975341797,1.8369965553283691,-0.6009576916694641,0.9099051356315613,1
531,24.8931941986084,28.872909545898438,-10.185063362121582,1.6430739164352417,-0.4983575642108917,0.8634158968925476,1
532,22.779138565063477,49.76067352294922,-10.891011238098145,1.247240424156189,-0.2557237148284912,0.755906879901886,1
533,21.673826217651367,60.266971588134766,-11.426383972167969,0.03304373472929001,0.25822532176971436,0.5886803865432739,1
534,16.66161346435547,50.42894744873047,-11.722015380859375,-0.6087167263031006,0.16585303843021393,0.5798634886741638,1
535,13.731212615966797,34.15803527832031,-11.382761001586914,-1.0584321022033691,0.4045790433883667,0.4349410831928253,1
536,19.971866607666016,15.27090835571289,-7.874224662780762,-1.1097674369812012,0.7010135054588318,0.29213830828666687,1
537,23.72309684753418,-5.6735968589782715,-0.7396204471588135,-0.9978778958320618,0.9985783100128174,0.22802422940731049,1
538,12.24374771118164,-18.453596115112305,5.225095748901367,-0.715745747089386,1.2520087957382202,0.2284308820962906,1
539,-5.662913799285889,-28.376951217651367,8.583815574645996,-0.18274876475334167,1.223075032234192,0.3022722899913788,1
540,-27.41271209716797,-37.16691589355469,8.844024658203125,0.9272487163543701,0.8494614958763123,0.43504858016967773,1
541,-50.04790115356445,-41.71034622192383,5.568946838378906,1.2402863502502441,0.11129765957593918,0.5824782252311707,1
542,-62.518428802490234,-37.405548095703125,0.5692048668861389,1.9109914302825928,-0.8767118453979492,0.7191069722175598,1
543,-62.51723861694336,-20.32631492614746,-4.191493034362793,2.1991586685180664,-1.5143247842788696,0.704500675201416,1
544,-44.22090530395508,-0.062129002064466476,-9.460763931274414,2.3035027980804443,-2.16542649269104,0.6734465956687927,1
545,-10.372476577758789,19.990034103393555,-12.209037780761719,2.204460620880127,-2.4345178604125977,0.5596579909324646,1
546,28.905256271362305,43.773372650146484,-14.552713394165039,1.8020985126495361,-2.0623676776885986,0.33995679020881653,1
547,63.3568000793457,67.42276000976562,-17.887359619140625,0.8281904458999634,-1.3059229850769043,0.09841107577085495,1
548,88.61210632324219,84.26805114746094,-20.751142501831055,-0.02765202708542347,-0.2647525668144226,-0.17533868551254272,1
549,102.39753723144531,82.6321029663086,-22.413410186767578,-1.8424502611160278,1.5092259645462036,-0.5181047916412354,1
550,94.46498107910156,67.95056915283203,-20.897939682006836,-3.311969757080078,2.6258256435394287,-0.6744934916496277,1
551,65.40574645996094,41.98476791381836,-19.248409271240234,-4.158209800720215,3.8429625034332275,-0.899131715297699,1
552,27.875226974487305,8.780807495117188,-16.123275756835938,-4.330731391906738,2.6037395000457764,-0.7528718113899231,1
553,-19.46021270751953,-32.15700149536133,-13.33518123626709,-4.41663932800293,3.215444564819336,-0.9367362856864929,1
554,-57.67833709716797,-76.20809936523438,-9.635351181030273,-3.784693956375122,3.0466933250427246,-1.0641990900039673,1
555,-78.04425811767578,-106.25469207763672,-8.988285064697266,-2.830559015274048,2.135944128036499,-1.1980717182159424,1
556,-77.91964721679688,-119.61238098144531,-8.139610290527344,-1.8165030479431152,1.972901701927185,-1.2762970924377441,1
557,-60.97874069213867,-116.27494049072266,-6.20845365524292,-0.13038228452205658,0.7557356357574463,-1.3512557744979858,1
558,-36.69677734375,-106.0810775756836,-4.19985294342041,0.9475743174552917,0.1413356363773346,-1.4373070001602173,1
559,-5.132834434509277,-75.0853042602539,-0.21939511597156525,2.1915271282196045,-0.39661768078804016,-1.4655654430389404,1
560,24.763938903808594,-29.156829833984375,4.474574565887451,3.1921520233154297,-0.4021323323249817,-1.4627693891525269,1
561,42.911415100097656,21.997074127197266,6.744953632354736,3.4425437450408936,0.09488089382648468,-1.4809670448303223,1
562,50.03046417236328,60.71990966796875,5.791060447692871,3.2246880531311035,0.5034816265106201,-1.4386374950408936,1
563,47.93742752075195,79.31724548339844,4.437953472137451,2.3030483722686768,1.2279757261276245,-1.4428726434707642,1
564,32.36725997924805,81.97006225585938,2.9487555027008057,1.5938342809677124,1.6778898239135742,-1.3655555248260498,1
565,5.262184143066406,72.49817657470703,1.53180730342865,0.8755062222480774,2.339387893676758,-1.341709017753601,1
566,-28.817703247070312,53.14696502685547,1.1681876182556152,0.10803258419036865,2.49131178855896,-1.2896487712860107,1
567,-60.48540496826172,26.62377166748047,-0.030573874711990356,-0.58599853515625,2.327226161956787,-1.2598233222961426,1
568,-82.5404281616211,2.143312692642212,-2.128411293029785,-0.9170785546302795,1.4499256610870361,-1.1858587265014648,1
569,-87.252197265625,-17.493520736694336,-4.670097827911377,-0.8223587274551392,0.59231036901474,-1.1503794193267822,1
570,-72.52899932861328,-27.81267738342285,-6.147884845733643,-0.48298555612564087,-0.543811023235321,-1.1205980777740479,1
571,-45.612586975097656,-32.56349563598633,-6.053930759429932,-0.3180656433105469,-0.6187376976013184,-1.256300926208496,1
572,-13.052793502807617,-26.8996524810791,-5.024237155914307,0.13110703229904175,-1.3447635173797607,-1.2802040576934814,1
573,12.559623718261719,-11.218338012695312,-1.1159380674362183,0.43399763107299805,-1.49625825881958,-1.3379464149475098,1
574,29.567567825317383,6.516847133636475,2.7284586429595947,0.6420698165893555,-1.4754616022109985,-1.3532670736312866,1
575,33.71158981323242,22.80524444580078,4.7007317543029785,0.6421831250190735,-1.2337076663970947,-1.3386425971984863,1
576,25.37958335876465,40.428802490234375,5.272024631500244,0.26734912395477295,-0.940775454044342,-1.3005726337432861,1
577,10.668791770935059,46.65538024902344,4.87098503112793,-0.2980928421020508,-0.6367237567901611,-1.254822850227356,1
578,-7.849588871002197,43.42681884765625,5.106736660003662,-0.7779863476753235,-0.5139521360397339,-1.2061612606048584,1
579,-27.75693130493164,31.38196563720703,5.860006809234619,-1.1751154661178589,-0.776587724685669,-1.1441552639007568,1
580,-41.310733795166016,11.612630844116211,5.124352931976318,-1.5383614301681519,-0.9913318753242493,-1.0928841829299927,1
581,-46.3095588684082,-4.466071128845215,5.282025337219238,-1.4488933086395264,-1.5905793905258179,-1.0455944538116455,1
582,-41.75141525268555,-24.35447883605957,5.559842586517334,-1.1984291076660156,-2.0473880767822266,-1.0108249187469482,1
583,-31.867300033569336,-33.427635192871094,3.546030044555664,-1.022169828414917,-2.343592405319214,-0.9475702047348022,1
584,-16.278480529785156,-31.658405303955078,2.4486606121063232,-0.7346700429916382,-2.5361239910125732,-0.8877803683280945,1
585,1.9741108417510986,-21.510465621948242,1.0791319608688354,-0.34036940336227417,-2.7801942825317383,-0.8550214171409607,1
586,16.80752944946289,-13.768424034118652,1.853047490119934,0.07013090699911118,-2.8192262649536133,-0.852717936038971,1
587,31.857385635375977,-0.8118187785148621,1.4533969163894653,0.06895623356103897,-2.663848876953125,-0.8001241683959961,1
588,39.939369201660156,4.274369239807129,-0.16593441367149353,0.24088792502880096,-2.146912097930908,-0.806376576423645,1
589,42.635623931884766,6.875852108001709,-0.9036462903022766,0.30846288800239563,-1.6774178743362427,-0.8239423036575317,1
590,39.91492462158203,15.877336502075195,0.7040062546730042,-0.4179437756538391,-1.2632228136062622,-0.6750293970108032,1
591,32.21553039550781,22.440229415893555,2.168044328689575,-0.6038104891777039,-0.9811391234397888,-0.6643486022949219,1
592,19.006046295166016,27.770286560058594,3.181044101715088,-0.80848628282547,-0.6296200752258301,-0.6497193574905396,1
593,2.805546760559082,21.506189346313477,5.42012357711792,-1.0399683713912964,-0.39716795086860657,-0.6316069960594177,1
594,-9.035167694091797,14.677188873291016,6.851797103881836,-1.2851996421813965,-0.4037335515022278,-0.590674102306366,1
595,-17.914283752441406,-0.4811725318431854,7.724061489105225,-1.341204285621643,-0.5995631814002991,-0.5576648712158203,1
596,-20.18819236755371,-14.09157657623291,8.347681999206543,-1.4999306201934814,-0.8975335359573364,-0.47174620628356934,1
597,-13.891790390014648,-23.01365089416504,9.500981330871582,-1.1361027956008911,-0.8901718258857727,-0.4265417456626892,1
598,-4.825260639190674,-24.64230728149414,11.788864135742188,-0.9060514569282532,-1.0290887355804443,-0.33801183104515076,1
599,3.3499960899353027,-13.719385147094727,14.649463653564453,-0.5589931011199951,-0.9515925645828247,-0.23370464146137238,1
600,7.626101970672607,2.860410690307617,16.630516052246094,-0.3103046417236328,-1.144486904144287,-0.11984481662511826,1
601,8.466662406921387,14.222116470336914,17.813629150390625,-0.2980465888977051,-1.0348272323608398,0.04627561196684837,1
602,5.667117118835449,21.36668586730957,18.81177520751953,-0.4721255302429199,-1.0020018815994263,0.2279631793498993,1
603,-1.3012752532958984,16.90971565246582,17.95253562927246,-0.6935008764266968,-0.9519591927528381,0.41351988911628723,1
604,-7.009695529937744,10.222596168518066,17.751937866210938,-0.43142837285995483,0.6535462737083435,0.6203039884567261,1
605,-12.36365795135498,6.01461935043335,16.83834457397461,-0.5421547889709473,0.5476399064064026,0.7930165529251099,1
606,-21.591644287109375,2.8777413368225098,18.10713768005371,-0.5797115564346313,0.3952036201953888,0.9568883180618286,1
607,-33.355712890625,-2.538038969039917,19.33316993713379,-0.5486083030700684,-0.052828021347522736,1.1062803268432617,1
608,-45.38188934326172,-9.909492492675781,19.782470703125,-0.733830451965332,-0.6000759601593018,1.298986554145813,1
609,-53.46307373046875,-15.844221115112305,18.868680953979492,-0.5570430159568787,-1.336620569229126,1.4862552881240845,1
610,-54.161869049072266,-20.332073211669922,17.90721321105957,-0.2227596640586853,-1.9651302099227905,1.6559892892837524,1
611,-47.3000602722168,-23.044553756713867,15.649392127990723,-0.06820226460695267,-2.4929683208465576,1.848296046257019,1
612,-35.5735969543457,-22.477031707763672,14.388103485107422,0.1932341605424881,-3.04461407661438,2.0112884044647217,1
613,-19.927133560180664,-17.858158111572266,13.65067195892334,0.19007259607315063,-3.0843396186828613,2.218566656112671,1
614,-6.4681291580200195,-10.220403671264648,12.361309051513672,0.3775179982185364,-3.3246374130249023,2.366968870162964,1
615,5.995586395263672,8.678970336914062,10.885601043701172,0.45471081137657166,-3.465726852416992,2.510457992553711,1
616,11.580058097839355,24.604900360107422,8.970747947692871,0.30174997448921204,-3.4021050930023193,2.64504075050354,1
617,14.132895469665527,39.500648498535156,8.240538597106934,-0.17763163149356842,-3.696842670440674,2.7954070568084717,1
618,15.824358940124512,48.27773666381836,6.920057773590088,-0.7048659324645996,-3.4645862579345703,2.90037202835083,1
619,16.428775787353516,51.02006530761719,6.900772571563721,-1.1899892091751099,-3.215414524078369,2.9516921043395996,1
620,15.403258323669434,44.041500091552734,7.339064121246338,-1.8952237367630005,-2.968216896057129,3.054499387741089,1
621,10.041351318359375,24.210451126098633,6.578762054443359,-2.395782232284546,-3.2032690048217773,3.091181993484497,1
622,2.692523717880249,-5.715836048126221,4.288520336151123,-2.3959038257598877,-3.04333758354187,3.038560628890991,1
623,-0.09774194657802582,-34.67469024658203,2.7817728519439697,-2.546208620071411,-3.4244658946990967,3.0721211433410645,1
624,2.7271461486816406,-50.34756851196289,1.8077733516693115,-2.0669870376586914,-3.4167728424072266,3.0354249477386475,1
625,8.372788429260254,-55.7992057800293,0.3115084767341614,-1.7331442832946777,-3.5071308612823486,3.1123316287994385,1
626,17.010128021240234,-52.65933609008789,-0.7964502573013306,-0.8749176263809204,-3.622873067855835,3.001317262649536,1
627,25.697675704956055,-36.233280181884766,-0.8703062534332275,-0.3089675307273865,-3.2120370864868164,3.056990385055542,1
628,32.617000579833984,-14.23180866241455,-1.5670666694641113,-0.45433056354522705,-2.9850475788116455,3.2924537658691406,1
629,36.347476959228516,7.558082580566406,-3.3255069255828857,-0.29354116320610046,-2.7287001609802246,3.309800624847412,1
630,37.6351318359375,23.472776412963867,-3.561436176300049,-0.3111456036567688,-2.117633819580078,3.319884777069092,1
631,35.888999938964844,29.726526260375977,-4.132593631744385,-0.4944281280040741,-1.740417718887329,3.280287504196167,1
632,30.302093505859375,23.01478385925293,-4.978321075439453,-0.7026187181472778,-1.6670881509780884,3.17197585105896,1
633,22.505733489990234,5.663796901702881,-5.642308712005615,-0.8637479543685913,-1.2524220943450928,3.091150999069214,1
634,13.434598922729492,-17.578641891479492,-7.2296857833862305,-0.8826943635940552,-0.8195689916610718,3.019033193588257,1
635,5.383261203765869,-41.171573638916016,-10.167348861694336,-0.7697232365608215,-0.6574541926383972,2.9530301094055176,1
636,-0.10005050897598267,-60.74005889892578,-12.952486038208008,0.5932018160820007,0.7767142653465271,2.6857731342315674,1
637,-1.7950137853622437,-64.62413787841797,-15.362897872924805,1.4729849100112915,0.44765573740005493,2.465008497238159,1
638,-6.883588790893555,-52.247886657714844,-17.22327995300293,2.464725971221924,0.08983299881219864,2.2443549633026123,1
639,-11.423334121704102,-22.79922866821289,-19.507020950317383,3.0914056301116943,0.21708698570728302,2.062272548675537,1
640,-11.324981689453125,13.094836235046387,-21.79924774169922,3.311630964279175,0.05672268941998482,1.895755648612976,1
641,-8.597726821899414,54.58491516113281,-23.32975196838379,3.3019332885742188,-0.050311263650655746,1.6849418878555298,1
642,-6.043591022491455,92.25875854492188,-24.674448013305664,1.850569486618042,-0.19857443869113922,1.5532339811325073,1
643,1.8539702892303467,113.54501342773438,-26.28547477722168,0.3390699028968811,-0.23016487061977386,1.3410691022872925,1
644,16.108924865722656,113.45130920410156,-27.428335189819336,-0.6979053616523743,-0.41930586099624634,1.1090799570083618,1
645,31.229793548583984,92.22674560546875,-27.806682586669922,-2.56892991065979,-0.07351125776767731,0.8145127296447754,1
646,44.236873626708984,48.339298248291016,-29.05272102355957,-4.016735553741455,0.03647106885910034,0.5521827340126038,1
647,49.847740173339844,-4.269286155700684,-30.380525588989258,-3.8805599212646484,0.771668553352356,0.27309226989746094,1
648,50.243385314941406,-54.02653884887695,-28.674100875854492,-4.172086238861084,2.1714909076690674,0.02219422161579132,1
649,41.368038177490234,-86.90353393554688,-24.726299285888672,-2.3774280548095703,2.6770565509796143,-0.20022772252559662,1
650,19.28760528564453,-109.56755065917969,-22.284942626953125,-1.2750630378723145,3.3752315044403076,-0.4366350471973419,1
651,-6.412569046020508,-113.55363464355469,-20.733617782592773,0.36301887035369873,3.472238302230835,-0.6514118313789368,1
652,-36.9460563659668,-102.51498413085938,-17.947660446166992,1.488467812538147,3.501666784286499,-0.9328742027282715,1
653,-67.91304779052734,-73.52994537353516,-17.81841468811035,3.4754154682159424,1.8043581247329712,-1.0336331129074097,1
654,-85.9397964477539,-26.078189849853516,-17.421998977661133,4.286360740661621,1.2129472494125366,-1.2337450981140137,1
655,-88.30474090576172,29.70647621154785,-15.284709930419922,4.70827579498291,0.27198126912117004,-1.3977495431900024,1
656,-70.16265869140625,79.63771057128906,-12.298810958862305,4.190701484680176,-1.4084386825561523,-1.5603809356689453,1
657,-35.21958923339844,122.69644927978516,-7.135367393493652,2.9929354190826416,-2.5276038646698,-1.7973272800445557,1
658,6.167440414428711,142.44583129882812,-3.337010383605957,0.13804438710212708,-2.8017306327819824,-2.3661789894104004,1
659,46.31048583984375,141.40985107421875,-2.7539756298065186,-1.2421208620071411,-2.8686821460723877,-2.477106809616089,1
660,78.87411499023438,116.89781951904297,-5.532202243804932,-3.154404401779175,-2.444868803024292,-2.664931535720825,1
661,100.36534881591797,74.52351379394531,-8.271852493286133,-5.912184715270996,0.010435972362756729,-3.076474666595459,1
662,107.34244537353516,20.104921340942383,-8.63335132598877,-6.7859368324279785,0.9552559852600098,-3.1468710899353027,1
663,98.57270050048828,-32.644256591796875,-8.97168254852295,-6.819583415985107,2.641003131866455,-3.1507551670074463,1
664,70.82332611083984,-75.41848754882812,-8.051968574523926,-5.2704081535339355,4.6782755851745605,-2.886526584625244,1
665,25.820138931274414,-100.66175842285156,-7.720332145690918,-4.163142204284668,5.683300971984863,-2.87923264503479,1
666,-31.64301872253418,-106.2148666381836,-8.270837783813477,-2.0736606121063232,5.184686660766602,-3.0506832599639893,1
667,-83.8855972290039,-96.4865951538086,-8.26486587524414,-0.507451057434082,4.401741027832031,-3.2023684978485107,1
668,-120.0284423828125,-73.0873794555664,-9.275385856628418,0.9407554268836975,4.420726776123047,-2.9956066608428955,1
669,-132.86019897460938,-37.778690338134766,-10.193869590759277,1.599800705909729,2.581148624420166,-3.320268154144287,1
670,-125.60293579101562,0.6058365106582642,-8.386313438415527,1.6989470720291138,1.2221342325210571,-3.5966014862060547,1
671,-100.87787628173828,38.30234146118164,-3.8445885181427,1.5493665933609009,-0.7861095070838928,-3.8643317222595215,1
672,-65.42156219482422,70.30305480957031,0.7293344140052795,0.6987183094024658,-2.1361358165740967,-4.146480083465576,1
673,-22.76603889465332,90.6885986328125,6.711989879608154,-0.25934723019599915,-2.4599266052246094,-4.2483344078063965,1
674,19.360952377319336,99.4250717163086,10.44753646850586,-1.4578806161880493,-2.653510332107544,-4.32904052734375,1
675,50.97413635253906,93.53426361083984,11.081547737121582,-2.5353634357452393,-2.5875024795532227,-4.307554721832275,1
676,67.51378631591797,72.55205535888672,10.843326568603516,-3.5692427158355713,-2.223503351211548,-4.273499488830566,1
677,67.4264144897461,42.39046096801758,11.754630088806152,-4.49420690536499,-1.5919233560562134,-4.225742816925049,1
678,50.33110809326172,7.437117099761963,12.55077838897705,-4.864729404449463,-0.7424848079681396,-4.070781230926514,1
679,27.895418167114258,-25.300355911254883,12.268310546875,-4.896700859069824,-1.096700668334961,-4.184309005737305,1
680,4.561687469482422,-47.94137191772461,13.925019264221191,-4.664609909057617,-0.7914062142372131,-4.056493759155273,1
681,-19.93729019165039,-66.49969482421875,15.735616683959961,-4.348763465881348,-1.04949152469635,-4.037581920623779,1
682,-31.953895568847656,-68.206787109375,16.0044002532959,-3.531599760055542,-1.4750601053237915,-3.953291416168213,1
683,-33.20853042602539,-61.63755416870117,16.674776077270508,-3.058678388595581,-1.7797380685806274,-3.787851572036743,1
684,-28.814434051513672,-46.5697135925293,15.134528160095215,-2.3482179641723633,-2.2382149696350098,-3.6513795852661133,1
685,-19.74822998046875,-30.28459930419922,14.087888717651367,-1.5896624326705933,-2.501980781555176,-3.4692792892456055,1
686,0.9113596081733704,-23.75408363342285,12.867884635925293,-1.7567695379257202,-2.8440792560577393,-3.360778331756592,1
687,25.30854034423828,-15.683531761169434,11.550708770751953,-1.622661828994751,-2.956774950027466,-3.257124900817871,1
688,47.990116119384766,-7.016054153442383,11.082151412963867,-1.228271484375,-2.261213779449463,-3.0004467964172363,1
689,67.29306030273438,-1.807858943939209,9.662877082824707,-1.9032690525054932,-2.1890485286712646,-2.935048818588257,1
690,74.43216705322266,-1.1045163869857788,8.428329467773438,-1.8836753368377686,-1.2119933366775513,-2.734712600708008,1
691,69.57470703125,-9.592377662658691,7.996925354003906,-1.814355731010437,-0.7591980695724487,-2.7504220008850098,1
692,53.99273681640625,-25.87804412841797,9.094748497009277,-1.5447298288345337,0.19696247577667236,-2.6176202297210693,1
693,38.83154296875,-40.30778121948242,12.289740562438965,-1.4142974615097046,0.2498396337032318,-2.6609947681427,1
694,16.460695266723633,-57.99321365356445,15.413542747497559,-0.6151211261749268,0.6632851958274841,-2.5838537216186523,1
695,-6.10025691986084,-68.38034057617188,16.09194564819336,-0.4696536958217621,0.7645089626312256,-2.4261887073516846,1
696,-19.931304931640625,-64.95040893554688,14.9014310836792,0.6727141737937927,0.7212932109832764,-2.3011364936828613,1
697,-22.720956802368164,-60.148860931396484,11.95274543762207,0.7746089696884155,0.17964692413806915,-2.2014482021331787,1
698,-15.45533275604248,-48.4087028503418,7.6554179191589355,1.4927170276641846,0.23392358422279358,-2.0453989505767822,1
699,-2.403960704803467,-36.102256774902344,5.2402777671813965,2.0688087940216064,0.18981847167015076,-1.9582650661468506,1
700,15.963878631591797,-27.111820220947266,2.2547447681427,2.5296051502227783,0.07920140027999878,-1.9077394008636475,1
701,37.58638000488281,-19.184736251831055,0.5993489027023315,2.5311739444732666,0.2240821123123169,-1.8864240646362305,1
702,51.79807662963867,-5.934854030609131,-0.1767147034406662,2.5333092212677,0.9889540076255798,-1.9171631336212158,1
703,55.54768371582031,7.032400608062744,-2.3994717597961426,2.407095193862915,0.8960882425308228,-1.8509576320648193,1
704,46.10276412963867,17.093830108642578,-4.68978214263916,2.31693434715271,1.5958675146102905,-1.8995707035064697,1
705,30.86023712158203,21.769514083862305,-6.133922100067139,2.253598690032959,2.3315813541412354,-1.9850722551345825,1
706,13.156005859375,16.71232032775879,-5.902397632598877,2.085399627685547,2.4606668949127197,-1.9862116575241089,1
707,-4.01270866394043,10.357305526733398,-5.672260284423828,2.0711398124694824,2.543015956878662,-1.999805212020874,1
708,-14.743193626403809,6.738413333892822,-5.596297740936279,1.953239917755127,2.5146255493164062,-2.0507397651672363,1
709,-19.73047637939453,0.5005190968513489,-5.311383247375488,1.8994426727294922,2.3515000343322754,-2.095740556716919,1
710,-14.430203437805176,-7.171721458435059,-4.213376045227051,1.3903183937072754,2.173945426940918,-2.2668464183807373,1
711,2.574578285217285,-19.003198623657227,-0.7764376401901245,1.6913855075836182,2.158374786376953,-2.29788875579834,1
712,16.110706329345703,-32.14424133300781,1.557998538017273,1.8793227672576904,2.1627981662750244,-2.317532539367676,1
713,26.842159271240234,-37.81665802001953,3.570197582244873,2.1661646366119385,2.4230544567108154,-2.351426362991333,1
714,28.862560272216797,-31.12023162841797,5.725989818572998,2.5136289596557617,2.6596508026123047,-2.3293421268463135,1
715,26.07393455505371,-20.19163703918457,8.347100257873535,3.03596568107605,3.0511374473571777,-2.2677297592163086,1
716,17.885990142822266,-10.146780967712402,10.718770980834961,2.8355531692504883,2.9677937030792236,-2.185866594314575,1
717,6.365763187408447,-1.238685965538025,12.718125343322754,3.187270164489746,3.352052688598633,-2.096637487411499,1
718,-3.7973265647888184,3.8745779991149902,12.991729736328125,3.1082892417907715,3.390800952911377,-2.0042998790740967,1
719,-16.884706497192383,9.266594886779785,12.61825942993164,3.245739698410034,3.307342290878296,-1.788511037826538,1
720,-30.54341697692871,12.303441047668457,11.0894775390625,3.0492560863494873,3.155154228210449,-1.707823634147644,1
721,-34.99921798706055,18.437429428100586,10.460862159729004,2.4832828044891357,2.6874990463256836,-1.6893603801727295,1
722,-28.93326187133789,22.131999969482422,9.876651763916016,2.24074125289917,2.3641252517700195,-1.6200631856918335,1
723,-15.688539505004883,18.64803123474121,9.841341018676758,2.143878698348999,2.1766536235809326,-1.5225318670272827,1
724,0.24851326644420624,5.6596503257751465,9.928766250610352,1.929678201675415,1.9874069690704346,-1.423642873764038,1
725,12.95068359375,-12.15821361541748,9.83145523071289,1.872849464416504,1.9777812957763672,-1.3234076499938965,1
726,21.165313720703125,-30.896526336669922,10.710153579711914,1.984559416770935,2.351778984069824,-1.361938714981079,1
727,22.02859115600586,-42.462318420410156,12.027252197265625,2.477566957473755,2.6492972373962402,-1.2329316139221191,1
728,16.793485641479492,-44.53131866455078,12.977776527404785,3.241060733795166,2.8382568359375,-0.9781517386436462,1
729,6.3528523445129395,-37.560508728027344,12.957340240478516,3.66137433052063,2.906648635864258,-0.8317845463752747,1
730,-3.886486768722534,-24.871000289916992,13.225850105285645,3.9360883235931396,2.9632768630981445,-0.7644495368003845,1
731,-18.353303909301758,-6.7201128005981445,13.788614273071289,4.429237365722656,2.8196356296539307,-0.49139904975891113,1
732,-31.9097843170166,11.222387313842773,13.312129974365234,4.51561164855957,2.6338117122650146,-0.3594265878200531,1
733,-43.14619445800781,31.810306549072266,13.332701683044434,4.210341453552246,2.188528537750244,-0.2383418083190918,1
734,-46.139923095703125,46.378257751464844,14.120577812194824,3.9094302654266357,1.5444976091384888,0.04047650471329689,1
735,-41.75725173950195,52.402339935302734,13.112966537475586,2.969773530960083,1.4305927753448486,-0.23944436013698578,1
736,-26.89439582824707,52.75373077392578,14.152785301208496,2.292386054992676,0.9099662899971008,-0.09576744586229324,1
737,-11.526707649230957,46.0396842956543,13.544503211975098,1.763020634651184,0.6280021071434021,0.04931579902768135,1
738,5.8665385246276855,21.513765335083008,12.135998725891113,1.4340921640396118,0.7177144289016724,0.09916093200445175,1
739,16.42381477355957,-4.944934844970703,11.195701599121094,1.3458251953125,0.9364383220672607,0.1687764674425125,1
740,19.67190933227539,-25.4397029876709,9.567173957824707,1.624457836151123,1.191270351409912,0.3001321852207184,1
741,16.66344451904297,-44.48310470581055,7.888159275054932,1.9316190481185913,1.2332791090011597,0.4888785481452942,1
742,6.017834186553955,-50.50260925292969,7.570163249969482,2.68583345413208,1.413305640220642,0.6325953602790833,1
743,-5.162195682525635,-49.362548828125,5.303989410400391,2.9630603790283203,1.489059567451477,0.6338867545127869,1
744,-16.63041114807129,-38.071170806884766,3.7724785804748535,3.679964542388916,1.375585675239563,0.7646788358688354,1
745,-24.72539710998535,-14.779670715332031,2.1520297527313232,3.9660425186157227,1.1779379844665527,0.7961719632148743,1
746,-31.77987289428711,4.9213690757751465,0.9196916818618774,4.063250541687012,0.8475972414016724,0.8475841879844666,1
747,-35.05772399902344,27.05075454711914,-0.15131844580173492,4.0320000648498535,0.5076490044593811,0.8727882504463196,1
748,-32.855770111083984,49.18234634399414,0.025317836552858353,3.554565668106079,-0.00794868916273117,0.9223904013633728,1
749,-25.541736602783203,57.808837890625,0.7363285422325134,2.9562597274780273,-0.27911677956581116,0.8720114231109619,1
750,-13.616034507751465,51.80264663696289,2.2708473205566406,2.386909008026123,-0.5343397855758667,0.8753284215927124,1
751,-2.2976648807525635,33.809810638427734,2.220686674118042,1.80911123752594,-0.45987462997436523,0.7717688679695129,1
752,7.994026184082031,7.3063459396362305,2.9993231296539307,1.472339153289795,-0.43964946269989014,0.7688717246055603,1
753,13.683662414550781,-22.63580322265625,4.16288948059082,1.507589340209961,-0.329699844121933,0.7899965047836304,1
754,13.03597354888916,-48.43232727050781,6.613472938537598,1.8633068799972534,-0.13577203452587128,0.8089200854301453,1
755,4.6248602867126465,-63.080848693847656,8.165194511413574,2.560699224472046,-0.11468706279993057,0.9245962500572205,1
756,-8.781540870666504,-61.142799377441406,7.875183582305908,3.3222687244415283,-0.0745118111371994,1.007283091545105,1
757,-21.724136352539062,-39.360618591308594,7.325074672698975,3.7989561557769775,-0.10402744263410568,1.0632829666137695,1
758,-38.781219482421875,-3.2611329555511475,4.561398506164551,4.184317111968994,-0.4590773284435272,1.1875889301300049,1
759,-50.257022857666016,35.39207077026367,1.1763992309570312,4.199025630950928,-1.0728051662445068,1.3340063095092773,1
760,-47.12467575073242,65.13683319091797,-0.14901846647262573,3.6565377712249756,-1.4562128782272339,1.298503041267395,1
761,-32.78908157348633,76.24657440185547,-0.8085872530937195,2.6292617321014404,-2.0873894691467285,1.3861278295516968,1
762,-10.852205276489258,75.72599792480469,-0.9940061569213867,1.9091713428497314,-2.1559789180755615,1.2299771308898926,1
763,11.165037155151367,57.50230407714844,-2.350933790206909,1.230135202407837,-2.052668571472168,1.0771241188049316,1
764,33.629478454589844,26.11444854736328,-3.3391218185424805,0.1664208620786667,-1.9779058694839478,1.1344501972198486,1
765,48.76640701293945,-3.646609306335449,-4.026916980743408,0.20422424376010895,-1.4890469312667847,0.9703745245933533,1
766,54.18250274658203,-29.146041870117188,-2.1923670768737793,0.5318124890327454,-0.9769038558006287,0.8488237857818604,1
767,43.77261734008789,-41.98067092895508,0.7741580009460449,1.0284321308135986,-0.40276381373405457,0.7669748663902283,1
768,22.51482582092285,-35.357479095458984,1.5963114500045776,1.4255483150482178,-0.30445873737335205,0.8565905094146729,1
769,-7.98546028137207,-13.142495155334473,0.33226636052131653,1.76121187210083,-0.13593432307243347,0.8889818787574768,1
770,-33.2578010559082,13.322452545166016,-3.9141077995300293,1.6975655555725098,-0.43509671092033386,0.9855214357376099,1
771,-48.891571044921875,40.43267059326172,-7.859090805053711,1.3492588996887207,-0.8512012958526611,1.012238621711731,1
772,-46.67692184448242,60.06013488769531,-10.249255180358887,0.9305763840675354,-1.472836971282959,0.9569348692893982,1
773,-32.06498336791992,66.31133270263672,-12.738666534423828,0.2872775197029114,-1.8107777833938599,0.8345301151275635,1
774,-5.932001113891602,60.64962387084961,-15.267287254333496,-0.46156421303749084,-1.759924292564392,0.6677677631378174,1
775,26.95806312561035,45.78737258911133,-18.05529022216797,-0.9736132025718689,-1.643047571182251,0.4603160321712494,1
776,53.79229736328125,21.48946762084961,-20.941621780395508,-1.4728591442108154,-1.1907418966293335,0.27954015135765076,1
777,65.59066772460938,-6.099721431732178,-22.823938369750977,-1.5283899307250977,-0.5483745336532593,0.027735542505979538,1
778,60.55774688720703,-29.586454391479492,-22.98688507080078,-1.1904420852661133,-0.14582523703575134,-0.2975199818611145,1
779,43.32594299316406,-41.34186935424805,-24.278499603271484,-0.6262272000312805,0.4292236566543579,-0.6085425615310669,1
780,21.66355323791504,-41.9517936706543,-25.83481216430664,-0.18860533833503723,0.845187783241272,-0.8637222647666931,1
781,0.7208358645439148,-29.40375518798828,-27.729862213134766,0.4711417853832245,0.9878703951835632,-1.1955422163009644,1
782,-14.809959411621094,-9.662689208984375,-27.913774490356445,0.38167309761047363,0.904948353767395,-1.4075692892074585,1
783,-21.414716720581055,7.85414981842041,-27.84017562866211,0.8521708846092224,0.6178270578384399,-1.7742094993591309,1
784,-22.887882232666016,26.974807739257812,-25.597190856933594,0.6189128756523132,0.4236093759536743,-2.019510507583618,1
785,-15.21638298034668,39.182769775390625,-22.080474853515625,0.21269451081752777,0.4188527762889862,-2.225466251373291,1
786,-4.165071487426758,51.04148483276367,-19.53666877746582,-0.47251492738723755,0.23606181144714355,-2.4073808193206787,1
787,3.9689903259277344,57.350433349609375,-18.219043731689453,-1.2180945873260498,0.3681028187274933,-2.540207624435425,1
788,12.535871505737305,54.505889892578125,-16.173242568969727,-1.686996579170227,0.3879149854183197,-2.7319118976593018,1
789,19.76626205444336,36.72156524658203,-15.357134819030762,-2.3897266387939453,0.625010073184967,-2.8443117141723633,1
790,23.055212020874023,13.768558502197266,-13.49940013885498,-2.703807830810547,0.5514495372772217,-3.0720436573028564,1
791,19.105592727661133,-10.578792572021484,-11.336825370788574,-2.6816136837005615,0.8952391147613525,-3.18310284614563,1
792,16.07737922668457,-26.812381744384766,-8.11938190460205,-2.5481762886047363,1.1024073362350464,-3.29687237739563,1
793,12.292031288146973,-35.10539627075195,-4.959245204925537,-2.113335371017456,1.3220038414001465,-3.3719213008880615,1
794,6.338827133178711,-35.362060546875,-1.2150852680206299,-1.4465677738189697,1.4548271894454956,-3.438856363296509,1
795,-0.7789793014526367,-29.258806228637695,1.9898645877838135,-1.0063509941101074,1.488964319229126,-3.480548620223999,1
796,-10.478653907775879,-19.542234420776367,4.219330310821533,-0.5510352849960327,1.456511378288269,-3.4803998470306396,1
797,-19.821203231811523,-10.387638092041016,6.810777187347412,-0.16875101625919342,1.1876929998397827,-3.5054736137390137,1
798,-29.000452041625977,-5.001073837280273,9.890402793884277,-0.8498591184616089,0.7909091711044312,-3.545058488845825,1
799,-35.0270881652832,-3.079876661300659,11.257981300354004,-0.6869753003120422,0.5777284502983093,-3.421797037124634,1
800,-35.65679168701172,-6.2506632804870605,11.474133491516113,-0.6897030472755432,0.13781818747520447,-3.351325035095215,1
801,-34.778587341308594,-7.947432994842529,9.906989097595215,-0.6445620059967041,-0.2228458672761917,-3.2416462898254395,1
802,-28.90082359313965,-8.6400728225708,8.727344512939453,-0.41666921973228455,-0.4944535791873932,-3.088386297225952,1
803,-16.271337509155273,-5.148702144622803,7.444655418395996,-0.3091946542263031,-0.6627374887466431,-2.9608354568481445,1
804,-3.181497573852539,7.619765758514404,6.820054531097412,-0.41382065415382385,-0.546954333782196,-2.791245222091675,1
805,6.647022247314453,17.058177947998047,5.775938034057617,-0.5268005728721619,-0.8008339405059814,-2.798931360244751,1
806,11.397522926330566,24.53641700744629,4.199853420257568,-0.7810097336769104,-0.4453737735748291,-2.6423897743225098,1
807,12.109001159667969,26.597749710083008,1.465743899345398,-1.1158088445663452,-0.28794869780540466,-2.585434913635254,1
808,12.157977104187012,26.844648361206055,-1.220427393913269,-1.3866997957229614,-0.3582441806793213,-2.6391780376434326,1
809,14.02981948852539,26.372459411621094,-1.4902323484420776,-1.7322051525115967,-0.014504953287541866,-2.569120168685913,1
810,13.085541725158691,24.91448211669922,-1.4754687547683716,-2.064297676086426,0.2434326559305191,-2.535783290863037,1
811,6.76887845993042,24.39362907409668,0.06190390884876251,-2.143638849258423,0.3580358326435089,-2.56170916557312,1
812,-0.7238681316375732,21.94644546508789,1.208337426185608,-2.4411652088165283,0.36479073762893677,-2.5795645713806152,1
813,-6.302277088165283,15.339239120483398,3.3513340950012207,-2.653717517852783,0.26265716552734375,-2.604616403579712,1
814,-11.2249174118042,4.960140228271484,6.162833213806152,-2.716676950454712,0.07932119816541672,-2.62656569480896,1
815,-16.841777801513672,-13.087242126464844,8.66534423828125,-2.5522959232330322,-0.028866292908787727,-2.5704121589660645,1
816,-18.6541748046875,-31.97015953063965,9.658426284790039,-2.552802562713623,-0.12463409453630447,-2.443448305130005,1
817,-18.797632217407227,-46.67412567138672,10.339315414428711,-2.0330169200897217,-0.015984296798706055,-2.2134926319122314,1
818,-16.43024444580078,-61.10366439819336,11.963994026184082,-1.4210807085037231,-0.3025173246860504,-2.1629638671875,1
819,-11.194853782653809,-64.37294006347656,14.245160102844238,-1.0408121347427368,-0.5954275131225586,-2.0897796154022217,1
820,-6.367938041687012,-53.5972785949707,17.16460609436035,-0.1575167030096054,-0.7904196381568909,-1.9940083026885986,1
821,-5.444328308105469,-39.93416213989258,19.388416290283203,0.5032554864883423,-0.9293832778930664,-1.8543864488601685,1
822,-4.836607456207275,-26.89352798461914,20.580625534057617,0.9237027764320374,-0.8233818411827087,-1.5960674285888672,1
823,-2.241569757461548,-17.97174835205078,21.880033493041992,0.7775575518608093,-0.934729278087616,-1.3683571815490723,1
824,2.763766288757324,-7.882974624633789,23.626569747924805,1.0322084426879883,-0.8235448002815247,-1.1151505708694458,1
825,6.809782028198242,2.169771432876587,25.316394805908203,1.04352605342865,-0.8024307489395142,-0.8728204369544983,1
826,2.4573590755462646,7.681128025054932,25.924711227416992,0.9142755270004272,-0.6250290274620056,-0.58226078748703,1
827,-6.639247894287109,4.887680530548096,25.173622131347656,0.9149424433708191,-0.7020385265350342,-0.35145047307014465,1
828,-20.628597259521484,2.11081862449646,21.54833984375,0.878394365310669,-0.8131029009819031,-0.111465223133564,1
829,-31.715696334838867,2.8494064807891846,18.041793823242188,0.9308696985244751,-1.2069978713989258,0.06610465794801712,1
830,-39.3663215637207,3.9198403358459473,14.651010513305664,0.9566874504089355,-1.6661821603775024,0.2213924378156662,1
831,-38.84747314453125,4.944852828979492,12.826353073120117,0.730275571346283,-1.8115726709365845,0.41615909337997437,1
832,-29.137584686279297,5.10867166519165,10.999183654785156,0.5881565809249878,-2.124474048614502,0.5606939792633057,1
833,-15.799724578857422,2.4397521018981934,10.136300086975098,0.5456281304359436,-2.483898878097534,0.6619390249252319,1
834,-3.2276175022125244,5.758509635925293,8.445515632629395,0.655267059803009,-2.6116466522216797,0.7311163544654846,1
835,7.5003461837768555,6.747358322143555,6.80177116394043,0.5672503709793091,-2.613110303878784,0.8187657594680786,1
836,12.5031156539917,5.418514728546143,4.811811447143555,0.5590693950653076,-2.480471134185791,0.8685643672943115,1
837,11.2952241897583,6.661136150360107,2.481674909591675,0.38595062494277954,-2.2361979484558105,0.9461959004402161,1
838,4.650305271148682,5.179892539978027,-0.3539380729198456,0.3773462772369385,-2.1277334690093994,0.9485975503921509,1
839,-0.2392512857913971,2.7591893672943115,-2.212703227996826,0.39963972568511963,-2.115001678466797,0.9190831184387207,1
840,-3.1504218578338623,-0.07022861391305923,-4.241718769073486,0.38648825883865356,-2.1650402545928955,0.8922280669212341,1
841,-6.161690711975098,0.5395141243934631,-6.383923053741455,0.39219287037849426,-2.261249303817749,0.8475114107131958,1
842,-9.343433380126953,5.909657955169678,-9.125773429870605,0.35141515731811523,-2.3952431678771973,0.7945294976234436,1
843,-8.362000465393066,14.355191230773926,-11.536066055297852,0.19919441640377045,-2.3938887119293213,0.7284520864486694,1
844,-6.2556657791137695,21.368629455566406,-12.519770622253418,0.1474490761756897,-2.524231195449829,0.5729862451553345,1
845,-3.7922682762145996,24.303741455078125,-13.345752716064453,-0.14688418805599213,-2.6108198165893555,0.4687759280204773,1
846,-0.3474978804588318,21.426692962646484,-14.047745704650879,-0.43520307540893555,-2.6424107551574707,0.34514960646629333,1
847,4.9056572914123535,21.202816009521484,-13.415743827819824,-0.6433501243591309,-2.6444010734558105,0.19731947779655457,1
848,10.322990417480469,20.473926544189453,-11.937294960021973,-0.8967700600624084,-2.5396299362182617,0.07724200189113617,1
849,16.988828659057617,18.70804786682129,-9.707486152648926,-1.0559426546096802,-2.4163243770599365,-0.06185616925358772,1
850,24.611677169799805,14.73059368133545,-6.233926773071289,-1.2548307180404663,-2.103898048400879,-0.14625807106494904,1
851,28.812063217163086,8.219526290893555,-2.411088705062866,-1.3782026767730713,-1.9056044816970825,-0.21417343616485596,1
852,30.13144874572754,-2.523293972015381,1.2095284461975098,-1.3820126056671143,-1.4118698835372925,-0.24601046741008759,1
853,29.568359375,-5.723154067993164,6.314835548400879,-1.2257330417633057,-1.362962007522583,-0.29897186160087585,1
854,24.463972091674805,-6.921835422515869,10.014506340026855,-1.100639820098877,-0.8539650440216064,-0.22969743609428406,1
855,8.936229705810547,-5.097298622131348,11.317842483520508,-0.9766564965248108,-0.7641590237617493,-0.1674727499485016,1
856,-5.526834011077881,-10.156027793884277,9.738749504089355,-1.3174117803573608,-0.7765620946884155,0.07319412380456924,1
857,-11.91318130493164,-19.92554473876953,6.892611503601074,-1.158505916595459,-0.8607553839683533,0.15141919255256653,1
858,-10.909234046936035,-29.040569305419922,4.44131326675415,-0.6881611347198486,-1.0358041524887085,0.13240961730480194,1
859,-8.815622329711914,-33.22461700439453,2.411356210708618,-0.4050595164299011,-1.1848803758621216,0.17609845101833344,1
860,0.5044392347335815,-32.75988006591797,-0.1594010889530182,0.24124258756637573,-1.3540767431259155,0.10545885562896729,1
861,14.360151290893555,-27.821258544921875,-2.7250020503997803,0.16961339116096497,-1.2793771028518677,0.21448512375354767,1
862,29.52264404296875,-21.058639526367188,-5.289294242858887,0.5742193460464478,-1.0462462902069092,0.16522648930549622,1
863,41.66847229003906,-12.045909881591797,-5.97072696685791,0.8425420522689819,-0.48169606924057007,0.12266158312559128,1
864,46.45262908935547,-8.73481273651123,-5.448868751525879,0.8272581696510315,-0.05508725717663765,0.09557017683982849,1
865,40.39472198486328,-5.54353141784668,-4.384805679321289,1.0740476846694946,0.4356840252876282,0.010943938046693802,1
866,26.75861930847168,2.2536845207214355,-3.0474135875701904,0.9339725971221924,0.5067036747932434,-0.011621386744081974,1
867,11.893743515014648,9.873343467712402,-2.1140661239624023,0.9518544673919678,0.8127108216285706,-0.04998600855469704,1
868,0.6527259945869446,9.479809761047363,-1.2884889841079712,0.8609885573387146,0.8809431791305542,-0.06898573786020279,1
869,-5.534461498260498,11.881953239440918,-1.7890195846557617,0.772047221660614,0.9198043346405029,-0.0825866311788559,1
870,-5.1121416091918945,15.724310874938965,-3.974764108657837,0.5641760230064392,0.8587439060211182,-0.09883121401071548,1
871,-1.3279340267181396,20.821096420288086,-5.272878170013428,0.37446320056915283,0.8071809411048889,-0.13782860338687897,1
872,5.652166366577148,26.099878311157227,-6.690177917480469,0.17061258852481842,0.8341988921165466,-0.19043515622615814,1
873,14.366288185119629,31.077083587646484,-8.481571197509766,-0.19058158993721008,0.8318760395050049,-0.254226416349411,1
874,21.532503128051758,33.40415573120117,-9.792186737060547,-0.5508970618247986,0.6711743474006653,-0.3262123763561249,1
875,29.13393211364746,30.103866577148438,-9.14914608001709,-1.014886736869812,1.0324803590774536,-0.4306928813457489,1
876,36.0993766784668,27.22008514404297,-8.040223121643066,-1.3315980434417725,1.2749372720718384,-0.515480101108551,1
877,38.68677520751953,13.067039489746094,-7.195370674133301,-1.6258571147918701,1.7877329587936401,-0.5924481749534607,1
878,35.261962890625,-3.3843612670898438,-6.167627811431885,-1.461602807044983,2.0956764221191406,-0.6289768815040588,1
879,26.794124603271484,-15.346932411193848,-4.5319719314575195,-1.2869560718536377,2.4845173358917236,-0.6697701811790466,1
880,14.32536792755127,-28.455717086791992,-3.0974771976470947,-1.1431132555007935,2.559288263320923,-0.7374488115310669,1
881,0.8835413455963135,-30.077882766723633,-2.1168429851531982,-0.7057331800460815,2.820729970932007,-0.7370043396949768,1
882,-11.270488739013672,-18.73011016845703,-2.2963290214538574,-0.2787245512008667,2.8582513332366943,-0.7367357611656189,1
883,-21.728105545043945,-7.819911479949951,-2.873922109603882,-0.05936846137046814,2.606459617614746,-0.7752459645271301,1
884,-24.102436065673828,6.291240215301514,-3.0257508754730225,-0.05301201716065407,2.2716221809387207,-0.8322842121124268,1
885,-20.886550903320312,15.640469551086426,-1.7801334857940674,-0.48332875967025757,1.9881824254989624,-0.9835104942321777,1
886,-12.855973243713379,18.831764221191406,-0.24460339546203613,-0.6349807977676392,1.9926939010620117,-0.9785916805267334,1
887,-6.869980812072754,8.498309135437012,-1.7711423635482788,-0.8138052821159363,1.8062957525253296,-0.9907810091972351,1
888,-2.8211638927459717,-5.0919694900512695,-2.8253257274627686,-0.835013747215271,1.7176597118377686,-0.988149106502533,1
889,0.16845069825649261,-21.283267974853516,-2.617157459259033,-0.7053777575492859,1.6975189447402954,-0.9912535548210144,1
890,-1.9504674673080444,-28.101926803588867,-2.097707986831665,-0.4000820517539978,1.7863489389419556,-0.9782238006591797,1
891,-7.209860801696777,-21.457048416137695,-0.9257503151893616,-0.07399056106805801,1.82957124710083,-0.9805429577827454,1
892,-10.49547004699707,-4.8587799072265625,0.42283618450164795,-0.266511470079422,1.8590341806411743,-1.1376432180404663,1
893,-11.518268585205078,14.791051864624023,3.4995598793029785,-0.09482696652412415,1.7543667554855347,-1.0726711750030518,1
894,-8.168858528137207,29.52360725402832,5.867231845855713,-0.39092496037483215,1.6436058282852173,-1.0913690328598022,1
895,-4.796816349029541,38.08809280395508,7.5923357009887695,-0.7706277966499329,1.580004096031189,-1.055405616760254,1
896,-1.562111735343933,37.4227180480957,9.86832332611084,-1.2748702764511108,1.5656664371490479,-1.0187478065490723,1
897,-1.963428258895874,27.22628402709961,11.802289009094238,-1.5170249938964844,1.6028813123703003,-0.8601813316345215,1
898,-4.85397481918335,13.594693183898926,13.60699462890625,-1.8555418252944946,1.5417795181274414,-0.7624120712280273,1
899,-9.983675003051758,-9.43163013458252,15.176716804504395,-1.914703369140625,1.5051213502883911,-0.6016882061958313,1
900,-15.976685523986816,-29.642719268798828,16.20451545715332,-1.594597339630127,1.2976653575897217,-0.38522830605506897,1
901,-18.768611907958984,-46.08109664916992,16.622337341308594,-1.185867190361023,1.0812489986419678,-0.1930485963821411,1
902,-18.93381118774414,-55.204044342041016,17.12603759765625,-0.4939902126789093,0.9819194674491882,0.060106221586465836,1
903,-19.156152725219727,-52.870155334472656,18.459253311157227,-0.052553724497556686,1.1014121770858765,0.22442016005516052,1
904,-20.989959716796875,-45.09880828857422,19.470050811767578,0.6075177788734436,0.7322058081626892,0.4035014510154724,1
905,-22.296567916870117,-28.688615798950195,20.088977813720703,1.0181556940078735,0.6445388793945312,0.5847033858299255,1
906,-21.880205154418945,-6.3502116203308105,19.783004760742188,1.2820676565170288,0.293366402387619,0.7626662850379944,1
907,-20.4979248046875,15.206765174865723,18.75786781311035,1.2498561143875122,0.1903223693370819,0.9368733167648315,1
908,-18.27347183227539,35.187442779541016,17.995635986328125,0.931394636631012,-0.13092678785324097,1.0729902982711792,1
909,-16.146589279174805,44.23079299926758,17.15791893005371,0.4518965482711792,-0.4080968201160431,1.2152793407440186,1
910,-12.6651029586792,44.564117431640625,16.387746810913086,-0.007283457554876804,-0.7140706777572632,1.3768723011016846,1
911,-8.304125785827637,38.68416976928711,15.372126579284668,-0.3923110067844391,-0.5643458366394043,1.5441718101501465,1
912,-3.404371738433838,25.250890731811523,14.474910736083984,-1.0469741821289062,-0.3617408573627472,1.6423176527023315,1
913,-3.6822116374969482,8.157353401184082,12.929448127746582,-1.3167600631713867,-0.4194783568382263,1.7967127561569214,1
914,-4.7596282958984375,-7.717445373535156,11.881997108459473,-1.2616106271743774,-0.47019991278648376,1.937843918800354,1
915,-8.267403602600098,-18.668203353881836,11.177976608276367,-1.109886884689331,-0.47077199816703796,2.061441421508789,1
916,-10.98619556427002,-27.471248626708984,11.01027774810791,-0.7967569828033447,-0.6879495978355408,2.1785216331481934,1
917,-13.406973838806152,-37.42303466796875,10.801946640014648,-0.4760819375514984,-0.7871674299240112,2.295196056365967,1
918,-13.044441223144531,-39.95118713378906,10.242137908935547,0.2256682962179184,-1.0685802698135376,2.414940357208252,1
919,-9.364710807800293,-38.63669967651367,10.165176391601562,0.24563360214233398,-1.029964804649353,2.5262327194213867,1
920,-7.6785407066345215,-39.491390228271484,9.60755443572998,0.7148207426071167,-1.2595155239105225,2.6298904418945312,1
921,-9.97028923034668,-41.0644416809082,8.287330627441406,1.0495405197143555,-1.292492151260376,2.7356746196746826,1
922,-12.496034622192383,-37.61479187011719,6.65814208984375,1.7260663509368896,-1.440054178237915,2.8136584758758545,1
923,-13.50633430480957,-30.40603256225586,4.610146999359131,2.1544909477233887,-1.629031777381897,2.8858063220977783,1
924,-8.859087944030762,-19.18305778503418,3.0760841369628906,2.367717981338501,-1.731802225112915,2.9447624683380127,1
925,-7.41395378112793,-3.705514907836914,0.35121768712997437,2.392359972000122,-1.8376270532608032,2.9988739490509033,1
926,-7.967043876647949,4.931591033935547,-2.9916176795959473,2.4078564643859863,-2.0746495723724365,3.025692939758301,1
927,-4.400897979736328,10.422459602355957,-5.4515252113342285,2.342710494995117,-2.1449732780456543,2.9909677505493164,1
928,-2.9149420261383057,7.882856845855713,-8.229541778564453,2.214181900024414,-2.2296767234802246,2.9449574947357178,1
929,3.398935079574585,7.7816081047058105,-9.989702224731445,2.1223018169403076,-2.270840883255005,2.8669567108154297,1
930,10.246221542358398,14.560016632080078,-9.93826961517334,2.0866706371307373,-2.202117443084717,2.745154857635498,1
931,15.565397262573242,15.234856605529785,-9.917107582092285,1.9473179578781128,-2.0143439769744873,2.61930251121521,1
932,22.299692153930664,14.54027271270752,-10.028386116027832,1.8048391342163086,-1.738985538482666,2.482203483581543,1
933,28.782989501953125,11.746167182922363,-7.478182792663574,1.6728832721710205,-1.356440782546997,2.3342690467834473,1
934,28.81913185119629,0.3290228247642517,-4.539165019989014,1.5826468467712402,-1.1222714185714722,2.2747318744659424,1
935,18.44619369506836,-13.59265422821045,-0.0013615075731649995,1.609632968902588,-0.8216264247894287,2.224123954772949,1
936,-3.689229726791382,-25.785017013549805,3.060112237930298,1.7285804748535156,-0.8730736374855042,2.314140558242798,1
937,-23.701562881469727,-31.04877281188965,1.7620160579681396,2.2797839641571045,-0.9773212671279907,2.277752637863159,1
938,-34.7547492980957,-26.311927795410156,-1.9783347845077515,2.331605911254883,-1.4004915952682495,2.4302561283111572,1
939,-30.7941837310791,-18.308561325073242,-6.8102874755859375,2.5172319412231445,-1.9573246240615845,2.50557541847229,1
940,-8.576716423034668,-13.444473266601562,-9.186957359313965,2.742553949356079,-2.001091480255127,2.3397140502929688,1
941,23.94573402404785,-7.55532169342041,-7.34224271774292,2.967686414718628,-2.0476136207580566,2.2362396717071533,1
942,44.58462142944336,4.651852607727051,-4.727271556854248,3.1479105949401855,-1.5714209079742432,2.0460124015808105,1
943,53.737327575683594,21.53980255126953,-2.887026309967041,3.005549192428589,-0.7809365391731262,1.8757965564727783,1
944,51.07242202758789,34.733116149902344,-2.536376714706421,2.740518569946289,-0.19424223899841309,1.8306344747543335,1
945,40.86709976196289,39.00548553466797,-2.907529830932617,2.2075400352478027,0.1005227193236351,1.9544382095336914,1
946,23.14859962463379,43.67877197265625,-2.1895503997802734,1.5317370891571045,0.39207425713539124,2.0445873737335205,1
947,1.3615140914916992,45.053192138671875,-0.7923449873924255,1.1812660694122314,0.5478606224060059,2.034821033477783,1
948,-17.091814041137695,40.8731803894043,1.8789911270141602,0.6916201710700989,0.4371888041496277,2.086677312850952,1
949,-31.93572235107422,33.46574783325195,1.3738356828689575,0.14782588183879852,0.2090352326631546,2.147054672241211,1
950,-39.50544738769531,27.832618713378906,-0.9193788170814514,-0.19530051946640015,-0.21121568977832794,2.19109845161438,1
951,-36.903629302978516,20.510345458984375,-2.666060447692871,-0.35543161630630493,-0.5196155309677124,2.1396982669830322,1
952,-22.468093872070312,14.425437927246094,-4.297801971435547,-0.42049121856689453,-0.9917681813240051,2.127772092819214,1
953,-4.146815299987793,12.4974946975708,-5.870400428771973,-0.28210684657096863,-1.0328477621078491,2.011207342147827,1
954,20.51861572265625,10.891892433166504,-4.795186996459961,-0.4379931390285492,-0.8737077116966248,1.922255516052246,1
955,43.955589294433594,11.541603088378906,-1.5147287845611572,-0.435535192489624,-0.63194340467453,1.8617799282073975,1
956,52.54384231567383,16.864337921142578,1.2227650880813599,-0.6297290921211243,0.11063108593225479,1.818357229232788,1
957,46.930755615234375,28.96220588684082,2.135934591293335,-0.9672014713287354,0.857769787311554,1.8282722234725952,1
958,31.83592414855957,33.89750671386719,0.4792049825191498,-1.28175687789917,0.5974403023719788,1.8973981142044067,1
959,9.321826934814453,35.47061538696289,-0.1035284474492073,-1.6469436883926392,0.9007236957550049,1.9060159921646118,1
960,-10.279942512512207,23.481163024902344,0.44192972779273987,-2.0142698287963867,0.9987829923629761,1.9098832607269287,1
961,-23.207477569580078,4.740168571472168,0.7193642258644104,-2.127213478088379,0.7463147044181824,1.9081735610961914,1
962,-29.816390991210938,-11.346564292907715,0.030266864225268364,-2.0176689624786377,0.4873508810997009,1.9168440103530884,1
963,-26.216358184814453,-26.997304916381836,-1.7517269849777222,-1.6497931480407715,0.27197107672691345,1.9332081079483032,1
964,-13.914892196655273,-37.702388763427734,-2.41860294342041,-1.3033018112182617,0.10731129348278046,1.9310245513916016,1
965,0.16461150348186493,-39.49839782714844,-3.072409152984619,-0.7865175604820251,0.007729880977421999,1.9169089794158936,1
966,14.28423023223877,-37.02153015136719,-2.0647401809692383,-0.578630805015564,0.22079549729824066,1.9168201684951782,1
967,23.241121292114258,-29.385589599609375,-0.32220593094825745,0.016813959926366806,0.46506813168525696,1.92555832862854,1
968,22.67151641845703,-18.83989715576172,0.2207038551568985,0.4292134940624237,0.8402472734451294,1.9569438695907593,1
969,17.19883918762207,-5.0613532066345215,0.46153688430786133,0.2621665298938751,1.005203366279602,1.925184965133667,1
970,8.804696083068848,14.216961860656738,1.0834178924560547,0.08039809763431549,1.0617785453796387,1.8942956924438477,1
971,-2.7363762855529785,28.82986831665039,1.6345868110656738,-0.22655515372753143,1.0285382270812988,1.879145860671997,1
972,-13.700897216796875,41.64779281616211,1.9249231815338135,-0.6009162664413452,0.8886697888374329,1.8793458938598633,1
973,-21.639116287231445,45.64226531982422,2.6697773933410645,-1.257279872894287,0.7470329403877258,1.8764724731445312,1
974,-25.90471649169922,37.84892272949219,3.320403814315796,-1.7129100561141968,0.6532319188117981,1.931573510169983,1
975,-26.142547607421875,20.815689086914062,3.4230093955993652,-1.9657422304153442,0.28397905826568604,1.9615049362182617,1
976,-20.646316528320312,-4.455067157745361,2.623990297317505,-2.098156452178955,0.11702558398246765,2.023327350616455,1
977,-12.828224182128906,-29.023588180541992,0.8884371519088745,-1.7393041849136353,-0.09678357094526291,2.083230972290039,1
978,-5.272912502288818,-46.73603439331055,-0.29739558696746826,-1.4948848485946655,-0.17973586916923523,2.092916488647461,1
979,-1.1707563400268555,-55.51801300048828,-1.6087143421173096,-0.6435091495513916,-0.16303333640098572,2.1541411876678467,1
980,0.07259108871221542,-54.789432525634766,-3.350733518600464,-0.27394744753837585,-0.03524365648627281,2.1542022228240967,1
981,-1.4194703102111816,-46.25413131713867,-4.4321722984313965,0.5016015768051147,0.005742059089243412,2.1532700061798096,1
982,-5.473046779632568,-35.221561431884766,-5.421194553375244,0.7789879441261292,-0.07579432427883148,2.0740044116973877,1
983,-14.8358793258667,-22.327829360961914,-5.736162185668945,1.1734657287597656,-0.26537758111953735,2.0007033348083496,1
