,gyro.x,gyro.y,gyro.z,stabilizer.pitch,stabilizer.roll,stabilizer.yaw,label
0,0.010472037829458714,-0.0370974987745285,0.061457667499780655,-0.35079360008239746,-1.3881075382232666,58.5036735534668,1
1,-0.10796138644218445,0.07979872822761536,0.07137273252010345,-0.3592733144760132,-1.2353177070617676,58.454368591308594,1
2,-0.053640350699424744,-0.07124727964401245,0.130091592669487,-0.4280719757080078,-1.120154619216919,58.404869079589844,1
3,-0.06029500439763069,-0.026250941678881645,0.17869307100772858,-0.35370615124702454,-1.1601035594940186,58.358428955078125,1
4,-0.08084447681903839,0.02446134202182293,0.06765121221542358,-0.3609931170940399,-1.2548686265945435,58.31187438964844,1
5,0.014564327895641327,0.005065195728093386,0.00764055410400033,-0.36705970764160156,-1.2635676860809326,58.26390838623047,1
6,-0.07196620851755142,0.04067211225628853,-0.003662353614345193,-0.37182679772377014,-1.2700716257095337,58.21532440185547,1
7,-0.006797041743993759,-0.10089895129203796,0.02399425022304058,-0.3752366602420807,-1.212227463722229,58.16630935668945,1
8,-0.02451222389936447,0.04789022356271744,0.0179159976541996,-0.37731608748435974,-1.2945466041564941,58.118553161621094,1
9,-0.06221030652523041,-0.01685619167983532,0.06928510218858719,-0.4429242014884949,-1.2306517362594604,58.068214416503906,1
10,0.005907012615352869,-0.0959397479891777,0.15147286653518677,-0.42872679233551025,-1.245947241783142,58.02054214477539,1
11,-0.04462914541363716,-0.005180154927074909,0.041730985045433044,-0.35479938983917236,-1.2578800916671753,57.9747314453125,1
12,-0.033221494406461716,0.027691811323165894,-0.007597827352583408,-0.3635893762111664,-1.3302478790283203,57.92695236206055,1
13,-0.0549360066652298,-0.05698757991194725,0.018877912312746048,-0.36969825625419617,-1.5111732482910156,57.87922286987305,1
14,0.03332135081291199,0.03435448557138443,0.05209033191204071,-0.37403222918510437,-1.2061262130737305,57.82902908325195,1
15,-0.09667456150054932,-0.05223440006375313,0.08428118377923965,-0.4413597285747528,-1.227333903312683,57.78069305419922,1
16,0.06242697685956955,-0.11895957589149475,0.0409160777926445,-0.4272928535938263,-1.2433972358703613,57.733367919921875,1
17,-0.02276710420846939,-0.047876887023448944,0.10352060198783875,-0.2902442514896393,-1.3184335231781006,57.68772506713867,1
18,0.0020396828185766935,0.05543605610728264,0.13255809247493744,-0.377198189496994,-1.3124125003814697,57.63905334472656,1
19,0.029820913448929787,-0.06815003603696823,0.14176641404628754,-0.37690791487693787,-1.3114657402038574,57.59159851074219,1
20,-0.009158100001513958,0.004195067100226879,-0.029415585100650787,-0.37570732831954956,-1.3104976415634155,57.54423141479492,1
21,-0.062938392162323,-0.0011237902799621224,0.08892589062452316,-0.4399973452091217,-1.3083235025405884,57.49517059326172,1
22,-0.013423684053122997,0.001844292040914297,0.09542348235845566,-0.4250779449939728,-1.3068536520004272,57.44753646850586,1
23,-0.014311941340565681,-0.04453882575035095,0.016989465802907944,-0.35010775923728943,-1.305316686630249,57.400421142578125,1
24,-0.005138161592185497,0.0195451807230711,-0.01789167895913124,-0.35656318068504333,-1.4937783479690552,57.35315704345703,1
25,0.07981482893228531,-0.03523939847946167,0.12079834192991257,-0.3620610535144806,-1.2576285600662231,57.30329132080078,1
26,-0.09261691570281982,0.05824495479464531,0.04476115107536316,-0.36658743023872375,-1.2040166854858398,57.25565719604492,1
27,-0.060497697442770004,-0.11052342504262924,-0.005857642740011215,-0.43294626474380493,-1.038616418838501,57.20634078979492,1
28,0.0022758864797651768,-0.08869945257902145,-0.0029011755250394344,-0.3560757040977478,-1.3559765815734863,57.16136932373047,1
29,-0.04136074334383011,-0.014358416199684143,-0.01016574539244175,-0.36105114221572876,-1.343835711479187,57.11296463012695,1
30,0.08319982886314392,-0.08115482330322266,0.11003050208091736,-0.3646446764469147,-1.3342472314834595,57.065120697021484,1
31,0.03439152240753174,-0.12367654591798782,0.025181259959936142,-0.36714261770248413,-1.0740748643875122,57.016090393066406,1
32,-0.07323066145181656,-0.03418237715959549,0.07976989448070526,-0.36953890323638916,-1.3821486234664917,56.9712028503418,1
33,0.012706718407571316,0.008556720800697803,0.02464524656534195,-0.43448126316070557,-1.3004740476608276,56.92244338989258,1
34,-0.0003862500889226794,-0.11577969044446945,0.06215699389576912,-0.4207037091255188,-1.300788164138794,56.87520217895508,1
35,-0.05729510635137558,-0.04985626041889191,0.07915140688419342,-0.2826733887195587,-1.3644518852233887,56.82961654663086,1
36,-0.05165295675396919,-0.07549933344125748,0.03503385931253433,-0.43166616559028625,-1.3493634462356567,56.78099822998047,1
37,0.009878613986074924,0.003536378964781761,0.16313289105892181,-0.4185466766357422,-1.0857715606689453,56.732181549072266,1
38,-0.07167131453752518,0.0036032767966389656,0.029597245156764984,-0.40886521339416504,-1.580043077468872,56.68693542480469,1
39,-0.027228929102420807,0.03903200849890709,0.0029958332888782024,-0.3384062349796295,-1.3865139484405518,56.639251708984375,1
40,-0.03824780881404877,-0.15835238993167877,0.07565182447433472,-0.41038909554481506,-1.3647732734680176,56.59184646606445,1
41,0.001129234442487359,-0.09135071188211441,0.0696287751197815,-0.40072518587112427,-1.2846766710281372,56.54479217529297,1
42,-0.07662525773048401,-0.009282471612095833,0.0985795259475708,-0.3988596498966217,-1.2839514017105103,56.497989654541016,1
43,-0.03899872303009033,-0.037697579711675644,-0.037837132811546326,-0.39441877603530884,-1.2234903573989868,56.45109939575195,1
44,0.055820100009441376,0.03571387007832527,0.07165862619876862,-0.3912718594074249,-1.5558760166168213,56.40399932861328,1
45,-0.017605600878596306,0.027525361627340317,0.0032393247820436954,-0.3265569508075714,-1.3025336265563965,56.35558319091797,1
46,-0.008038141764700413,-0.12649941444396973,0.16724365949630737,-0.3402753174304962,-1.1724499464035034,56.307281494140625,1
47,-0.024728290736675262,-0.0762874186038971,-0.051006678491830826,-0.3501175343990326,-1.2014954090118408,56.26119613647461,1
48,-0.10329537093639374,0.011362736113369465,0.0746416300535202,-0.3580402135848999,-1.2238878011703491,56.213314056396484,1
49,0.027202622964978218,0.02272055111825466,0.028952231630682945,-0.42778781056404114,-1.2403711080551147,56.165191650390625,1
50,-0.0259091854095459,-0.05026176944375038,0.0490637943148613,-0.4179550111293793,-1.2525991201400757,56.118106842041016,1
51,0.09742961078882217,-0.044607870280742645,0.07468562573194504,-0.40973997116088867,-1.0093910694122314,56.070377349853516,1
52,0.042699601501226425,-0.1714455783367157,0.0544084757566452,-0.4033343195915222,-1.3293589353561401,56.02397537231445,1
53,0.0019425583304837346,-0.0255301333963871,0.06532767415046692,-0.33429673314094543,-1.1938958168029785,55.978370666503906,1
54,-0.03916764631867409,0.024695316329598427,-0.0023531964980065823,-0.3469264805316925,-1.345067024230957,55.9317626953125,1
55,-0.07388211786746979,-0.18092380464076996,0.06212944537401199,-0.3556381165981293,-1.5857051610946655,55.88618850708008,1
56,0.04338318854570389,-0.01064235158264637,0.028968755155801773,-0.42514508962631226,-1.3888156414031982,55.837646484375,1
57,0.038812607526779175,-0.049165964126586914,0.06016834080219269,-0.35200318694114685,-1.3644522428512573,55.79043197631836,1
58,-0.008585602976381779,-0.10997500270605087,0.10031205415725708,-0.35906490683555603,-1.3459196090698242,55.74363708496094,1
59,0.02103719487786293,-0.032785866409540176,0.11529143899679184,-0.4281032383441925,-1.2681522369384766,55.696834564208984,1
60,-0.06679639965295792,0.023424239829182625,0.023242704570293427,-0.41795578598976135,-1.2097479104995728,55.65004348754883,1
61,0.023966524749994278,-0.08591928333044052,0.03172803297638893,-0.4094868302345276,-1.2286423444747925,55.60330581665039,1
62,0.0011824668617919087,-0.04103848710656166,-0.04109673202037811,-0.4021376371383667,-1.3695205450057983,55.556678771972656,1
63,-0.06602537631988525,0.012562905438244343,0.08023978769779205,-0.3979184031486511,-1.2864880561828613,55.50951385498047,1
64,0.024700477719306946,-0.09321101009845734,0.0621090829372406,-0.3303305208683014,-1.2868677377700806,55.463653564453125,1
65,-0.040659189224243164,-0.02153160609304905,-0.018995098769664764,-0.40543991327285767,-1.2878307104110718,55.416141510009766,1
66,-0.05700158327817917,0.039250124245882034,0.045599959790706635,-0.3372529149055481,-1.2895159721374512,55.369285583496094,1
67,0.038505468517541885,-0.0302171278744936,0.02880154550075531,0.0,0.0,0.0,1
68,0.046828147023916245,-0.0804777443408966,0.09165673702955246,0.6065805554389954,-0.0015190242556855083,0.00037313104257918894,1
69,-0.10886336117982864,-0.12323596328496933,0.09506861120462418,0.10190480202436447,-0.037598129361867905,0.0016115171601995826,1
70,-0.01021613460034132,-0.0452234260737896,0.004267605487257242,-0.34131017327308655,-0.10539963096380234,0.002085928339511156,1
71,-0.06600237637758255,-0.06176261231303215,0.055986449122428894,-1.7504034042358398,-0.2072005718946457,5.064285869593732e-05,1
72,-0.08722945302724838,-0.00981717649847269,0.08785069733858109,-1.0087041854858398,-0.3162027895450592,-0.0005240064347162843,1
73,0.010335158556699753,-0.07151097059249878,0.10906819254159927,-1.041599154472351,-0.41926372051239014,-0.0017801483627408743,1
74,0.0313018374145031,-0.05815828964114189,0.08033481240272522,-1.0407605171203613,-0.5225770473480225,-0.003230556845664978,1
75,-0.08796867728233337,-0.0021845472510904074,0.15027645230293274,-1.5092592239379883,-0.6141511797904968,-0.004877547267824411,1
76,0.05870354175567627,-0.09185564517974854,0.020199667662382126,-1.3017101287841797,-0.6907191276550293,-0.005866301245987415,1
77,-0.0178826991468668,-0.28470075130462646,-0.049294281750917435,-1.1461806297302246,-0.7613936066627502,-0.007078209891915321,1
78,-0.09023354202508926,0.02900516800582409,0.013308912515640259,-1.0350950956344604,-0.8212844133377075,-0.008408118970692158,1
79,0.020717797800898552,-0.14956533908843994,-0.02411285787820816,-0.9444910883903503,-0.8661558628082275,-0.009672269225120544,1
80,-0.03542865812778473,-0.09269710630178452,0.05839390680193901,-0.8782346844673157,-0.9085804224014282,-0.010578453540802002,1
81,-0.09311439841985703,0.033490464091300964,0.03562484681606293,-0.8262767195701599,-0.944472074508667,-0.010883057489991188,1
82,0.18707263469696045,-0.047045499086380005,-0.015718091279268265,-0.7791124582290649,-1.8162108659744263,-0.025843024253845215,1
83,0.03614593297243118,-0.08441480994224548,0.12099366635084152,-0.48421087861061096,-0.28093045949935913,-0.009054070338606834,1
84,0.01101856678724289,0.07283252477645874,0.10454009473323822,-0.5347758531570435,-0.9966073632240295,-0.013921000994741917,1
85,0.08381827920675278,-0.095139279961586,0.13786029815673828,-0.33104580640792847,-0.7877848148345947,-0.014418475329875946,1
86,0.005482481326907873,-0.023548662662506104,-0.00016473824507556856,-0.412262499332428,-1.0908843278884888,-0.01229699607938528,1
87,-0.09507963806390762,0.06137249246239662,0.11701103299856186,-0.46860969066619873,-1.0951069593429565,-0.011074375361204147,1
88,0.001487560337409377,-0.08466453105211258,0.03294874727725983,-0.699398934841156,-1.1001276969909668,-0.007376205176115036,1
89,-0.03234026953577995,0.11787676066160202,-0.0029787251260131598,-0.6720547676086426,-1.1067239046096802,-0.006779390387237072,1
90,-0.07630344480276108,-0.06449075788259506,-0.013629294000566006,-0.646609365940094,-0.9375070333480835,-0.006679960526525974,1
91,-0.11147185415029526,0.005691443104296923,0.0898386538028717,-0.6266685128211975,-1.1631951332092285,-0.0073759411461651325,1
92,-0.0207595806568861,-0.11612808704376221,0.009965126402676105,-0.7714985609054565,-0.9992462396621704,-0.003834413131698966,1
93,-0.08239972591400146,0.02748732455074787,0.020973673090338707,-0.716536819934845,-1.1974397897720337,-0.005064791534096003,1
94,0.13896088302135468,0.02652864158153534,-0.0015814498765394092,-0.6760122179985046,-1.1865826845169067,-0.00573149137198925,1
95,-0.007754686288535595,0.03689926117658615,0.05101842060685158,-0.6455409526824951,-1.180395245552063,-0.0058416202664375305,1
96,0.04922930523753166,-0.05269022285938263,-0.027576567605137825,-0.6203421354293823,-1.0380868911743164,-0.006021583918482065,1
97,0.07754545658826828,-0.01984918862581253,-0.002851885510608554,-0.6000715494155884,-0.6690463423728943,-0.005522164981812239,1
98,-0.03345370665192604,-0.11229674518108368,0.008029655553400517,-0.5847533941268921,-1.320624828338623,-0.006907205563038588,1
99,-0.031095467507839203,-0.049262598156929016,0.08953342586755753,-0.5716355443000793,-1.1589267253875732,-0.00662801181897521,1
100,0.030761146917939186,-0.00906301662325859,0.07610729336738586,-0.5602185726165771,-1.6574325561523438,-0.0058424100279808044,1
101,0.05583566799759865,-0.06424571573734283,0.03235911577939987,-0.4321996569633484,-1.2990801334381104,-0.009169111959636211,1
102,0.013493399135768414,0.03483400493860245,0.004052846692502499,-0.5729080438613892,-1.271840214729309,-0.0045169503428041935,1
103,0.0901656448841095,-0.07103576511144638,0.028720509260892868,-0.5591510534286499,-1.137985348701477,-0.005407058633863926,1
104,-0.09187231957912445,-0.047106120735406876,0.18034860491752625,-0.4366277754306793,-1.1540015935897827,-0.00808607880026102,1
105,-0.01071069948375225,-0.13028651475906372,0.09511067718267441,-0.4536895155906677,-1.1663707494735718,-0.0065288059413433075,1
106,-0.07255641371011734,-0.07668794691562653,0.02345254458487034,-0.46528345346450806,-1.0711264610290527,-0.005589518696069717,1
107,0.018694138154387474,-0.0683874860405922,0.060233861207962036,-0.3696250915527344,-0.7949061989784241,-0.011211400851607323,1
108,0.007570445071905851,0.032513994723558426,0.08115741610527039,-0.6052190065383911,-1.307787537574768,-0.00013914371083956212,1
109,-0.1584637612104416,-0.1136743426322937,0.01142799574881792,-0.47752347588539124,-1.2871192693710327,-0.0017751456471160054,1
110,0.043975312262773514,-0.024338817223906517,-0.023077988997101784,-0.4817839562892914,-1.271026849746704,-0.0016326179029420018,1
111,-0.08702374249696732,-0.11553669720888138,0.08919809013605118,-0.4842608571052551,-0.9706295728683472,-0.005409556441009045,1
112,-0.06244172900915146,-0.0473293699324131,0.0368838869035244,-0.4859919846057892,-0.845888078212738,-0.0058911144733428955,1
113,-0.048846494406461716,0.050635986030101776,0.08798589557409286,-0.48704567551612854,-1.4079474210739136,0.001443300279788673,1
114,0.013835599645972252,0.05823377147316933,0.12691502273082733,-0.4874984920024872,-0.9962109923362732,-0.00299146119505167,1
115,-0.038251280784606934,0.05242595821619034,0.06142975762486458,-0.4872581958770752,-1.2359510660171509,0.0014028246514499187,1
116,-0.007017865311354399,-0.0045728799887001514,-0.043807629495859146,-0.4865409731864929,-1.3242303133010864,0.0035863134544342756,1
117,0.11836845427751541,-0.08911346644163132,0.14759281277656555,-0.48505502939224243,-1.30068039894104,0.0033716424368321896,1
118,0.06645512580871582,0.044983766973018646,0.11019624024629593,-0.4852263629436493,-1.3701164722442627,0.0051377201452851295,1
119,-0.0015440518036484718,0.04052218794822693,0.10855011641979218,-0.5709148049354553,-1.335961103439331,0.007967984303832054,1
120,0.0012950827367603779,-0.014036489650607109,0.03698677569627762,-0.46413081884384155,-1.3100231885910034,0.006147386971861124,1
121,0.048836931586265564,-0.04219936206936836,-0.04729260131716728,-0.46872785687446594,-1.2910165786743164,0.006389475893229246,1
122,0.007236340548843145,-0.11984166502952576,0.1326574683189392,-0.5536438226699829,-1.2765227556228638,0.008951667696237564,1
123,0.002119279932230711,-0.05360739305615425,0.0020873902831226587,-0.5343804359436035,-1.265533447265625,0.009011303074657917,1
124,0.00831292849034071,-0.05019836872816086,0.013474199920892715,-0.5195051431655884,-1.257123589515686,0.009332026354968548,1
125,0.09633324295282364,-0.06969630718231201,0.050809405744075775,-0.5080560445785522,-1.2511446475982666,0.009230898693203926,1
126,-0.09866723418235779,0.10472841560840607,-0.003370080143213272,-0.4993719756603241,-1.1688865423202515,0.009241562336683273,1
127,-0.03725958243012428,-0.07860945910215378,0.040332093834877014,-0.49142178893089294,-1.265641450881958,0.009453143924474716,1
128,0.09127776324748993,-0.04649359732866287,0.0716249868273735,-0.48476970195770264,-1.1804412603378296,0.009124626405537128,1
129,0.062273118644952774,-0.00913996621966362,0.16263002157211304,-0.47993171215057373,-1.2727209329605103,0.010918009094893932,1
130,0.024785304442048073,-0.04516378045082092,0.13888181746006012,-0.3983769416809082,-1.264500617980957,0.010426033288240433,1
131,-0.18018817901611328,-0.02656877413392067,0.102747343480587,-0.4138231575489044,-1.3357752561569214,0.012714962475001812,1
132,-0.009122475981712341,-0.030597548931837082,0.04558584839105606,-0.4249404966831207,-1.3125667572021484,0.014104766771197319,1
133,0.07000907510519028,-0.07159475982189178,0.045405227690935135,-0.4328419864177704,-0.9188850522041321,0.009339286014437675,1
134,-0.021029554307460785,-0.04140511155128479,0.03734131529927254,-0.4397531747817993,-1.1498608589172363,0.013689415529370308,1
135,-0.06228899210691452,-0.041647590696811676,0.06609034538269043,-0.5181927680969238,-1.3240002393722534,0.017525462433695793,1
136,-0.004061173181980848,-0.08688990026712418,-0.03867257386445999,-0.42855724692344666,-1.307038426399231,0.016428889706730843,1
137,-0.01865871250629425,-0.003919550217688084,0.08258628100156784,-0.5085018277168274,-1.2949720621109009,0.017451472580432892,1
138,-0.0699513629078865,-0.11522726714611053,0.024212295189499855,-0.4943707287311554,-0.9942643642425537,0.014544826932251453,1
139,-0.04286796972155571,0.0026827852707356215,0.05776188522577286,-0.48477622866630554,-1.5677077770233154,0.020185917615890503,1
140,-0.09279299527406693,-0.011093389242887497,0.06334689259529114,-0.47671160101890564,-1.4935396909713745,0.019574718549847603,1
141,0.1375710815191269,-0.07385129481554031,0.002452941844239831,-0.46920397877693176,-1.2203118801116943,0.017843861132860184,1
142,0.0363125205039978,0.03667640686035156,0.00366807309910655,-0.4643309712409973,-1.300116777420044,0.018692051991820335,1
143,-0.0457136370241642,-0.011447974480688572,0.12521082162857056,-0.3895796239376068,-1.289131999015808,0.01695522479712963,1
144,0.06031063199043274,-0.04743614047765732,0.03679139167070389,-0.40351948142051697,-1.2811429500579834,0.0182949211448431,1
145,-0.14703206717967987,-0.09678231924772263,0.06371661275625229,-0.34300604462623596,-1.276210904121399,0.01778380759060383,1
146,0.07573027163743973,-0.10859360545873642,0.12271041423082352,-0.4374781847000122,-1.1318200826644897,0.01802651584148407,1
147,-0.06115718558430672,-0.07784604281187057,0.055840879678726196,-0.4379766881465912,-1.1638482809066772,0.019737735390663147,1
148,-0.022212333977222443,-0.04650650918483734,-0.06364323943853378,-0.43879106640815735,-1.1884912252426147,0.02092159166932106,1
149,0.03270565718412399,-0.10159831494092941,0.06257840245962143,-0.43967750668525696,-1.2762105464935303,0.022234829142689705,1
150,-0.06582965701818466,-0.0870935246348381,0.0725950375199318,-0.5088828206062317,-1.2041246891021729,0.022755512967705727,1
151,-0.020083123818039894,-0.02108345367014408,0.06385842710733414,-0.42203810811042786,-1.2194950580596924,0.02318396419286728,1
152,-0.06827197223901749,-0.07567038387060165,0.10058747977018356,-0.42529648542404175,-1.2321434020996094,0.023826267570257187,1
153,-0.04576067253947258,0.017323026433587074,0.0492791123688221,-0.42867234349250793,-1.2430075407028198,0.02480337582528591,1
154,-0.09070809930562973,-0.12107156962156296,-0.00032003334490582347,-0.4292910397052765,-1.1827278137207031,0.024661632254719734,1
155,-0.07743968814611435,-0.1002829521894455,0.16447293758392334,-0.49676454067230225,-1.2064135074615479,0.025584455579519272,1
156,-0.025293046608567238,0.10107110440731049,0.09163931012153625,-0.4130808115005493,-1.428597331047058,0.02848506160080433,1
157,0.08046798408031464,-0.078095443546772,-0.03756501153111458,-0.48493796586990356,-1.594201922416687,0.03127297759056091,1
158,-0.008876674808561802,-0.03296620771288872,0.1198897734284401,-0.4049401879310608,-1.1799546480178833,0.02686656266450882,1
159,0.008405105210840702,0.013340933248400688,0.08579070121049881,-0.4792228639125824,-1.2029160261154175,0.029118351638317108,1
160,0.041972383856773376,-0.08290937542915344,0.0226448941975832,-0.4669327735900879,-1.287675380706787,0.030381787568330765,1
161,-0.05767908692359924,0.008897163905203342,-0.0689757913351059,-0.45761048793792725,-1.2854338884353638,0.03082386404275894,1
162,0.040512338280677795,-0.04148617759346962,-0.012272731401026249,-0.44977012276649475,-1.2835289239883423,0.030777711421251297,1
163,0.02613263763487339,-0.14523540437221527,0.08888855576515198,-0.44277846813201904,-1.4819749593734741,0.031882066279649734,1
164,-0.1006084755063057,-0.03659524768590927,0.07277368754148483,-0.3715382218360901,-1.167428731918335,0.02896927110850811,1
165,-0.05461019277572632,-0.16273431479930878,-0.020403871312737465,-0.3828536868095398,-1.261216402053833,0.030611826106905937,1
166,0.16197122633457184,-0.14761154353618622,0.046517495065927505,-0.39104127883911133,-1.1981905698776245,0.030469339340925217,1
167,-0.10921529680490494,0.11251354962587357,0.012344284914433956,-0.39832571148872375,-1.2172805070877075,0.03127772733569145,1
168,0.039426229894161224,-0.15392860770225525,0.06110912933945656,-0.33641496300697327,-1.2315797805786133,0.03137500584125519,1
169,0.02627631276845932,-0.05645374581217766,-0.06386183202266693,-0.3568252921104431,-1.0456745624542236,0.029302963986992836,1
170,-0.055346857756376266,0.1252882331609726,-0.08619167655706406,-0.4392661154270172,-1.3669300079345703,0.0338338240981102,1
171,0.06610878556966782,-0.12361817806959152,0.07016636431217194,-0.4350169599056244,-1.3458045721054077,0.03351936861872673,1
172,0.056983623653650284,0.05056823045015335,-0.036878541111946106,-0.4975864589214325,-1.5254321098327637,0.03565501794219017,1
173,-0.08866146951913834,-0.03879984840750694,0.14780037105083466,-0.4795566201210022,-1.203400731086731,0.03349180147051811,1
174,0.07755675911903381,-0.09749892354011536,0.07516796886920929,-0.4645031690597534,-1.28612220287323,0.034434594213962555,1
175,-0.009008634835481644,-0.037611477077007294,0.07675163447856903,-0.4531249701976776,-1.2186781167984009,0.035122551023960114,1
176,-0.13200072944164276,-0.058858152478933334,0.08854137361049652,-0.37919318675994873,-1.2988097667694092,0.035585012286901474,1
177,0.06905066967010498,-0.1093621626496315,0.1214141696691513,-0.38790571689605713,-1.2939233779907227,0.03670848533511162,1
178,0.04180232435464859,-0.06639773398637772,0.033004388213157654,-0.5247633457183838,-1.2904291152954102,0.03874194994568825,1
179,-0.04169188067317009,-0.07394056022167206,0.10180984437465668,-0.4323991537094116,-1.4821540117263794,0.039199963212013245,1
180,0.002332434756681323,-0.031508009880781174,0.018703509122133255,-0.362880676984787,-1.2372123003005981,0.03792358562350273,1
181,0.07142803072929382,-0.03318236023187637,0.043922945857048035,-0.3764898180961609,-1.2460675239562988,0.03852134943008423,1
182,-0.012381981126964092,0.011243278160691261,0.023269152268767357,-0.3870944380760193,-0.9941363334655762,0.03658010810613632,1
183,0.05100440979003906,-0.15220241248607635,0.05896938592195511,-0.3932104706764221,-1.257459044456482,0.03963729366660118,1
184,-0.07549067586660385,0.06437388062477112,0.09881551563739777,-0.4642021358013153,-1.2644078731536865,0.03948025777935982,1
185,0.04185909777879715,-0.009520127438008785,0.048842836171388626,-0.4524977207183838,-1.0105897188186646,0.038687437772750854,1
186,0.10259699821472168,-0.049443550407886505,-0.009524078108370304,-0.37839826941490173,-1.3345482349395752,0.04193594679236412,1
187,-0.07863784581422806,0.01653917320072651,0.08051688969135284,-0.4526697099208832,-1.3236016035079956,0.0420040488243103,1
188,-0.026579899713397026,-0.11945147067308426,0.0401635579764843,-0.3788474500179291,-1.3150299787521362,0.042762260884046555,1
189,-0.030857136473059654,0.006488535087555647,0.13196499645709991,-0.38766995072364807,-1.373038411140442,0.04318944737315178,1
190,-0.04097741097211838,0.02986792102456093,0.01795712113380432,-0.3304688334465027,-1.0946916341781616,0.041777271777391434,1
191,0.046823762357234955,-0.055997200310230255,0.08561614155769348,-0.4799841642379761,-1.2694743871688843,0.043837226927280426,1
192,0.0361856184899807,-0.10826005041599274,-0.011037911288440228,-0.399864137172699,-1.5942329168319702,0.04741363227367401,1
193,-0.2002057135105133,0.005010518245398998,0.10890286415815353,-0.46761056780815125,-1.3917039632797241,0.04678242281079292,1
194,0.04733678326010704,-0.055811598896980286,-0.022008730098605156,-0.38980451226234436,-1.2366762161254883,0.04525576904416084,1
195,0.12378323823213577,0.019308313727378845,0.05365687981247902,-0.3945380747318268,-1.3108842372894287,0.04618603363633156,1
196,-0.08764050900936127,-0.06371975690126419,0.05646074190735817,-0.3996295928955078,-1.3033208847045898,0.046397432684898376,1
197,0.027998467907309532,0.06469713151454926,0.12953057885169983,-0.46730828285217285,-1.2967537641525269,0.047480858862400055,1
198,0.04963808134198189,-0.07460863143205643,-0.045105546712875366,-0.3896929919719696,-1.291790246963501,0.0483134388923645,1
199,-0.07105010747909546,0.09985186904668808,0.021420618519186974,-0.3964096009731293,-1.288641095161438,0.04838242009282112,1
200,-0.11955031007528305,-0.08175057917833328,0.06588426232337952,-0.40031424164772034,-1.3500776290893555,0.04913926497101784,1
201,0.10968009382486343,-0.23517374694347382,0.09875579923391342,-0.4024876356124878,-0.9486978650093079,0.04721968621015549,1
202,-0.1414032280445099,0.11346568912267685,0.009240753948688507,-0.34144654870033264,-1.349370002746582,0.05113930627703667,1
203,0.14766058325767517,-0.08279849588871002,-0.02620711736381054,-0.3591991662979126,-1.3322503566741943,0.05111491680145264,1
204,0.20466788113117218,-0.17070446908473969,0.06079261004924774,-0.4356638491153717,-1.3173936605453491,0.05101994425058365,1
205,-0.08381814509630203,0.060597892850637436,-0.034504491835832596,-0.4304004907608032,-1.5620983839035034,0.05345743149518967,1
206,-0.08286401629447937,-0.0979386568069458,0.05063088610768318,-0.4891171157360077,-1.301487684249878,0.05243868753314018,1
207,0.06430447101593018,-0.12910209596157074,0.022257333621382713,-0.46917426586151123,-1.294001579284668,0.05240935459733009,1
208,-0.05880507081747055,0.02816881239414215,0.004869391676038504,-0.4543808698654175,-1.2254594564437866,0.052350740879774094,1
209,-0.04062706604599953,-0.003170293988659978,0.16068032383918762,-0.3794383704662323,-1.2366974353790283,0.052617285400629044,1
210,0.08628439158201218,-0.0996956154704094,0.0953516885638237,-0.45035091042518616,-1.2452692985534668,0.05326605215668678,1
211,0.21508674323558807,-0.15610823035240173,0.8275564312934875,-0.37469929456710815,-1.2464165687561035,0.05453279986977577,1
212,0.19140808284282684,-0.1489410251379013,-0.19905637204647064,-0.3778601586818695,-1.1765550374984741,0.05864296108484268,1
213,-0.10854093730449677,0.36566925048828125,0.37433552742004395,-0.3825884759426117,-0.9945031404495239,0.0596589632332325,1
214,-2.582639217376709,0.9668110013008118,-2.4399518966674805,-0.392070472240448,-1.504024863243103,0.06153091788291931,1
215,-0.5815545916557312,-0.7555587291717529,-0.8887665271759033,-0.38878265023231506,-1.2968860864639282,0.056916724890470505,1
216,1.9754141569137573,-0.3455919623374939,2.2355856895446777,-0.3906705975532532,-1.1825332641601562,0.06818164139986038,1
217,1.6713122129440308,-0.17497292160987854,1.1102288961410522,-0.3911055624485016,-0.9734957218170166,0.06942705810070038,1
218,3.334052324295044,-2.9485461711883545,-0.9353712797164917,-0.34512650966644287,-1.092901587486267,0.06895681470632553,1
219,2.427346706390381,-2.830840587615967,-3.0736773014068604,-0.3110368847846985,-1.123287320137024,0.06941740959882736,1
220,4.551394462585449,-3.579400062561035,1.6406896114349365,-0.31758007407188416,-1.0420067310333252,0.04976193979382515,1
221,5.370023250579834,-5.994399547576904,-1.3945540189743042,-0.17335133254528046,-0.956000804901123,0.04896686226129532,1
222,6.9433441162109375,-7.610909938812256,-2.512737274169922,-0.14493346214294434,-0.8639362454414368,0.04527101665735245,1
223,6.789877891540527,-7.072120666503906,0.5021388530731201,0.023931745439767838,-1.0178673267364502,0.03475864231586456,1
224,6.214377403259277,-4.497525215148926,-0.352765828371048,0.3451879620552063,-0.7878369092941284,0.03423125296831131,1
225,4.228037357330322,-4.081113338470459,5.84714937210083,0.39445844292640686,-0.41632771492004395,0.010224290192127228,1
226,0.5527764558792114,-0.1485101729631424,8.41818618774414,0.987116813659668,-0.4811995029449463,0.09728259593248367,1
227,-2.7561638355255127,-1.4678516387939453,10.597784996032715,1.212273120880127,-0.18098294734954834,0.15449923276901245,1
228,-4.906101226806641,3.071122646331787,14.847862243652344,1.3591240644454956,-0.3082502782344818,0.29043370485305786,1
229,-13.59334659576416,6.5130157470703125,16.092510223388672,1.3583581447601318,-0.3640156388282776,0.43181076645851135,1
230,-12.521120071411133,24.004648208618164,11.078088760375977,2.0207808017730713,-0.15879639983177185,0.6140033006668091,1
231,-25.87141227722168,19.789321899414062,8.231008529663086,1.7896522283554077,-0.2292320281267166,0.7150615453720093,1
232,6.040828227996826,-16.52469253540039,6.2712931632995605,2.0029048919677734,-0.05752946063876152,0.7554764151573181,1
233,13.195581436157227,-2.529662847518921,4.939188003540039,2.035076141357422,-0.2950612008571625,0.8757925629615784,1
234,9.283307075500488,39.48986053466797,2.7647998332977295,2.0745813846588135,-0.5258809924125671,1.0513951778411865,1
235,-5.199351787567139,66.47576141357422,1.7666109800338745,2.628187656402588,-0.5896894335746765,1.2588077783584595,1
236,-20.769853591918945,75.89241790771484,-1.5380709171295166,2.2838833332061768,-0.7898484468460083,1.387241244316101,1
237,-23.394235610961914,83.8069076538086,-2.668470859527588,4.023416996002197,-0.6137696504592896,1.5505690574645996,1
238,-7.571979522705078,86.51190948486328,-3.280407190322876,3.155669689178467,-0.8568231463432312,1.516953468322754,1
239,4.627726078033447,92.93085479736328,-2.898411989212036,3.276355743408203,-1.3220340013504028,1.7304966449737549,1
240,15.75307846069336,91.8309555053711,-3.879281759262085,2.018394947052002,-1.4579743146896362,1.7606290578842163,1
241,26.063114166259766,83.54290008544922,-2.6293389797210693,3.2599384784698486,-0.14108610153198242,1.087733268737793,1
242,33.277748107910156,70.84476470947266,1.7364124059677124,2.1016499996185303,0.35578441619873047,0.9128934741020203,1
243,16.90751075744629,69.79316711425781,5.509088516235352,2.072751522064209,-0.013111857697367668,1.3344186544418335,1
244,-4.535398483276367,76.84650421142578,4.757505893707275,0.4992470443248749,0.023296916857361794,1.3324016332626343,1
245,-23.097904205322266,84.63541412353516,3.8495659828186035,-1.3573839664459229,-0.10731345415115356,1.2514644861221313,1
246,-35.572811126708984,85.74713134765625,4.534024238586426,-3.17409610748291,-0.5849417448043823,1.1858035326004028,1
247,-40.4454460144043,81.73371887207031,6.004354953765869,-5.991711139678955,-1.0445044040679932,0.9802248477935791,1
248,-30.24051856994629,71.268310546875,8.392279624938965,-9.025699615478516,-0.4813954830169678,1.192928671836853,1
249,-10.634446144104004,52.514930725097656,7.034305095672607,-10.6126070022583,-1.2302143573760986,0.9254890084266663,1
250,6.638437747955322,21.192710876464844,7.509794235229492,-9.764849662780762,-0.876456618309021,1.5001834630966187,1
251,16.36077117919922,-18.76446533203125,6.348085880279541,-9.916858673095703,-1.184627652168274,1.2041194438934326,1
252,17.841690063476562,-62.733482360839844,6.359796047210693,-9.173539161682129,-1.180845022201538,1.0989854335784912,1
253,15.516118049621582,-105.01801300048828,6.253110885620117,-7.877498149871826,-0.8365532755851746,1.3927786350250244,1
254,14.573963165283203,-139.58518981933594,4.168356418609619,-7.084712505340576,-0.354845255613327,1.917051911354065,1
255,13.01987361907959,-150.08609008789062,3.019869089126587,-5.359272003173828,-0.35703492164611816,1.7666901350021362,1
256,5.675838947296143,-134.49107360839844,4.725385665893555,-5.324233531951904,-0.7973947525024414,0.9982087016105652,1
257,0.6025810241699219,-101.3666000366211,8.5095796585083,-4.051344394683838,-1.0579051971435547,0.6637365818023682,1
258,-2.063918113708496,-62.8587532043457,11.987810134887695,-4.242484092712402,-1.355434775352478,0.3809201121330261,1
259,-1.691568374633789,-24.64011001586914,13.248509407043457,-3.494795560836792,-1.574188470840454,0.3104762136936188,1
260,-1.8574533462524414,-2.6390326023101807,12.284770965576172,-3.7488882541656494,-1.9127392768859863,0.21326886117458344,1
261,0.9660102128982544,5.182399272918701,11.253639221191406,-3.3423686027526855,-1.3755168914794922,0.7342022061347961,1
262,14.190360069274902,-5.102490425109863,9.79093074798584,-2.6138362884521484,-1.1695070266723633,0.9191192984580994,1
263,28.46698760986328,-30.632766723632812,8.36441707611084,-1.5629287958145142,-0.7797183990478516,1.1198569536209106,1
264,34.25594711303711,-54.150550842285156,6.021862983703613,-1.2002397775650024,-0.7743000984191895,1.1177829504013062,1
265,28.581754684448242,-67.1299819946289,3.371793270111084,1.3192404508590698,-0.1318638175725937,1.2757439613342285,1
266,18.47801399230957,-63.79558181762695,2.318988561630249,1.877617597579956,0.3043808937072754,1.324617624282837,1
267,2.5252840518951416,-45.3199462890625,1.7839285135269165,3.1627888679504395,0.663931131362915,1.4263901710510254,1
268,-14.591341018676758,-11.213290214538574,0.026615597307682037,3.4008021354675293,0.9941467046737671,1.322717547416687,1
269,-20.746076583862305,25.397829055786133,0.4682144522666931,2.9219212532043457,0.7205057740211487,1.2359310388565063,1
270,-20.837440490722656,59.88711929321289,0.6543476581573486,1.5690420866012573,0.3907163739204407,1.0748525857925415,1
271,-17.653425216674805,74.99634552001953,-0.4909018874168396,0.4980313181877136,0.40827617049217224,0.8613085150718689,1
272,-11.543065071105957,73.13912963867188,1.019775390625,-2.2612464427948,-0.8080287575721741,0.9106392860412598,1
273,-2.1853768825531006,54.9557991027832,0.4261907935142517,-4.170029640197754,-1.1374483108520508,0.8201203346252441,1
274,12.952383041381836,14.24952507019043,-0.5196492671966553,-5.2456512451171875,-1.4670544862747192,0.7591579556465149,1
275,30.221216201782227,-31.09212303161621,0.9477611780166626,-6.284605503082275,-1.1687843799591064,0.7407879829406738,1
276,41.0957145690918,-68.25283813476562,3.0195446014404297,-6.912111282348633,-1.1113361120224,0.6513496041297913,1
277,39.79895782470703,-93.40594482421875,5.958822727203369,-6.558684349060059,-0.6834995150566101,0.7005020976066589,1
278,20.2498836517334,-106.93452453613281,7.542004108428955,-5.4036865234375,-0.4546777606010437,0.6351909637451172,1
279,-0.7800015807151794,-97.2734375,9.11139965057373,-5.03436803817749,0.20669150352478027,0.9689777493476868,1
280,-11.844700813293457,-73.03462982177734,6.952447891235352,-3.3478622436523438,0.17202499508857727,1.0174304246902466,1
281,-20.972726821899414,-46.074214935302734,5.080865383148193,-0.5463564991950989,-0.48402804136276245,0.9110730290412903,1
282,-20.940155029296875,-15.908852577209473,4.037762641906738,-0.16664353013038635,-0.47151610255241394,1.0423604249954224,1
283,-13.50027847290039,11.927352905273438,3.4316139221191406,-0.40644368529319763,0.30019092559814453,1.3201040029525757,1
284,-1.1533607244491577,29.05156707763672,1.1931166648864746,-0.9503457546234131,-0.052122630178928375,1.2741222381591797,1
285,11.823310852050781,38.307308197021484,2.5847160816192627,-3.7585299015045166,-0.5052363872528076,0.96446692943573,1
286,23.653934478759766,35.53153991699219,5.006933689117432,-4.860806941986084,-0.774369478225708,0.8253970742225647,1
287,30.19059944152832,14.203633308410645,5.354124546051025,-5.834663391113281,-1.0273795127868652,0.665564239025116,1
288,33.90339279174805,-19.885772705078125,5.005802631378174,-5.832083702087402,-0.6301593780517578,0.7773741483688354,1
289,33.394527435302734,-67.91722106933594,3.617525339126587,-4.758589267730713,0.09648483246564865,1.0793555974960327,1
290,30.424610137939453,-109.65121459960938,3.0444295406341553,-3.5192131996154785,0.8114067316055298,1.3731383085250854,1
291,20.5476016998291,-133.6328887939453,2.2537949085235596,-1.4547666311264038,-0.023278824985027313,0.9450007081031799,1
292,7.183993816375732,-138.2051544189453,3.0759189128875732,0.6717588901519775,0.7931272387504578,1.266932725906372,1
293,-1.8727887868881226,-122.39254760742188,1.1534725427627563,3.0762832164764404,1.1253899335861206,1.4348928928375244,1
294,-8.527682304382324,-90.93145751953125,0.3670792579650879,4.888942718505859,1.1836557388305664,1.506123661994934,1
295,-13.477754592895508,-46.48756408691406,-0.5124619007110596,5.987139701843262,1.7450371980667114,1.2379250526428223,1
296,-17.506181716918945,9.497565269470215,1.3219307661056519,5.823819160461426,1.6699591875076294,0.9842392802238464,1
297,-23.55005645751953,63.0634880065918,3.1765406131744385,4.725018501281738,1.6577523946762085,0.5113248229026794,1
298,-28.872421264648438,101.03588104248047,5.852708339691162,3.791684150695801,1.169558048248291,0.6353346109390259,1
299,-26.20136833190918,116.11125946044922,6.047223091125488,2.3751509189605713,0.475509911775589,0.9101237058639526,1
300,-17.1757755279541,107.75231170654297,4.482576847076416,0.958332896232605,-0.21260009706020355,1.2534102201461792,1
301,-5.057410717010498,78.00016784667969,2.2935283184051514,0.33667510747909546,-0.37217435240745544,1.3874179124832153,1
302,10.039026260375977,33.19852066040039,-0.5293235778808594,-1.0469834804534912,-0.052338358014822006,1.0475131273269653,1
303,20.4625244140625,-15.790997505187988,0.22675199806690216,-1.2512370347976685,-0.18582868576049805,1.1915483474731445,1
304,21.580717086791992,-64.77578735351562,0.6762714385986328,-0.1049615889787674,-0.20411570370197296,1.4109845161437988,1
305,16.028398513793945,-96.87068939208984,0.23528645932674408,-0.025736799463629723,0.16790305078029633,1.3203301429748535,1
306,9.778532028198242,-106.707763671875,1.090867280960083,0.8694407939910889,0.7990884780883789,1.1880054473876953,1
307,2.655618190765381,-96.60999298095703,2.2299206256866455,1.9534448385238647,1.001142978668213,1.1641522645950317,1
308,-8.36412239074707,-74.74066925048828,1.7284810543060303,2.5332906246185303,1.2427310943603516,1.0246257781982422,1
309,-21.353605270385742,-43.14517593383789,1.2720532417297363,3.557008743286133,1.1453443765640259,1.0818769931793213,1
310,-34.87319564819336,-8.1326265335083,0.13640086352825165,4.070237159729004,1.094179391860962,1.0091794729232788,1
311,-43.16117858886719,23.302919387817383,1.512961506843567,4.3532514572143555,0.826349139213562,0.9974039196968079,1
312,-48.33454513549805,47.7245979309082,4.578368663787842,4.310840129852295,0.680280864238739,0.8389774560928345,1
313,-45.35438919067383,63.50483703613281,7.212166786193848,3.921063184738159,0.05366414040327072,0.9881097674369812,1
314,-38.585052490234375,67.22679138183594,6.700509071350098,3.5364694595336914,-0.1567840427160263,0.8754971027374268,1
315,-27.411640167236328,60.29715347290039,6.43363094329834,2.8448829650878906,-0.7044907808303833,1.0359854698181152,1
316,-16.310897827148438,44.96917724609375,5.000495433807373,2.308112144470215,-0.6688212156295776,0.8321847319602966,1
317,-5.434675216674805,24.799388885498047,4.6251912117004395,1.7870430946350098,-1.1452747583389282,1.076588749885559,1
318,-0.115414097905159,7.599618434906006,0.8702943325042725,1.6144105195999146,-1.129908561706543,1.0451408624649048,1
319,2.9596736431121826,-5.785705089569092,-1.8985722064971924,1.4696485996246338,-1.169131875038147,1.0774331092834473,1
320,4.927873611450195,-12.183416366577148,-2.462810516357422,1.5722887516021729,-1.1710541248321533,1.0757107734680176,1
321,6.1599955558776855,-9.490711212158203,-2.1979594230651855,1.6141566038131714,-1.3002489805221558,1.144142985343933,1
322,5.820513725280762,2.1283955574035645,-3.021974563598633,2.005357265472412,-0.9851324558258057,0.9784369468688965,1
323,3.2713191509246826,14.386987686157227,-0.8740372657775879,1.9616831541061401,-1.055352807044983,1.0251305103302002,1
324,-2.155946731567383,24.63764762878418,1.0249041318893433,2.1562676429748535,-1.069145917892456,0.9915508031845093,1
325,-6.507440090179443,32.76333999633789,2.2570672035217285,1.807740330696106,-1.120063304901123,1.0304081439971924,1
326,-11.144458770751953,38.22060775756836,2.776914119720459,1.7443798780441284,-1.0544639825820923,0.9658989310264587,1
327,-12.330082893371582,40.453407287597656,4.097807884216309,1.1590946912765503,-1.2507249116897583,1.0547298192977905,1
328,-11.140646934509277,39.44617462158203,4.934443950653076,1.0895488262176514,-1.2505477666854858,0.9907756447792053,1
329,-8.56407356262207,34.65937042236328,5.462859153747559,0.6418732404708862,-1.5020732879638672,1.0776528120040894,1
330,-6.398550987243652,27.826553344726562,6.977075576782227,0.38605502247810364,-1.5074023008346558,1.0730869770050049,1
331,-3.322876453399658,20.872888565063477,8.156914710998535,-0.09060077369213104,-1.5970712900161743,1.1618741750717163,1
332,0.11733464896678925,16.116504669189453,7.931076526641846,-0.05799180641770363,-1.5788804292678833,1.177717924118042,1
333,4.055831432342529,12.790422439575195,7.853752136230469,-0.38435447216033936,-1.6365282535552979,1.2829476594924927,1
334,7.764811038970947,14.872754096984863,6.674312591552734,-0.19405923783779144,-1.5517947673797607,1.2916959524154663,1
335,9.459516525268555,19.13886833190918,6.021956443786621,-0.5297497510910034,-1.4745196104049683,1.4026850461959839,1
336,10.150951385498047,24.891605377197266,5.837406635284424,-0.5408045053482056,-1.3191773891448975,1.431174874305725,1
337,8.241490364074707,29.17339515686035,5.657168865203857,-0.899848222732544,-1.156400203704834,1.515479564666748,1
338,0.4969347417354584,29.5835018157959,4.477107524871826,-1.3544942140579224,-1.1035547256469727,1.590686559677124,1
339,-7.712373733520508,23.29971694946289,4.267907619476318,-1.186276912689209,-1.2053886651992798,1.5336230993270874,1
340,-13.228205680847168,13.733378410339355,4.52515172958374,-1.4725515842437744,-1.258371114730835,1.5769176483154297,1
341,-17.731130599975586,5.641963005065918,4.707280158996582,-1.6172336339950562,-1.2133604288101196,1.6461739540100098,1
342,-20.301353454589844,0.3223753273487091,4.49411153793335,-1.7002562284469604,-1.6436148881912231,1.6192824840545654,1
343,-17.97841453552246,1.457876205444336,4.618338108062744,-1.638946294784546,-1.6524900197982788,1.7114793062210083,1
344,-13.19345760345459,6.631058216094971,4.304975509643555,-1.603163719177246,-1.9170026779174805,1.7239869832992554,1
345,-7.825765609741211,12.241923332214355,2.8783230781555176,-1.5706020593643188,-1.9581525325775146,1.7891570329666138,1
346,0.9038879871368408,19.717681884765625,1.5043177604675293,-1.8098561763763428,-2.103919506072998,1.828433632850647,1
347,8.098915100097656,28.6257381439209,1.3225698471069336,-1.9355467557907104,-2.130894184112549,1.8406314849853516,1
348,13.578438758850098,33.52372360229492,0.07229038327932358,-2.297656536102295,-1.9012113809585571,1.933084487915039,1
349,17.65008544921875,32.42854690551758,-1.1465753316879272,-2.5004372596740723,-1.79780113697052,1.9019134044647217,1
350,17.960668563842773,24.86483383178711,-2.169034242630005,-2.9382448196411133,-1.6208678483963013,1.9185481071472168,1
351,16.624282836914062,13.200018882751465,-3.014902114868164,-2.9214107990264893,-1.4920397996902466,1.805114984512329,1
352,12.494404792785645,1.0258761644363403,-3.0171902179718018,-3.2100772857666016,-1.3123687505722046,1.7974814176559448,1
353,8.346893310546875,-6.255555629730225,-3.243372678756714,-3.3002164363861084,-1.1816426515579224,1.7658355236053467,1
354,3.1672048568725586,-10.595598220825195,-2.4727494716644287,-3.116755247116089,-1.1063430309295654,1.7000576257705688,1
355,-0.9985310435295105,-10.229522705078125,-1.50973641872406,-2.8833186626434326,-1.0267237424850464,1.6659445762634277,1
356,-1.999535083770752,-4.464231967926025,0.3761797845363617,-3.0254101753234863,-0.9443644285202026,1.7168673276901245,1
357,0.8994213342666626,4.099987506866455,1.2583867311477661,-3.195647954940796,-1.006862759590149,1.7121894359588623,1
358,3.904344081878662,9.768802642822266,2.827620029449463,-3.413703441619873,-0.903019905090332,1.8022089004516602,1
359,7.321603775024414,8.764967918395996,3.6554458141326904,-3.8576555252075195,-1.462899923324585,1.5222290754318237,1
360,9.988539695739746,0.9721515774726868,7.153911590576172,-4.149019241333008,-3.0369794368743896,0.6269572377204895,1
361,16.807811737060547,-9.767563819885254,12.465434074401855,-3.82755446434021,-2.588571310043335,0.8344439268112183,1
362,28.369401931762695,-22.744232177734375,12.728242874145508,-3.6717936992645264,-2.064216136932373,1.1446350812911987,1
363,38.34772872924805,-30.651107788085938,11.312906265258789,-3.291472911834717,-1.685829758644104,1.330238699913025,1
364,45.87602996826172,-33.34138870239258,10.478119850158691,-2.800855875015259,-0.9205044507980347,1.6695635318756104,1
365,45.495582580566406,-32.509193420410156,9.602704048156738,-2.4546544551849365,-0.1662289947271347,1.9564119577407837,1
366,38.14012908935547,-26.732023239135742,7.772050380706787,-2.303981304168701,0.7880810499191284,2.344182014465332,1
367,21.671232223510742,-19.162782669067383,5.408161640167236,-1.9406923055648804,-0.16553623974323273,1.740756630897522,1
368,2.1246917247772217,-13.643027305603027,6.830299377441406,-1.5680227279663086,0.2869989573955536,1.8784046173095703,1
369,-9.730133056640625,-6.912756443023682,4.955321311950684,-1.367989182472229,0.5710557103157043,2.00561261177063,1
370,-15.78848934173584,5.354732036590576,3.298205852508545,-1.3525336980819702,0.5741950273513794,2.0795183181762695,1
371,-14.179635047912598,16.950300216674805,2.7900049686431885,-1.5992971658706665,0.2976205050945282,2.0530340671539307,1
372,-7.087728023529053,23.391904830932617,3.9822347164154053,-1.9805370569229126,0.36774203181266785,2.1229658126831055,1
373,3.3775744438171387,19.793474197387695,3.8447394371032715,-2.2176029682159424,0.323718398809433,2.1683099269866943,1
374,13.139090538024902,9.00675106048584,3.4462382793426514,-2.2667407989501953,0.5476637482643127,2.2954838275909424,1
375,18.316049575805664,-6.300252914428711,2.384760618209839,-2.8347153663635254,0.6885033845901489,2.2846691608428955,1
376,21.3784236907959,-23.599910736083984,1.8557676076889038,-2.6701278686523438,-0.7918552756309509,1.8554354906082153,1
377,27.711063385009766,-39.98112487792969,4.509151935577393,-2.318288564682007,-0.2999858856201172,1.9998924732208252,1
378,39.50086212158203,-47.62705612182617,5.011460304260254,-1.6874032020568848,0.2557232677936554,2.162597894668579,1
379,48.300323486328125,-45.69826126098633,6.243049621582031,-0.963117241859436,0.9284717440605164,2.334343910217285,1
380,48.574642181396484,-38.061988830566406,7.228219032287598,-0.337693989276886,1.4923484325408936,2.4355859756469727,1
381,41.85783767700195,-26.233745574951172,8.704203605651855,0.6310375332832336,2.3862643241882324,2.658837080001831,1
382,26.03078842163086,-8.792947769165039,8.2466402053833,0.9297398924827576,2.826724052429199,2.718463182449341,1
383,6.102616310119629,10.53723430633545,6.489314079284668,1.0629029273986816,3.279541015625,2.7994227409362793,1
384,-16.01224708557129,25.645408630371094,4.592438697814941,1.1276776790618896,3.4089434146881104,2.906102180480957,1
385,-35.90489959716797,35.9506950378418,2.633721113204956,0.9422842860221863,3.3282461166381836,2.97948956489563,1
386,-48.72067642211914,39.009586334228516,1.9336825609207153,0.6599477529525757,3.209203004837036,3.0324416160583496,1
387,-50.77745056152344,35.384315490722656,1.6101576089859009,-0.07504236698150635,2.7420437335968018,2.921100378036499,1
388,-39.89430236816406,29.488983154296875,2.200770854949951,0.36045998334884644,2.3906068801879883,3.3107287883758545,1
389,-23.34255599975586,21.902956008911133,-0.2606479823589325,0.002499327529221773,1.979668378829956,3.3161823749542236,1
390,-5.673464775085449,17.4205265045166,-2.5207552909851074,-0.11525524407625198,1.8094055652618408,3.3767292499542236,1
391,7.713405132293701,14.10282039642334,-3.6424601078033447,-0.5753239393234253,1.8862870931625366,3.204792022705078,1
392,13.992761611938477,12.793743133544922,-2.238344430923462,-0.3564980626106262,1.9370890855789185,3.347015619277954,1
393,9.386597633361816,13.17507266998291,-1.9128069877624512,-0.61732417345047,2.1308188438415527,3.2487552165985107,1
394,-5.85085391998291,15.975074768066406,-1.8775789737701416,-0.740639865398407,2.228064775466919,3.239797830581665,1
395,-26.449726104736328,20.42789077758789,-2.210397243499756,-1.1115878820419312,2.216661214828491,3.1280858516693115,1
396,-47.05400466918945,23.69150733947754,-1.6988734006881714,-0.7137103080749512,2.0202476978302,3.376645803451538,1
397,-61.071197509765625,25.10673713684082,-2.9019763469696045,-1.0348201990127563,1.6488157510757446,3.3183329105377197,1
398,-64.98069763183594,26.046430587768555,-3.032571315765381,-1.2389787435531616,1.3330743312835693,3.3024990558624268,1
399,-61.541996002197266,21.973316192626953,-3.943171739578247,-1.6358191967010498,0.32816827297210693,3.2411751747131348,1
400,-46.54656219482422,18.608182907104492,-2.982175350189209,-1.9642847776412964,0.09720116853713989,3.151587724685669,1
401,-23.561481475830078,13.238242149353027,-2.305039405822754,-2.150024890899658,-0.39753249287605286,3.12208890914917,1
402,-3.4951770305633545,12.483649253845215,-1.5244812965393066,-1.9404876232147217,-0.6881116628646851,3.208348035812378,1
403,8.723201751708984,11.041141510009766,-1.618685245513916,-2.2629482746124268,-0.754382848739624,3.13936185836792,1
404,12.58085823059082,9.924269676208496,-1.6337060928344727,-2.2855820655822754,-0.7664687633514404,3.1420176029205322,1
405,6.352349758148193,6.552496433258057,-2.299908399581909,-2.413233518600464,-0.590765655040741,3.129049062728882,1
406,-7.611854076385498,0.3992893695831299,-1.7392480373382568,-2.203268527984619,-0.5876830220222473,3.140773296356201,1
407,-25.953601837158203,1.032626748085022,-0.515362024307251,-2.2232210636138916,-0.6677086353302002,3.1119697093963623,1
408,-40.36676788330078,10.354289054870605,0.09573253244161606,-1.9958524703979492,-0.8722923994064331,3.1221024990081787,1
409,-46.97187042236328,22.713253021240234,-0.8322044014930725,-2.1199841499328613,-1.2830541133880615,3.1107547283172607,1
410,-45.66285705566406,30.89820671081543,-1.8617382049560547,-2.331702947616577,-1.6537302732467651,3.1137373447418213,1
411,-37.023887634277344,39.25407791137695,-2.374061346054077,-2.2818493843078613,-2.26828670501709,3.065643310546875,1
412,-22.397035598754883,47.83230209350586,-1.9771291017532349,-2.5351221561431885,-2.519254207611084,3.0504016876220703,1
413,-1.4859845638275146,44.343345642089844,-1.9370121955871582,-3.145296335220337,-2.939643144607544,2.9920945167541504,1
414,16.819644927978516,39.10550308227539,-1.686651587486267,-3.5668444633483887,-3.040233850479126,2.9414095878601074,1
415,29.072433471679688,38.79960632324219,-0.2822880744934082,-4.3999924659729,-2.854085922241211,2.993739604949951,1
416,32.24109649658203,35.61245346069336,-0.5013439059257507,-4.422792911529541,-2.6255457401275635,2.8839447498321533,1
417,27.598295211791992,26.74530029296875,-0.3529292345046997,-4.9442219734191895,-2.2744641304016113,2.910659074783325,1
418,16.807828903198242,19.79497718811035,-0.43080246448516846,-5.191098690032959,-2.1398978233337402,2.8196659088134766,1
419,2.0020525455474854,16.642539978027344,0.05522696301341057,-5.337210178375244,-2.0273618698120117,2.7499332427978516,1
420,-9.901345252990723,16.468881607055664,0.6663678288459778,-5.621987819671631,-2.0407254695892334,2.7329025268554688,1
421,-17.589740753173828,21.423797607421875,1.2714805603027344,-5.767627716064453,-2.0952048301696777,2.731048107147217,1
422,-18.949132919311523,22.585790634155273,1.8627383708953857,-6.1611223220825195,-2.3269107341766357,2.749228000640869,1
423,-13.812532424926758,20.514455795288086,2.2151072025299072,-6.0052409172058105,-2.5639352798461914,2.6227035522460938,1
424,-3.76967453956604,18.847978591918945,3.235722303390503,-6.323788642883301,-2.701603889465332,2.676945686340332,1
425,9.63769817352295,17.5069637298584,3.5626494884490967,-6.5277557373046875,-2.742044687271118,2.719325304031372,1
426,23.602689743041992,14.272377014160156,3.0410280227661133,-6.6305623054504395,-2.641606092453003,2.7570812702178955,1
427,34.32598876953125,5.422662258148193,3.354058027267456,-6.930466175079346,-2.532520055770874,2.7729036808013916,1
428,39.91028594970703,-2.750023126602173,3.6448216438293457,-6.9553117752075195,-2.043611526489258,2.906618118286133,1
429,36.257137298583984,-15.835426330566406,2.1099870204925537,-6.617785930633545,-1.9105629920959473,2.636474132537842,1
430,25.853038787841797,-29.323020935058594,1.8297338485717773,-6.439043998718262,-1.3956832885742188,2.740382194519043,1
431,14.594422340393066,-37.38735580444336,0.8993914127349854,-6.124351501464844,-1.0474836826324463,2.7728123664855957,1
432,5.684987545013428,-32.50812911987305,-1.3871684074401855,-5.781498432159424,-0.8790125846862793,2.78308367729187,1
433,2.270603656768799,-18.526695251464844,-3.6811881065368652,-5.508359432220459,-0.9029147624969482,2.7206523418426514,1
434,0.8604236245155334,0.9079046249389648,-3.885885000228882,-5.2935791015625,-0.906985878944397,2.672856569290161,1
435,-0.7343799471855164,19.499013900756836,-5.079295635223389,-5.295806884765625,-1.2025240659713745,2.419740676879883,1
436,0.34503594040870667,29.981945037841797,-4.8404388427734375,-5.627907752990723,-1.2859337329864502,2.3567512035369873,1
437,7.56302547454834,32.29872512817383,-5.186110496520996,-5.771337985992432,-1.2700625658035278,2.2849175930023193,1
438,20.541851043701172,27.03036117553711,-6.265104293823242,-6.142197132110596,-1.1965749263763428,2.2611196041107178,1
439,32.96217346191406,16.55687141418457,-8.221606254577637,-6.483005523681641,-0.8615033030509949,2.3386850357055664,1
440,43.2520637512207,1.499069333076477,-9.499844551086426,-6.310975551605225,-0.6985435485839844,2.092644453048706,1
441,48.65506362915039,-19.220252990722656,-8.516140937805176,-6.3699469566345215,-0.3677043616771698,1.9579813480377197,1
442,47.06824493408203,-36.878509521484375,-6.709632396697998,-6.045734405517578,0.45297881960868835,2.095065116882324,1
443,40.89775848388672,-41.243255615234375,-5.65008544921875,-5.901075839996338,0.6150861382484436,1.8103394508361816,1
444,28.313495635986328,-34.29807662963867,-3.4095299243927,-5.341618061065674,1.0902432203292847,1.7576488256454468,1
445,14.004642486572266,-25.89376449584961,-2.9190173149108887,-4.879258155822754,1.375661849975586,1.6667801141738892,1
446,-0.7713292241096497,-15.578474044799805,-3.473217487335205,-4.479150295257568,1.5082197189331055,1.5808767080307007,1
447,-12.564250946044922,-4.807392120361328,-4.6078267097473145,-4.9191060066223145,1.5495034456253052,1.5639699697494507,1
448,-14.578540802001953,0.30406081676483154,-5.375570297241211,-4.7850446701049805,1.4282817840576172,1.5030733346939087,1
449,-9.207137107849121,-5.71005916595459,-3.8051538467407227,-4.755220413208008,1.2763246297836304,1.447867751121521,1
450,1.7672874927520752,-19.072528839111328,-2.4312071800231934,-4.768093109130859,1.1465026140213013,1.3905887603759766,1
451,13.806562423706055,-34.341835021972656,-1.614545226097107,-4.428500175476074,1.2553198337554932,1.4514487981796265,1
452,22.096521377563477,-43.97017288208008,-2.1109228134155273,-3.9483273029327393,1.3253366947174072,1.4197181463241577,1
453,23.90304183959961,-50.783687591552734,-2.206681251525879,-3.6507837772369385,1.574213981628418,1.4084666967391968,1
454,20.700239181518555,-51.57225036621094,-1.5093854665756226,-2.97947359085083,1.9136086702346802,1.4462292194366455,1
455,11.339715957641602,-38.078453063964844,-1.5471434593200684,-2.617115020751953,2.0433030128479004,1.3437979221343994,1
456,-0.18951642513275146,-15.975774765014648,-2.5363879203796387,-2.0584354400634766,2.238812208175659,1.3541768789291382,1
457,-10.899070739746094,5.818617343902588,-4.503199100494385,-2.0437521934509277,2.253692626953125,1.2751673460006714,1
458,-16.86236572265625,24.6843204498291,-4.538031578063965,-2.077226161956787,2.1749355792999268,1.2239258289337158,1
459,-16.42353057861328,35.03096389770508,-4.343331336975098,-2.391779661178589,1.9465594291687012,1.135319471359253,1
460,-15.116028785705566,36.00879669189453,-4.310022830963135,-2.845315456390381,1.850350022315979,1.0911409854888916,1
461,-11.287761688232422,24.663190841674805,-4.062264919281006,-3.1404387950897217,1.7729824781417847,1.0979186296463013,1
462,-3.3263649940490723,0.240963414311409,-4.650955677032471,-3.374011516571045,1.6262120008468628,1.0799320936203003,1
463,4.835328578948975,-35.238800048828125,-5.40930700302124,-3.1928133964538574,1.5982692241668701,1.122135877609253,1
464,10.964940071105957,-66.94869995117188,-5.872412204742432,-2.9043514728546143,1.6926122903823853,1.0942541360855103,1
465,8.896509170532227,-79.28858947753906,-5.188276767730713,-1.8881566524505615,1.837883472442627,1.1529252529144287,1
466,-0.779047966003418,-69.7034912109375,-6.3507232666015625,-1.6335679292678833,1.9423167705535889,0.9302632808685303,1
467,-12.256638526916504,-44.33842086791992,-7.189787864685059,-0.8188587427139282,1.8968424797058105,0.8585844039916992,1
468,-20.61634063720703,-12.201088905334473,-10.151900291442871,-0.1485409140586853,1.8181548118591309,0.8136473298072815,1
469,-24.109106063842773,21.633708953857422,-12.222583770751953,-0.21104465425014496,1.6892932653427124,0.6343638896942139,1
470,-21.636022567749023,44.84714126586914,-11.636157989501953,-0.3994743824005127,1.303060531616211,0.4991866946220398,1
471,-14.048938751220703,52.40083312988281,-11.812958717346191,-0.9923310279846191,1.0468575954437256,0.32461023330688477,1
472,-0.7424590587615967,48.947410583496094,-10.887384414672852,-1.4048080444335938,1.062361717224121,0.23168432712554932,1
473,12.172202110290527,33.55231475830078,-9.670112609863281,-2.0196406841278076,1.049676775932312,0.09327881783246994,1
474,20.340927124023438,1.7546905279159546,-8.999395370483398,-2.2067596912384033,1.0811972618103027,0.06620573997497559,1
475,21.004724502563477,-35.4502067565918,-6.0836615562438965,-2.2479162216186523,1.4396395683288574,-0.01670466735959053,1
476,13.516435623168945,-54.71515655517578,-2.3707242012023926,-1.5683939456939697,1.6310327053070068,0.027867205440998077,1
477,-5.274137020111084,-59.13451385498047,-0.12575186789035797,-1.3051269054412842,2.034987211227417,-0.11446099728345871,1
478,-22.734424591064453,-53.693214416503906,1.920991063117981,-0.6767560839653015,2.0106289386749268,-0.12585552036762238,1
479,-44.79618453979492,-32.15020751953125,2.197240114212036,0.08691026270389557,1.7283159494400024,-0.05820870399475098,1
480,-56.48678207397461,-1.9859545230865479,1.8034052848815918,0.08088579028844833,1.3823480606079102,-0.16939300298690796,1
481,-55.375614166259766,27.54817771911621,3.908600330352783,0.05385217070579529,0.5773038864135742,-0.13554194569587708,1
482,-41.7021484375,38.73493576049805,5.878273010253906,-0.21557249128818512,0.3223663866519928,-0.21007788181304932,1
483,-21.6906795501709,26.608224868774414,7.471538066864014,-0.4748982787132263,-0.09039048850536346,-0.15029685199260712,1
484,-2.1341254711151123,-2.1645565032958984,6.161386489868164,-0.7610591650009155,-0.3371994197368622,-0.08241923153400421,1
485,12.105412483215332,-31.596426010131836,5.706187725067139,-0.6891768574714661,-0.42400550842285156,0.019478317350149155,1
486,18.472946166992188,-46.30207443237305,5.603031158447266,-0.3469877243041992,-0.29946571588516235,0.08659321069717407,1
487,14.18027114868164,-44.00941848754883,5.738405227661133,0.052154649049043655,-0.10090149939060211,0.1309875100851059,1
488,4.622934818267822,-30.23566246032715,5.01082706451416,0.40863266587257385,0.02566031739115715,0.18762657046318054,1
489,-10.752859115600586,-6.631938934326172,2.062771797180176,0.8094698190689087,-0.02163899689912796,0.2905017137527466,1
490,-22.030197143554688,16.654354095458984,-1.2259148359298706,0.9997240900993347,0.017177967354655266,0.28802379965782166,1
491,-25.317312240600586,32.8592529296875,-3.618759870529175,0.6991554498672485,-0.23921094834804535,0.30250024795532227,1
492,-23.073890686035156,30.70490837097168,-6.148168087005615,0.33954814076423645,-0.41178539395332336,0.23571240901947021,1
493,-16.6742000579834,12.178357124328613,-7.98013162612915,0.03839213773608208,-0.6230626702308655,0.16766460239887238,1
494,-10.033988952636719,-9.375595092773438,-9.405693054199219,0.07888192683458328,-0.6691775321960449,0.0428842157125473,1
495,-4.1399970054626465,-21.470579147338867,-9.916853904724121,0.13604886829853058,-0.8988117575645447,0.0020358716137707233,1
496,0.7189080119132996,-20.939682006835938,-10.047246932983398,0.35980793833732605,-1.028414011001587,-0.06374017894268036,1
497,1.8280658721923828,-14.178858757019043,-9.569231986999512,0.7148733735084534,-1.0180689096450806,-0.1686176359653473,1
498,1.6167813539505005,-2.574625015258789,-8.962691307067871,1.0197845697402954,-1.052295207977295,-0.2415338009595871,1
499,1.4232772588729858,15.095885276794434,-7.491640090942383,0.4819660782814026,-0.8670467734336853,-0.3930697739124298,1
500,2.310739040374756,28.735563278198242,-6.12330436706543,0.342691570520401,-0.9065604209899902,-0.44766855239868164,1
501,3.2979743480682373,32.208335876464844,-4.405135154724121,0.031259018927812576,-0.7881777286529541,-0.5627735257148743,1
502,1.846595048904419,25.216901779174805,-2.796879291534424,-0.3195285201072693,-0.674299955368042,-0.6536492109298706,1
503,-2.277592420578003,7.638209342956543,-1.566743016242981,-0.532843828201294,-0.7304421663284302,-0.6609920263290405,1
504,-10.868538856506348,-9.834271430969238,-1.6987658739089966,-0.505664050579071,-0.7175198793411255,-0.7035988569259644,1
505,-16.5615291595459,-27.797367095947266,-1.656115174293518,-0.4746297001838684,-0.9581695199012756,-0.6504929065704346,1
506,-19.062744140625,-33.67427062988281,-1.6693097352981567,0.08040984719991684,-1.2814502716064453,-0.6219537854194641,1
507,-17.725887298583984,-28.35692024230957,-1.4493252038955688,0.27867186069488525,-0.9216136932373047,-0.8511232137680054,1
508,-15.55593204498291,-10.861663818359375,-0.20357275009155273,0.6352176070213318,-1.2096344232559204,-0.821036696434021,1
509,-13.676358222961426,12.394453048706055,0.6265274882316589,0.7105025053024292,-1.246342658996582,-0.8707628846168518,1
510,-9.376653671264648,37.30357360839844,1.0150272846221924,0.43493369221687317,-1.5312473773956299,-0.7720341086387634,1
511,-5.19410514831543,48.128135681152344,0.678267240524292,0.065766341984272,-1.670997977256775,-0.7484042644500732,1
512,-2.9815468788146973,49.464637756347656,1.7261611223220825,-0.4199535548686981,-1.8158020973205566,-0.7141709923744202,1
513,4.379793167114258,38.16522979736328,2.635556697845459,-0.9715487957000732,-1.883048415184021,-0.6959162354469299,1
514,15.37146282196045,11.836875915527344,2.7629549503326416,-1.3759230375289917,-1.6904239654541016,-0.7572298049926758,1
515,22.203550338745117,-22.813430786132812,4.439029216766357,-1.3646820783615112,-1.5654630661010742,-0.7863603830337524,1
516,18.23028564453125,-47.9958610534668,6.4788665771484375,-1.0789680480957031,-1.1527987718582153,-0.8541213274002075,1
517,5.579183101654053,-65.83595275878906,8.492733001708984,-0.19951635599136353,-1.1623982191085815,-0.8182148337364197,1
518,-12.599170684814453,-74.00238037109375,8.958593368530273,0.9262067079544067,-1.1574829816818237,-0.8068759441375732,1
519,-33.0672607421875,-63.506893157958984,7.52744722366333,0.03893784061074257,-1.2479467391967773,-0.3548130989074707,1
520,-49.81925964355469,-39.96226119995117,4.765026569366455,1.0077831745147705,-1.8303974866867065,-0.2081800252199173,1
521,-55.820308685302734,-15.086042404174805,2.659959554672241,1.1324464082717896,-2.0819902420043945,-0.12253077328205109,1
522,-50.85591506958008,6.1622161865234375,2.4363949298858643,1.4432446956634521,-2.635361909866333,-0.09219072759151459,1
523,-36.61142349243164,16.050355911254883,2.889742851257324,1.4343352317810059,-3.232632875442505,-0.03926973044872284,1
524,-15.235697746276855,20.2390079498291,2.5712080001831055,1.3117117881774902,-3.8665225505828857,0.0594874769449234,1
525,9.883088111877441,17.802200317382812,1.4695249795913696,1.2839264869689941,-3.447854518890381,-0.2393852025270462,1
526,32.51726531982422,16.090599060058594,0.654834508895874,1.1872034072875977,-3.298168659210205,-0.316687673330307,1
527,45.265499114990234,15.088178634643555,-0.21780313551425934,1.0404419898986816,-3.030933380126953,-0.3330595791339874,1
528,49.76798629760742,16.34160804748535,-1.69319486618042,0.902111828327179,-2.4907584190368652,-0.3978178799152374,1
529,42.106956481933594,13.475608825683594,-3.9856512546539307,0.7667400240898132,-2.3304059505462646,-0.28542622923851013,1
530,27.195873260498047,3.973287343978882,-7.045774936676025,0.6895154714584351,-1.8527634143829346,-0.35625019669532776,1
531,11.590298652648926,-3.8010263442993164,-8.054483413696289,0.45554494857788086,-1.6686747074127197,-0.3040969967842102,1
532,-0.8969560861587524,-9.777586936950684,-8.290760040283203,0.7635688781738281,-1.361053705215454,-0.5429646372795105,1
533,-9.871296882629395,-23.8742618560791,-7.428442001342773,0.8462379574775696,-1.3952677249908447,-0.5986192226409912,1
534,-13.549773216247559,-35.88010787963867,-7.855940818786621,1.3319281339645386,-1.5575010776519775,-0.7296895980834961,1
535,-11.018234252929688,-35.92698287963867,-7.770153045654297,1.66176176071167,-1.975314974784851,-0.6780864596366882,1
536,-4.165771007537842,-24.878517150878906,-7.258418560028076,1.8554372787475586,-1.9058009386062622,-0.7759442925453186,1
537,4.8840765953063965,-0.7819661498069763,-5.668038845062256,2.0024030208587646,-1.9432741403579712,-0.8018887639045715,1
538,12.209305763244629,31.718994140625,-3.0645861625671387,2.0334079265594482,-1.778977394104004,-0.9067023396492004,1
539,16.976924896240234,55.07820510864258,-0.8150991201400757,1.8071415424346924,-1.8553836345672607,-0.8645156025886536,1
540,21.217805862426758,65.19342041015625,-0.1666315793991089,1.1662760972976685,-1.5583715438842773,-0.9114822745323181,1
541,25.478485107421875,62.15920639038086,-0.3213232159614563,0.32024991512298584,-1.272718071937561,-0.9048814177513123,1
542,25.695491790771484,47.23965835571289,-0.1921258121728897,-0.30738821625709534,-1.0035982131958008,-0.9359670281410217,1
543,22.81267547607422,24.079166412353516,0.22136245667934418,-0.9238545298576355,-0.6649413704872131,-0.9527386426925659,1
544,21.030588150024414,-8.182978630065918,0.6873399615287781,-1.13722562789917,-0.924016535282135,-0.8036515116691589,1
545,14.130657196044922,-33.45375061035156,0.9934096336364746,-1.0157238245010376,-0.5027007460594177,-0.9037497639656067,1
546,8.919526100158691,-50.26396942138672,1.8552911281585693,-0.6401394009590149,-0.32030895352363586,-0.9227219820022583,1
547,2.6387221813201904,-49.88559341430664,3.862592935562134,0.38142865896224976,-0.16569118201732635,-1.0350004434585571,1
548,-2.348717212677002,-29.29511260986328,5.578178405761719,0.33141446113586426,-0.11602727323770523,-0.9015893936157227,1
549,-6.4227728843688965,-2.1541614532470703,6.224278926849365,0.6987688541412354,-0.1510312706232071,-0.8446410298347473,1
550,-8.717686653137207,19.073335647583008,6.5667643547058105,0.7510672211647034,-0.2378866970539093,-0.765775740146637,1
551,-9.412690162658691,36.065921783447266,7.600749969482422,0.5293616056442261,-0.3580583930015564,-0.6784858107566833,1
552,-5.177835464477539,43.183841705322266,9.663166999816895,0.12073396891355515,-0.5430424213409424,-0.573103666305542,1
553,0.8272929787635803,33.0026969909668,11.302324295043945,-0.4234042763710022,-0.6605502963066101,-0.46402814984321594,1
554,7.280607223510742,15.116378784179688,12.068175315856934,-0.5078271627426147,-0.6110060214996338,-0.40370815992355347,1
555,15.13352108001709,-4.745474815368652,13.199103355407715,-0.6886995434761047,-0.44614288210868835,-0.315983384847641,1
556,15.89559555053711,-28.007665634155273,13.305805206298828,-0.6795774102210999,-0.33779841661453247,-0.18653713166713715,1
557,12.553545951843262,-47.03531265258789,13.108244895935059,-0.24832424521446228,-0.28280267119407654,-0.04674636945128441,1
558,9.57901382446289,-48.74230194091797,14.363446235656738,-0.14340521395206451,-0.053615231066942215,0.084513820707798,1
559,7.519439220428467,-35.788360595703125,14.60275650024414,0.637090802192688,0.054566264152526855,0.21078115701675415,1
560,6.658231258392334,-13.869407653808594,14.449455261230469,0.9652571082115173,0.19699721038341522,0.3458934426307678,1
561,4.4766764640808105,12.619997024536133,13.240480422973633,1.1615036725997925,0.24937386810779572,0.49402862787246704,1
562,3.2002861499786377,38.35637664794922,11.39033317565918,1.0130547285079956,0.27140292525291443,0.6395028829574585,1
563,-0.34244605898857117,52.60636901855469,10.140125274658203,0.557472288608551,0.3246500492095947,0.7540377378463745,1
564,-1.0052332878112793,50.39483642578125,9.796338081359863,-0.08458121120929718,0.27438175678253174,0.869853675365448,1
565,-0.22995933890342712,30.206605911254883,9.953969955444336,-0.4290872812271118,0.2887856960296631,0.9738017916679382,1
566,-1.3858414888381958,-1.3771722316741943,8.257164001464844,-0.6664693355560303,0.23263338208198547,1.0916683673858643,1
567,-3.044123649597168,-32.80537414550781,5.015466690063477,-0.7050259113311768,0.23273524641990662,1.1843808889389038,1
568,0.2594747245311737,-50.20970916748047,3.84723162651062,-0.3027530014514923,0.23083369433879852,1.2517486810684204,1
569,-0.6687009334564209,-54.36117172241211,3.402007818222046,0.5700556635856628,0.24449536204338074,1.3178738355636597,1
570,-9.137988090515137,-35.441253662109375,2.942944049835205,0.5795603394508362,0.07539234310388565,1.3328220844268799,1
571,-16.99359703063965,-4.221960544586182,1.4291281700134277,0.9546639323234558,-0.04973570629954338,1.3695013523101807,1
572,-14.05713176727295,24.416688919067383,-0.9058432579040527,1.0775164365768433,-0.2608700096607208,1.3986767530441284,1
573,-1.8303707838058472,42.89011001586914,-2.1306064128875732,0.7659929394721985,-0.41045093536376953,1.3799716234207153,1
574,9.731837272644043,48.69646453857422,-3.0065841674804688,0.47152891755104065,-0.45388296246528625,1.3625046014785767,1
575,17.948549270629883,46.33832931518555,-5.137181282043457,-0.20055678486824036,-0.31863078474998474,1.303947925567627,1
576,24.6168155670166,33.04210662841797,-7.320943355560303,-0.6455552577972412,-0.1916198432445526,1.2654237747192383,1
577,29.54720115661621,8.94446849822998,-9.080378532409668,-1.0074970722198486,0.17630618810653687,1.1816308498382568,1
578,29.013002395629883,-19.598730087280273,-10.964787483215332,-0.9849463105201721,0.665859580039978,1.089568018913269,1
579,24.341318130493164,-44.98894119262695,-11.017667770385742,-0.6750544905662537,0.7117237448692322,1.022977352142334,1
580,13.310651779174805,-61.58852005004883,-11.84904956817627,-0.1387137919664383,0.8157821297645569,0.9333282113075256,1
581,0.8144682049751282,-53.610713958740234,-12.072053909301758,0.4398711025714874,0.9076226949691772,0.8167158961296082,1
582,-11.795117378234863,-23.531667709350586,-13.022771835327148,1.008440613746643,1.0164498090744019,0.6812849640846252,1
583,-19.708599090576172,12.234307289123535,-13.401921272277832,1.035502314567566,0.7218077182769775,0.5266616940498352,1
584,-21.25861167907715,40.49679183959961,-12.109333038330078,0.8934802412986755,0.4750671684741974,0.38005271553993225,1
585,-11.969208717346191,54.71645736694336,-9.314178466796875,0.4079044759273529,0.30341213941574097,0.22826050221920013,1
586,8.104226112365723,53.87453079223633,-6.7344889640808105,-0.11452586948871613,0.2178560197353363,0.11405663937330246,1
587,31.352294921875,40.19673156738281,-4.459487438201904,-0.5501160621643066,0.23360763490200043,0.05568968132138252,1
588,47.78492736816406,17.567474365234375,-3.2330944538116455,-1.1080753803253174,0.673516035079956,-0.024270497262477875,1
589,50.526058197021484,-5.333061695098877,-2.323784828186035,-1.2324154376983643,1.3237450122833252,-0.05046578496694565,1
590,37.532020568847656,-23.480945587158203,-0.5217481851577759,-0.9416648745536804,1.5507643222808838,-0.015279962681233883,1
591,11.901137351989746,-34.33922576904297,-0.4558907747268677,-0.6775966286659241,1.7080460786819458,-0.009697704575955868,1
592,-12.03588581085205,-42.80939483642578,-2.268035411834717,-0.22998075187206268,1.9194825887680054,0.002840162254869938,1
593,-26.356325149536133,-45.59524917602539,-3.8954200744628906,0.11785637587308884,1.7686108350753784,-0.0367077961564064,1
594,-27.51304054260254,-34.27182388305664,-5.189575672149658,0.7378559708595276,1.703544020652771,-0.05157187581062317,1
595,-17.97494888305664,-14.271468162536621,-6.130207061767578,0.8665376901626587,1.4125710725784302,-0.16999942064285278,1
596,-2.253251791000366,2.563136339187622,-4.553196430206299,1.2157971858978271,1.1353633403778076,-0.19203056395053864,1
597,13.31694221496582,20.8243350982666,-2.455402135848999,1.144209861755371,1.0982259511947632,-0.27259039878845215,1
598,23.658077239990234,33.54985809326172,1.0320885181427002,0.9426864385604858,1.2987687587738037,-0.3287096619606018,1
599,25.89134979248047,41.5129280090332,1.9821771383285522,0.5164014101028442,1.4946744441986084,-0.34868210554122925,1
600,20.7346248626709,43.766700744628906,1.9351892471313477,0.04243183135986328,1.708726167678833,-0.3307766914367676,1
601,11.808341979980469,33.81749725341797,2.4735231399536133,-0.19435220956802368,2.0544261932373047,-0.2522342801094055,1
602,3.260714054107666,17.408422470092773,3.7630856037139893,-0.6905735731124878,2.2553200721740723,-0.24909740686416626,1
603,-7.3262200355529785,2.3011586666107178,4.8840413093566895,-0.8634564280509949,2.2243356704711914,-0.18699559569358826,1
604,-12.072371482849121,-8.329375267028809,5.30900239944458,-0.8202784657478333,2.128444194793701,-0.10366760194301605,1
605,-9.478094100952148,-13.869597434997559,6.124558925628662,-0.7636379599571228,1.9796416759490967,-0.04797659069299698,1
606,-1.6419283151626587,-11.772072792053223,6.7189531326293945,-0.627265989780426,1.8780955076217651,0.010287090204656124,1
607,3.9348952770233154,-5.743858814239502,6.772448539733887,-0.4977944493293762,1.88070809841156,0.06426884233951569,1
608,7.822686672210693,3.6805667877197266,6.837244987487793,-0.48566901683807373,1.9626713991165161,0.1061476543545723,1
609,5.569646835327148,14.194330215454102,5.9909868240356445,-0.41481834650039673,2.074946880340576,0.19656221568584442,1
610,-0.17237453162670135,24.768386840820312,3.7881836891174316,-0.513944149017334,2.1530661582946777,0.2665819823741913,1
611,-11.141825675964355,32.04800033569336,1.4059902429580688,-0.8357135057449341,2.1931347846984863,0.2805408239364624,1
612,-21.3007869720459,31.62494659423828,0.19158190488815308,-1.2563425302505493,2.066777467727661,0.2666826546192169,1
613,-30.753896713256836,19.697647094726562,-1.2088974714279175,-1.55858314037323,1.7777864933013916,0.2860271632671356,1
614,-34.48882293701172,10.956361770629883,-3.60310435295105,-1.7829605340957642,1.4304817914962769,0.28612810373306274,1
615,-29.477893829345703,2.5065269470214844,-6.062478542327881,-1.9443622827529907,1.2528316974639893,0.26751697063446045,1
616,-14.664676666259766,-12.6281099319458,-7.065909385681152,-1.997969388961792,0.8130025863647461,0.21102654933929443,1
617,1.6239949464797974,-16.143781661987305,-6.486551761627197,-1.7297934293746948,0.6640742421150208,0.2107514590024948,1
618,19.97074317932129,-10.567376136779785,-4.099471092224121,-1.4826799631118774,0.7128850817680359,0.18464243412017822,1
619,29.308578491210938,2.5886247158050537,-0.659252941608429,-1.5337352752685547,1.0130269527435303,0.1044192910194397,1
620,29.416431427001953,13.992337226867676,1.2067259550094604,-1.831831693649292,1.4439290761947632,0.0208441112190485,1
621,13.820161819458008,20.59344482421875,2.510100841522217,-1.953246831893921,1.530792236328125,-0.009475945495069027,1
622,-7.585326671600342,12.578084945678711,3.810659408569336,-2.1188788414001465,1.6837117671966553,0.01867884397506714,1
623,-27.972105026245117,-6.504608631134033,6.620367050170898,-2.129922866821289,1.5126115083694458,0.061430346220731735,1
624,-41.81713104248047,-27.4130916595459,8.324372291564941,-1.852908730506897,1.3953804969787598,0.20920218527317047,1
625,-47.13676071166992,-36.93946838378906,8.31695556640625,-1.5910686254501343,0.8499422669410706,0.2575186491012573,1
626,-44.7556266784668,-31.471250534057617,8.4777250289917,-0.9353801608085632,0.2441546767950058,0.3834913372993469,1
627,-38.089561462402344,-16.21889305114746,7.949056625366211,-0.8844687342643738,0.028398606926202774,0.4484487473964691,1
628,-24.801504135131836,1.9709243774414062,7.4223313331604,-0.9786977767944336,-0.0040024458430707455,0.5418864488601685,1
629,-10.171158790588379,16.64651870727539,7.123078346252441,-0.8972382545471191,-0.4217056334018707,0.6014313101768494,1
630,0.5776867866516113,23.005863189697266,7.499750137329102,-1.033877968788147,-0.5468763113021851,0.6743278503417969,1
631,1.7801920175552368,13.39106559753418,6.9051384925842285,-1.2373762130737305,-0.603890061378479,0.7406859993934631,1
632,-0.9413573145866394,-7.81610631942749,4.8843488693237305,-1.2633888721466064,-0.6198886632919312,0.8247305750846863,1
633,-2.976393461227417,-14.801837921142578,3.1187691688537598,-1.185843586921692,-0.6647963523864746,0.8786185383796692,1
634,-8.953898429870605,-20.532886505126953,1.185718297958374,-0.9578661322593689,-0.691011905670166,0.9240460991859436,1
635,-16.821718215942383,-30.016691207885742,-2.3206560611724854,-0.7627618908882141,-0.8785547614097595,0.9238988161087036,1
636,-23.78520393371582,-34.45620346069336,-6.022715091705322,-0.6569344997406006,-0.7572800517082214,0.9560423493385315,1
637,-25.25827980041504,-26.59418296813965,-9.828530311584473,-0.2073599100112915,-1.027645468711853,0.9082741141319275,1
638,-22.13092803955078,-6.755469799041748,-12.520644187927246,0.1441592127084732,-1.251313328742981,0.832700252532959,1
639,-8.961572647094727,12.516586303710938,-12.281387329101562,0.195645272731781,-1.5250338315963745,0.7166358232498169,1
640,3.4810354709625244,25.23176383972168,-11.734153747558594,0.11090287566184998,-1.6776049137115479,0.5905559659004211,1
641,9.835960388183594,32.845924377441406,-11.801557540893555,-0.10999882221221924,-1.6509382724761963,0.4670364558696747,1
642,14.336153984069824,24.497835159301758,-11.260594367980957,-0.4665871262550354,-1.502514362335205,0.35199809074401855,1
643,17.365272521972656,5.507524490356445,-11.061127662658691,-0.6190236210823059,-1.28640615940094,0.2219099998474121,1
644,15.596955299377441,-19.954557418823242,-8.524008750915527,-0.6037731766700745,-1.1186397075653076,0.08670760691165924,1
645,9.013470649719238,-38.41262435913086,-6.001053333282471,-0.36952632665634155,-0.9193821549415588,-0.023739146068692207,1
646,0.614902675151825,-44.27936935424805,-3.6056888103485107,-0.2945021688938141,-0.8156241178512573,-0.04590194672346115,1
647,-8.344921112060547,-37.00253677368164,-1.2088851928710938,0.30039405822753906,-0.8410740494728088,-0.11562790721654892,1
648,-12.67982292175293,-21.498151779174805,1.5587196350097656,0.6257466077804565,-0.9166865944862366,-0.11633949726819992,1
649,-11.768539428710938,3.9192981719970703,4.134092807769775,0.6458982825279236,-0.988759458065033,-0.06151673570275307,1
650,-10.341814994812012,25.095508575439453,4.995013236999512,0.6688154339790344,-1.2026087045669556,-0.02280896157026291,1
651,-7.611917495727539,37.98619842529297,5.506861209869385,0.38162752985954285,-1.2381839752197266,0.03797512501478195,1
652,-1.3305665254592896,33.66665267944336,6.486475467681885,0.09385062009096146,-1.2177385091781616,0.0675896555185318,1
653,4.952020645141602,16.448461532592773,6.442648887634277,-0.12433895468711853,-1.3219084739685059,0.09550677984952927,1
654,10.061090469360352,-7.669876575469971,6.47915506362915,-0.3549743592739105,-1.2548516988754272,0.1542896032333374,1
655,16.191532135009766,-25.44257164001465,7.795055389404297,-0.16612888872623444,-1.1681491136550903,0.17516978085041046,1
656,21.036842346191406,-31.878990173339844,9.278648376464844,0.2030968964099884,-0.917542040348053,0.21031908690929413,1
657,19.793846130371094,-21.368741989135742,11.436767578125,0.4102683663368225,-0.6915062665939331,0.32177847623825073,1
658,13.602187156677246,-4.336092472076416,10.724970817565918,0.8261071443557739,-0.6269466876983643,0.40437808632850647,1
659,3.180086374282837,15.518686294555664,9.30580997467041,0.5912355184555054,-0.5142549276351929,0.5940467715263367,1
660,-4.90086555480957,25.806434631347656,9.443079948425293,0.45168694853782654,-0.47156956791877747,0.706804096698761,1
661,-13.6845064163208,16.741304397583008,8.993200302124023,-0.14318813383579254,-0.5799756050109863,0.8800236582756042,1
662,-13.379268646240234,1.6781176328659058,8.020194053649902,-0.2410344034433365,-0.7066987156867981,0.9470601081848145,1
663,-8.898130416870117,-9.383781433105469,6.641580581665039,-0.2735120356082916,-0.9057624340057373,1.0312473773956299,1
664,-2.398378849029541,-23.88602638244629,4.235778331756592,-0.10166499763727188,-0.8854501843452454,1.0706355571746826,1
665,6.045012474060059,-35.39083480834961,2.0986969470977783,0.20650362968444824,-0.9012591242790222,1.1005032062530518,1
666,14.566162109375,-41.9189567565918,1.199532389640808,0.4071187376976013,-0.8618879914283752,1.1550092697143555,1
667,20.963014602661133,-41.79255294799805,1.6442372798919678,0.77490234375,-0.6281082630157471,1.1692631244659424,1
668,21.95009422302246,-27.93209457397461,2.934690237045288,1.4466114044189453,-0.4498019814491272,1.1430329084396362,1
669,18.632911682128906,-3.2026073932647705,5.561076641082764,1.4494637250900269,-0.25501349568367004,1.2317969799041748,1
670,9.88358211517334,27.35580062866211,6.138833999633789,1.5644745826721191,-0.1255234330892563,1.2939263582229614,1
671,-1.6033213138580322,49.17936706542969,5.887565612792969,1.2985957860946655,0.010829050093889236,1.3712356090545654,1
672,-13.508146286010742,53.86602783203125,6.683783054351807,0.6624874472618103,-0.03941555693745613,1.4745874404907227,1
673,-20.089740753173828,39.65367889404297,6.890989303588867,0.20682771503925323,-0.10988780856132507,1.5228708982467651,1
674,-23.1330623626709,14.013053894042969,7.422064304351807,-0.16551901400089264,-0.36478567123413086,1.5906840562820435,1
675,-20.180374145507812,-13.873515129089355,7.345348834991455,-0.2859313189983368,-0.6442722678184509,1.6552739143371582,1
676,-8.876171112060547,-38.5949821472168,6.512272357940674,0.08845511823892593,-0.7775172591209412,1.6791552305221558,1
677,5.95567512512207,-55.8629150390625,6.4123358726501465,0.4692630469799042,-0.8878869414329529,1.7372404336929321,1
678,17.125455856323242,-58.71302795410156,6.527348041534424,1.1528393030166626,-0.7879197597503662,1.7725443840026855,1
679,21.955833435058594,-49.386356353759766,7.579104423522949,1.533492088317871,-0.5954721570014954,1.8615115880966187,1
680,21.840126037597656,-23.773548126220703,8.424696922302246,2.1631250381469727,-0.38993462920188904,1.9278831481933594,1
681,14.302102088928223,11.191000938415527,8.671345710754395,2.550086259841919,-0.20981986820697784,2.01366925239563,1
682,2.8728699684143066,42.00434112548828,8.432334899902344,2.4136123657226562,-0.06669080257415771,2.1247177124023438,1
683,-8.63317584991455,63.70351791381836,7.8162922859191895,2.0176472663879395,-0.0342838279902935,2.2295613288879395,1
684,-18.807939529418945,74.67310333251953,9.264875411987305,1.2122390270233154,-0.04760624095797539,2.319960594177246,1
685,-23.376880645751953,74.66845703125,12.92435359954834,0.3300382196903229,-0.20226405560970306,2.4199564456939697,1
686,-27.111286163330078,55.80388259887695,16.270858764648438,-0.4028201103210449,-0.5904393196105957,2.57114577293396,1
687,-21.939603805541992,22.707889556884766,17.23118782043457,-1.0389654636383057,-0.6358304619789124,2.668978452682495,1
688,-10.503680229187012,-14.225287437438965,17.705345153808594,-1.1574422121047974,-0.9552682638168335,2.8331003189086914,1
689,0.8495230078697205,-45.67449188232422,18.693023681640625,-1.2113343477249146,-1.1753555536270142,3.025001287460327,1
690,9.076203346252441,-59.04440689086914,19.407133102416992,-0.4727167785167694,-1.1405999660491943,3.172175645828247,1
691,11.644264221191406,-54.70448303222656,19.210918426513672,-0.047612857073545456,-1.133801817893982,3.395003318786621,1
692,8.255553245544434,-33.114444732666016,18.081689834594727,0.7759584784507751,-0.8870042562484741,3.5577051639556885,1
693,4.386255264282227,-4.283740520477295,15.462401390075684,1.1096224784851074,-0.8353438973426819,3.7648584842681885,1
694,-1.8922737836837769,25.544326782226562,12.07558822631836,1.1934096813201904,-0.7753742933273315,3.934739112854004,1
695,-11.42203426361084,45.749046325683594,9.003902435302734,0.9898791909217834,-0.8270633220672607,4.0776753425598145,1
696,-18.188526153564453,55.554664611816406,6.16795015335083,0.3333832919597626,-1.008665919303894,4.215876579284668,1
697,-24.382312774658203,56.64969253540039,5.796968936920166,-0.4760361909866333,-1.3153918981552124,4.325718402862549,1
698,-19.30312156677246,41.95026397705078,5.042768478393555,-1.091263771057129,-1.4419777393341064,4.3670854568481445,1
699,-6.969681739807129,12.995038986206055,3.1643266677856445,-1.5693858861923218,-1.6887190341949463,4.408325672149658,1
700,6.624183654785156,-18.488889694213867,0.215491384267807,-1.6696540117263794,-1.8122390508651733,4.422589302062988,1
701,20.65268898010254,-49.15143966674805,-2.8684065341949463,-1.2608989477157593,-1.6436305046081543,4.387819766998291,1
702,34.60453414916992,-64.09269714355469,-4.125959873199463,-1.1447783708572388,-1.2670823335647583,4.4248223304748535,1
703,43.19129943847656,-59.42346954345703,-3.967170238494873,-0.3275175988674164,-1.0429887771606445,4.358839988708496,1
704,41.32024383544922,-41.815330505371094,-5.4228034019470215,0.18661832809448242,-0.49097269773483276,4.348793029785156,1
705,29.734548568725586,-16.22838592529297,-9.017017364501953,0.7671973705291748,0.0015084078768268228,4.286133766174316,1
706,12.419654846191406,8.411555290222168,-14.364435195922852,0.8671832084655762,0.2316141277551651,4.2318949699401855,1
707,-2.6897785663604736,19.73586082458496,-18.338363647460938,0.8478682637214661,0.21537727117538452,4.110276222229004,1
708,-12.343195915222168,29.00579833984375,-19.70051383972168,0.5500503778457642,0.18611276149749756,3.9546220302581787,1
709,-10.269386291503906,32.192745208740234,-18.782642364501953,0.26879313588142395,0.11270042508840561,3.761249303817749,1
710,-4.116293907165527,18.275598526000977,-17.781084060668945,-0.08152292668819427,-0.020472027361392975,3.571591377258301,1
711,8.161722183227539,-3.520540475845337,-15.604557991027832,-0.28461754322052,-0.16437917947769165,3.389065980911255,1
712,18.02496910095215,-29.46933364868164,-14.065138816833496,-0.3332694172859192,-0.333074152469635,3.229985237121582,1
713,21.535314559936523,-46.199378967285156,-11.333159446716309,0.12570466101169586,-0.13928616046905518,3.071577548980713,1
714,21.58948516845703,-46.18549728393555,-9.717897415161133,0.5842558145523071,-0.02507512830197811,2.9486618041992188,1
715,12.427090644836426,-29.03400993347168,-8.53696060180664,1.0138225555419922,0.3477270007133484,2.841740608215332,1
716,1.855883002281189,-7.229921340942383,-9.303374290466309,1.1828577518463135,0.4396473467350006,2.760425567626953,1
717,-3.0399422645568848,11.764873504638672,-11.90291690826416,1.3072351217269897,0.5953680872917175,2.6656196117401123,1
718,-2.0293338298797607,25.777164459228516,-14.04882526397705,1.2067922353744507,0.3943628668785095,2.570683479309082,1
719,0.7288292646408081,28.41647720336914,-16.56568145751953,0.9391017556190491,0.41868099570274353,2.4323248863220215,1
720,8.660216331481934,26.756742477416992,-18.991689682006836,0.6131698489189148,0.5093872547149658,2.2659316062927246,1
721,20.017087936401367,22.701627731323242,-20.252534866333008,0.37632739543914795,0.5879586338996887,2.0857129096984863,1
722,30.762317657470703,17.306806564331055,-20.526140213012695,0.13293324410915375,0.6245625019073486,1.8992151021957397,1
723,39.67115783691406,15.887946128845215,-20.373016357421875,-0.047554921358823776,0.9075576066970825,1.6946063041687012,1
724,39.38029861450195,16.196348190307617,-19.054763793945312,-0.21493960916996002,1.1599684953689575,1.5011674165725708,1
725,26.22248649597168,12.222334861755371,-17.640199661254883,-0.36092305183410645,1.806655764579773,1.2955527305603027,1
726,8.989191055297852,12.844151496887207,-14.956022262573242,-0.491193562746048,1.686228632926941,1.140293002128601,1
727,-7.795174598693848,8.653414726257324,-12.30545425415039,-0.5850732922554016,1.6727901697158813,0.9939842224121094,1
728,-22.69310760498047,-3.576292037963867,-9.714648246765137,-0.6608740091323853,1.6074405908584595,0.8736941814422607,1
729,-31.06623077392578,-22.369455337524414,-9.524260520935059,-0.5343303084373474,1.3282544612884521,0.7947211265563965,1
730,-24.05658531188965,-37.08021926879883,-10.43071174621582,-0.34772300720214844,1.1716679334640503,0.7033791542053223,1
731,-9.734819412231445,-41.3685417175293,-10.565611839294434,0.3182882070541382,0.8978510499000549,0.6672501564025879,1
732,10.775972366333008,-36.158050537109375,-11.164280891418457,0.34070807695388794,0.8667755126953125,0.4776277244091034,1
733,25.67476463317871,-18.930580139160156,-11.189837455749512,0.7036349773406982,1.099517583847046,0.353991836309433,1
734,25.81639862060547,4.485326290130615,-13.53244686126709,1.056563138961792,1.393100619316101,0.2531236410140991,1
735,14.275521278381348,24.317604064941406,-17.450624465942383,0.9746777415275574,1.5370335578918457,0.10704565048217773,1
736,1.8406966924667358,34.69447708129883,-20.663227081298828,0.6782563924789429,1.7392022609710693,-0.07464420795440674,1
737,-5.1664910316467285,37.23598098754883,-21.46445083618164,0.21921394765377045,1.7546995878219604,-0.29373571276664734,1
738,-3.7194881439208984,33.63209533691406,-22.508121490478516,-0.26296472549438477,1.745500922203064,-0.5216428637504578,1
739,4.398364543914795,22.099802017211914,-23.819976806640625,-0.4448988735675812,1.8341665267944336,-0.6923518776893616,1
740,10.596552848815918,4.720398426055908,-24.21285629272461,-0.6692675948143005,1.945924162864685,-0.9025036096572876,1
741,17.363679885864258,-13.277236938476562,-22.98586082458496,-0.7653436064720154,1.8037538528442383,-1.1357946395874023,1
742,19.949321746826172,-25.33572769165039,-20.44997787475586,-0.45316430926322937,2.040095090866089,-1.3026803731918335,1
743,17.302370071411133,-32.302860260009766,-16.701133728027344,-0.38314974308013916,2.1651453971862793,-1.5689352750778198,1
744,9.667101860046387,-30.1414737701416,-12.720824241638184,0.21739399433135986,2.4546399116516113,-1.6692866086959839,1
745,-4.150263786315918,-16.61421012878418,-8.994260787963867,0.28952398896217346,2.466731548309326,-1.90377676486969,1
746,-17.469457626342773,5.271875381469727,-5.953049659729004,0.2884829640388489,2.426130771636963,-2.0862743854522705,1
747,-24.703706741333008,20.493091583251953,-2.9179797172546387,0.2127731442451477,2.1762945652008057,-2.194840431213379,1
748,-22.658937454223633,23.15562629699707,-1.6536873579025269,0.010378316044807434,1.9052010774612427,-2.2426440715789795,1
749,-11.396947860717773,20.170244216918945,-1.7176748514175415,-0.2620890736579895,1.8264904022216797,-2.266988754272461,1
750,1.9481972455978394,-0.01785125397145748,-0.09091148525476456,-0.4047911465167999,1.690740704536438,-2.2457334995269775,1
751,9.277801513671875,-11.794434547424316,2.24953293800354,-0.45614615082740784,1.733619213104248,-2.241988182067871,1
752,10.532403945922852,-22.659358978271484,4.1755876541137695,-0.21871985495090485,1.7415199279785156,-2.175985336303711,1
753,8.613982200622559,-30.14352798461914,7.418323516845703,-0.02616656944155693,1.9927421808242798,-2.13942551612854,1
754,3.7405991554260254,-28.642751693725586,9.806877136230469,0.31844988465309143,2.1244661808013916,-2.064044237136841,1
755,-1.5963213443756104,-16.886451721191406,11.350309371948242,0.6152699589729309,2.179155111312866,-1.98460054397583,1
756,-12.032026290893555,0.8585822582244873,10.287049293518066,0.8785319924354553,2.110443115234375,-1.870238184928894,1
757,-18.33782386779785,17.080013275146484,9.276580810546875,0.8004401922225952,2.0509023666381836,-1.8132785558700562,1
758,-19.407682418823242,26.887630462646484,9.398603439331055,0.559211254119873,1.763720154762268,-1.759634017944336,1
759,-19.3809814453125,29.646251678466797,9.845852851867676,0.2417171597480774,1.6568903923034668,-1.690924882888794,1
760,-14.074287414550781,21.98086929321289,10.354300498962402,0.05290090665221214,1.4235634803771973,-1.5492459535598755,1
761,-8.897661209106445,2.9638333320617676,9.22293472290039,-0.1351063847541809,1.1958011388778687,-1.421651005744934,1
762,-3.752380609512329,-20.763032913208008,8.462739944458008,-0.15082305669784546,1.2065173387527466,-1.3017562627792358,1
763,-1.100808024406433,-34.48969650268555,9.207633972167969,0.2161281257867813,1.1350687742233276,-1.148482322692871,1
764,-3.7010035514831543,-31.59250831604004,8.170654296875,0.5051257610321045,1.2202463150024414,-1.0678467750549316,1
765,-4.822792053222656,-19.320545196533203,7.623206615447998,0.5544045567512512,1.1347907781600952,-1.065197229385376,1
766,-6.232896327972412,2.5552284717559814,8.191451072692871,0.7733445763587952,1.0292112827301025,-0.9972942471504211,1
767,-4.080704689025879,13.791789054870605,8.355704307556152,0.7982014417648315,1.0596275329589844,-0.933941662311554,1
768,-4.655638217926025,25.92564582824707,8.422073364257812,0.6580241918563843,1.0269489288330078,-0.8623148202896118,1
769,-8.916504859924316,38.45512390136719,9.457609176635742,0.3698039650917053,0.9846816658973694,-0.788714587688446,1
770,-11.108085632324219,33.286537170410156,9.873966217041016,-0.02639218606054783,0.8200851082801819,-0.6950825452804565,1
771,-13.589742660522461,21.199758529663086,10.524435043334961,-0.35466718673706055,0.7467234134674072,-0.588178277015686,1
772,-11.637459754943848,7.402467727661133,11.821564674377441,-0.575534999370575,0.5135756731033325,-0.47468802332878113,1
773,-5.562651634216309,-7.911745548248291,13.525540351867676,-0.4984035789966583,0.32737821340560913,-0.32269415259361267,1
774,-0.11781374365091324,-11.404831886291504,14.839110374450684,-0.4476429522037506,0.5093613266944885,-0.18693505227565765,1
775,2.2495715618133545,-5.754087448120117,17.58706283569336,-0.3345661163330078,0.2618142068386078,-0.04736725613474846,1
776,-3.4532315731048584,2.315505027770996,20.143104553222656,-0.31432974338531494,0.5265545845031738,0.11469697207212448,1
777,-15.303449630737305,4.68006706237793,20.395008087158203,-0.252998024225235,0.4705676734447479,0.3141607642173767,1
778,-24.98680877685547,7.314823150634766,19.03351593017578,-0.24292561411857605,0.45986977219581604,0.5268908739089966,1
779,-30.642210006713867,12.733211517333984,18.256757736206055,-0.27441978454589844,0.21980953216552734,0.7242762446403503,1
780,-32.824317932128906,22.4388427734375,16.309246063232422,-0.4893026649951935,-0.25335630774497986,0.8926595449447632,1
781,-28.912532806396484,28.842857360839844,14.724513053894043,-0.8348594307899475,-0.7320759296417236,1.043528437614441,1
782,-19.10672378540039,25.747051239013672,13.507026672363281,-1.0349825620651245,-0.8440433144569397,1.2078012228012085,1
783,-7.089444637298584,13.645879745483398,11.622312545776367,-1.3272318840026855,-0.8227837085723877,1.3628735542297363,1
784,6.509787559509277,-8.005877494812012,8.6110258102417,-1.3833807706832886,-0.8889557123184204,1.4887161254882812,1
785,15.93191146850586,-19.47608184814453,6.374453544616699,-1.244895577430725,-0.8969190716743469,1.5702569484710693,1
786,16.76205825805664,-22.58504867553711,4.002102375030518,-1.141809105873108,-0.7044141888618469,1.6537761688232422,1
787,12.853944778442383,-16.107080459594727,1.519507884979248,-0.7295777797698975,-0.4942643642425537,1.6944836378097534,1
788,3.4786429405212402,-2.819772958755493,-1.2049731016159058,-0.4249727129936218,-0.29329144954681396,1.717126488685608,1
789,-5.511906147003174,12.442425727844238,-4.0365777015686035,-0.33682483434677124,-0.4418286383152008,1.6851396560668945,1
790,-10.343860626220703,16.569032669067383,-5.322144985198975,-0.730922281742096,-0.5700833201408386,1.6754224300384521,1
791,-10.915567398071289,9.825968742370605,-5.257572650909424,-0.8765997290611267,-0.6914183497428894,1.6166185140609741,1
792,-11.754622459411621,-8.862188339233398,-5.813823223114014,-1.2942479848861694,-0.9011568427085876,1.5850584506988525,1
793,-11.202898025512695,-28.559144973754883,-7.292119026184082,-1.1962510347366333,-1.1077760457992554,1.5029326677322388,1
794,-9.20615291595459,-39.735408782958984,-8.668347358703613,-0.8962490558624268,-1.0191993713378906,1.4617081880569458,1
795,-7.392536640167236,-40.98680114746094,-9.487709999084473,-0.22893093526363373,-1.1271084547042847,1.330398678779602,1
796,-9.814294815063477,-27.757946014404297,-9.181378364562988,-0.09286736696958542,-1.2236405611038208,1.2958358526229858,1
797,-12.270895957946777,-5.648787021636963,-9.873064994812012,0.20910492539405823,-1.2713093757629395,1.2217711210250854,1
798,-10.266435623168945,12.600510597229004,-10.899633407592773,0.4206008017063141,-1.404253363609314,1.1132878065109253,1
799,-4.475645065307617,26.6168155670166,-11.612143516540527,0.3238966763019562,-1.5609323978424072,1.0111407041549683,1
800,1.8792192935943604,34.157047271728516,-11.059115409851074,-0.015083528123795986,-1.4201821088790894,0.9357641339302063,1
801,6.816897869110107,27.50225257873535,-10.110332489013672,-0.36901336908340454,-1.48323655128479,0.8138058185577393,1
802,9.684687614440918,9.72567367553711,-9.490159034729004,-0.6679834127426147,-1.4012794494628906,0.700398325920105,1
803,6.15002965927124,-16.33540153503418,-11.555636405944824,-0.6521766781806946,-1.2986032962799072,0.5490015745162964,1
804,0.07996688783168793,-39.47901153564453,-13.181267738342285,-0.4014318287372589,-1.2385057210922241,0.38951241970062256,1
805,-7.81012487411499,-54.77717590332031,-14.869866371154785,0.06048296391963959,-1.2774543762207031,0.22213555872440338,1
806,-9.320244789123535,-54.69099807739258,-15.3822021484375,0.2298489809036255,-1.2639687061309814,0.19700299203395844,1
807,-8.763519287109375,-38.46933364868164,-16.911577224731445,1.0310697555541992,-1.2907239198684692,-0.012370833195745945,1
808,-7.167159557342529,-12.035236358642578,-17.775360107421875,1.4192099571228027,-1.3676221370697021,-0.14342260360717773,1
809,-4.206559181213379,23.8544864654541,-17.165203094482422,1.3510044813156128,-1.6149544715881348,-0.22464191913604736,1
810,2.480151891708374,45.84260940551758,-15.725482940673828,1.0965756177902222,-1.6582249402999878,-0.35838013887405396,1
811,11.122037887573242,55.75946807861328,-13.933751106262207,0.5585725903511047,-1.6009737253189087,-0.4853655993938446,1
812,24.45633316040039,42.06188201904297,-11.885666847229004,0.0855327621102333,-1.3906906843185425,-0.6710731387138367,1
813,34.56169891357422,22.890825271606445,-8.58139705657959,-0.44115394353866577,-1.0612224340438843,-0.7972971200942993,1
814,35.26765060424805,1.2711635828018188,-6.1645426750183105,-0.5894008874893188,-0.8206877112388611,-0.9513528943061829,1
815,25.484302520751953,-25.607254028320312,-5.125903129577637,-0.42652520537376404,-0.3108556866645813,-1.1076292991638184,1
816,11.510299682617188,-45.33307647705078,-3.457613229751587,-0.09940947592258453,0.04367740824818611,-1.2153971195220947,1
817,-2.5292375087738037,-52.86747741699219,-1.6931118965148926,0.29918017983436584,0.1866346299648285,-1.257416009902954,1
818,-15.113369941711426,-43.84046173095703,-0.7379075288772583,1.0575124025344849,-0.04363810271024704,-1.344533920288086,1
819,-21.128860473632812,-26.249853134155273,0.31065258383750916,1.3101420402526855,-0.22347329556941986,-1.293810486793518,1
820,-17.794530868530273,0.6581746339797974,4.376374244689941,1.5490219593048096,-0.5330443978309631,-1.2615971565246582,1
821,-4.277704238891602,29.152490615844727,7.084869384765625,1.5240596532821655,-0.7667405009269714,-1.2001845836639404,1
822,8.411712646484375,60.60883331298828,9.973011016845703,1.1527316570281982,-0.6752224564552307,-1.1258885860443115,1
823,18.07498550415039,79.2788314819336,10.997711181640625,0.5515041351318359,-0.6062955856323242,-1.0256495475769043,1
824,25.551605224609375,84.2626724243164,11.391315460205078,-0.545504629611969,-0.2305426448583603,-0.8719819188117981,1
825,30.264440536499023,63.21376037597656,10.100659370422363,-1.1183782815933228,-0.03642246499657631,-0.8099908828735352,1
826,30.1769962310791,34.414485931396484,7.594947814941406,-1.8069819211959839,0.4342847168445587,-0.7128803133964539,1
827,20.3831729888916,5.093442440032959,3.679687976837158,-2.042966365814209,0.5876424312591553,-0.6551929712295532,1
828,2.1949245929718018,-19.9291934967041,0.30357247591018677,-2.039919137954712,0.8588189482688904,-0.6241714358329773,1
829,-17.381526947021484,-37.875877380371094,-3.5636415481567383,-1.9494837522506714,0.8436700701713562,-0.6147146224975586,1
830,-35.030494689941406,-49.50705337524414,-7.3775634765625,-1.37067711353302,0.7359895706176758,-0.6692073941230774,1
831,-46.09878921508789,-48.12010955810547,-10.785140991210938,-0.8568425178527832,0.43298542499542236,-0.7383015155792236,1
832,-46.78668975830078,-34.1466178894043,-11.785577774047852,-0.5133849382400513,-0.16053956747055054,-0.8418213725090027,1
833,-38.706058502197266,-14.469877243041992,-10.443574905395508,-0.17359384894371033,-0.5422579646110535,-0.9447774291038513,1
834,-20.316476821899414,2.1020660400390625,-8.728228569030762,0.009280502796173096,-1.0588628053665161,-1.05954909324646,1
835,5.566585063934326,14.393986701965332,-5.295271873474121,0.05753312259912491,-1.1995666027069092,-1.1480886936187744,1
836,31.247983932495117,18.29376220703125,-2.960211753845215,-0.065089650452137,-1.2223789691925049,-1.2146028280258179,1
837,47.27675247192383,24.94223976135254,-1.5079941749572754,-0.2737657129764557,-0.7280414700508118,-1.2349281311035156,1
838,54.82267761230469,32.975887298583984,-1.3473165035247803,-0.5850948095321655,-0.265530526638031,-1.2441662549972534,1
839,52.55059814453125,37.07097625732422,-0.7185133099555969,-0.9956945776939392,0.3777996599674225,-1.2374215126037598,1
840,38.544986724853516,33.16196060180664,-0.339903324842453,-1.4387160539627075,1.084932804107666,-1.221462607383728,1
841,14.599474906921387,26.631052017211914,-0.2458895593881607,-1.7112555503845215,1.3857308626174927,-1.2402691841125488,1
842,-10.405604362487793,13.64250373840332,0.028898870572447777,-1.9407285451889038,1.5391082763671875,-1.2476654052734375,1
843,-32.93535232543945,-5.983028411865234,1.9294986724853516,-2.1505630016326904,1.3766430616378784,-1.2635879516601562,1
844,-46.47303771972656,-32.388893127441406,3.416825294494629,-1.9248015880584717,0.957058846950531,-1.2726655006408691,1
845,-45.8698844909668,-55.552711486816406,2.025141477584839,-1.9302873611450195,0.7214821577072144,-1.2208971977233887,1
846,-38.77971267700195,-63.41448211669922,1.6341153383255005,-1.2520196437835693,0.17944052815437317,-1.2057114839553833,1
847,-27.698925018310547,-56.78300857543945,1.7719473838806152,-0.8307589292526245,-0.1071867048740387,-1.1734362840652466,1
848,-17.09714126586914,-37.21854019165039,2.562014102935791,-0.11738143861293793,-0.5864323973655701,-1.179337739944458,1
849,-5.108121395111084,-8.816240310668945,4.016791820526123,0.38553452491760254,-0.7250542640686035,-1.1357953548431396,1
850,7.450207710266113,16.68829345703125,5.947681903839111,0.5336239337921143,-0.6700316071510315,-1.0740547180175781,1
851,14.499272346496582,28.425521850585938,5.453766345977783,0.2750256061553955,-0.5900700092315674,-1.018633246421814,1
852,15.182886123657227,31.753576278686523,4.626114845275879,0.09904281049966812,-0.4116818606853485,-0.9595291614532471,1
853,9.768534660339355,20.311630249023438,3.4658539295196533,-0.2438492625951767,-0.3065650761127472,-0.9169332385063171,1
854,2.955906391143799,-0.8495980501174927,2.6970808506011963,-0.4068116843700409,-0.2045322060585022,-0.882189929485321,1
855,-6.010583400726318,-17.912275314331055,2.602245807647705,-0.48673975467681885,-0.15385617315769196,-0.8527295589447021,1
856,-12.675405502319336,-26.031522750854492,4.0269551277160645,-0.6301079988479614,-0.23329342901706696,-0.8301705718040466,1
857,-15.981715202331543,-26.05573844909668,6.081073760986328,-0.20932933688163757,-0.40876397490501404,-0.804385244846344,1
858,-18.97821807861328,-18.422826766967773,6.817542552947998,-0.02871248684823513,-0.4340111017227173,-0.74213045835495,1
859,-20.844263076782227,-5.682297229766846,7.342764854431152,0.2247837781906128,-0.790397047996521,-0.6863827705383301,1
860,-18.60721206665039,-8.553244590759277,8.63657283782959,0.09787820279598236,-0.8603724241256714,-0.598884105682373,1
861,-12.633206367492676,-7.866969108581543,8.883702278137207,0.23680955171585083,-1.1055971384048462,-0.518223226070404,1
862,-7.3396100997924805,-17.1621036529541,8.305400848388672,0.2941034436225891,-1.120894432067871,-0.4227633476257324,1
863,-6.019253730773926,-27.48458480834961,6.004451751708984,0.6168795228004456,-1.2808479070663452,-0.3495646119117737,1
864,-4.599440097808838,-34.974456787109375,4.026134490966797,0.6418800950050354,-1.196344256401062,-0.26199865341186523,1
865,-4.386420249938965,-30.688735961914062,2.556213855743408,1.1714760065078735,-1.383285641670227,-0.22484584152698517,1
866,-9.236249923706055,-18.26976203918457,3.883058786392212,1.4779572486877441,-1.2854090929031372,-0.18810895085334778,1
867,-15.262601852416992,-4.103594779968262,5.738073825836182,1.6681658029556274,-1.4008502960205078,-0.13810764253139496,1
868,-19.717487335205078,-2.861530065536499,6.317433834075928,1.6234549283981323,-1.4707850217819214,-0.07491465657949448,1
869,-18.410886764526367,-4.475335121154785,6.7991156578063965,1.8186016082763672,-1.7437013387680054,-0.024102259427309036,1
870,-12.124523162841797,3.5787441730499268,6.547286033630371,1.694790244102478,-1.9253909587860107,0.0621899776160717,1
871,1.6672418117523193,23.524322509765625,6.136429309844971,1.711388111114502,-2.0552759170532227,0.11942154169082642,1
872,17.967594146728516,39.60491180419922,7.232425212860107,1.4656586647033691,-1.9624186754226685,0.16695275902748108,1
873,26.361047744750977,38.575138092041016,7.513928413391113,1.1029777526855469,-1.7068601846694946,0.20498454570770264,1
874,23.84989356994629,28.77625274658203,5.213496685028076,0.7930693030357361,-1.5506601333618164,0.27073076367378235,1
875,19.921491622924805,12.93655776977539,3.279259204864502,0.471998006105423,-1.2671564817428589,0.3132362365722656,1
876,13.865385055541992,3.4654738903045654,2.5087897777557373,0.350233256816864,-1.128984808921814,0.34355610609054565,1
877,6.68485689163208,-2.8964569568634033,1.9662432670593262,0.33681395649909973,-0.8641267418861389,0.3385661244392395,1
878,1.0863263607025146,-7.604321479797363,3.818556547164917,0.3778022229671478,-0.8458327651023865,0.37028464674949646,1
879,-8.61087417602539,-6.735544204711914,5.727303504943848,0.5443957448005676,-0.8721949458122253,0.390064001083374,1
880,-22.149810791015625,1.5898447036743164,7.8607330322265625,0.6551201939582825,-0.9892874360084534,0.4505936801433563,1
881,-29.860376358032227,1.6053271293640137,8.25147819519043,0.7630006074905396,-1.2875665426254272,0.5279993414878845,1
882,-27.962366104125977,-3.165454626083374,7.073410987854004,0.4527122378349304,-1.473125696182251,0.6528446078300476,1
883,-21.127418518066406,-6.968920707702637,5.4427289962768555,0.5718599557876587,-1.852819561958313,0.7233865261077881,1
884,-9.52462387084961,-6.1760454177856445,3.882582426071167,0.20716850459575653,-2.174513578414917,0.881956160068512,1
885,15.307615280151367,0.8947098851203918,5.634355068206787,0.3339361250400543,-2.242406129837036,0.9037380218505859,1
886,40.25751495361328,4.857530117034912,8.140210151672363,0.30805572867393494,-2.152608633041382,0.9645321369171143,1
887,57.49425506591797,11.520160675048828,12.336355209350586,0.3314858376979828,-1.5379884243011475,0.9745737910270691,1
888,59.309513092041016,15.612110137939453,14.999991416931152,0.2571241557598114,-0.9985098838806152,1.0723514556884766,1
889,38.462791442871094,20.41289520263672,17.444807052612305,0.10639005154371262,-0.4906984269618988,1.225492000579834,1
890,7.141801834106445,14.822721481323242,18.438373565673828,-0.05819617584347725,-0.08403503894805908,1.396569013595581,1
891,-27.943283081054688,-1.395677924156189,14.384183883666992,-0.16531282663345337,-0.04909388720989227,1.58616042137146,1
892,-45.075435638427734,-8.72173023223877,10.972740173339844,-0.09435627609491348,-0.3364863991737366,1.7389185428619385,1
893,-43.038516998291016,-15.85529613494873,7.511355876922607,0.04690311476588249,-0.7940931916236877,1.8518342971801758,1
894,-30.951580047607422,-14.066778182983398,6.859629154205322,0.2532114088535309,-1.2295653820037842,1.9274228811264038,1
895,-12.821272850036621,-17.323898315429688,6.752937316894531,0.48036569356918335,-1.5301458835601807,1.9814281463623047,1
896,9.263575553894043,-7.75130558013916,6.305181980133057,0.6797801852226257,-1.6862554550170898,2.0467214584350586,1
897,28.763919830322266,5.534569263458252,8.067466735839844,0.6061452031135559,-1.5819759368896484,2.137014627456665,1
898,45.10820770263672,14.126601219177246,7.827376842498779,0.5693268775939941,-1.2387045621871948,2.206685781478882,1
899,46.95964431762695,25.35009002685547,7.903434753417969,0.4195481836795807,-0.7601602673530579,2.280433416366577,1
900,35.21311569213867,27.77448844909668,10.18466567993164,0.14190439879894257,-0.40446415543556213,2.376403570175171,1
901,15.609832763671875,18.428913116455078,9.583566665649414,-0.14415329694747925,-0.15722179412841797,2.4879019260406494,1
902,-6.936540603637695,8.971336364746094,7.28216028213501,-0.3244015872478485,-0.01382450945675373,2.5866000652313232,1
903,-23.472322463989258,0.18863405287265778,6.479679107666016,-0.48250138759613037,-0.12081188708543777,2.6765084266662598,1
904,-32.520389556884766,-13.94352912902832,3.7318708896636963,-0.3161490559577942,-0.39661261439323425,2.731942892074585,1
905,-31.66485595703125,-22.45661735534668,0.1063457801938057,-0.19123190641403198,-0.7317240238189697,2.779639482498169,1
906,-18.425199508666992,-18.331998825073242,-1.5513354539871216,0.16659730672836304,-1.1624408960342407,2.786607027053833,1
907,-1.5929384231567383,-13.454930305480957,-2.139238119125366,0.5431910157203674,-1.3178828954696655,2.7648942470550537,1
908,15.829952239990234,-3.935119390487671,-1.6766823530197144,0.7961093783378601,-1.2584701776504517,2.7332980632781982,1
909,30.021818161010742,6.2583699226379395,-1.3755111694335938,0.7006137371063232,-1.0825499296188354,2.7258386611938477,1
910,36.630062103271484,19.5831356048584,-3.783146381378174,0.717348575592041,-0.7112950682640076,2.7006993293762207,1
911,32.699668884277344,31.019630432128906,-6.6493425369262695,0.46030393242836,-0.40076497197151184,2.686692714691162,1
912,14.490909576416016,38.63336181640625,-10.481939315795898,0.028562424704432487,0.09308513253927231,2.632746934890747,1
913,-2.3068366050720215,41.06343078613281,-11.9702787399292,-0.4174615144729614,0.12925483286380768,2.555765151977539,1
914,-7.652466773986816,30.991758346557617,-11.111491203308105,-0.9287452697753906,0.14688369631767273,2.444615364074707,1
915,-4.059685230255127,19.352073669433594,-8.366703033447266,-1.1694269180297852,0.14802981913089752,2.329892635345459,1
916,2.6793017387390137,5.2907938957214355,-5.808845043182373,-1.4218602180480957,-0.08612559735774994,2.2339422702789307,1
917,7.558274745941162,-7.664811611175537,-3.992938995361328,-1.383311152458191,-0.20785005390644073,2.1602365970611572,1
918,9.057572364807129,-15.685781478881836,-3.3789584636688232,-1.1544578075408936,-0.25208017230033875,2.1101598739624023,1
919,8.728477478027344,-15.955071449279785,-3.82940936088562,-1.0307121276855469,-0.12756317853927612,2.0771796703338623,1
920,9.94195556640625,-22.545082092285156,-6.499356746673584,-0.8386635184288025,-0.07579554617404938,2.039511203765869,1
921,14.042346000671387,-18.503929138183594,-9.103629112243652,-0.489930659532547,0.006053939927369356,1.987737774848938,1
922,22.951772689819336,-4.120323181152344,-7.931971549987793,-0.400238037109375,0.2514878213405609,1.9166203737258911,1
923,24.060131072998047,4.776477336883545,-6.708478927612305,-0.265818327665329,0.2337067574262619,1.8113842010498047,1
924,16.82861328125,13.516481399536133,-6.7298455238342285,-0.3510245680809021,0.4497305750846863,1.7348217964172363,1
925,6.902578830718994,18.65340232849121,-7.533012866973877,-0.617697536945343,0.5576611161231995,1.6504859924316406,1
926,-0.49237391352653503,10.330826759338379,-10.027857780456543,-0.7636948227882385,0.6634842157363892,1.5835907459259033,1
927,1.175498127937317,2.0175154209136963,-11.614811897277832,-0.8381670117378235,0.6785818338394165,1.501227855682373,1
928,13.014596939086914,-3.6656434535980225,-8.749130249023438,-0.7324028015136719,0.8150238990783691,1.4313926696777344,1
929,26.96218490600586,-3.9853389263153076,-5.935301780700684,-0.7648711204528809,0.9769349098205566,1.338341236114502,1
930,34.72829818725586,-1.2485257387161255,-3.5496397018432617,-0.7032760977745056,1.1760568618774414,1.2685577869415283,1
931,33.69654083251953,8.288658142089844,-3.5338947772979736,-0.6307679414749146,1.485107421875,1.232310175895691,1
932,26.121196746826172,12.581056594848633,-3.540398120880127,-0.6561675071716309,1.784062147140503,1.1993738412857056,1
933,12.410177230834961,8.606098175048828,-4.790030002593994,-0.7301537990570068,2.0965933799743652,1.1744329929351807,1
934,-6.404916286468506,6.250160217285156,-5.35911226272583,-0.7902511358261108,2.310861587524414,1.1493045091629028,1
935,-24.140180587768555,1.848388910293579,-8.46714973449707,-0.8717899918556213,2.241130828857422,1.0884088277816772,1
936,-32.496742248535156,-3.8675224781036377,-11.891740798950195,-0.8855606913566589,1.9171156883239746,0.9995695352554321,1
937,-28.494606018066406,-3.663944959640503,-14.805671691894531,-0.857390284538269,1.4778838157653809,0.8793359398841858,1
938,-9.795238494873047,-4.865015983581543,-14.552349090576172,-0.795154869556427,1.2782679796218872,0.7711909413337708,1
939,13.12757682800293,-0.5132637619972229,-13.431087493896484,-0.6562556624412537,1.2075183391571045,0.6734286546707153,1
940,30.036937713623047,10.037549018859863,-12.10651683807373,-0.6524174809455872,1.4000478982925415,0.5476266145706177,1
941,36.653907775878906,18.812463760375977,-11.437313079833984,-0.7161267399787903,1.7029004096984863,0.4243996739387512,1
942,31.952653884887695,23.39228057861328,-11.14285659790039,-0.9436336159706116,1.9462889432907104,0.2657621502876282,1
943,19.541439056396484,18.31924819946289,-9.313899993896484,-1.1589456796646118,2.326108455657959,0.17166154086589813,1
944,2.9668030738830566,13.108060836791992,-9.315462112426758,-1.4717336893081665,2.4926340579986572,0.037212174385786057,1
945,-9.947257995605469,6.192399024963379,-9.050036430358887,-1.5218113660812378,2.5670135021209717,-0.0049429526552557945,1
946,-14.255046844482422,-3.6725354194641113,-7.023405075073242,-1.5085793733596802,2.532346487045288,-0.04631413146853447,1
947,-12.331740379333496,-20.421789169311523,-5.26411247253418,-1.443832278251648,2.353358745574951,-0.10946221649646759,1
948,-8.200216293334961,-30.79625701904297,-5.505935192108154,-1.2930395603179932,2.272752285003662,-0.1676977574825287,1
949,-0.0020467108115553856,-28.49884605407715,-5.598694801330566,-0.740785539150238,2.2587313652038574,-0.09667927771806717,1
950,10.714412689208984,-19.652019500732422,-4.435801982879639,-0.539496898651123,2.2905516624450684,-0.1911509931087494,1
951,11.702652931213379,-0.32478976249694824,-2.183256149291992,-0.6645866632461548,2.4372291564941406,-0.38769280910491943,1
952,5.413491725921631,21.71194076538086,-0.07594186067581177,-0.6296624541282654,2.52156662940979,-0.43176302313804626,1
953,-6.41362190246582,27.25885581970215,-1.9222471714019775,-0.8445650935173035,2.6369738578796387,-0.45860961079597473,1
954,-17.684200286865234,27.95530891418457,-3.379265785217285,-1.1067543029785156,2.5095996856689453,-0.48424193263053894,1
955,-27.6909236907959,27.631282806396484,-4.813745021820068,-1.464484691619873,2.2767069339752197,-0.558357298374176,1
956,-33.301544189453125,23.944101333618164,-4.3217244148254395,-1.7911518812179565,2.1067728996276855,-0.595760703086853,1
957,-32.92074203491211,19.447345733642578,-3.850210189819336,-1.985347032546997,1.5787073373794556,-0.6517518758773804,1
958,-29.173053741455078,0.6261333227157593,-5.693015098571777,-2.093240976333618,1.4868669509887695,-0.5836461186408997,1
959,-18.94086456298828,-25.229825973510742,-8.876372337341309,-1.9159358739852905,1.253760814666748,-0.5059987902641296,1
960,-3.7297797203063965,-53.982872009277344,-11.496050834655762,-1.625549554824829,1.116188883781433,-0.5108566880226135,1
961,16.043155670166016,-61.69969940185547,-12.981149673461914,-0.9087263941764832,1.287753939628601,-0.44093596935272217,1
962,31.11702537536621,-47.39808654785156,-11.802974700927734,-0.6029346585273743,1.2985376119613647,-0.7309364676475525,1
963,31.34480094909668,-22.204814910888672,-8.123650550842285,0.0643400028347969,1.5727163553237915,-0.8101071715354919,1
964,18.402286529541016,4.037174701690674,-6.561590671539307,0.4760211110115051,1.8551146984100342,-0.8839120268821716,1
965,-5.758392333984375,32.01856231689453,-5.496248245239258,0.2892266809940338,2.1278445720672607,-1.037893295288086,1
966,-34.04415512084961,59.466148376464844,-2.8070013523101807,-0.12517347931861877,2.004877805709839,-1.1801215410232544,1
967,-59.44473648071289,63.00545120239258,1.3022722005844116,-0.7807478904724121,1.7167555093765259,-1.265934944152832,1
968,-75.08899688720703,52.20414352416992,4.175709247589111,-1.3576509952545166,0.8482245802879333,-1.2862218618392944,1
969,-81.88885498046875,25.266029357910156,3.7138030529022217,-1.940366506576538,0.4626930058002472,-1.2031809091567993,1
970,-67.66594696044922,-1.9722918272018433,1.632700800895691,-2.2031443119049072,-0.4738796055316925,-1.1557698249816895,1
971,-43.989200592041016,-23.712127685546875,-0.2127552032470703,-2.256204605102539,-0.8358726501464844,-1.0502249002456665,1
972,-17.964929580688477,-39.07056427001953,-1.1015071868896484,-1.7514054775238037,-1.418411374092102,-0.9705557227134705,1
973,4.965457439422607,-52.55597686767578,-2.0143039226531982,-1.351513385772705,-1.7219922542572021,-0.9691873788833618,1
974,22.03151512145996,-49.58261489868164,-1.22853684425354,-0.9492318034172058,-1.4551832675933838,-0.9229894280433655,1
975,29.27108383178711,-37.86058044433594,-1.3046653270721436,-0.4345724880695343,-1.1752235889434814,-0.9024989008903503,1
976,24.012977600097656,-17.96052360534668,-3.505946397781372,0.1453656554222107,-0.809223473072052,-0.8780848979949951,1
977,17.439605712890625,-3.4992709159851074,-3.531392812728882,0.3046640455722809,-0.7068544030189514,-0.9261946082115173,1
