,timestamp_start,timestamp_end,acc.x,acc.y,acc.z,gyro.x,gyro.y,gyro.z,mag.x,mag.y,mag.z,stabilizer.pitch,stabilizer.roll,stabilizer.yaw
0,164848,164849,-0.0471370704472065,0.09039377421140671,1.0025385618209839,-11.869304656982422,52.68723678588867,-1.5557079315185547,1.1339433193206787,1.6799160242080688,2.783860683441162,-2.0979866981506348,0.18231888115406036,-4.625650882720947
1,164858,164859,-0.04383140057325363,0.07808016985654831,1.020226001739502,16.54424285888672,48.338279724121094,3.0560879707336426,1.1429427862167358,1.7159141302108765,2.810859441757202,-2.8647894859313965,0.24542269110679626,-4.644176006317139
2,164868,164869,-0.028730731457471848,0.04045652970671654,1.0386419296264648,30.72411346435547,21.06380844116211,5.844573974609375,1.1564421653747559,1.702414870262146,2.81235933303833,-3.05319881439209,0.5997286438941956,-4.526759624481201
3,164878,164879,-0.046126771718263626,0.01825142651796341,0.9829180836677551,27.529285430908203,-7.063818454742432,11.34933853149414,1.1519423723220825,1.6919153928756714,2.810859441757202,-3.091136932373047,0.8003700971603394,-4.465546607971191
4,164888,164889,-0.07154793292284012,0.04480503499507904,0.9666460156440735,16.909574508666992,-35.362091064453125,22.94654655456543,1.1624418497085571,1.6964151859283447,2.7943601608276367,-2.894345998764038,1.088142991065979,-4.3117194175720215
5,164898,164899,-0.01425310131162405,0.09591785073280334,1.0128196477890015,15.729499816894531,-55.265159606933594,30.72243309020996,1.1654417514801025,1.687415599822998,2.8063595294952393,-2.403628349304199,1.2731471061706543,-4.056644916534424
6,164908,164909,-0.031247394159436226,0.07286623865365982,1.0303086042404175,17.487520217895508,-68.11045837402344,32.27745056152344,1.1654417514801025,1.6994149684906006,2.8063595294952393,-1.7965259552001953,1.4735982418060303,-3.750991106033325
7,164918,164919,0.030395766720175743,0.11222654581069946,1.0441246032714844,4.834478378295898,-61.59933090209961,34.678749084472656,1.1744412183761597,1.6994149684906006,2.8003599643707275,-0.8600515723228455,1.6160402297973633,-3.401516914367676
8,164928,164929,0.014587923884391785,0.06830639392137527,1.000909447669983,-22.648649215698242,-34.47858810424805,32.81351852416992,1.1744412183761597,1.687415599822998,2.8033597469329834,-0.723167359828949,1.6165775060653687,-3.1537680625915527
9,164938,164939,-0.014395840466022491,0.07990119606256485,1.0060949325561523,-55.12216567993164,-0.17251142859458923,27.09676170349121,1.1759412288665771,1.6769161224365234,2.7808609008789062,-0.4346073269844055,1.113713264465332,-2.8817038536071777
10,164948,164949,-0.007769628893584013,0.08904566615819931,0.996839702129364,-70.3602523803711,24.930532455444336,23.771343231201172,1.1759412288665771,1.6829158067703247,2.786860704421997,-0.6193078756332397,0.6466284990310669,-2.6254684925079346
11,164958,164959,-0.01975604146718979,0.07336673140525818,1.0225719213485718,-63.889015197753906,32.50510025024414,22.459579467773438,1.1759412288665771,1.7099144458770752,2.8018598556518555,-1.0123414993286133,-0.13746458292007446,-2.42421555519104
12,164968,164969,-0.05814407020807266,0.05427757650613785,1.0165729522705078,-38.53740310668945,31.045499801635742,23.17443084716797,1.1654417514801025,1.7114144563674927,2.7973601818084717,-1.266366720199585,-0.41796350479125977,-2.153738498687744
13,164978,164979,-0.07660945504903793,0.07191138714551926,0.9813259243965149,1.235399603843689,9.303321838378906,23.82088279724121,1.1579420566558838,1.6919153928756714,2.7778611183166504,-1.5537235736846924,-0.7624807357788086,-1.9284956455230713
14,164988,164989,-0.0651988834142685,0.0970764085650444,0.975988507270813,30.136762619018555,-6.709357261657715,24.894325256347656,1.1684415340423584,1.687415599822998,2.78536057472229,-1.57027006149292,-0.6382808685302734,-1.6774566173553467
15,164998,164999,-0.03436001017689705,0.05270906910300255,0.9528006315231323,48.54344177246094,-8.31814956665039,21.754182815551758,1.163941740989685,1.700914978981018,2.8048596382141113,-1.4689760208129883,-0.13012413680553436,-1.414906620979309
16,165008,165009,0.024294326081871986,0.08767211437225342,0.9287995100021362,58.975074768066406,-5.233842372894287,15.680343627929688,1.163941740989685,1.7069146633148193,2.7988600730895996,-1.4129281044006348,0.48813769221305847,-1.2035402059555054
17,165018,165019,0.11436262726783752,0.13457223773002625,0.916577935218811,50.285823822021484,-4.018453598022461,8.208756446838379,1.1669416427612305,1.6979150772094727,2.8078596591949463,-1.3599672317504883,1.0260251760482788,-1.0661600828170776
18,165028,165029,0.15115702152252197,0.14500592648983002,0.9506316781044006,18.589004516601562,-18.258899688720703,2.626462697982788,1.1609419584274292,1.700914978981018,2.7988600730895996,-1.2095881700515747,1.4985442161560059,-0.9916889071464539
19,165038,165039,0.1408092975616455,0.13758721947669983,0.961745023727417,-25.591310501098633,-25.522558212280273,-0.488761305809021,1.1699414253234863,1.6919153928756714,2.7958600521087646,-0.8499314785003662,1.4173755645751953,-0.9769023656845093
20,165048,165049,0.08727087080478668,0.23759347200393677,0.9903469681739807,-54.36185836791992,-23.01893424987793,-2.991840124130249,1.1564421653747559,1.7054146528244019,2.81235933303833,-0.6941311359405518,1.1770093441009521,-0.9983543157577515
21,165058,165059,0.01507515087723732,0.0937141701579094,0.9728896617889404,-50.98640441894531,-20.04178810119629,-2.3742871284484863,1.1684415340423584,1.702414870262146,2.815359115600586,-0.5093960165977478,0.47222426533699036,-1.039444088935852
22,165068,165069,0.024465976282954216,0.03215034678578377,0.9844165444374084,-33.81757354736328,-27.361299514770508,-0.3755854070186615,1.1744412183761597,1.6994149684906006,2.8033597469329834,-0.16554565727710724,0.1140165850520134,-1.0424939393997192
23,165078,165079,0.022939488291740417,0.018293779343366623,0.9807094931602478,-7.552109241485596,-35.648353576660156,3.3775033950805664,1.1609419584274292,1.703914761543274,2.8048596382141113,0.16115060448646545,-0.2691503167152405,-1.0349079370498657
24,165088,165089,-0.023984674364328384,-0.007397662848234177,0.977135956287384,14.564396858215332,-30.432476043701172,9.700206756591797,1.1759412288665771,1.703914761543274,2.8048596382141113,0.37054944038391113,-0.22327767312526703,-1.0014467239379883
25,165098,165099,-0.016065623611211777,-0.0054978858679533005,0.9801992177963257,28.39327621459961,-11.136055946350098,16.166902542114258,1.180440902709961,1.7084145545959473,2.7973601818084717,0.6832581162452698,-0.013680597767233849,-0.8890696167945862
26,165108,165109,0.021137554198503494,0.009479522705078125,0.9751918911933899,31.431106567382812,7.920626640319824,20.56255531311035,1.1729413270950317,1.6979150772094727,2.8018598556518555,0.674534797668457,0.4321737587451935,-0.7335741519927979
27,165118,165119,-0.0012286684941500425,-0.01807481423020363,0.9522254467010498,28.220972061157227,27.939273834228516,21.805984497070312,1.1699414253234863,1.6919153928756714,2.7958600521087646,0.417283833026886,0.8080610632896423,-0.5377904772758484
28,165128,165129,0.018490679562091827,-0.017009664326906204,0.926427960395813,17.53866195678711,37.29315185546875,23.530256271362305,1.1699414253234863,1.7129143476486206,2.8078596591949463,0.0493430532515049,1.0836378335952759,-0.3154204487800598
29,165138,165139,0.002107337350025773,-0.023090653121471405,0.9215208888053894,2.9417836666107178,41.8151969909668,25.307044982910156,1.1744412183761597,1.6964151859283447,2.8003599643707275,-0.16077423095703125,1.3696855306625366,-0.07749558985233307
30,165148,165149,0.03466710075736046,-0.006820966023951769,0.943993330001831,-16.921483993530273,41.238800048828125,26.981733322143555,1.1579420566558838,1.703914761543274,2.8078596591949463,-0.69808030128479,1.4329112768173218,0.17209306359291077
31,165158,165159,0.0009564358042553067,-0.014819907955825329,0.9641836285591125,-44.37850570678711,30.523988723754883,28.462865829467773,1.1579420566558838,1.6979150772094727,2.816859006881714,-1.1012698411941528,1.11700439453125,0.46638235449790955
32,165168,165169,0.022463824599981308,-0.04452088847756386,0.946143388748169,-62.32612609863281,12.475641250610352,28.11809539794922,1.177441120147705,1.7054146528244019,2.815359115600586,-1.4710487127304077,0.4841034412384033,0.7630423307418823
33,165178,165179,0.020981116220355034,-0.013338727876543999,0.9625753164291382,-76.77113342285156,-4.599609375,26.30263328552246,1.1684415340423584,1.7204139232635498,2.8273584842681885,-1.3424415588378906,0.009210924617946148,1.041773796081543
34,165188,165189,-0.0021776773501187563,0.027674077078700066,0.9782808423042297,-78.60589599609375,-16.711490631103516,23.840778350830078,1.1729413270950317,1.7249137163162231,2.8228588104248047,-1.3242287635803223,-0.8377023339271545,1.3042117357254028
35,165198,165199,-0.03042001836001873,0.03176252171397209,0.9799156785011292,-75.247314453125,-25.345949172973633,18.44886016845703,1.177441120147705,1.7234138250350952,2.8273584842681885,-1.1465165615081787,-1.2092427015304565,1.499290108680725
36,165208,165209,-0.03063357248902321,0.06469835340976715,1.024836540222168,-60.626792907714844,-33.77146911621094,13.729310035705566,1.1819409132003784,1.7219138145446777,2.8288586139678955,-0.7483618259429932,-2.097715139389038,1.6988375186920166
37,165218,165219,0.008102530613541603,0.08212403208017349,1.040757417678833,-43.580909729003906,-41.7949333190918,10.264324188232422,1.1864407062530518,1.7204139232635498,2.809359550476074,-0.36600399017333984,-2.1654162406921387,1.8010153770446777
38,165228,165229,0.032951295375823975,0.0684439167380333,1.0439218282699585,-25.707828521728516,-33.12187957763672,6.817168712615967,1.1819409132003784,1.7309134006500244,2.8228588104248047,-0.0008138356497511268,-2.6758744716644287,1.9236863851547241
39,165238,165239,0.003082814859226346,0.036479394882917404,1.0297507047653198,-12.349821090698242,-13.98659610748291,2.5142130851745605,1.2014398574829102,1.741412878036499,2.8243587017059326,0.2292053997516632,-2.7142739295959473,1.9838258028030396
40,165248,165249,0.009151372127234936,0.05799642205238342,0.9947923421859741,-2.8100008964538574,12.561421394348145,-1.1795296669006348,1.1729413270950317,1.7249137163162231,2.8048596382141113,0.31098660826683044,-2.7712137699127197,2.0015881061553955
41,165258,165259,-0.011574960313737392,0.05486518517136574,0.9760469198226929,-5.842225551605225,29.52964973449707,-3.5240652561187744,1.193940281867981,1.7249137163162231,2.810859441757202,0.0652216225862503,-2.675830364227295,1.9671801328659058
42,165268,165269,-0.014568362385034561,0.02379767969250679,1.0007009506225586,-15.178248405456543,37.509605407714844,-3.6173489093780518,1.177441120147705,1.7444127798080444,2.8213589191436768,-0.4800771474838257,-2.8170642852783203,1.9620840549468994
43,165278,165279,-0.019097669050097466,0.031126776710152626,1.043919324874878,-20.209104537963867,26.19495964050293,-1.306297779083252,1.177441120147705,1.741412878036499,2.8273584842681885,-0.5955566763877869,-2.9425840377807617,1.857604742050171
44,165288,165289,-0.04396718740463257,-0.016824303194880486,1.057649850845337,-22.535282135009766,-0.6395372748374939,7.9952521324157715,1.1759412288665771,1.739912986755371,2.813859224319458,-0.8381088972091675,-3.2686245441436768,1.881124496459961
45,165298,165299,-0.010759287513792515,0.026760878041386604,1.0408830642700195,-20.88739013671875,-27.526124954223633,14.644969940185547,1.1699414253234863,1.7249137163162231,2.786860704421997,-0.7338258028030396,-3.1790566444396973,1.9297500848770142
46,165308,165309,0.005129342433065176,0.051512740552425385,1.0622590780258179,-10.734110832214355,-44.40072250366211,18.84728240966797,1.180440902709961,1.7144142389297485,2.7943601608276367,-0.3166125416755676,-3.5187084674835205,2.0877108573913574
47,165318,165319,0.021921830251812935,0.019490450620651245,1.0352054834365845,5.521369934082031,-44.65150833129883,23.068239212036133,1.177441120147705,1.7204139232635498,2.8033597469329834,0.06422499567270279,-3.4476559162139893,2.311785936355591
48,165328,165329,0.015866657719016075,0.05289318412542343,0.9821181893348694,20.400060653686523,-28.763551712036133,24.6875,1.1954401731491089,1.7084145545959473,2.782360792160034,0.4803469479084015,-3.1750247478485107,2.539353847503662
49,165338,165339,0.004361034836620092,0.07157327234745026,0.9627251029014587,26.394309997558594,-4.635013580322266,25.55483627319336,1.192440390586853,1.7084145545959473,2.791360378265381,0.4979001581668854,-2.994392156600952,2.8759236335754395
50,165348,165349,0.027037184685468674,-0.020613545551896095,0.9497166275978088,20.414602279663086,11.499635696411133,23.337255477905273,1.192440390586853,1.7084145545959473,2.7703614234924316,0.4796411991119385,-2.6475257873535156,3.1217634677886963
51,165358,165359,0.009949778206646442,-0.022976696491241455,0.9473142623901367,8.64164924621582,22.245315551757812,19.87813949584961,1.1819409132003784,1.6979150772094727,2.753862142562866,0.17059893906116486,-2.4375293254852295,3.400588035583496
52,165368,165369,0.0030227303504943848,-0.02462603710591793,0.9310154318809509,-5.515334129333496,29.949989318847656,15.2838716506958,1.1759412288665771,1.7099144458770752,2.762861728668213,-0.07351463288068771,-2.4987573623657227,3.598116636276245
53,165378,165379,0.007258975878357887,-0.021544307470321655,0.9188776612281799,-18.51677131652832,29.847932815551758,12.992749214172363,1.1684415340423584,1.7084145545959473,2.761361837387085,-0.5421088337898254,-2.5004498958587646,3.782350778579712
54,165388,165389,0.02817964367568493,-0.01711164228618145,0.9244556427001953,-26.890886306762695,26.072736740112305,11.304436683654785,1.1849406957626343,1.7069146633148193,2.765861749649048,-0.7629818916320801,-2.7571449279785156,3.8745837211608887
55,165398,165399,0.018982337787747383,-0.0019651164766401052,0.9183529019355774,-29.42608642578125,21.747217178344727,9.767119407653809,1.1849406957626343,1.6979150772094727,2.7718613147735596,-0.9349700212478638,-2.973153829574585,3.9286370277404785
56,165408,165409,0.020211832597851753,-0.012050441466271877,0.915640115737915,-26.927406311035156,13.650835990905762,8.154520988464355,1.1954401731491089,1.6904155015945435,2.767361640930176,-1.2279417514801025,-3.1289260387420654,4.0292649269104
57,165418,165419,-0.001579257077537477,-0.006547710858285427,0.9152953028678894,-19.2293643951416,1.301142692565918,5.88595724105835,1.180440902709961,1.7084145545959473,2.7793610095977783,-1.4290627241134644,-3.290656805038452,4.122458457946777
58,165428,165429,0.008545891381800175,-0.022447599098086357,0.9112804532051086,-9.82036304473877,-12.244564056396484,3.6367738246917725,1.177441120147705,1.7114144563674927,2.791360378265381,-1.3260143995285034,-3.520801067352295,4.145335674285889
59,165438,165439,-0.00204356643371284,-0.0030715269967913628,0.9285408854484558,0.6256933212280273,-22.04360580444336,2.6589162349700928,1.1819409132003784,1.703914761543274,2.786860704421997,-1.173984408378601,-3.3798251152038574,4.167994022369385
60,165448,165449,0.013553431257605553,-0.01616394892334938,0.9316036701202393,8.600836753845215,-30.16717529296875,2.9112186431884766,1.180440902709961,1.717414140701294,2.7943601608276367,-0.7285611033439636,-3.4287288188934326,4.123329162597656
61,165458,165459,0.0027782355900853872,-0.02010525017976761,0.9493615627288818,9.143301010131836,-33.76557159423828,3.289872407913208,1.1879405975341797,1.7279136180877686,2.8078596591949463,-0.7475757598876953,-3.1836137771606445,4.306221961975098
62,165468,165469,0.003752365242689848,-0.001076201442629099,0.9767531752586365,3.9583630561828613,-33.03656768798828,2.087130546569824,1.1864407062530518,1.7234138250350952,2.809359550476074,-0.22479237616062164,-3.1083810329437256,4.273976802825928
63,165478,165479,-0.003366896416991949,-0.025068417191505432,0.962750256061554,-2.4427413940429688,-26.8779239654541,2.3197784423828125,1.2014398574829102,1.7204139232635498,2.8303585052490234,-0.03759732097387314,-2.9190900325775146,4.360483169555664
64,165488,165489,-0.007328614592552185,-0.030333958566188812,0.9808699488639832,-8.915456771850586,-15.53619384765625,1.439102053642273,1.1819409132003784,1.7489125728607178,2.8468575477600098,0.31044065952301025,-2.8986411094665527,4.344874858856201
65,165498,165499,0.015099026262760162,0.0083984499797225,1.0074715614318848,-15.928640365600586,-3.7536020278930664,1.717672348022461,1.1909403800964355,1.7489125728607178,2.8318583965301514,0.3944334387779236,-3.138857126235962,4.400290012359619
66,165508,165509,0.02962580695748329,-0.019041741266846657,0.9986795783042908,-23.066646575927734,5.408779621124268,0.6463941335678101,1.192440390586853,1.756412148475647,2.8603570461273193,0.3002995252609253,-3.4095730781555176,4.474641799926758
67,165518,165519,-0.018930062651634216,-0.046504318714141846,0.9980781674385071,-30.11565399169922,12.006900787353516,-0.5516492128372192,1.193940281867981,1.757912039756775,2.8528573513031006,0.22280819714069366,-3.299720287322998,4.441673278808594
68,165528,165529,-0.005919103045016527,0.01561915036290884,0.9992721080780029,-39.96897888183594,15.928447723388672,-1.1724598407745361,1.1909403800964355,1.7729113101959229,2.864856719970703,-0.016748761758208275,-3.902292251586914,4.508748531341553
69,165538,165539,0.0741795003414154,0.09455018490552902,1.04047429561615,-46.87024688720703,16.716114044189453,-1.9251179695129395,1.1894404888153076,1.7744112014770508,2.869356393814087,-0.23150871694087982,-4.0065999031066895,4.468570709228516
70,165548,165549,0.02399410307407379,0.07692588865756989,1.0646185874938965,-47.436187744140625,9.925529479980469,-1.34795081615448,1.1909403800964355,1.7819108963012695,2.864856719970703,-0.40221211314201355,-4.681787014007568,4.468337535858154
71,165558,165559,-0.036659125238657,-0.05121535435318947,1.016472339630127,-41.385318756103516,-8.35085678100586,-1.314375638961792,1.1879405975341797,1.7639117240905762,2.837857961654663,-0.38967883586883545,-4.826590538024902,4.383037090301514
72,165568,165569,0.0004272756341379136,0.014902865514159203,1.0791006088256836,-32.520042419433594,-29.424617767333984,-0.6685912609100342,1.1894404888153076,1.7504124641418457,2.8303585052490234,-0.1516377031803131,-5.275053024291992,4.331751346588135
73,165578,165579,0.005580366589128971,-0.04498964175581932,1.0697587728500366,-24.68536376953125,-47.11070251464844,0.40136992931365967,1.1864407062530518,1.7504124641418457,2.81235933303833,0.36333519220352173,-5.576199054718018,4.271014213562012
74,165588,165589,-0.001090332749299705,-0.0203371811658144,1.0890822410583496,-16.709840774536133,-56.93701934814453,1.9007689952850342,1.1849406957626343,1.7489125728607178,2.8348581790924072,0.8988500833511353,-5.680842399597168,4.294162273406982
75,165598,165599,0.007265920285135508,-0.010062088258564472,1.057847499847412,-5.604265213012695,-50.58298110961914,1.7981423139572144,1.192440390586853,1.7594120502471924,2.8333582878112793,1.6227610111236572,-6.057924747467041,4.313404560089111
76,165608,165609,-0.0131895886734128,0.019569192081689835,1.051802396774292,4.12959623336792,-33.260948181152344,1.0582793951034546,1.1999399662017822,1.739912986755371,2.810859441757202,1.8065420389175415,-5.824051856994629,4.495750904083252
77,165618,165619,-0.020099882036447525,0.02266608737409115,1.075933575630188,17.673171997070312,-5.774834156036377,-1.4677835702896118,1.192440390586853,1.7504124641418457,2.815359115600586,2.234996795654297,-5.814296722412109,4.45597505569458
78,165628,165629,0.011070547625422478,0.0009636393515393138,1.0608062744140625,23.085721969604492,20.8406982421875,-2.8631913661956787,1.1969401836395264,1.7309134006500244,2.7988600730895996,2.050905704498291,-5.421438694000244,4.5077948570251465
79,165638,165639,0.023768559098243713,-0.008566217496991158,1.030076026916504,16.66493034362793,38.528724670410156,-6.905342102050781,1.1954401731491089,1.741412878036499,2.81235933303833,1.6329647302627563,-5.293150901794434,4.575382709503174
80,165648,165649,0.06012631580233574,-0.023674251511693,1.0021814107894897,1.7870702743530273,51.08981704711914,-7.219275951385498,1.193940281867981,1.7459126710891724,2.8048596382141113,1.1187856197357178,-5.170203685760498,4.538466453552246
81,165658,165659,0.09020696580410004,-0.035228658467531204,0.9983769059181213,-18.488178253173828,51.389339447021484,-7.17207145690918,1.1849406957626343,1.7459126710891724,2.8228588104248047,0.5381249785423279,-5.327437877655029,4.495954990386963
82,165668,165669,0.03151598945260048,-0.005270075518637896,1.0327802896499634,-40.60393142700195,35.275630950927734,-5.816843032836914,1.1954401731491089,1.7534122467041016,2.8213589191436768,0.3278487026691437,-5.464513301849365,4.188931465148926
83,165678,165679,0.014889305457472801,0.016150427982211113,1.0485273599624634,-46.39591598510742,6.917325973510742,-4.555249214172363,1.1879405975341797,1.7609119415283203,2.8348581790924072,0.012499202974140644,-5.936212062835693,4.12743616104126
84,165688,165689,0.04227013140916824,0.0546429418027401,1.0384947061538696,-35.99269104003906,-21.393545150756836,-5.791616439819336,1.1834408044815063,1.7384130954742432,2.78536057472229,0.12763933837413788,-6.402210712432861,4.010941028594971
85,165698,165699,0.06214897707104683,0.06787337362766266,1.0135917663574219,-3.6307103633880615,-45.13821029663086,-8.079753875732422,1.178941011428833,1.7279136180877686,2.786860704421997,0.6902151107788086,-6.520417213439941,3.7657976150512695
86,165708,165709,0.07334773242473602,0.06928914785385132,1.0120307207107544,28.171222686767578,-50.55191421508789,-7.07658052444458,1.192440390586853,1.726413607597351,2.7793610095977783,1.0827304124832153,-6.305771827697754,3.764098644256592
87,165718,165719,0.09683416038751602,0.06124113127589226,0.995404064655304,48.81024169921875,-39.52283477783203,-4.8294901847839355,1.1864407062530518,1.7234138250350952,2.788360595703125,1.622860074043274,-5.819439888000488,3.6692662239074707
88,165728,165729,0.06593195348978043,0.04743162542581558,1.0203019380569458,69.29054260253906,-16.827842712402344,-0.6585310697555542,1.208939552307129,1.7189140319824219,2.753862142562866,1.8183584213256836,-5.205027103424072,3.7347514629364014
89,165738,165739,0.012525158002972603,-0.07992079108953476,0.9757048487663269,79.55944061279297,3.349916696548462,0.5324539542198181,1.192440390586853,1.7114144563674927,2.7793610095977783,1.8755954504013062,-4.253686904907227,3.714313507080078
90,165748,165749,-0.02329925447702408,-0.17994002997875214,0.9014299511909485,75.27027893066406,22.813974380493164,-0.6904468536376953,1.2014398574829102,1.7324132919311523,2.8063595294952393,1.7022954225540161,-3.7323570251464844,3.849344491958618
91,165758,165759,-0.0804605633020401,-0.20210707187652588,0.8695626258850098,60.55299377441406,38.739418029785156,-5.860203742980957,1.2104394435882568,1.7354131937026978,2.8033597469329834,1.2594311237335205,-2.8445065021514893,3.885662317276001
92,165768,165769,-0.0965922549366951,-0.1967017650604248,0.8432905077934265,40.478031158447266,44.826602935791016,-10.801817893981934,1.1894404888153076,1.7204139232635498,2.7943601608276367,0.7740235924720764,-2.380009651184082,3.8817477226257324
93,165778,165779,-0.05715659260749817,-0.11989907920360565,0.862419843673706,16.63565444946289,38.640830993652344,-14.761954307556152,1.193940281867981,1.7309134006500244,2.813859224319458,0.27515721321105957,-2.122187852859497,3.815279006958008
94,165788,165789,-0.03951091319322586,-0.03238017484545708,0.8827793598175049,-5.087345123291016,23.71544075012207,-17.048315048217773,1.1879405975341797,1.7519123554229736,2.8228588104248047,0.07735339552164078,-2.0950562953948975,3.5918772220611572
95,165798,165799,0.013939321972429752,0.02818865329027176,0.9486989974975586,-16.371774673461914,6.441872596740723,-17.585439682006836,1.192440390586853,1.7474125623703003,2.8303585052490234,-0.006805436220020056,-2.2503321170806885,3.385528326034546
96,165808,165809,0.0707138180732727,0.002947623375803232,0.9790911674499512,-17.686634063720703,-9.352096557617188,-16.818574905395508,1.177441120147705,1.7684115171432495,2.8513574600219727,-0.02916133403778076,-2.3186421394348145,3.1891908645629883
97,165818,165819,0.0986669659614563,-0.0729551613330841,1.004611849784851,-9.74402141571045,-21.120197296142578,-15.514009475708008,1.1864407062530518,1.7144142389297485,2.788360595703125,0.2524864673614502,-2.480281352996826,2.970690965652466
98,165828,165829,0.09168607741594315,-0.1376558393239975,1.0007803440093994,-0.9533035755157471,-26.143922805786133,-14.243430137634277,1.1894404888153076,1.717414140701294,2.788360595703125,0.3963927924633026,-2.444035768508911,2.8400797843933105
99,165838,165839,0.1268698126077652,-0.1283596307039261,0.9872711896896362,7.5745439529418945,-25.723506927490234,-14.428030014038086,1.1999399662017822,1.7129143476486206,2.789860486984253,0.7339681386947632,-2.4034833908081055,2.679786443710327
100,165848,165849,0.07495462894439697,-0.13033831119537354,0.9444820284843445,7.626068115234375,-18.75477409362793,-12.734646797180176,1.2029398679733276,1.6829158067703247,2.765861749649048,1.0251320600509644,-2.209177017211914,2.5122952461242676
101,165858,165859,0.022764170542359352,-0.09184527397155762,0.9405063390731812,2.3465027809143066,-10.084412574768066,-10.590014457702637,1.2029398679733276,1.6919153928756714,2.765861749649048,1.2416956424713135,-2.185940980911255,2.3944854736328125
102,165868,165869,0.026019873097538948,-0.023456472903490067,0.9471836686134338,-7.420361518859863,-5.809163570404053,-8.528542518615723,1.1894404888153076,1.702414870262146,2.7703614234924316,1.3326493501663208,-2.2615761756896973,2.321323871612549
103,165878,165879,0.009368132799863815,-0.03543037548661232,0.9529857039451599,-10.838748931884766,-3.0435123443603516,-7.621409893035889,1.1849406957626343,1.700914978981018,2.7778611183166504,1.3562194108963013,-2.187962532043457,2.2131237983703613
104,165888,165889,0.04065515846014023,-0.0481971837580204,0.9624581933021545,-13.591208457946777,-1.3743668794631958,-7.807586193084717,1.1894404888153076,1.702414870262146,2.7763612270355225,1.4014664888381958,-2.2400081157684326,2.1189911365509033
105,165898,165899,0.01931340992450714,-0.041668396443128586,0.9583563208580017,-11.70051383972168,-1.5280433893203735,-7.7367167472839355,1.192440390586853,1.717414140701294,2.78536057472229,1.4316918849945068,-2.389678478240967,2.0427236557006836
106,165908,165909,0.010081485845148563,-0.02167394943535328,0.9481770396232605,-9.32972526550293,2.8680291175842285,-7.992655277252197,1.1714414358139038,1.7144142389297485,2.7943601608276367,1.2992255687713623,-2.3506710529327393,1.9571455717086792
107,165918,165919,0.018416356295347214,0.006180063355714083,0.9353154897689819,-5.845210075378418,6.680917263031006,-7.465808868408203,1.1729413270950317,1.7219138145446777,2.8288586139678955,1.2346954345703125,-2.4063661098480225,1.874950647354126
108,165928,165929,-0.0176077913492918,0.049112237989902496,0.9594641327857971,-3.64949369430542,9.71030044555664,-7.626497268676758,1.1819409132003784,1.7369130849838257,2.819859027862549,1.2590347528457642,-2.4844088554382324,1.7872930765151978
109,165938,165939,-0.1109083890914917,0.04779106006026268,1.0021737813949585,-2.893721342086792,10.488123893737793,-7.271418571472168,1.1834408044815063,1.7534122467041016,2.836358070373535,1.1779696941375732,-2.540149688720703,1.7101813554763794
110,165948,165949,-0.14824627339839935,0.021164827048778534,1.0396018028259277,-3.1694047451019287,9.83902359008789,-6.059092044830322,1.180440902709961,1.7204139232635498,2.8213589191436768,1.1002204418182373,-2.656381130218506,1.6557838916778564
111,165958,165959,-0.10286685079336166,-0.008310753852128983,1.04702627658844,-1.917028546333313,9.453299522399902,-5.104330539703369,1.1819409132003784,1.7309134006500244,2.8258585929870605,1.0288162231445312,-2.4826109409332275,1.5402578115463257
112,165968,165969,-0.06584097445011139,-0.027767959982156754,1.056981086730957,-0.23389264941215515,8.667198181152344,-3.8425326347351074,1.1729413270950317,1.7339133024215698,2.813859224319458,0.9605486392974854,-2.5015649795532227,1.4871737957000732
113,165978,165979,-0.04913528263568878,-0.03371994569897652,1.066989541053772,0.000635789125226438,8.02734661102295,-3.0569827556610107,1.192440390586853,1.7354131937026978,2.815359115600586,0.9702987670898438,-2.4997901916503906,1.4364254474639893
114,165988,165989,-0.0005931012565270066,-0.022929098457098007,1.0561058521270752,0.638409435749054,9.811602592468262,-1.8747897148132324,1.192440390586853,1.7204139232635498,2.8063595294952393,0.7531468272209167,-2.483863353729248,1.415651559829712
115,165998,165999,0.04960997775197029,-0.02141956053674221,1.0126935243606567,1.9369299411773682,15.088940620422363,-0.7074037194252014,1.192440390586853,1.7204139232635498,2.8033597469329834,0.6317721605300903,-2.455136299133301,1.3928486108779907
116,166008,166009,0.07667066156864166,-0.01273152232170105,0.9762462973594666,4.238724231719971,18.496875762939453,-0.16005073487758636,1.1849406957626343,1.7219138145446777,2.7958600521087646,0.42973676323890686,-2.3235998153686523,1.3606455326080322
117,166018,166019,0.08024019002914429,0.01872682012617588,0.9791062474250793,3.3445749282836914,19.740320205688477,0.4888661801815033,1.1669416427612305,1.7249137163162231,2.8048596382141113,0.252579927444458,-2.181533098220825,1.3318417072296143
118,166028,166029,0.03653065860271454,0.013790780678391457,0.9949612021446228,2.4377002716064453,14.229836463928223,0.7652014493942261,1.1834408044815063,1.7234138250350952,2.791360378265381,0.02056032046675682,-2.2047476768493652,1.343459129333496
119,166038,166039,0.04027194157242775,0.02123454585671425,0.9942203760147095,-0.6234707236289978,10.020624160766602,0.8533080816268921,1.1984400749206543,1.7354131937026978,2.8033597469329834,0.09517329186201096,-2.1060385704040527,1.319948434829712
120,166048,166049,0.07447177916765213,0.040002573281526566,0.9641884565353394,-4.068075180053711,3.6583659648895264,0.9395127892494202,1.180440902709961,1.7054146528244019,2.782360792160034,-0.03831113129854202,-2.0604913234710693,1.3186707496643066
121,166058,166059,0.07980041205883026,0.020791148766875267,0.9379732608795166,-6.067131519317627,-2.234347343444824,1.320902705192566,1.192440390586853,1.7144142389297485,2.788360595703125,-0.07376089692115784,-2.2015573978424072,1.3437645435333252
122,166068,166069,0.04151894897222519,-0.001249387743882835,0.9605076909065247,-6.39378547668457,-8.598641395568848,1.0357483625411987,1.1744412183761597,1.7084145545959473,2.764361619949341,-0.013031539507210255,-2.227778434753418,1.3513330221176147
123,166078,166079,0.03617110103368759,-0.02746139094233513,0.9407680034637451,-3.961893081665039,-12.151204109191895,1.5730221271514893,1.1819409132003784,1.6979150772094727,2.7688615322113037,0.06686718761920929,-2.239788770675659,1.3610535860061646
124,166088,166089,0.04996852949261665,-0.05779550224542618,0.8931021094322205,0.42052748799324036,-13.500096321105957,1.764316201210022,1.192440390586853,1.717414140701294,2.764361619949341,0.25606396794319153,-2.331990957260132,1.3891171216964722
125,166098,166099,0.03867245092988014,-0.013366925530135632,0.9546301960945129,4.426360130310059,-9.985482215881348,1.916198968887329,1.1894404888153076,1.7054146528244019,2.767361640930176,0.30040937662124634,-2.276846170425415,1.4086737632751465
126,166108,166109,-9.180490451399237e-05,0.00972120650112629,0.9938473105430603,7.00040340423584,-4.909772872924805,2.122278928756714,1.1909403800964355,1.7159141302108765,2.7808609008789062,0.22659650444984436,-2.172855854034424,1.427714228630066
127,166118,166119,-0.0018769738962873816,-0.0143121387809515,0.9702568054199219,9.243696212768555,-3.240114688873291,1.5743088722229004,1.1819409132003784,1.7249137163162231,2.792860269546509,0.2946334779262543,-2.0319602489471436,1.4414911270141602
128,166128,166129,0.017614474520087242,-0.027979332953691483,0.9624115228652954,10.187088012695312,2.0272157192230225,1.079964280128479,1.1759412288665771,1.7279136180877686,2.8048596382141113,0.3182123601436615,-1.924983263015747,1.454512596130371
129,166138,166139,0.0005954794469289482,-0.03147837892174721,0.9810253381729126,8.59128475189209,3.801635980606079,0.6217434406280518,1.1759412288665771,1.7309134006500244,2.8078596591949463,0.28352442383766174,-1.751799464225769,1.4569789171218872
130,166148,166149,0.00013592706818599254,-0.015073838643729687,0.9953016638755798,4.422539234161377,3.9239306449890137,-0.5524172186851501,1.180440902709961,1.7234138250350952,2.78536057472229,0.22786374390125275,-1.6254090070724487,1.4554893970489502
131,166158,166159,-0.0030849806498736143,-0.028073370456695557,0.9758642911911011,-1.0117899179458618,2.998335361480713,-0.7963247299194336,1.1744412183761597,1.7114144563674927,2.788360595703125,0.17186658084392548,-1.6377462148666382,1.4523437023162842
132,166168,166169,0.00427323579788208,-0.036931440234184265,0.9634422659873962,-6.8337812423706055,2.3028600215911865,-1.3851940631866455,1.177441120147705,1.7204139232635498,2.788360595703125,0.13320691883563995,-1.6066575050354004,1.4377511739730835
133,166178,166179,0.01676994189620018,-0.03332681581377983,0.9585253000259399,-9.71109676361084,1.3972830772399902,-1.6103421449661255,1.1819409132003784,1.6799160242080688,2.738862991333008,0.10289314389228821,-1.722743272781372,1.4245141744613647
134,166188,166189,0.0199973676353693,-0.022062616422772408,0.9642821550369263,-9.3826322555542,-0.08210141956806183,-1.884129285812378,1.1969401836395264,1.688915491104126,2.756862163543701,0.158720001578331,-1.7952107191085815,1.41053307056427
135,166198,166199,0.024480680003762245,-0.01385414320975542,0.9625201225280762,-5.347141265869141,-0.5607833862304688,-1.661291241645813,1.177441120147705,1.6844156980514526,2.713364362716675,0.15723223984241486,-1.9100687503814697,1.3938814401626587
136,166208,166209,0.025730982422828674,-0.004330812022089958,0.950616717338562,-2.2548904418945312,2.8765432834625244,-1.2845284938812256,1.1759412288665771,1.673916220664978,2.7178640365600586,0.21581293642520905,-1.8207138776779175,1.3756839036941528
137,166218,166219,0.024697739630937576,-0.006279474124312401,0.9510215520858765,1.6856781244277954,3.2025973796844482,-0.9372283816337585,1.177441120147705,1.6904155015945435,2.7553622722625732,0.15517230331897736,-1.8102047443389893,1.359295129776001
138,166228,166229,0.046176619827747345,0.03599543869495392,0.9369698166847229,3.0411860942840576,3.7799391746520996,-0.570041835308075,1.1744412183761597,1.6904155015945435,2.7523622512817383,0.16223418712615967,-1.8214211463928223,1.354804277420044
139,166238,166239,0.09574943035840988,0.09503617882728577,0.9198411703109741,0.17167595028877258,3.2502965927124023,-0.208837628364563,1.192440390586853,1.6904155015945435,2.758362054824829,0.08455639332532883,-1.6922376155853271,1.3421549797058105
140,166248,166249,0.10994356125593185,0.10812067985534668,0.9193560481071472,-4.153757095336914,2.000653028488159,-0.3187697231769562,1.1849406957626343,1.7159141302108765,2.7778611183166504,0.02231443300843239,-1.6230356693267822,1.3342249393463135
141,166258,166259,0.09877297282218933,0.0908338725566864,0.9150074124336243,-8.07866096496582,0.2996180057525635,-0.4152754843235016,1.1849406957626343,1.7279136180877686,2.783860683441162,-0.01221251767128706,-1.6314350366592407,1.3271883726119995
142,166268,166269,0.056432612240314484,0.030147120356559753,0.9220728278160095,-10.794849395751953,1.8175828456878662,-0.8159384727478027,1.180440902709961,1.7204139232635498,2.791360378265381,-0.022127646952867508,-1.7052055597305298,1.320621132850647
143,166278,166279,0.007138039451092482,-0.03295633941888809,0.9119850993156433,-11.715621948242188,1.8167144060134888,-1.4804725646972656,1.1864407062530518,1.7114144563674927,2.78536057472229,0.02343244105577469,-1.9526673555374146,1.3183611631393433
144,166288,166289,-0.01638958416879177,-0.05092541500926018,0.932495653629303,-11.773801803588867,2.458829402923584,-2.5177483558654785,1.1819409132003784,1.7249137163162231,2.792860269546509,-0.01205828320235014,-2.0577239990234375,1.298614501953125
145,166298,166299,-0.007304487284272909,-0.05661942437291145,0.9463777542114258,-7.717939853668213,4.568577766418457,-3.0439417362213135,1.1744412183761597,1.7144142389297485,2.8003599643707275,0.007653083186596632,-2.125018835067749,1.2756799459457397
146,166308,166309,0.02251218818128109,-0.018343215808272362,0.9324602484703064,-3.51434326171875,6.375511169433594,-3.5408198833465576,1.1654417514801025,1.7294135093688965,2.8003599643707275,-0.08476343005895615,-2.063900947570801,1.2377395629882812
147,166318,166319,0.03906824439764023,-0.033190399408340454,0.9242075085639954,-0.11012976616621017,9.232586860656738,-3.4087297916412354,1.177441120147705,1.7114144563674927,2.7943601608276367,-0.2073664665222168,-2.0863196849823,1.1951552629470825
148,166328,166329,0.021069545298814774,-0.061090610921382904,0.9260480403900146,1.1550477743148804,7.731785774230957,-3.1549859046936035,1.192440390586853,1.7294135093688965,2.791360378265381,-0.29141849279403687,-2.1275596618652344,1.1582963466644287
149,166338,166339,0.03153492137789726,-0.03261886164546013,0.9329515695571899,-0.279897004365921,6.408705711364746,-3.0228540897369385,1.1699414253234863,1.7189140319824219,2.789860486984253,-0.4068279564380646,-1.9537636041641235,1.123399019241333
150,166348,166349,0.06890533119440079,-0.05605962127447128,0.9248001575469971,-2.658541440963745,3.0083301067352295,-2.6290030479431152,1.1864407062530518,1.726413607597351,2.815359115600586,-0.4327561855316162,-2.0319228172302246,1.094786524772644
151,166358,166359,0.08993466198444366,-0.06348110735416412,0.93288254737854,-4.609785556793213,-1.4759174585342407,-2.5451955795288086,1.1909403800964355,1.7219138145446777,2.8288586139678955,-0.4625324308872223,-1.9915833473205566,1.0689629316329956
152,166368,166369,0.10449624806642532,-0.06445769965648651,0.9505011439323425,-7.270009994506836,-5.304965019226074,-2.2453231811523438,1.1684415340423584,1.7324132919311523,2.8243587017059326,-0.4215317964553833,-1.9957126379013062,1.0481218099594116
153,166378,166379,0.1173260360956192,-0.0603911429643631,0.9714068174362183,-9.39434814453125,-8.262904167175293,-2.124366044998169,1.1759412288665771,1.7309134006500244,2.8258585929870605,-0.32383570075035095,-2.115583658218384,1.0284689664840698
154,166388,166389,0.10533995181322098,-0.055877555161714554,1.0035351514816284,-11.206058502197266,-9.91199779510498,-2.090149402618408,1.1819409132003784,1.7369130849838257,2.8288586139678955,-0.2572343945503235,-2.268948793411255,1.0062825679779053
155,166398,166399,0.04413947835564613,-0.07646973431110382,1.0406314134597778,-11.838080406188965,-10.045574188232422,-2.2152345180511475,1.1759412288665771,1.757912039756775,2.837857961654663,-0.1656440943479538,-2.360743522644043,0.9899168610572815
156,166408,166409,-0.038131628185510635,-0.11253798007965088,1.0607936382293701,-7.900027275085449,-9.848382949829102,-2.0960075855255127,1.1894404888153076,1.756412148475647,2.8483574390411377,0.0030596349388360977,-2.3710837364196777,0.981798529624939
157,166418,166419,-0.046874336898326874,-0.05846725031733513,1.0426750183105469,-2.4612479209899902,-9.163384437561035,-2.238560676574707,1.1654417514801025,1.7684115171432495,2.8543572425842285,0.0842578262090683,-2.4449563026428223,0.9637277722358704
158,166428,166429,-0.04294585436582565,0.0682055875658989,1.03207266330719,4.392248630523682,-6.4341654777526855,-2.3246021270751953,1.1684415340423584,1.771411418914795,2.8513574600219727,0.16765481233596802,-2.364365577697754,0.9466443061828613
159,166438,166439,-0.06980884820222855,0.0006931082461960614,1.0469481945037842,10.196857452392578,-3.2340199947357178,-2.71993350982666,1.1894404888153076,1.7444127798080444,2.815359115600586,0.26154565811157227,-2.3029379844665527,0.9268156290054321
160,166448,166449,-0.04333052411675453,-0.04462047293782234,1.018642783164978,15.56890869140625,0.10126703232526779,-2.8764946460723877,1.177441120147705,1.7354131937026978,2.8063595294952393,0.29255202412605286,-2.146228551864624,0.9017150402069092
161,166458,166459,0.02907719835639,-0.03436217084527016,1.0261914730072021,17.91890525817871,7.81646203994751,-2.462538480758667,1.177441120147705,1.7234138250350952,2.7943601608276367,0.24406050145626068,-1.9239572286605835,0.8732690215110779
162,166468,166469,0.05894649028778076,-0.07414716482162476,1.0100109577178955,19.10888671875,14.228448867797852,-1.575911521911621,1.178941011428833,1.7129143476486206,2.7748610973358154,0.0030108881182968616,-1.6645185947418213,0.8420349359512329
163,166478,166479,0.04027663171291351,-0.08281377702951431,0.9919795393943787,18.782663345336914,12.231654167175293,-1.2254623174667358,1.1684415340423584,1.7144142389297485,2.7763612270355225,-0.21799178421497345,-1.4050604104995728,0.8220659494400024
164,166488,166489,0.050732988864183426,-0.03743430972099304,0.9632554650306702,13.342239379882812,4.055872917175293,-2.316666603088379,1.1849406957626343,1.688915491104126,2.756862163543701,-0.25652557611465454,-1.2404545545578003,0.8087833523750305
165,166498,166499,0.060581739991903305,-0.03244763985276222,0.9325562715530396,-2.5142695903778076,10.529393196105957,-2.6894686222076416,1.1714414358139038,1.7114144563674927,2.764361619949341,-0.34929314255714417,-1.1791558265686035,0.7788019180297852
166,166508,166509,0.021599138155579567,-0.05972990766167641,0.9369696974754333,-19.11336326599121,14.995389938354492,-3.0414977073669434,1.1669416427612305,1.700914978981018,2.7808609008789062,-0.4852742552757263,-1.3779323101043701,0.7412441968917847
167,166518,166519,6.698812649119645e-05,-0.05084758996963501,0.952465295791626,-30.98271942138672,15.876008033752441,-3.7821426391601562,1.1744412183761597,1.7234138250350952,2.7793610095977783,-0.664801299571991,-1.7343535423278809,0.6951201558113098
168,166528,166529,0.09928110241889954,-0.022295629605650902,1.0072256326675415,-37.157596588134766,16.586824417114258,-4.743725776672363,1.1864407062530518,1.726413607597351,2.7943601608276367,-0.8374465107917786,-2.165487766265869,0.6423061490058899
169,166538,166539,0.20935501158237457,-0.023439567536115646,1.0522876977920532,-39.25107192993164,11.846461296081543,-6.059269428253174,1.1714414358139038,1.7294135093688965,2.809359550476074,-0.9957069754600525,-2.384464979171753,0.5966010093688965
170,166548,166549,0.19107316434383392,-0.023807676509022713,1.0411677360534668,-34.94626998901367,0.8586204648017883,-6.33868408203125,1.1669416427612305,1.7489125728607178,2.810859441757202,-1.0465075969696045,-2.8831288814544678,0.5248005390167236
171,166558,166559,0.07287295162677765,-0.031001638621091843,1.0054373741149902,-18.611478805541992,-19.891313552856445,-7.017275333404541,1.1669416427612305,1.739912986755371,2.7988600730895996,-0.9340851902961731,-3.0356216430664062,0.4847477376461029
172,166568,166569,0.019466279074549675,0.022550173103809357,1.0284676551818848,7.537623405456543,-34.570152282714844,-7.123376369476318,1.1864407062530518,1.7324132919311523,2.8033597469329834,-0.5800278186798096,-3.156121015548706,0.43668004870414734
173,166578,166579,0.022701192647218704,0.026148822158575058,1.0264959335327148,34.97775650024414,-43.913169860839844,-6.383749961853027,1.1879405975341797,1.6949151754379272,2.7688615322113037,-0.3592536747455597,-2.8895843029022217,0.3924684524536133
174,166588,166589,0.04322182387113571,-0.05814753472805023,0.9996012449264526,56.073055267333984,-31.990154266357422,-5.311481952667236,1.1894404888153076,1.7054146528244019,2.7793610095977783,0.09377437084913254,-2.320680856704712,0.3678510785102844
175,166598,166599,0.053850241005420685,-0.13789965212345123,0.9751906394958496,59.70037078857422,-14.761541366577148,-6.782627582550049,1.1894404888153076,1.702414870262146,2.7973601818084717,0.234357088804245,-1.9094979763031006,0.30400198698043823
176,166608,166609,-0.0035649414639919996,-0.1468590646982193,0.921035885810852,50.09171676635742,-0.5310020446777344,-9.073526382446289,1.1864407062530518,1.7114144563674927,2.809359550476074,0.3326859772205353,-1.1400309801101685,0.24896569550037384
177,166618,166619,0.047335848212242126,-0.022069213911890984,0.9088950157165527,25.092397689819336,4.982378959655762,-12.083939552307129,1.180440902709961,1.7114144563674927,2.7973601818084717,0.31354066729545593,-0.8542965054512024,0.13816796243190765
178,166628,166629,0.004568757489323616,0.0008642524480819702,0.9098795056343079,-7.896676540374756,2.0911426544189453,-13.173081398010254,1.177441120147705,1.7114144563674927,2.7703614234924316,0.25051677227020264,-0.7346786856651306,0.010173789225518703
179,166638,166639,-0.007139585446566343,-0.032712601125240326,0.9189671874046326,-30.63387107849121,-10.810784339904785,-12.805221557617188,1.1909403800964355,1.7189140319824219,2.789860486984253,0.31038522720336914,-1.014089822769165,-0.12664112448692322
180,166648,166649,0.0014166563050821424,0.000732805288862437,0.9254310131072998,-43.57786178588867,-28.661043167114258,-12.641321182250977,1.1849406957626343,1.7099144458770752,2.783860683441162,0.614797055721283,-1.463108777999878,-0.24426649510860443
181,166658,166659,-0.027928713709115982,0.02410288341343403,0.9234814047813416,-44.58631896972656,-41.84314727783203,-13.054579734802246,1.1879405975341797,1.7249137163162231,2.813859224319458,1.0473105907440186,-1.9750398397445679,-0.35610899329185486
182,166668,166669,-0.0987359955906868,0.019499873742461205,0.9632025361061096,-33.84141540527344,-40.37439727783203,-12.476412773132324,1.178941011428833,1.7309134006500244,2.813859224319458,1.3269331455230713,-2.272592067718506,-0.4804961383342743
183,166678,166679,-0.09004013985395432,-0.00756757240742445,0.9980159997940063,-19.015361785888672,-24.658069610595703,-12.183682441711426,1.177441120147705,1.7444127798080444,2.815359115600586,1.8519634008407593,-2.51717209815979,-0.577788233757019
184,166688,166689,-0.016710380092263222,-0.014067561365664005,0.988692045211792,-4.3690104484558105,-4.187448978424072,-10.424917221069336,1.1834408044815063,1.7534122467041016,2.8213589191436768,1.869515299797058,-2.5921709537506104,-0.7053994536399841
185,166698,166699,-0.007131919730454683,-0.0015498797874897718,1.0087881088256836,8.875112533569336,18.626073837280273,-9.555693626403809,1.1744412183761597,1.7324132919311523,2.81235933303833,1.6772719621658325,-2.5770490169525146,-0.8213399052619934
186,166708,166709,0.004907721653580666,0.016121935099363327,0.9822416305541992,20.973865509033203,34.83883285522461,-8.672049522399902,1.1729413270950317,1.7459126710891724,2.816859006881714,1.430922508239746,-2.3510234355926514,-0.9332156181335449
187,166718,166719,0.005163708236068487,-0.019506322219967842,0.9412078261375427,32.40277862548828,42.675636291503906,-8.180750846862793,1.1654417514801025,1.7444127798080444,2.8273584842681885,0.8909710645675659,-1.9262995719909668,-1.0557397603988647
188,166728,166729,0.011218618601560593,-0.03117992915213108,0.9675182104110718,38.77370834350586,40.662967681884766,-7.9420318603515625,1.1669416427612305,1.7519123554229736,2.8318583965301514,0.5795307755470276,-1.5758509635925293,-1.1475844383239746
189,166738,166739,0.026473194360733032,-0.042027950286865234,1.0160962343215942,36.6545524597168,30.458093643188477,-7.746142387390137,1.1714414358139038,1.7384130954742432,2.83935809135437,0.2868803143501282,-1.2445329427719116,-1.2271326780319214
190,166748,166749,-0.03554260730743408,-0.13779067993164062,1.0023136138916016,24.061885833740234,14.382136344909668,-6.657756328582764,1.163941740989685,1.7369130849838257,2.816859006881714,0.20611189305782318,-1.0080984830856323,-1.2897815704345703
191,166758,166759,-0.014425142668187618,-0.02693140134215355,1.0367933511734009,4.399251461029053,-2.6326541900634766,-4.945850849151611,1.1654417514801025,1.7294135093688965,2.8063595294952393,0.09831517189741135,-0.7477241158485413,-1.3588078022003174
192,166768,166769,0.02670571580529213,0.054077085107564926,1.0204609632492065,-11.863877296447754,-14.37874984741211,-4.040582180023193,1.1759412288665771,1.7279136180877686,2.819859027862549,0.2962784469127655,-0.791778564453125,-1.390903115272522
193,166778,166779,0.023667700588703156,0.05182279273867607,0.9920242428779602,-22.71224594116211,-19.088672637939453,-4.528693199157715,1.1729413270950317,1.703914761543274,2.7748610973358154,0.5479030013084412,-1.0563708543777466,-1.4126704931259155
194,166788,166789,0.04753332585096359,0.034145183861255646,1.0009765625,-23.965993881225586,-19.02861785888672,-5.291574001312256,1.1819409132003784,1.700914978981018,2.7718613147735596,0.6935341954231262,-1.3595811128616333,-1.4552489519119263
195,166798,166799,0.08975923806428909,0.032052505761384964,1.0148059129714966,-16.624099731445312,-14.491034507751465,-5.691983222961426,1.192440390586853,1.7084145545959473,2.7703614234924316,0.8767496347427368,-1.692754864692688,-1.4957102537155151
196,166808,166809,0.05129896104335785,0.02700059860944748,1.0509289503097534,-3.5603160858154297,-5.526150226593018,-8.216015815734863,1.177441120147705,1.7504124641418457,2.8303585052490234,0.9698494672775269,-1.6439539194107056,-1.5711393356323242
197,166818,166819,0.022471891716122627,0.0272421482950449,1.0419217348098755,9.724165916442871,2.798179864883423,-10.694435119628906,1.178941011428833,1.7489125728607178,2.816859006881714,0.8595165014266968,-1.5855244398117065,-1.6816644668579102
198,166828,166829,0.04621743783354759,0.058336108922958374,1.0282175540924072,16.92600440979004,12.730789184570312,-11.16628360748291,1.180440902709961,1.7204139232635498,2.809359550476074,0.812119722366333,-1.5045921802520752,-1.7858455181121826
199,166838,166839,0.06845857948064804,0.06742402911186218,1.087869644165039,30.12742805480957,24.94664192199707,-14.289188385009766,1.1879405975341797,1.769911527633667,2.8558571338653564,0.5125038027763367,-1.258841633796692,-1.9276131391525269
200,166848,166849,0.02773025631904602,0.04416154325008392,1.1254761219024658,45.79965591430664,32.95649337768555,-17.333393096923828,1.1714414358139038,1.7684115171432495,2.869356393814087,0.3966037631034851,-0.7197777032852173,-2.0854763984680176
201,166858,166859,-0.032998643815517426,0.003042742144316435,1.096868634223938,56.55934524536133,26.726388931274414,-20.609418869018555,1.1729413270950317,1.769911527633667,2.897855043411255,-0.1074262335896492,-0.16501235961914062,-2.294651508331299
202,166868,166869,-0.052788954228162766,-0.05655989423394203,1.0699714422225952,50.99395751953125,16.837343215942383,-24.470218658447266,1.1729413270950317,1.769911527633667,2.87385630607605,-0.25632181763648987,0.24013067781925201,-2.486656665802002
203,166878,166879,-0.031227178871631622,-0.10685238987207413,1.023330807685852,30.465246200561523,3.6637840270996094,-27.569091796875,1.1624418497085571,1.7444127798080444,2.8483574390411377,-0.2976796627044678,0.5910928845405579,-2.716808319091797
204,166888,166889,0.020122328773140907,-0.09399507194757462,1.0338035821914673,3.287492036819458,-9.293978691101074,-30.81544303894043,1.1714414358139038,1.7324132919311523,2.8213589191436768,-0.2089349329471588,0.7828724980354309,-2.981339931488037
205,166898,166899,0.07946125417947769,-0.030688118189573288,1.0751155614852905,-18.984905242919922,-25.035449981689453,-34.218963623046875,1.1609419584274292,1.7189140319824219,2.810859441757202,0.09410200268030167,0.7007067203521729,-3.261075735092163
206,166908,166909,0.05436168611049652,0.022304560989141464,1.0523159503936768,-32.070858001708984,-34.557735443115234,-38.286590576171875,1.1714414358139038,1.717414140701294,2.8063595294952393,0.4684738516807556,0.3920515775680542,-3.588805675506592
207,166918,166919,-0.022763529792428017,0.00821780413389206,1.0201354026794434,-35.4558219909668,-33.66238784790039,-40.12810134887695,1.1714414358139038,1.7294135093688965,2.8213589191436768,0.7769497632980347,0.025167420506477356,-3.9834718704223633
208,166928,166929,-0.075261689722538,-0.003124876646324992,0.99668288230896,-42.4350471496582,-22.285655975341797,-40.16804885864258,1.1759412288665771,1.7219138145446777,2.813859224319458,0.9624760746955872,-0.48969465494155884,-4.4129638671875
209,166938,166939,-0.08446770906448364,-0.05012116581201553,1.0073648691177368,-47.01856994628906,-1.223773717880249,-38.73008346557617,1.1684415340423584,1.7144142389297485,2.788360595703125,1.1697018146514893,-1.0345908403396606,-4.797446250915527
210,166948,166949,-0.014941560104489326,-0.026602717116475105,1.0204955339431763,-40.017578125,13.946474075317383,-36.56423568725586,1.1714414358139038,1.7204139232635498,2.791360378265381,1.0897094011306763,-1.1524487733840942,-5.220396041870117
211,166958,166959,0.052307482808828354,0.010640298016369343,1.0526372194290161,-18.593549728393555,29.25581169128418,-30.482149124145508,1.1594419479370117,1.7054146528244019,2.767361640930176,0.8815011978149414,-1.5548925399780273,-5.58354377746582
212,166968,166969,0.06828068196773529,0.05672163888812065,0.9866447448730469,6.453152656555176,41.317909240722656,-22.131242752075195,1.1759412288665771,1.6919153928756714,2.738862991333008,0.5105827450752258,-1.583371639251709,-5.894952774047852
213,166978,166979,0.027670303359627724,0.03408931940793991,0.9790218472480774,31.068946838378906,48.65517807006836,-15.546191215515137,1.1624418497085571,1.6784160137176514,2.7463626861572266,0.04979760944843292,-1.2781188488006592,-6.127597808837891
214,166988,166989,-0.0015655690804123878,-0.01347985677421093,0.9693499803543091,48.83868408203125,49.165313720703125,-10.15127182006836,1.1744412183761597,1.6814159154891968,2.73736310005188,-0.47650519013404846,-0.8361169695854187,-6.290982723236084
215,166998,166999,-0.016152987256646156,-0.031204521656036377,0.9521006941795349,52.914161682128906,46.627201080322266,-6.032497406005859,1.1429427862167358,1.6919153928756714,2.756862163543701,-0.9204695224761963,-0.33824649453163147,-6.378526210784912
216,167008,167009,0.029451409354805946,-0.0020498798694461584,0.9526839852333069,43.70726776123047,38.11922836303711,-2.6955368518829346,1.1429427862167358,1.688915491104126,2.7508623600006104,-1.4382355213165283,0.27736490964889526,-6.4449381828308105
217,167018,167019,0.034777186810970306,-0.020641079172492027,0.9786084890365601,30.062931060791016,29.091665267944336,0.8452937006950378,1.1564421653747559,1.6754162311553955,2.7463626861572266,-1.5275027751922607,0.4183405935764313,-6.408961772918701
218,167028,167029,0.002418586751446128,-0.03466157987713814,0.927009105682373,11.396926879882812,13.73270034790039,4.5744948387146,1.138443112373352,1.6664166450500488,2.73736310005188,-1.9260116815567017,0.7500923275947571,-6.418982982635498
219,167038,167039,0.02606574259698391,0.021548621356487274,0.9008954167366028,-6.846217632293701,0.6255794763565063,9.099337577819824,1.1504424810409546,1.6904155015945435,2.758362054824829,-2.0131678581237793,0.8271356821060181,-6.353157997131348
220,167048,167049,0.028965232893824577,0.026662776246666908,0.9304903745651245,-21.839229583740234,-12.596487998962402,12.548542022705078,1.1534422636032104,1.6814159154891968,2.764361619949341,-1.9567416906356812,0.5643674731254578,-6.264191150665283
221,167058,167059,0.018797237426042557,-0.014496944844722748,0.9264937043190002,-28.612529754638672,-19.59724998474121,14.039325714111328,1.1519423723220825,1.703914761543274,2.786860704421997,-1.7231817245483398,0.268124520778656,-6.119168281555176
222,167068,167069,0.02241440862417221,-0.03023141622543335,0.9172987341880798,-26.887928009033203,-24.530292510986328,15.339240074157715,1.1624418497085571,1.7204139232635498,2.8003599643707275,-1.3922346830368042,-0.16943545639514923,-5.96333646774292
223,167078,167079,0.011472986079752445,-0.007487625814974308,0.9587111473083496,-16.04619598388672,-23.393245697021484,16.391952514648438,1.1579420566558838,1.7159141302108765,2.813859224319458,-1.232219934463501,-0.3702531158924103,-5.824063777923584
224,167088,167089,0.002536434680223465,-0.009752083569765091,0.952612042427063,-0.23537325859069824,-18.676170349121094,17.231794357299805,1.1609419584274292,1.7249137163162231,2.819859027862549,-1.0421167612075806,-0.3523320257663727,-5.641994476318359
225,167098,167099,-0.008194897323846817,0.04202275723218918,0.959895670413971,18.380041122436523,-11.100593566894531,19.191064834594727,1.154942274093628,1.7219138145446777,2.816859006881714,-1.0114364624023438,-0.19656728208065033,-5.48475456237793
226,167108,167109,-0.027287768200039864,0.01191858109086752,0.9716969132423401,33.4571647644043,-3.4292736053466797,20.89958381652832,1.1624418497085571,1.7384130954742432,2.842357873916626,-0.9397446513175964,-0.05867961794137955,-5.312129020690918
227,167118,167119,0.001205340027809143,-0.003964759409427643,0.9633369445800781,37.501956939697266,0.11147885024547577,21.65729331970215,1.1534422636032104,1.7384130954742432,2.836358070373535,-0.909316897392273,0.40853169560432434,-5.078602313995361
228,167128,167129,0.011447915807366371,-0.027499442920088768,0.9199625253677368,33.95267868041992,-0.4790511727333069,21.493024826049805,1.1699414253234863,1.7489125728607178,2.840857982635498,-0.9302944540977478,0.9002580642700195,-4.844442367553711
229,167138,167139,0.0993993952870369,0.07868541777133942,0.9658315777778625,21.67020034790039,-5.871094226837158,21.02517318725586,1.1669416427612305,1.742912769317627,2.840857982635498,-0.8972046375274658,1.034928560256958,-4.655765533447266
230,167148,167149,0.03219999745488167,0.00620233453810215,0.9881966710090637,4.154175758361816,-12.882741928100586,20.77823257446289,1.154942274093628,1.7309134006500244,2.8228588104248047,-0.7349404096603394,1.2873677015304565,-4.409811019897461
231,167158,167159,0.014522693119943142,-0.0532454252243042,1.0043901205062866,-14.461854934692383,-23.103811264038086,19.800987243652344,1.1624418497085571,1.7384130954742432,2.8543572425842285,-0.5118111968040466,1.105204701423645,-4.223231315612793
232,167168,167169,-0.03341085463762283,-0.05995180085301399,0.9903786778450012,-24.06435775756836,-27.273094177246094,18.758630752563477,1.1684415340423584,1.7474125623703003,2.8603570461273193,-0.3259694576263428,0.9024761319160461,-4.056804656982422
233,167178,167179,-0.05108366534113884,-0.08562551438808441,1.0093122720718384,-23.795238494873047,-26.895591735839844,18.92538070678711,1.1729413270950317,1.7459126710891724,2.864856719970703,-0.23186476528644562,0.8181077837944031,-3.911975622177124
234,167188,167189,-0.02526392787694931,-0.04017307981848717,1.0189214944839478,-17.421171188354492,-23.16183853149414,19.12198257446289,1.1669416427612305,1.757912039756775,2.8498575687408447,0.0600457563996315,0.5509824156761169,-3.723984956741333
235,167198,167199,-0.015550753101706505,-0.014073372818529606,0.9957236051559448,-4.173607349395752,-18.940248489379883,19.051578521728516,1.1819409132003784,1.757912039756775,2.870856523513794,0.3301277160644531,0.43651676177978516,-3.5075223445892334
236,167208,167209,0.0066501684486866,0.0013627931475639343,1.0599620342254639,8.011622428894043,-13.90424919128418,17.542245864868164,1.1684415340423584,1.7654117345809937,2.896355152130127,0.3997495472431183,0.4583040773868561,-3.3550403118133545
237,167218,167219,-0.04644448310136795,-0.00712372874841094,1.1110172271728516,16.566835403442383,-6.182187080383301,15.652260780334473,1.1729413270950317,1.7879105806350708,2.897855043411255,0.4711088538169861,0.6614115238189697,-3.19700288772583
238,167228,167229,-0.03556915372610092,0.0024618199095129967,1.1004918813705444,20.105548858642578,0.1624089628458023,13.973944664001465,1.1684415340423584,1.7774111032485962,2.9143543243408203,0.5667136311531067,0.9575725197792053,-3.0200934410095215
239,167238,167239,0.004702734295278788,-0.013850516639649868,1.0733473300933838,21.194103240966797,6.623778820037842,11.661194801330566,1.1759412288665771,1.7759112119674683,2.894855260848999,0.5411797165870667,0.9961498379707336,-2.9010086059570312
240,167248,167249,0.008378103375434875,-0.021771708503365517,1.0719963312149048,14.752538681030273,12.33980941772461,9.428506851196289,1.1624418497085571,1.7744112014770508,2.893355369567871,0.48254868388175964,1.1782249212265015,-2.782790184020996
241,167258,167259,-0.019417766481637955,-0.009170342236757278,1.0922425985336304,3.511709451675415,11.26103401184082,8.594062805175781,1.1744412183761597,1.7684115171432495,2.872356414794922,0.2988957166671753,1.281224250793457,-2.7123498916625977
242,167268,167269,-0.026506809517741203,-0.04720562323927879,1.0893537998199463,-4.92340087890625,6.7402119636535645,8.335492134094238,1.1654417514801025,1.7534122467041016,2.8543572425842285,0.14661172032356262,1.2908153533935547,-2.6409013271331787
243,167278,167279,-0.02845648303627968,-0.015519621782004833,1.0764453411102295,-13.780221939086914,-1.9824906587600708,7.570196628570557,1.1834408044815063,1.756412148475647,2.836358070373535,0.1098153367638588,1.1693507432937622,-2.5550332069396973
244,167288,167289,0.0074486443772912025,-0.005018112249672413,1.069316029548645,-23.860313415527344,-6.892157077789307,5.309247016906738,1.178941011428833,1.7519123554229736,2.8468575477600098,0.1913367062807083,0.9674509763717651,-2.4643588066101074
245,167298,167299,0.019159914925694466,0.01332483533769846,1.0801544189453125,-30.86992073059082,-7.970247745513916,2.206357717514038,1.1759412288665771,1.739912986755371,2.8528573513031006,0.32598575949668884,0.7489272952079773,-2.392357587814331
246,167308,167309,-0.010099985636770725,-0.01813308335840702,1.0537497997283936,-28.60959815979004,-6.855454444885254,-0.8253368735313416,1.1669416427612305,1.7219138145446777,2.786860704421997,0.46013179421424866,0.3898739516735077,-2.355449676513672
247,167318,167319,-0.02873271517455578,-0.03531283512711525,1.0414849519729614,-19.272724151611328,-5.206050395965576,-3.8118460178375244,1.163941740989685,1.7129143476486206,2.783860683441162,0.42701056599617004,0.12542912364006042,-2.406553268432617
248,167328,167329,-0.023609118536114693,-0.0508393719792366,1.0117006301879883,-1.2322509288787842,-6.234305381774902,-5.950058460235596,1.1759412288665771,1.7069146633148193,2.783860683441162,0.5241072177886963,0.008266783319413662,-2.4324049949645996
249,167338,167339,-0.0269011203199625,-0.026852741837501526,0.9968305826187134,12.224152565002441,-5.340649604797363,-6.709008693695068,1.1744412183761597,1.7084145545959473,2.767361640930176,0.6328100562095642,0.07368151843547821,-2.478078842163086
250,167348,167349,-0.020752623677253723,-0.05526398494839668,0.9535780549049377,21.769710540771484,-0.9298169612884521,-7.318624496459961,1.1729413270950317,1.700914978981018,2.7748610973358154,0.6850940585136414,0.3519960343837738,-2.5444095134735107
251,167358,167359,0.012078176252543926,-0.03421849012374878,0.9409024715423584,23.231361389160156,0.6830624341964722,-6.724179267883301,1.1729413270950317,1.703914761543274,2.7778611183166504,0.606067955493927,0.6516273021697998,-2.642738103866577
252,167368,167369,0.00012378577957861125,-0.009676816873252392,0.9509340524673462,11.044506072998047,-0.3610888719558716,-5.954713344573975,1.1654417514801025,1.7204139232635498,2.7973601818084717,0.6797606945037842,0.8753838539123535,-2.6868784427642822
253,167378,167379,-0.002041290048509836,-0.01910880021750927,0.9683765172958374,-2.6826839447021484,-0.48922669887542725,-5.814826965332031,1.1699414253234863,1.703914761543274,2.8078596591949463,0.6906336545944214,0.9622938632965088,-2.743816375732422
254,167388,167389,-0.05923015624284744,-0.05902767553925514,1.011156439781189,-21.188901901245117,-0.09798108041286469,-6.052595615386963,1.1669416427612305,1.6979150772094727,2.7958600521087646,0.7009216547012329,0.7854824066162109,-2.797476053237915
255,167398,167399,-0.06888806819915771,-0.0843949168920517,1.0120545625686646,-35.58259582519531,3.3619725704193115,-6.506314277648926,1.1849406957626343,1.6799160242080688,2.7418627738952637,0.6638651490211487,0.340778112411499,-2.8539559841156006
256,167408,167409,0.00912992563098669,0.011981059797108173,0.9759063124656677,-41.84029769897461,8.22818374633789,-5.72957181930542,1.1729413270950317,1.6949151754379272,2.7448627948760986,0.5546470880508423,0.07384535670280457,-2.9392778873443604
257,167418,167419,-0.028816845268011093,-0.014867502264678478,0.971372127532959,-38.16389846801758,6.206244945526123,-3.9230024814605713,1.1669416427612305,1.6829158067703247,2.7478625774383545,0.5702108144760132,-0.3145271837711334,-2.96539306640625
258,167428,167429,-0.00943177379667759,-0.0025844236370176077,0.9926339983940125,-28.76236343383789,1.5269131660461426,-1.7303409576416016,1.1684415340423584,1.67241632938385,2.7493624687194824,0.48807552456855774,-0.8156142830848694,-2.998750686645508
259,167438,167439,-0.0005844156257808208,-0.007888774387538433,0.9935989379882812,-11.6103515625,-5.686128616333008,1.6907023191452026,1.1834408044815063,1.6754162311553955,2.7253637313842773,0.5787172913551331,-0.9723997712135315,-2.990710973739624
260,167448,167449,-0.035394180566072464,-0.027315286919474602,0.9654049873352051,3.9407577514648438,-8.862887382507324,5.125427722930908,1.1819409132003784,1.6709164381027222,2.7208638191223145,0.6776043772697449,-0.9195302724838257,-2.969493865966797
261,167458,167459,-0.05944123864173889,-0.04017083719372749,0.9551238417625427,19.2539005279541,-9.681424140930176,8.520010948181152,1.1864407062530518,1.67241632938385,2.7223639488220215,0.8280971646308899,-0.6273138523101807,-2.916369676589966
262,167468,167469,-0.006965653970837593,-0.02082618698477745,0.949557363986969,26.80864143371582,-7.528414726257324,9.8310546875,1.1819409132003784,1.7309134006500244,2.8228588104248047,0.9503898024559021,-0.2926250100135803,-2.8341357707977295
263,167478,167479,-0.038012631237506866,-0.07802051305770874,0.9036340713500977,29.73786735534668,-4.004306316375732,10.810247421264648,1.1834408044815063,1.7294135093688965,2.842357873916626,1.0250000953674316,0.06660882383584976,-2.7408015727996826
264,167488,167489,-0.006445597857236862,-0.02693350985646248,0.9470064043998718,25.93612289428711,2.2264516353607178,11.403443336486816,1.1654417514801025,1.726413607597351,2.8273584842681885,1.0316914319992065,0.14504623413085938,-2.6131656169891357
265,167498,167499,-0.0044692689552903175,-0.012563860043883324,0.9809426665306091,13.855971336364746,10.777382850646973,11.40906810760498,1.1699414253234863,1.7339133024215698,2.8228588104248047,0.9028318524360657,0.3937322199344635,-2.514833450317383
266,167508,167509,0.017762258648872375,-0.024685237556695938,0.9630272388458252,4.2342448234558105,11.333620071411133,11.568618774414062,1.180440902709961,1.7324132919311523,2.818359136581421,0.7439400553703308,0.45842376351356506,-2.3978426456451416
267,167518,167519,0.06576059758663177,0.06429196894168854,0.9624785780906677,-6.949907302856445,9.356409072875977,12.33995532989502,1.1819409132003784,1.7369130849838257,2.8258585929870605,0.5466440916061401,0.4211118221282959,-2.2881171703338623
268,167528,167529,0.016856767237186432,-0.0051697599701583385,0.9420560002326965,-19.26106834411621,10.59255313873291,12.292771339416504,1.1729413270950317,1.7249137163162231,2.792860269546509,0.5301505327224731,0.26047995686531067,-2.145880699157715
269,167538,167539,0.007718710694462061,-0.022628022357821465,0.9678056240081787,-29.18712615966797,15.5297212600708,12.016731262207031,1.1819409132003784,1.7279136180877686,2.7958600521087646,0.46379217505455017,-0.07231001555919647,-2.004218816757202
270,167548,167549,-0.0417461097240448,-0.06564884632825851,0.9460464715957642,-30.705638885498047,21.08891487121582,11.910152435302734,1.178941011428833,1.7279136180877686,2.7988600730895996,0.2903311550617218,-0.22584201395511627,-1.90299391746521
271,167558,167559,-0.09183358401060104,-0.10323226451873779,0.9522675275802612,-23.04088592529297,22.726993560791016,11.308935165405273,1.1909403800964355,1.7189140319824219,2.765861749649048,-0.009083895944058895,-0.697257399559021,-1.7823841571807861
272,167568,167569,0.00045328817213885486,-0.02722363919019699,0.9500187039375305,-14.212672233581543,22.489656448364258,10.905997276306152,1.1654417514801025,1.7114144563674927,2.7733612060546875,-0.1162140741944313,-0.8810797929763794,-1.65585458278656
273,167578,167579,-0.0007658627000637352,-0.052663806825876236,0.907700777053833,-2.2182161808013916,18.72133445739746,9.429054260253906,1.1654417514801025,1.6994149684906006,2.758362054824829,-0.4273916482925415,-0.8287400007247925,-1.5802541971206665
274,167588,167589,0.002248522127047181,-0.048905957490205765,0.9261154532432556,9.324202537536621,16.416500091552734,7.962336540222168,1.1744412183761597,1.687415599822998,2.7523622512817383,-0.4568808376789093,-0.8038284182548523,-1.4759000539779663
275,167598,167599,-0.020773721858859062,-0.019729511812329292,0.9739323258399963,17.19066619873047,14.763106346130371,6.179047584533691,1.1729413270950317,1.6769161224365234,2.7478625774383545,-0.7926100492477417,-0.5504854321479797,-1.4300172328948975
276,167608,167609,-0.03863369673490524,0.008635193109512329,0.9863917827606201,18.08740234375,13.583495140075684,4.781362533569336,1.1594419479370117,1.687415599822998,2.7493624687194824,-0.8280521035194397,-0.2832522392272949,-1.3647468090057373
277,167618,167619,0.007409493904560804,0.005933092907071114,0.9603357315063477,12.531598091125488,11.101707458496094,3.628620147705078,1.1594419479370117,1.6904155015945435,2.7433626651763916,-0.9192336201667786,-0.185648113489151,-1.3148361444473267
278,167628,167629,-0.009119102731347084,0.04090879485011101,0.9620102047920227,-1.3123388290405273,7.6572418212890625,2.022886276245117,1.1654417514801025,1.6814159154891968,2.728363513946533,-0.8896449208259583,-0.22237835824489594,-1.2710273265838623
279,167638,167639,0.012201674282550812,0.04444098472595215,0.9191720485687256,-19.113929748535156,5.868663311004639,0.6037874221801758,1.1714414358139038,1.6664166450500488,2.7223639488220215,-1.0354139804840088,-0.30727946758270264,-1.2610160112380981
280,167648,167649,0.004214862361550331,0.02993772178888321,0.902400016784668,-28.69032859802246,-0.20209424197673798,-0.07509113103151321,1.1744412183761597,1.6844156980514526,2.734363317489624,-1.1150298118591309,-0.5729878544807434,-1.2623381614685059
281,167658,167659,0.01054662000387907,0.01564314030110836,0.920341968536377,-31.205820083618164,-9.287481307983398,-1.6567707061767578,1.1624418497085571,1.6754162311553955,2.731363296508789,-1.0011796951293945,-1.002484917640686,-1.2656420469284058
282,167668,167669,-0.0051117329858243465,-0.02235718071460724,0.943716824054718,-29.6525821685791,-13.463589668273926,-2.8915882110595703,1.1729413270950317,1.6979150772094727,2.7508623600006104,-0.8482611775398254,-1.1573116779327393,-1.270013451576233
283,167678,167679,-0.0355612151324749,-0.07686332613229752,0.9443075060844421,-23.678089141845703,-15.22422981262207,-2.348257064819336,1.178941011428833,1.7069146633148193,2.765861749649048,-0.6361016035079956,-1.4083173274993896,-1.290073275566101
284,167688,167689,-0.009224480018019676,-0.009277391247451305,0.9453296065330505,-17.8618106842041,-15.784770965576172,-1.18746817111969,1.1744412183761597,1.702414870262146,2.7703614234924316,-0.47867223620414734,-1.6356730461120605,-1.3085660934448242
285,167698,167699,0.04381021112203598,-0.00458805076777935,0.9416552186012268,-9.82060718536377,-14.294967651367188,0.7297113537788391,1.1819409132003784,1.7159141302108765,2.789860486984253,-0.3479990065097809,-1.886448860168457,-1.3186368942260742
286,167708,167709,0.055316850543022156,-0.03240598738193512,0.9618723392486572,-4.368649959564209,-9.41567325592041,1.7078360319137573,1.178941011428833,1.7309134006500244,2.7988600730895996,-0.3243299126625061,-1.9342036247253418,-1.3003549575805664
287,167718,167719,0.06930216401815414,-0.018501415848731995,0.9387643337249756,2.0542385578155518,-3.14520525932312,3.0300443172454834,1.163941740989685,1.7219138145446777,2.7958600521087646,-0.3293090760707855,-1.9564759731292725,-1.2766443490982056
288,167728,167729,0.05274026095867157,0.011746793985366821,0.930993914604187,8.439424514770508,4.990729808807373,4.520184516906738,1.1669416427612305,1.7159141302108765,2.7748610973358154,-0.3585651218891144,-1.8906875848770142,-1.2383301258087158
289,167738,167739,0.006088891066610813,0.005045164376497269,0.9255639910697937,15.903098106384277,8.626745223999023,5.299829483032227,1.1684415340423584,1.7084145545959473,2.764361619949341,-0.4118151068687439,-1.7083556652069092,-1.1874011754989624
290,167748,167749,0.014880085363984108,0.05198891833424568,0.9070395231246948,22.7624454498291,8.94813060760498,5.876865863800049,1.1834408044815063,1.7054146528244019,2.764361619949341,-0.5139952301979065,-1.3943586349487305,-1.1236491203308105
291,167758,167759,0.012834218330681324,0.06161946803331375,0.9181244373321533,25.60803985595703,5.324044227600098,6.525043487548828,1.1714414358139038,1.6994149684906006,2.788360595703125,-0.5819425582885742,-1.157699704170227,-1.0661132335662842
292,167768,167769,-0.007184271700680256,-8.598097338108346e-05,0.9336487054824829,23.77474021911621,0.4586111605167389,6.6012749671936035,1.1699414253234863,1.754912257194519,2.840857982635498,-0.5928109288215637,-0.8960285782814026,-1.0051816701889038
293,167778,167779,-0.031053753569722176,-0.044719304889440536,0.9439312219619751,16.258609771728516,-5.581937313079834,6.395188331604004,1.1699414253234863,1.7459126710891724,2.8468575477600098,-0.5670238137245178,-0.772741973400116,-0.9491015672683716
294,167788,167789,0.011035151779651642,-0.012624673545360565,0.9548655152320862,8.157910346984863,-7.649296283721924,6.806624412536621,1.154942274093628,1.754912257194519,2.8528573513031006,-0.3344431519508362,-0.5572394728660583,-0.8943654298782349
295,167798,167799,0.0029682160820811987,0.009029862470924854,0.9340623617172241,-0.49925094842910767,-6.766455173492432,7.318192005157471,1.1654417514801025,1.7444127798080444,2.8483574390411377,-0.37671077251434326,-0.6369086503982544,-0.8266419172286987
296,167808,167809,-0.08024583756923676,0.013952731154859066,0.971209704875946,-5.578914642333984,-3.9208686351776123,7.797921657562256,1.1684415340423584,1.7474125623703003,2.8603570461273193,-0.2750356197357178,-0.6819359660148621,-0.7560566663742065
297,167818,167819,-0.11251185089349747,-0.02808266505599022,1.0183976888656616,-6.183700084686279,-0.14717064797878265,8.011680603027344,1.1609419584274292,1.7789109945297241,2.8618569374084473,-0.2921706438064575,-0.7075324654579163,-0.6681383848190308
298,167828,167829,-0.10112761706113815,-0.07414096593856812,1.0159187316894531,0.17046214640140533,1.70271897315979,7.778932571411133,1.1654417514801025,1.7474125623703003,2.83935809135437,-0.294387549161911,-0.7591167092323303,-0.5866267085075378
299,167838,167839,-0.05801013112068176,-0.026947762817144394,0.9837442636489868,8.652956008911133,1.4696977138519287,7.381214618682861,1.1579420566558838,1.742912769317627,2.8348581790924072,-0.3387880027294159,-0.6871351599693298,-0.5017180442810059
300,167848,167849,0.002929608803242445,0.054076071828603745,0.9604650735855103,15.643736839294434,-0.9415061473846436,6.112460613250732,1.1654417514801025,1.7294135093688965,2.8243587017059326,-0.36247995495796204,-0.4858229458332062,-0.42154809832572937
301,167858,167859,-0.02518058568239212,-0.01500003319233656,0.9797744750976562,18.87889862060547,-3.290008544921875,4.49819803237915,1.1669416427612305,1.7219138145446777,2.8228588104248047,-0.34673696756362915,-0.41781583428382874,-0.3738059401512146
302,167868,167869,0.019485492259263992,0.06343785673379898,1.0331863164901733,14.455162048339844,-1.948881983757019,2.866952896118164,1.1699414253234863,1.7789109945297241,2.8828558921813965,-0.29543381929397583,-0.4947746694087982,-0.3539777398109436
303,167878,167879,0.03083079867064953,-0.024384090676903725,0.9913793206214905,6.853848934173584,5.531032562255859,0.3506384789943695,1.1684415340423584,1.7804110050201416,2.890355348587036,-0.32450103759765625,-0.2909450829029083,-0.3244419991970062
304,167888,167889,-0.00870248768478632,-0.04861205071210861,0.9977421760559082,-5.422516345977783,13.832761764526367,-0.8566866517066956,1.163941740989685,1.7639117240905762,2.9128541946411133,-0.40957459807395935,-0.18475231528282166,-0.32013651728630066
305,167898,167899,0.004483189433813095,-0.029739100486040115,1.0327262878417969,-12.203446388244629,14.781028747558594,-0.9064505100250244,1.1534422636032104,1.8014098405838013,2.9323532581329346,-0.5193070769309998,-0.3190765678882599,-0.3363521993160248
306,167908,167909,-0.006912766955792904,-0.008811810053884983,1.0786473751068115,-12.697072982788086,7.737080097198486,-0.5539251565933228,1.1714414358139038,1.8164091110229492,2.950352430343628,-0.7223053574562073,-0.5101269483566284,-0.34866300225257874
307,167918,167919,-0.01725301519036293,-0.11714648455381393,1.0751549005508423,-13.160319328308105,-0.9856390953063965,-0.041876811534166336,1.1534422636032104,1.807409644126892,2.947352647781372,-0.5001704692840576,-0.6987395286560059,-0.3671392500400543
308,167928,167929,-0.00440952368080616,-0.09476759284734726,1.0618513822555542,-9.779327392578125,-10.727666854858398,0.9884231090545654,1.1654417514801025,1.7834107875823975,2.9023547172546387,-0.36419007182121277,-0.8524211645126343,-0.37057703733444214
309,167938,167939,0.0037358819972723722,-0.004602240398526192,1.093904972076416,-5.07573938369751,-17.02597427368164,2.532465696334839,1.1684415340423584,1.7984100580215454,2.9053547382354736,-0.16599944233894348,-0.9419942498207092,-0.35651588439941406
310,167948,167949,-0.08691111952066422,-0.05321763828396797,1.0959359407424927,1.6768454313278198,-18.572662353515625,3.4565045833587646,1.177441120147705,1.7804110050201416,2.899354934692383,-0.03434854373335838,-0.9341568946838379,-0.31858059763908386
311,167958,167959,-0.07881339639425278,-0.02959917113184929,1.101499080657959,7.377726078033447,-13.630772590637207,3.419393301010132,1.1759412288665771,1.7759112119674683,2.888855457305908,0.13202373683452606,-0.7557961940765381,-0.2693949043750763
312,167968,167969,0.0033006335142999887,-0.015234573744237423,1.0845941305160522,9.067346572875977,-3.9744765758514404,2.792990207672119,1.1759412288665771,1.739912986755371,2.8558571338653564,0.18823879957199097,-0.5948113799095154,-0.22775354981422424
313,167978,167979,0.05003762245178223,-0.03003130666911602,1.0633145570755005,7.406015872955322,8.661934852600098,3.117316484451294,1.1759412288665771,1.7249137163162231,2.8318583965301514,0.12469067424535751,-0.5036413669586182,-0.19445468485355377
314,167988,167989,0.0380256213247776,0.02025139518082142,1.0805387496948242,4.284799575805664,19.177310943603516,3.006901264190674,1.1609419584274292,1.739912986755371,2.8258585929870605,-0.06331093609333038,-0.5235642790794373,-0.16663150489330292
315,167998,167999,0.05093414708971977,0.029638707637786865,1.0704190731048584,2.512380838394165,23.830673217773438,2.5099668502807617,1.1654417514801025,1.7474125623703003,2.845357656478882,-0.38782504200935364,-0.4433709383010864,-0.13474979996681213
316,168008,168009,0.04576956480741501,0.06942416727542877,1.0408337116241455,4.472412109375,21.85247802734375,1.7753947973251343,1.1654417514801025,1.741412878036499,2.836358070373535,-0.7143043279647827,-0.4416441321372986,-0.11293284595012665
317,168018,168019,0.008855852298438549,0.05203487351536751,1.0588068962097168,7.4060587882995605,15.699666023254395,0.7762519121170044,1.163941740989685,1.7339133024215698,2.8258585929870605,-0.7494357824325562,-0.4005182683467865,-0.10405362397432327
318,168028,168029,0.025829968973994255,-0.000622115156147629,1.0205367803573608,8.697257041931152,8.43726634979248,-0.1567026972770691,1.180440902709961,1.7354131937026978,2.8303585052490234,-0.9510560631752014,-0.2512132525444031,-0.09248828142881393
319,168038,168039,0.025525839999318123,-0.03110959194600582,0.9966528415679932,8.56421947479248,3.5621862411499023,-1.5671210289001465,1.1729413270950317,1.7309134006500244,2.816859006881714,-0.897627592086792,-0.2280280888080597,-0.10559067130088806
320,168048,168049,0.04124230518937111,0.03912891075015068,1.0596954822540283,6.398064136505127,-5.056548118591309,-2.1061651706695557,1.1744412183761597,1.7324132919311523,2.815359115600586,-0.9046888947486877,-0.15257391333580017,-0.12290960550308228
321,168058,168059,0.019071156159043312,0.04974289610981941,1.0680562257766724,4.4083781242370605,-10.844216346740723,-2.694211006164551,1.1819409132003784,1.7339133024215698,2.8348581790924072,-0.7710939645767212,-0.11352911591529846,-0.14823588728904724
322,168068,168069,-0.0024835532531142235,0.03123338706791401,1.0372223854064941,3.3676583766937256,-17.360158920288086,-3.0066890716552734,1.1744412183761597,1.7354131937026978,2.815359115600586,-0.6205973029136658,-0.0314844511449337,-0.17199669778347015
323,168078,168079,-0.047495510429143906,0.03830178827047348,1.0738461017608643,3.3755147457122803,-16.00263786315918,-2.351526975631714,1.163941740989685,1.7279136180877686,2.8258585929870605,-0.3383333086967468,-0.09389391541481018,-0.209847554564476
324,168088,168089,-0.05523984506726265,-0.04587957262992859,1.0551410913467407,-0.3088645935058594,-1.7903735637664795,-1.4290425777435303,1.1714414358139038,1.7474125623703003,2.8303585052490234,-0.3119606077671051,-0.09986220300197601,-0.23550018668174744
325,168098,168099,-0.01068099681288004,-0.035149410367012024,1.0171953439712524,-6.336886882781982,18.382328033447266,-1.1898308992385864,1.1669416427612305,1.7309134006500244,2.816859006881714,-0.520211935043335,-0.11791684478521347,-0.25186657905578613
326,168108,168109,-0.05506345257163048,-0.0708097293972969,1.0094573497772217,-11.452034950256348,34.339271545410156,-1.598909616470337,1.1699414253234863,1.7369130849838257,2.8228588104248047,-0.8497090339660645,-0.2144988477230072,-0.2698218822479248
327,168118,168119,0.025389190763235092,-0.07759333401918411,1.0105103254318237,-15.89626693725586,35.382198333740234,-1.2743979692459106,1.1624418497085571,1.7474125623703003,2.83935809135437,-1.2886168956756592,-0.38987427949905396,-0.29541656374931335
328,168128,168129,0.07627757638692856,-0.04825689271092415,1.0140230655670166,-13.183298110961914,26.974374771118164,0.6653090715408325,1.1609419584274292,1.7519123554229736,2.843857765197754,-1.460268497467041,-0.5258980393409729,-0.2971954643726349
329,168138,168139,0.08793725818395615,0.0695854052901268,1.037829875946045,-1.281719446182251,9.683685302734375,1.5223957300186157,1.1534422636032104,1.741412878036499,2.8333582878112793,-1.727964162826538,-0.6284791827201843,-0.29095280170440674
330,168148,168149,0.042614635080099106,0.09530148655176163,1.0336241722106934,12.19114875793457,-6.739424705505371,2.311528444290161,1.1489425897598267,1.7489125728607178,2.8348581790924072,-1.7054046392440796,-0.5382124781608582,-0.2603803873062134
331,168158,168159,-0.007798069156706333,-0.006372571922838688,1.013039469718933,16.15856170654297,-17.866899490356445,3.615720510482788,1.1624418497085571,1.756412148475647,2.8483574390411377,-1.53827702999115,-0.26685863733291626,-0.2099938988685608
332,168168,168169,0.012298598885536194,0.09711303561925888,1.0971561670303345,10.45295238494873,-22.508033752441406,4.650145530700684,1.154942274093628,1.7489125728607178,2.843857765197754,-1.2056363821029663,-0.08563140779733658,-0.16409288346767426
333,168178,168179,-0.0006525418721139431,0.02685578353703022,1.0682408809661865,2.5418357849121094,-16.08634376525879,5.240850925445557,1.1624418497085571,1.7384130954742432,2.8303585052490234,-1.0669633150100708,-0.013147219084203243,-0.1230676993727684
334,168188,168189,-0.022764982655644417,-0.03962775319814682,1.03560471534729,-2.7578675746917725,-3.885697364807129,6.115376949310303,1.1624418497085571,1.7384130954742432,2.8243587017059326,-0.9995846748352051,-0.05088764429092407,-0.08267141878604889
335,168198,168199,-0.03482117876410484,-0.02026764303445816,1.0193833112716675,-2.925915479660034,6.113766193389893,7.6102705001831055,1.1684415340423584,1.741412878036499,2.815359115600586,-1.052567720413208,-0.05404580757021904,-0.018537143245339394
336,168208,168209,0.004136011004447937,-0.037763264030218124,0.9915752410888672,-5.243013381958008,7.708144187927246,8.404410362243652,1.1714414358139038,1.717414140701294,2.815359115600586,-1.1502009630203247,-0.08542478084564209,0.057478927075862885
337,168218,168219,0.0317218042910099,-0.05720031261444092,0.9839251041412354,-6.376590728759766,2.286186933517456,10.067587852478027,1.1519423723220825,1.7369130849838257,2.8348581790924072,-1.3242038488388062,-0.1472652107477188,0.13629695773124695
338,168228,168229,0.05535076931118965,-0.03765060380101204,1.0168858766555786,-3.0997257232666016,-3.501880645751953,12.000397682189941,1.1759412288665771,1.739912986755371,2.8228588104248047,-1.3884304761886597,-0.2771436274051666,0.2232489138841629
339,168238,168239,0.06357535719871521,-0.03751946613192558,1.0001108646392822,4.064640045166016,-5.16623592376709,12.772712707519531,1.1594419479370117,1.7444127798080444,2.8243587017059326,-1.303331732749939,-0.3266955018043518,0.3407622277736664
340,168248,168249,0.06921777874231339,-2.8736985768773593e-05,1.000050663948059,9.652836799621582,-4.678677558898926,12.229642868041992,1.1609419584274292,1.739912986755371,2.8348581790924072,-1.2618988752365112,-0.19840754568576813,0.4829633831977844
341,168258,168259,0.01871458999812603,0.06361985206604004,1.0429881811141968,12.938810348510742,-4.755805492401123,11.024211883544922,1.1744412183761597,1.7384130954742432,2.8333582878112793,-1.2851642370224,-0.004120267927646637,0.6183199286460876
342,168268,168269,-0.001092008431442082,0.09572713077068329,1.0670933723449707,12.421785354614258,-4.0118608474731445,10.200873374938965,1.1684415340423584,1.7354131937026978,2.842357873916626,-1.2950388193130493,-0.051380887627601624,0.6903672814369202
343,168278,168279,0.005685308016836643,0.08255539834499359,1.0510709285736084,6.007404804229736,-2.7332892417907715,8.8623046875,1.1684415340423584,1.7324132919311523,2.836358070373535,-1.249479055404663,0.08600632846355438,0.7946450710296631
344,168288,168289,0.009141439571976662,0.05962313711643219,1.0315667390823364,1.6905343532562256,-4.809427261352539,7.544736862182617,1.1534422636032104,1.7324132919311523,2.8273584842681885,-1.3558580875396729,-0.020687971264123917,0.8412535190582275
345,168298,168299,0.0011048844316974282,-0.01151022594422102,1.0117037296295166,1.0154200792312622,-10.609277725219727,7.1144561767578125,1.1729413270950317,1.742912769317627,2.8468575477600098,-1.1909806728363037,0.040796320885419846,0.9326172471046448
346,168308,168309,-0.011931092478334904,-0.0018822376150637865,1.0099928379058838,9.161321640014648,-17.442424774169922,4.679370880126953,1.163941740989685,1.739912986755371,2.819859027862549,-0.9928922653198242,0.06476599723100662,1.0059713125228882
347,168318,168319,-0.03687923401594162,0.006536395754665136,1.0189849138259888,21.0714054107666,-23.566919326782227,2.960665225982666,1.1609419584274292,1.7459126710891724,2.840857982635498,-0.820325493812561,0.3146151304244995,1.0750948190689087
348,168328,168329,-0.055553242564201355,0.015590658411383629,1.0330852270126343,27.93507194519043,-26.4722957611084,2.210520029067993,1.1714414358139038,1.7294135093688965,2.8213589191436768,-0.6252294778823853,0.6554466485977173,1.118141531944275
349,168338,168339,-0.03802098333835602,-0.044729214161634445,0.9871379733085632,26.64600944519043,-27.20830726623535,2.6283316612243652,1.178941011428833,1.7369130849838257,2.813859224319458,-0.3446665406227112,0.9908890128135681,1.1484509706497192
350,168348,168349,-0.0698619931936264,-0.03390730172395706,0.9934696555137634,22.72893524169922,-31.573766708374023,2.713097095489502,1.1714414358139038,1.7324132919311523,2.7973601818084717,-0.14726367592811584,1.0126947164535522,1.122788906097412
351,168358,168359,-0.10393321514129639,-0.001099815359339118,0.98945152759552,15.883654594421387,-36.573974609375,3.439898729324341,1.180440902709961,1.702414870262146,2.788360595703125,0.26933714747428894,1.2423123121261597,1.1556315422058105
352,168368,168369,-0.01137936394661665,0.0031956254970282316,0.9968746304512024,11.439423561096191,-36.04662322998047,3.758225440979004,1.1909403800964355,1.703914761543274,2.7748610973358154,0.6460232734680176,1.441548228263855,1.186935544013977
353,168378,168379,-0.006125287618488073,-0.017939547076821327,0.9880130887031555,11.439937591552734,-26.33277702331543,3.7195444107055664,1.192440390586853,1.6844156980514526,2.7493624687194824,0.9024658799171448,1.4450265169143677,1.1915817260742188
354,168388,168389,-0.031405042856931686,0.011683931574225426,1.0024703741073608,16.94784927368164,-7.554071426391602,5.028285980224609,1.1954401731491089,1.6814159154891968,2.7463626861572266,0.9710993766784668,1.6811494827270508,1.2000646591186523
355,168398,168399,-0.01970255747437477,-0.031652990728616714,0.9722540378570557,24.4216251373291,11.025659561157227,6.326789379119873,1.1834408044815063,1.6754162311553955,2.7493624687194824,1.070011854171753,1.872974157333374,1.2592239379882812
356,168408,168409,0.002570347860455513,-0.04836946725845337,0.95584636926651,24.510099411010742,18.226715087890625,6.680724143981934,1.180440902709961,1.687415599822998,2.767361640930176,0.9126653075218201,1.9502724409103394,1.3217819929122925
357,168418,168419,-0.010363342240452766,-0.045531898736953735,0.9571680426597595,14.814987182617188,11.459088325500488,7.871182441711426,1.1849406957626343,1.688915491104126,2.762861728668213,0.7196957468986511,2.329041004180908,1.3881932497024536
358,168428,168429,-0.011863941326737404,-0.02298605442047119,0.9508364796638489,-1.4235172271728516,-1.3317402601242065,8.179412841796875,1.1909403800964355,1.6919153928756714,2.756862163543701,0.6687935590744019,2.430765151977539,1.4827063083648682
359,168438,168439,-0.011901536025106907,-0.046271998435258865,0.9259529709815979,-20.478788375854492,-13.578033447265625,8.935324668884277,1.1819409132003784,1.6859157085418701,2.7448627948760986,0.8309093713760376,2.3323235511779785,1.603885531425476
360,168448,168449,-0.009915938600897789,0.05226749926805496,0.9732610583305359,-37.7545051574707,-20.732799530029297,9.196807861328125,1.178941011428833,1.6799160242080688,2.756862163543701,0.8170964121818542,1.9938243627548218,1.6461169719696045
361,168458,168459,0.016525324434041977,0.07668211311101913,0.9900497794151306,-47.24806594848633,-25.232913970947266,9.015053749084473,1.1894404888153076,1.648417592048645,2.707364559173584,1.2594877481460571,1.4822324514389038,1.8088282346725464
362,168468,168469,0.013955947011709213,0.04878653585910797,0.9833393096923828,-48.17160415649414,-26.14501953125,6.427999019622803,1.1879405975341797,1.6589170694351196,2.7238638401031494,1.3259761333465576,1.1353480815887451,1.8109257221221924
363,168478,168479,0.03157344460487366,0.02420157566666603,0.9385843276977539,-42.81755447387695,-17.52080535888672,4.0767502784729,1.1909403800964355,1.6619168519973755,2.7238638401031494,1.6084414720535278,0.5250250697135925,1.9010719060897827
364,168488,168489,0.04780859127640724,-0.032273635268211365,0.9703441262245178,-33.369476318359375,-4.922699451446533,2.003711223602295,1.193940281867981,1.6859157085418701,2.732863187789917,1.7514820098876953,0.23681694269180298,1.9113256931304932
365,168498,168499,0.011344091966748238,-0.02209167182445526,0.9184285402297974,-18.001039505004883,6.214334964752197,0.8636154532432556,1.1894404888153076,1.6754162311553955,2.71036434173584,1.8286163806915283,-0.07753847539424896,1.9430640935897827
366,168508,168509,-0.013810338452458382,-0.09645883738994598,0.8499242067337036,-1.3169264793395996,12.794633865356445,-0.15743868052959442,1.1879405975341797,1.6769161224365234,2.711864471435547,1.5927222967147827,-0.049561306834220886,1.8664630651474
367,168518,168519,-0.004109949804842472,-0.027150390669703484,0.891201913356781,12.095990180969238,15.254829406738281,-1.0689492225646973,1.1864407062530518,1.6754162311553955,2.731363296508789,1.4993592500686646,0.017866242676973343,1.8620753288269043
368,168528,168529,-0.0008247230434790254,-0.006216294132173061,0.9113357663154602,18.047067642211914,13.930100440979004,-2.200639486312866,1.1759412288665771,1.7069146633148193,2.786860704421997,1.3106948137283325,0.17985811829566956,1.8334687948226929
369,168538,168539,-0.03597259894013405,0.01341974176466465,0.9153307676315308,18.190113067626953,8.762340545654297,-2.7857518196105957,1.1909403800964355,1.7129143476486206,2.786860704421997,1.1925350427627563,0.3263877332210541,1.8188962936401367
370,168548,168549,-0.008000575937330723,-0.01193422731012106,0.9132385849952698,12.502533912658691,1.9331005811691284,-3.4479684829711914,1.1894404888153076,1.6904155015945435,2.7523622512817383,1.1516261100769043,0.585965096950531,1.774238109588623
371,168558,168559,0.013745753094553947,-0.0012355806538835168,0.9231259226799011,2.261059045791626,-5.5046305656433105,-3.594684600830078,1.1864407062530518,1.6934152841567993,2.764361619949341,1.229602336883545,0.5900030732154846,1.7827955484390259
372,168568,168569,-0.06703828275203705,-0.04471317306160927,0.9401700496673584,-8.556365013122559,-12.056437492370605,-3.7633228302001953,1.1909403800964355,1.6919153928756714,2.756862163543701,1.392210602760315,0.574687123298645,1.7750190496444702
373,168578,168579,-0.08403810113668442,-0.057376064360141754,0.9183116555213928,-16.834016799926758,-14.458878517150879,-4.095862865447998,1.1894404888153076,1.726413607597351,2.8063595294952393,1.4050731658935547,0.4591129720211029,1.723139762878418
374,168588,168589,-0.04929712414741516,-0.014251572079956532,0.907789409160614,-19.120595932006836,-14.085634231567383,-3.771068572998047,1.1819409132003784,1.7339133024215698,2.819859027862549,1.5157626867294312,0.1684493124485016,1.712822675704956
375,168598,168599,0.011983536183834076,0.06741132587194443,0.9513310790061951,-14.223161697387695,-11.693368911743164,-1.885221242904663,1.1864407062530518,1.7384130954742432,2.815359115600586,1.5953510999679565,0.030720695853233337,1.658839464187622
376,168608,168609,0.0614616684615612,0.08556719124317169,0.9551618695259094,-10.370797157287598,-13.950051307678223,0.746865451335907,1.1969401836395264,1.754912257194519,2.8498575687408447,1.7552108764648438,-0.03689596801996231,1.6302458047866821
377,168618,168619,-0.009395097382366657,0.05575019493699074,0.9195206761360168,-5.86620569229126,-9.706876754760742,3.03470516204834,1.1984400749206543,1.7204139232635498,2.8033597469329834,1.8764073848724365,-0.05277802422642708,1.610788345336914
378,168628,168629,-0.09318530559539795,-0.0030963062308728695,0.9267870187759399,-0.7287640571594238,6.107061862945557,5.043737411499023,1.180440902709961,1.7354131937026978,2.7943601608276367,2.0273611545562744,-0.13632501661777496,1.6599127054214478
379,168638,168639,-0.141952782869339,-0.03347506746649742,0.9432084560394287,3.8092715740203857,24.983156204223633,7.260273456573486,1.178941011428833,1.7219138145446777,2.810859441757202,1.8977632522583008,-0.13514173030853271,1.7024178504943848
380,168648,168649,-0.1688658893108368,-0.027819551527500153,0.9799016714096069,9.420860290527344,37.94853591918945,8.029029846191406,1.1699414253234863,1.7669116258621216,2.843857765197754,1.561221718788147,-0.04803582280874252,1.7503480911254883
381,168658,168659,-0.13073697686195374,-0.019524553790688515,1.003476619720459,11.046354293823242,41.85561752319336,7.690273284912109,1.178941011428833,1.754912257194519,2.843857765197754,1.0421333312988281,0.03994017094373703,1.818245768547058
382,168668,168669,-0.0813046544790268,-0.030387533828616142,1.0068236589431763,10.54681396484375,36.01913833618164,7.307227611541748,1.177441120147705,1.771411418914795,2.8603570461273193,0.6488797068595886,0.21275588870048523,1.8754332065582275
383,168678,168679,0.02610345557332039,-0.03551388159394264,0.9853243827819824,6.79258394241333,22.039613723754883,7.397061347961426,1.163941740989685,1.7609119415283203,2.8558571338653564,0.4712408185005188,0.27623265981674194,1.9745206832885742
384,168688,168689,-0.07086362689733505,-0.05317718908190727,1.0125921964645386,0.9031771421432495,3.0123751163482666,7.231680870056152,1.1759412288665771,1.757912039756775,2.864856719970703,0.36288273334503174,0.27894607186317444,2.071815013885498
385,168698,168699,-0.042002733796834946,-0.04537248611450195,1.0131843090057373,-11.171531677246094,-14.488624572753906,5.720174312591553,1.177441120147705,1.7534122467041016,2.83935809135437,0.487762451171875,0.22827817499637604,2.1608622074127197
386,168708,168709,0.07271832972764969,-0.03522348776459694,1.0532315969467163,-21.100465774536133,-25.624582290649414,3.332951307296753,1.1834408044815063,1.7504124641418457,2.8573570251464844,0.7478566765785217,-0.025062711909413338,2.253570318222046
387,168718,168719,0.05123523622751236,-0.05752880126237869,1.025072455406189,-25.44999122619629,-31.236677169799805,0.703219473361969,1.1849406957626343,1.7519123554229736,2.8588569164276123,0.9485726952552795,-0.2510322034358978,2.2781338691711426
388,168728,168729,0.04252675548195839,-0.05175817757844925,1.0402132272720337,-24.897884368896484,-32.44453430175781,-2.3424055576324463,1.178941011428833,1.7669116258621216,2.8558571338653564,1.3452662229537964,-0.5894503593444824,2.308851957321167
389,168738,168739,0.051154714077711105,-0.06783613562583923,1.040069580078125,-19.86034393310547,-28.414043426513672,-5.00830078125,1.1819409132003784,1.7669116258621216,2.8528573513031006,1.5762046575546265,-0.6729491949081421,2.2383549213409424
390,168748,168749,0.04514649510383606,-0.07107086479663849,1.0248655080795288,-13.831133842468262,-12.604337692260742,-7.282861709594727,1.1834408044815063,1.7654117345809937,2.845357656478882,1.801998257637024,-0.9426698684692383,2.2107584476470947
391,168758,168759,0.025431953370571136,0.0020050101447850466,1.0556069612503052,-8.428718566894531,6.050970077514648,-9.105704307556152,1.1819409132003784,1.7309134006500244,2.813859224319458,1.8847156763076782,-0.9801969528198242,2.1102428436279297
392,168768,168769,0.040066540241241455,0.029819145798683167,1.0078926086425781,-0.3037000298500061,17.145906448364258,-10.285538673400879,1.1819409132003784,1.7459126710891724,2.8228588104248047,1.710723638534546,-1.058605670928955,2.0202109813690186
393,168778,168779,0.04099050536751747,0.04095331206917763,1.004648208618164,9.488512992858887,21.04014778137207,-11.614293098449707,1.1909403800964355,1.742912769317627,2.816859006881714,1.4097234010696411,-0.9930985569953918,1.8994624614715576
394,168788,168789,0.017040006816387177,0.023919781669974327,1.0437281131744385,18.554363250732422,20.360971450805664,-12.749180793762207,1.1834408044815063,1.7324132919311523,2.818359136581421,1.0962036848068237,-0.7662727236747742,1.748857855796814
395,168798,168799,0.05983243137598038,-0.004944315645843744,1.030638337135315,23.563966751098633,18.841835021972656,-13.431066513061523,1.1759412288665771,1.7459126710891724,2.819859027862549,0.9978318810462952,-0.5035882592201233,1.590903639793396
396,168808,168809,0.05693286657333374,-0.02677956596016884,1.000932216644287,27.63817024230957,15.003722190856934,-13.51330852508545,1.1834408044815063,1.7354131937026978,2.81235933303833,0.8742650151252747,-0.23399989306926727,1.4441885948181152
397,168818,168819,0.04434257000684738,0.006692530121654272,0.9850486516952515,27.00911521911621,9.643637657165527,-12.973727226257324,1.1909403800964355,1.7279136180877686,2.816859006881714,0.8180319666862488,-0.21098726987838745,1.372562289237976
398,168828,168829,-0.005963352508842945,0.04511626809835434,0.97232985496521,20.619150161743164,2.456937313079834,-12.989496231079102,1.1729413270950317,1.7309134006500244,2.8078596591949463,0.7197168469429016,0.20567381381988525,1.2029290199279785
399,168838,168839,-0.00967998243868351,0.07807634770870209,0.9861666560173035,4.886135578155518,-5.7527594566345215,-11.40096378326416,1.178941011428833,1.7279136180877686,2.813859224319458,0.6874735355377197,0.37929433584213257,1.0769447088241577
400,168848,168849,0.028661826625466347,0.04997899383306503,0.9986962080001831,-18.28779411315918,-10.098949432373047,-10.601980209350586,1.1849406957626343,1.7159141302108765,2.8048596382141113,0.822300136089325,0.23191703855991364,0.9946455955505371
401,168858,168859,0.04832028970122337,0.014961453154683113,0.9817242622375488,-38.94135284423828,-14.06357479095459,-9.94692325592041,1.1759412288665771,1.739912986755371,2.837857961654663,0.8783316016197205,-0.12743082642555237,0.9208595156669617
402,168868,168869,-0.003502798266708851,-0.020414691418409348,0.9869899749755859,-48.370182037353516,-17.830059051513672,-10.099973678588867,1.1909403800964355,1.742912769317627,2.8588569164276123,1.0704600811004639,-0.6141111850738525,0.8336724638938904
403,168878,168879,0.006963982712477446,0.014137736521661282,1.0334417819976807,-43.73008346557617,-21.02324104309082,-10.195159912109375,1.1834408044815063,1.7624118328094482,2.8603570461273193,1.2561794519424438,-1.1521413326263428,0.74681156873703
404,168888,168889,-0.037102825939655304,-0.05960596725344658,1.071686863899231,-31.330852508544922,-20.020639419555664,-9.428486824035645,1.1969401836395264,1.7609119415283203,2.837857961654663,1.5449419021606445,-1.4767043590545654,0.627820611000061
405,168898,168899,-0.07389038801193237,-0.03808342665433884,1.109495997428894,-13.717292785644531,-13.027560234069824,-7.818508625030518,1.1879405975341797,1.757912039756775,2.8318583965301514,1.7639871835708618,-1.6987162828445435,0.5305882692337036
406,168908,168909,-0.046894371509552,0.004677989985793829,1.016263484954834,6.732788562774658,-1.4191174507141113,-6.465954780578613,1.1759412288665771,1.7339133024215698,2.8288586139678955,1.7431687116622925,-1.6094392538070679,0.4277035593986511
407,168918,168919,-0.0027532640378922224,0.0803513154387474,1.0486364364624023,23.939985275268555,8.123322486877441,-4.842940807342529,1.1744412183761597,1.7534122467041016,2.8303585052490234,1.6988410949707031,-1.3736214637756348,0.33992400765419006
408,168928,168929,-0.01374888326972723,-0.017615286633372307,1.0538415908813477,33.081790924072266,11.327420234680176,-4.618600845336914,1.1729413270950317,1.7339133024215698,2.837857961654663,1.6226959228515625,-1.1119803190231323,0.2915782928466797
409,168938,168939,-0.006895530968904495,-0.0859047994017601,1.035243034362793,30.985776901245117,15.842050552368164,-5.909297943115234,1.178941011428833,1.739912986755371,2.840857982635498,1.4030394554138184,-0.7023665904998779,0.23533061146736145
410,168948,168949,0.0189290102571249,-0.07806669175624847,0.9648419618606567,29.173070907592773,25.495012283325195,-6.549421310424805,1.178941011428833,1.7369130849838257,2.8258585929870605,1.207647442817688,-0.6263622045516968,0.2291751354932785
411,168958,168959,0.009795676916837692,-0.011101379059255123,1.0033594369888306,25.28539276123047,36.05105209350586,-6.558177471160889,1.1729413270950317,1.7249137163162231,2.810859441757202,0.7941100597381592,-0.22358481585979462,0.15036915242671967
412,168968,168969,-0.03561153635382652,0.0496286004781723,1.0078619718551636,19.811790466308594,37.227752685546875,-5.341966152191162,1.1729413270950317,1.7159141302108765,2.7958600521087646,0.4876287281513214,-0.12339489907026291,0.11010231077671051
413,168978,168979,-0.08336079120635986,0.02858854830265045,1.0354796648025513,16.741741180419922,28.599567413330078,-5.355058670043945,1.1624418497085571,1.7114144563674927,2.8033597469329834,0.17407745122909546,0.1179073229432106,0.04155181348323822
414,168988,168989,-0.09485036879777908,-0.020493153482675552,1.061532974243164,14.602004051208496,8.669285774230957,-4.939162254333496,1.1669416427612305,1.739912986755371,2.837857961654663,0.07802432030439377,0.11866739392280579,0.006638220511376858
415,168998,168999,-0.11437825113534927,-0.05756974220275879,1.0668598413467407,11.969490051269531,-13.338187217712402,-3.5341453552246094,1.1714414358139038,1.7294135093688965,2.8333582878112793,0.17514391243457794,0.3792463541030884,-0.06968239694833755
416,169008,169009,-0.03654801845550537,-0.07029637694358826,1.0356273651123047,10.486907005310059,-29.491830825805664,-2.95237398147583,1.1654417514801025,1.7384130954742432,2.842357873916626,0.5181176066398621,0.3911990225315094,-0.102031409740448
417,169018,169019,-0.030669908970594406,-0.16312500834465027,1.004366397857666,-1.032084584236145,-28.198102951049805,-1.9518975019454956,1.1819409132003784,1.7159141302108765,2.7988600730895996,0.9075939059257507,0.3872331976890564,-0.12614615261554718
418,169028,169029,-0.003621495794504881,-0.13029277324676514,0.9840375185012817,-16.156768798828125,-16.073392868041992,-2.867479085922241,1.1819409132003784,1.7069146633148193,2.792860269546509,1.0346918106079102,0.31873971223831177,-0.13624010980129242
419,169038,169039,-0.061934731900691986,-0.10865291953086853,0.9895460605621338,-25.715904235839844,0.7943242192268372,-3.6952362060546875,1.1714414358139038,1.7114144563674927,2.788360595703125,1.0702710151672363,0.02721215970814228,-0.14928193390369415
420,169048,169049,-0.039731670171022415,-0.10454832017421722,0.9443568587303162,-24.21259880065918,18.03279685974121,-2.7922909259796143,1.1849406957626343,1.7159141302108765,2.8018598556518555,0.9060977697372437,-0.06548573076725006,-0.20241980254650116
421,169058,169059,0.03547053784132004,-0.05289992317557335,0.9481785893440247,-11.765019416809082,34.851863861083984,-0.8863735198974609,1.1699414253234863,1.7159141302108765,2.7718613147735596,0.5422451496124268,-0.34919998049736023,-0.21245618164539337
422,169068,169069,0.07040075212717056,-0.02150120586156845,0.9972565174102783,4.9537177085876465,45.8658332824707,0.7113327383995056,1.1729413270950317,1.7219138145446777,2.810859441757202,0.12088353931903839,-0.32779660820961,-0.2292196899652481
423,169078,169079,0.017169689759612083,-0.03139321133494377,0.970122218132019,20.348785400390625,52.731014251708984,0.705582857131958,1.1714414358139038,1.741412878036499,2.8303585052490234,-0.41150081157684326,-0.09049983322620392,-0.23440825939178467
424,169088,169089,-0.029696248471736908,-0.055781204253435135,0.9732526540756226,32.16065216064453,46.7005729675293,-0.36540842056274414,1.1729413270950317,1.739912986755371,2.840857982635498,-0.893642008304596,0.003881275188177824,-0.2194414883852005
425,169098,169099,-0.02062244713306427,-0.028872547671198845,0.9652217626571655,36.986602783203125,29.135828018188477,-1.2117130756378174,1.1684415340423584,1.7354131937026978,2.8213589191436768,-1.266223669052124,0.39155489206314087,-0.22847573459148407
426,169108,169109,0.05547567456960678,-0.030157465487718582,0.9626081585884094,33.151309967041016,7.922969818115234,-1.5817828178405762,1.1579420566558838,1.7489125728607178,2.837857961654663,-1.3811373710632324,0.6572811603546143,-0.24403803050518036
427,169118,169119,-0.011702308431267738,-0.0916312038898468,0.8993386030197144,23.580312728881836,-8.699867248535156,-1.0661237239837646,1.1609419584274292,1.7249137163162231,2.8258585929870605,-1.3897584676742554,1.0234419107437134,-0.25679296255111694
428,169128,169129,-0.013106060214340687,-0.11631804704666138,0.9374378323554993,5.97796630859375,-23.877853393554688,0.011909342370927334,1.1684415340423584,1.7324132919311523,2.8243587017059326,-1.1499197483062744,1.1792454719543457,-0.26968395709991455
429,169138,169139,0.09664015471935272,-0.06014294549822807,0.9674486517906189,-9.110220909118652,-31.39065170288086,0.7312299013137817,1.1744412183761597,1.7354131937026978,2.8483574390411377,-0.9532443284988403,1.0562182664871216,-0.28471049666404724
430,169148,169149,0.11012306064367294,-0.03591194748878479,0.9593827128410339,-19.936349868774414,-31.620960235595703,1.2194169759750366,1.177441120147705,1.7324132919311523,2.845357656478882,-0.6730653047561646,0.9286453723907471,-0.28095707297325134
431,169158,169159,0.10492751747369766,0.04011676833033562,0.9573513269424438,-21.448318481445312,-28.750938415527344,2.2965035438537598,1.178941011428833,1.7489125728607178,2.8468575477600098,-0.4081403315067291,0.6245928406715393,-0.27999147772789
432,169168,169169,0.06367376446723938,0.019496185705065727,0.9868011474609375,-18.27971839904785,-23.877239227294922,2.8125627040863037,1.1699414253234863,1.739912986755371,2.8558571338653564,-0.13185985386371613,0.4757004976272583,-0.24907590448856354
433,169178,169179,0.13732309639453888,0.016018256545066833,1.0326764583587646,-11.479386329650879,-14.00390911102295,3.5193629264831543,1.178941011428833,1.7069146633148193,2.789860486984253,0.09958008676767349,0.3283395767211914,-0.21612274646759033
434,169188,169189,0.12363030761480331,0.016787737607955933,1.0018573999404907,-5.888500690460205,-1.3560247421264648,4.322414875030518,1.1714414358139038,1.7144142389297485,2.78536057472229,0.08061661571264267,0.28420576453208923,-0.18268461525440216
435,169198,169199,-0.004946411121636629,-0.0023240563459694386,1.0328688621520996,-0.297379732131958,9.05185317993164,4.400235176086426,1.1759412288665771,1.7189140319824219,2.7778611183166504,0.038151416927576065,0.26163342595100403,-0.1389271467924118
436,169208,169209,-0.07450514286756516,-0.012398012913763523,1.0564138889312744,2.101513147354126,17.430612564086914,5.013176918029785,1.1819409132003784,1.7069146633148193,2.762861728668213,-0.16094768047332764,0.3117856979370117,-0.09376531839370728
437,169218,169219,-0.12330030649900436,-0.08341965824365616,1.034703254699707,3.4887137413024902,20.603971481323242,4.918609142303467,1.178941011428833,1.6979150772094727,2.7808609008789062,-0.46398037672042847,0.38575705885887146,-0.045277561992406845
438,169228,169229,-0.08445917814970016,-0.09995058178901672,0.9699975252151489,4.5377116203308105,16.484756469726562,5.008580684661865,1.163941740989685,1.700914978981018,2.756862163543701,-0.7599778175354004,0.4133642911911011,-0.00315292039886117
439,169238,169239,0.004713126923888922,-0.027363423258066177,0.977199137210846,3.283693552017212,7.234433650970459,5.124983310699463,1.1759412288665771,1.703914761543274,2.7688615322113037,-0.7966291904449463,0.42883768677711487,0.05227602273225784
440,169248,169249,0.002243270631879568,-0.016546837985515594,0.9664547443389893,1.2227755784988403,-4.7286553382873535,5.234235763549805,1.1609419584274292,1.6859157085418701,2.762861728668213,-0.8056857585906982,0.4241752028465271,0.10069470852613449
441,169258,169259,0.005207020789384842,-0.030514396727085114,0.9597344398498535,-0.3627481460571289,-17.189340591430664,5.186921119689941,1.1654417514801025,1.6964151859283447,2.7703614234924316,-0.6055424213409424,0.4568817913532257,0.16409486532211304
442,169268,169269,-0.013426159508526325,-0.08783413469791412,1.0058157444000244,-0.12770438194274902,-25.268760681152344,5.275876522064209,1.1699414253234863,1.7159141302108765,2.7718613147735596,-0.316650927066803,0.4772361218929291,0.22525271773338318
443,169278,169279,0.005107489414513111,-0.012773183174431324,0.9964587092399597,1.5295644998550415,-26.960697174072266,5.222645282745361,1.178941011428833,1.7069146633148193,2.7688615322113037,-0.01835927553474903,0.4992729127407074,0.2834961414337158
444,169288,169289,-0.03724747896194458,-0.05559910833835602,0.998803436756134,4.937117576599121,-24.29331398010254,4.958057403564453,1.1759412288665771,1.703914761543274,2.7958600521087646,0.12606851756572723,0.5712987184524536,0.3330763578414917
445,169298,169299,-0.007535886485129595,-0.01676747016608715,0.9546585083007812,9.464738845825195,-18.652082443237305,4.530994892120361,1.1819409132003784,1.688915491104126,2.7778611183166504,0.34049147367477417,0.6285368800163269,0.3797602653503418
446,169308,169309,0.02421843819320202,0.052166372537612915,0.9442670941352844,11.050865173339844,-11.720256805419922,4.272583484649658,1.192440390586853,1.6994149684906006,2.7703614234924316,0.47313806414604187,0.725665271282196,0.420775830745697
447,169318,169319,0.026055559515953064,0.09500335901975632,0.973065972328186,11.372965812683105,-4.824522972106934,3.195324420928955,1.178941011428833,1.6829158067703247,2.7508623600006104,0.5304486751556396,0.9077691435813904,0.4643154442310333
448,169328,169329,-0.01438902784138918,0.0018065632320940495,0.948806643486023,9.290452003479004,2.5564517974853516,1.5316376686096191,1.163941740989685,1.6799160242080688,2.756862163543701,0.5946244597434998,0.9524161219596863,0.48836687207221985
449,169338,169339,-0.014394369907677174,-0.037815678864717484,0.9908594489097595,4.2019476890563965,8.419580459594727,0.5427722930908203,1.1714414358139038,1.6934152841567993,2.7523622512817383,0.5496049523353577,1.0340346097946167,0.5012711882591248
450,169348,169349,0.04763041064143181,-0.0304662324488163,0.954121470451355,-3.6244256496429443,12.623127937316895,-0.7074421644210815,1.1909403800964355,1.6619168519973755,2.7268636226654053,0.40288424491882324,1.0849597454071045,0.5021358728408813
451,169358,169359,0.07690064609050751,0.003670344827696681,0.9151304364204407,-11.390619277954102,14.679322242736816,-1.8113048076629639,1.180440902709961,1.6784160137176514,2.731363296508789,0.2049764096736908,0.9957737326622009,0.4841111898422241
452,169368,169369,0.05969574674963951,0.0022081974893808365,0.9112423062324524,-15.331868171691895,12.004266738891602,-2.5118532180786133,1.1699414253234863,1.664916753768921,2.732863187789917,0.09686581045389175,0.7961299419403076,0.4636126756668091
453,169378,169379,-0.024214856326580048,-0.0351029634475708,0.9593848586082458,-15.46937370300293,8.181191444396973,-3.1805803775787354,1.180440902709961,1.6814159154891968,2.7433626651763916,0.11162092536687851,0.6281331181526184,0.45324546098709106
454,169388,169389,-0.12155740708112717,-0.0822288990020752,0.9734545946121216,-12.598848342895508,3.3273282051086426,-3.4895169734954834,1.1819409132003784,1.6769161224365234,2.7448627948760986,-0.035193316638469696,0.4811111390590668,0.4112863838672638
455,169398,169399,-0.08826708048582077,-0.09860645234584808,0.9000729322433472,-5.568924903869629,-2.3886585235595703,-3.3689005374908447,1.1744412183761597,1.6754162311553955,2.7403628826141357,-0.06394586712121964,0.40638986229896545,0.3798293471336365
456,169408,169409,-0.03724715858697891,-0.03997883200645447,0.8768158555030823,0.09741208702325821,-8.961441993713379,-3.265496015548706,1.1849406957626343,1.6799160242080688,2.7448627948760986,-0.0030724056996405125,0.36422061920166016,0.34997040033340454
457,169418,169419,-0.0021950644440948963,-0.013955221511423588,0.9013551473617554,2.453368902206421,-15.957982063293457,-2.8071742057800293,1.1819409132003784,1.6829158067703247,2.759861946105957,0.19421838223934174,0.39380258321762085,0.33162277936935425
458,169428,169429,-0.015960078686475754,-0.027472006157040596,0.9267944097518921,3.156482696533203,-19.31369400024414,-2.409261703491211,1.1819409132003784,1.6799160242080688,2.756862163543701,0.3470432162284851,0.444393128156662,0.30384066700935364
459,169438,169439,-0.010497599840164185,-0.061116352677345276,0.9478660821914673,-0.8986732959747314,-21.53264617919922,-2.0122296810150146,1.1894404888153076,1.6844156980514526,2.764361619949341,0.4501695930957794,0.4932168424129486,0.270761102437973
460,169448,169449,-0.01816878654062748,-0.00828712061047554,0.9291213750839233,-7.811015605926514,-20.599895477294922,-1.9941681623458862,1.1744412183761597,1.6784160137176514,2.7553622722625732,0.7371864914894104,0.44867247343063354,0.2548750340938568
461,169458,169459,-0.0014997507678344846,0.06920729577541351,0.9974021911621094,-13.9524507522583,-18.067035675048828,-2.6409106254577637,1.178941011428833,1.6949151754379272,2.7688615322113037,0.8669210076332092,0.3509194850921631,0.22413453459739685
462,169468,169469,-0.03667044639587402,-0.0008219261653721333,0.9364258646965027,-15.859291076660156,-15.34810733795166,-2.6599924564361572,1.1744412183761597,1.6904155015945435,2.7733612060546875,1.0182281732559204,0.11422939598560333,0.1922018975019455
463,169478,169479,-0.05965864285826683,0.03608730807900429,0.9086666703224182,-10.836541175842285,-10.844426155090332,-2.010044574737549,1.1864407062530518,1.726413607597351,2.7793610095977783,1.1788452863693237,-0.04586154967546463,0.16814130544662476
464,169488,169489,-0.03347719833254814,-0.005787665490061045,0.9090573787689209,-2.753230094909668,-4.2065043449401855,0.5827937722206116,1.1849406957626343,1.700914978981018,2.783860683441162,1.2734683752059937,-0.09836766868829727,0.15124598145484924
465,169498,169499,-0.01999586448073387,-0.0007399321184493601,0.9203696250915527,6.896304130554199,4.444218158721924,4.104750633239746,1.180440902709961,1.7084145545959473,2.7793610095977783,1.3025401830673218,-0.08330786228179932,0.16245493292808533
466,169508,169509,-0.03417817875742912,-0.014108383096754551,0.9079658389091492,13.458147048950195,14.897717475891113,7.149113655090332,1.1834408044815063,1.7054146528244019,2.7973601818084717,1.1849281787872314,0.07178550958633423,0.20098571479320526
467,169518,169519,-0.018176373094320297,-0.017409488558769226,0.9128785133361816,15.528769493103027,24.79168701171875,9.283858299255371,1.1834408044815063,1.717414140701294,2.7973601818084717,0.9007662534713745,0.23407499492168427,0.26716428995132446
468,169528,169529,0.008243059739470482,0.015909582376480103,0.9356037378311157,17.20474624633789,26.296083450317383,10.891031265258789,1.1744412183761597,1.7324132919311523,2.8243587017059326,0.6378234028816223,0.5009924173355103,0.35848984122276306
469,169538,169539,0.0265203807502985,0.009808904491364956,0.9483601450920105,14.548612594604492,17.149045944213867,9.801129341125488,1.178941011428833,1.7309134006500244,2.813859224319458,0.4085877537727356,0.6263139247894287,0.47191327810287476
470,169548,169549,0.02532341144979,-0.012556384317576885,0.9765756726264954,3.7890470027923584,1.108658790588379,8.558732986450195,1.1699414253234863,1.757912039756775,2.8588569164276123,0.29892683029174805,0.6660192608833313,0.5772017240524292
471,169558,169559,-0.03419143334031105,0.0006891682278364897,1.0090833902359009,-5.5015645027160645,-13.859169960021973,7.1254496574401855,1.1834408044815063,1.7594120502471924,2.866356611251831,0.3582967221736908,0.6839008927345276,0.6657791137695312
472,169568,169569,-0.002580577740445733,-0.0032081548124551773,0.9971053600311279,-8.57969856262207,-21.6157283782959,5.25764799118042,1.1864407062530518,1.7594120502471924,2.863356828689575,0.6401939988136292,0.5713308453559875,0.7449566721916199
473,169578,169579,0.008201681077480316,0.007560334168374538,1.0005680322647095,-4.49943733215332,-21.756502151489258,4.775020122528076,1.1864407062530518,1.7534122467041016,2.8603570461273193,0.792248547077179,0.5241115689277649,0.7881861329078674
474,169588,169589,0.027062898501753807,0.030180996283888817,1.0029010772705078,1.554418683052063,-10.071834564208984,5.144282341003418,1.1909403800964355,1.7519123554229736,2.8618569374084473,1.030525803565979,0.4766747057437897,0.8369526267051697
475,169598,169599,0.03732000291347504,-0.009407425299286842,0.9948669075965881,5.664468765258789,3.5431623458862305,5.87272310256958,1.1849406957626343,1.7609119415283203,2.8558571338653564,1.117990493774414,0.5259175896644592,0.8873631358146667
476,169608,169609,0.0014693058328703046,-0.031148457899689674,1.00941002368927,2.6131536960601807,12.971158981323242,5.381716251373291,1.1879405975341797,1.757912039756775,2.8618569374084473,1.0044336318969727,0.5342409610748291,0.9437153339385986
