,timestamp_start,timestamp_end,acc.x,acc.y,acc.z,gyro.x,gyro.y,gyro.z,mag.x,mag.y,mag.z,stabilizer.pitch,stabilizer.roll,stabilizer.yaw
0,3056312,3056313,-0.040337517857551575,-0.012121506966650486,1.0182650089263916,-6.887451171875,5.912273406982422,-0.9132575988769531,0.676466166973114,0.9074546098709106,-0.10649467259645462,-0.09130886197090149,0.057348039001226425,-1.6137433052062988
1,3056322,3056323,-0.06918780505657196,-0.14763306081295013,1.0247080326080322,-5.4941253662109375,5.607851982116699,-0.893384575843811,0.6734663248062134,0.90445476770401,-0.10649467259645462,-0.18739521503448486,0.09640683233737946,-1.6252561807632446
2,3056332,3056333,0.0023235874250531197,-0.05354521796107292,0.9798552393913269,-1.8842089176177979,2.58596134185791,-0.8346062302589417,0.676466166973114,0.8924553394317627,-0.13049347698688507,-0.25876253843307495,0.23416034877300262,-1.641333818435669
3,3056342,3056343,0.018183069303631783,0.04604931175708771,1.0162732601165771,0.09709540754556656,-0.21574966609477997,-0.9999216794967651,0.6674666404724121,0.8984550833702087,-0.11249437183141708,-0.2664977014064789,0.05885857716202736,-1.6474719047546387
4,3056352,3056353,-0.039027199149131775,0.022791853174567223,0.9707989692687988,1.1163558959960938,-2.551839590072632,-0.772989809513092,0.6794660091400146,0.90445476770401,-0.13049347698688507,-0.1143457219004631,0.4602465033531189,-1.667022943496704
5,3056362,3056363,-0.01936911791563034,0.07207894325256348,0.9633791446685791,0.1648578643798828,-5.194409370422363,-0.1932772994041443,0.6794660091400146,0.9074546098709106,-0.11249437183141708,0.08205953240394592,0.42888399958610535,-1.665367603302002
6,3056372,3056373,0.09153211861848831,0.08039285242557526,0.9470165371894836,-1.9315929412841797,-5.031141757965088,-0.5090092420578003,0.6809659600257874,0.9029548168182373,-0.12599369883537292,-0.04182865843176842,-0.0959005355834961,-1.6593080759048462
7,3056382,3056383,-0.028092719614505768,-0.041657909750938416,0.942115843296051,-5.3514628410339355,-4.11616325378418,-0.4858987629413605,0.6719663739204407,0.8879556059837341,-0.11699414998292923,0.1220361739397049,0.25495055317878723,-1.673289179801941
8,3056392,3056393,-0.0025840492453426123,0.017088331282138824,1.0041452646255493,-6.20311975479126,-1.5232943296432495,-0.007811594754457474,0.6794660091400146,0.8954551815986633,-0.11549422144889832,0.11330150812864304,-0.3973747193813324,-1.6586247682571411
9,3056402,3056403,-0.16300255060195923,-0.19990795850753784,0.9938473701477051,-6.030804634094238,1.770541787147522,-0.23131819069385529,0.6749662160873413,0.8849557638168335,-0.11999399960041046,0.11485973745584488,0.7887692451477051,-1.6990128755569458
10,3056412,3056413,-0.1535804122686386,-0.30588945746421814,1.0038903951644897,-5.120747089385986,4.092330455780029,0.490048885345459,0.6749662160873413,0.8909554481506348,-0.11999399960041046,0.07597123086452484,0.6101115942001343,-1.69284188747406
11,3056422,3056423,-0.18200337886810303,-0.09431959688663483,1.0507943630218506,-7.449064254760742,6.688568592071533,0.6259713768959045,0.6734663248062134,0.8804559707641602,-0.12449377030134201,-0.01965322718024254,0.30960091948509216,-1.6785873174667358
12,3056432,3056433,-0.4466431438922882,0.07888717204332352,1.0382081270217896,-12.334795951843262,9.400508880615234,1.0255457162857056,0.6824658513069153,0.8924553394317627,-0.11249437183141708,-0.10425377637147903,0.10838191956281662,-1.6660573482513428
13,3056442,3056443,-0.19707487523555756,-0.17868414521217346,1.0823650360107422,-15.424134254455566,7.698602676391602,0.7814709544181824,0.6794660091400146,0.90445476770401,-0.12749361991882324,-0.2636835277080536,0.30882811546325684,-1.6671910285949707
14,3056452,3056453,-0.10396341234445572,-0.3926602303981781,0.9425042271614075,-16.46227264404297,4.446810245513916,1.1857666969299316,0.6734663248062134,0.9014549255371094,-0.12449377030134201,-0.3725631535053253,-0.021871624514460564,-1.6555261611938477
15,3056462,3056463,-0.09868375211954117,-0.3988568186759949,0.9845148921012878,-18.251590728759766,0.12021420896053314,1.1206295490264893,0.66896653175354,0.8939552903175354,-0.12899354100227356,-0.42201516032218933,-0.36563727259635925,-1.6382718086242676
16,3056472,3056473,-0.04260101541876793,-0.10587473213672638,0.9896420240402222,-17.250749588012695,-4.049884796142578,1.39486825466156,0.676466166973114,0.9074546098709106,-0.11249437183141708,-0.3954438865184784,-0.7053015232086182,-1.6238124370574951
17,3056482,3056483,-0.06321464478969574,-0.0988759994506836,0.8797532916069031,-13.554553985595703,-10.78599739074707,1.3149523735046387,0.6629668474197388,0.9089545607566833,-0.11999399960041046,-0.13585077226161957,-0.9345018267631531,-1.6046695709228516
18,3056492,3056493,-0.41368430852890015,0.0052101630717515945,1.0001039505004883,-7.526340484619141,-14.158080101013184,0.7716476321220398,0.676466166973114,0.8924553394317627,-0.12449377030134201,-0.2553313970565796,-1.1458992958068848,-1.5916173458099365
19,3056502,3056503,-0.14676927030086517,0.07353527843952179,0.9761813879013062,-0.2336859405040741,-14.472954750061035,0.3586387038230896,0.6734663248062134,0.9104544520378113,-0.12749361991882324,-0.1289685070514679,-1.2442986965179443,-1.5853996276855469
20,3056512,3056513,-0.17722734808921814,-0.05754224210977554,0.9966959357261658,6.243348121643066,-13.946072578430176,0.6482298374176025,0.6644667387008667,0.8954551815986633,-0.14249287545681,0.14628657698631287,-1.211470365524292,-1.5820074081420898
21,3056522,3056523,-0.4596664011478424,-0.20350690186023712,0.9511599540710449,13.464096069335938,-9.014945983886719,1.1162742376327515,0.683965802192688,0.8909554481506348,-0.1229938492178917,0.2691316306591034,-1.1303315162658691,-1.5715125799179077
22,3056532,3056533,-0.6374554634094238,-0.043950196355581284,1.0263159275054932,17.052383422851562,-2.5342772006988525,0.8614501357078552,0.6809659600257874,0.9059546589851379,-0.1229938492178917,0.37361082434654236,-0.8927939534187317,-1.5659332275390625
23,3056542,3056543,-0.7138747572898865,-0.37084031105041504,1.0436968803405762,17.30881690979004,1.8662633895874023,1.0045186281204224,0.683965802192688,0.896955132484436,-0.1229938492178917,0.38721784949302673,-0.6836885213851929,-1.5551356077194214
24,3056552,3056553,-0.3788659870624542,-0.24052637815475464,1.0020842552185059,14.740019798278809,7.491115093231201,0.9040331244468689,0.6824658513069153,0.8804559707641602,-0.11849407106637955,0.31214508414268494,-0.4327778220176697,-1.5470187664031982
25,3056562,3056563,-0.08446582406759262,-0.0964309498667717,0.9658352732658386,9.108777046203613,11.787668228149414,0.4299280643463135,0.6779661178588867,0.8939552903175354,-0.1319933980703354,0.15395958721637726,-0.5213995575904846,-1.5311565399169922
26,3056572,3056573,0.08522582054138184,0.09312347322702408,1.0031503438949585,2.171605110168457,12.340814590454102,0.31578728556632996,0.6719663739204407,0.8849557638168335,-0.13499325513839722,-0.03373308479785919,-0.6204549670219421,-1.5198962688446045
27,3056582,3056583,0.133485347032547,0.08428692817687988,0.9081805944442749,-2.644592761993408,8.499560356140137,0.2486063688993454,0.6779661178588867,0.8939552903175354,-0.13499325513839722,-0.17651745676994324,-0.6763749122619629,-1.510079264640808
28,3056592,3056593,0.05917449668049812,0.12209618836641312,0.85003662109375,-3.301832914352417,4.407224655151367,0.024043437093496323,0.6779661178588867,0.911954402923584,-0.11999399960041046,-0.26715776324272156,-0.7132954001426697,-1.5092823505401611
29,3056602,3056603,-0.32653671503067017,-0.2438981533050537,0.9974619150161743,0.17435909807682037,-3.6641907691955566,0.7146509289741516,0.6794660091400146,0.9014549255371094,-0.13049347698688507,-0.2594773769378662,-0.7894316911697388,-1.5025790929794312
30,3056612,3056613,-0.8294448852539062,-0.35123732686042786,1.005566954612732,3.3278186321258545,-9.57466983795166,0.6133257150650024,0.6794660091400146,0.9014549255371094,-0.13049347698688507,-0.12222418934106827,-0.7439435720443726,-1.5040957927703857
31,3056622,3056623,-0.8569555282592773,-0.1080075278878212,0.9795600771903992,7.589667320251465,-13.01091194152832,0.9381601810455322,0.6794660091400146,0.9014549255371094,-0.13049347698688507,0.0786062479019165,-0.3033145070075989,-1.5135455131530762
32,3056632,3056633,-0.8510459661483765,0.00981339905411005,0.984164834022522,11.562261581420898,-12.497875213623047,1.069002389907837,0.66896653175354,0.8789560198783875,-0.12599369883537292,0.30232468247413635,-0.4261566996574402,-1.5095685720443726
33,3056642,3056643,-0.8364466428756714,-0.15404662489891052,1.2115036249160767,11.959535598754883,-10.133565902709961,1.785025715827942,0.6884655356407166,0.8864556550979614,-0.12749361991882324,0.5033892393112183,-0.8901737928390503,-1.4857136011123657
34,3056652,3056653,-0.6524912714958191,-0.3580874800682068,1.064134955406189,11.951735496520996,-3.6146950721740723,1.3887319564819336,0.683965802192688,0.8819558620452881,-0.1319933980703354,0.6004037857055664,-0.6894425749778748,-1.4755550622940063
35,3056662,3056663,-0.3534322679042816,-0.4136270582675934,0.9538519382476807,14.805171966552734,3.4700934886932373,1.208022117614746,0.6824658513069153,0.8894554972648621,-0.13049347698688507,0.5762936472892761,-0.6797252297401428,-1.4567265510559082
36,3056672,3056673,-0.3249180018901825,-0.1551295518875122,0.9620395302772522,17.80965232849121,10.204381942749023,0.8780164122581482,0.6824658513069153,0.8864556550979614,-0.12149392068386078,0.45721885561943054,-0.3535425662994385,-1.4494376182556152
37,3056682,3056683,0.033349212259054184,0.01126011274755001,0.936635434627533,20.29742431640625,14.172149658203125,0.8014832735061646,0.6704664826393127,0.8834558129310608,-0.11549422144889832,0.2556575834751129,-0.12999069690704346,-1.4359090328216553
38,3056692,3056693,0.042547039687633514,0.04873998463153839,0.9181889891624451,20.540225982666016,15.642629623413086,0.3733161389827728,0.66896653175354,0.8819558620452881,-0.13499325513839722,0.014547151513397694,0.2531808912754059,-1.4341304302215576
39,3056702,3056703,0.002118278294801712,0.039256468415260315,0.9959577918052673,18.828889846801758,13.506400108337402,-0.13527657091617584,0.6854656934738159,0.8864556550979614,-0.13649317622184753,-0.14573392271995544,0.07204309105873108,-1.4109609127044678
40,3056712,3056713,-0.04088740423321724,0.024512650445103645,0.9965458512306213,14.909455299377441,8.56171703338623,0.2460247278213501,0.683965802192688,0.8879556059837341,-0.11999399960041046,-0.316901832818985,0.08969052881002426,-1.3969130516052246
41,3056722,3056723,-0.14106956124305725,0.005501231644302607,1.0409563779830933,12.737465858459473,1.7984143495559692,0.15794703364372253,0.6779661178588867,0.8789560198783875,-0.1229938492178917,-0.3168417513370514,0.40050366520881653,-1.4099584817886353
42,3056732,3056733,-0.02557395026087761,0.005322718061506748,0.9789311289787292,11.882810592651367,-4.5633697509765625,0.16882190108299255,0.66896653175354,0.8819558620452881,-0.13499325513839722,-0.21994735300540924,0.6056122183799744,-1.4169833660125732
43,3056742,3056743,-0.11218514293432236,-0.11221775412559509,1.0141408443450928,11.102585792541504,-9.498910903930664,0.4041479229927063,0.683965802192688,0.8909554481506348,-0.11999399960041046,-0.024497805163264275,0.856537938117981,-1.4239892959594727
44,3056752,3056753,0.08847749978303909,0.09762610495090485,0.9557561278343201,9.00350570678711,-8.780143737792969,0.6282192468643188,0.6749662160873413,0.8849557638168335,-0.12599369883537292,0.107449471950531,1.0122756958007812,-1.4226452112197876
45,3056762,3056763,0.022732146084308624,-0.009858795441687107,0.9376417398452759,5.450308799743652,-8.612407684326172,0.8596550822257996,0.6674666404724121,0.8744562864303589,-0.13049347698688507,0.17265085875988007,0.8505940437316895,-1.409406065940857
46,3056772,3056773,-0.02824856899678707,-0.28279003500938416,0.879148542881012,4.31705904006958,-4.651315689086914,0.45306897163391113,0.6824658513069153,0.8804559707641602,-0.13049347698688507,0.2486158311367035,0.8014754056930542,-1.3948559761047363
47,3056782,3056783,-0.010221612639725208,-0.14733466506004333,0.9568329453468323,3.5213780403137207,0.4928671717643738,-0.13407832384109497,0.6824658513069153,0.8954551815986633,-0.12749361991882324,0.2565324604511261,0.6681317687034607,-1.3886902332305908
48,3056792,3056793,0.000522717775311321,-0.2637602984905243,0.9926198720932007,5.640777111053467,5.916231155395508,-0.08257728070020676,0.6734663248062134,0.8774561285972595,-0.11549422144889832,0.19895629584789276,0.8225932717323303,-1.393684983253479
49,3056802,3056803,0.05158323422074318,-0.3241250514984131,0.9519463181495667,9.41970443725586,10.06998348236084,0.006602542009204626,0.6779661178588867,0.8819558620452881,-0.14399279654026031,0.00903171394020319,1.007025122642517,-1.4018133878707886
50,3056812,3056813,0.013495754450559616,-0.05140555277466774,1.005458950996399,12.800724983215332,11.275041580200195,-0.24870041012763977,0.6809659600257874,0.8879556059837341,-0.1229938492178917,-0.14598453044891357,1.2327975034713745,-1.4090114831924438
51,3056822,3056823,0.00651475228369236,0.04607652127742767,1.0025761127471924,13.981555938720703,10.212692260742188,0.012673832476139069,0.6719663739204407,0.8849557638168335,-0.12899354100227356,-0.3146509826183319,1.4378284215927124,-1.4114677906036377
52,3056832,3056833,-0.12716920673847198,-0.020681312307715416,1.064888596534729,11.390453338623047,6.5056233406066895,-0.15584012866020203,0.6794660091400146,0.8744562864303589,-0.13649317622184753,-0.427125483751297,1.633432149887085,-1.4163439273834229
53,3056842,3056843,-0.09540274739265442,-0.06344538182020187,1.080227255821228,7.348066806793213,1.4405969381332397,-0.3763667047023773,0.6734663248062134,0.8804559707641602,-0.13649317622184753,-0.34673982858657837,1.8318166732788086,-1.4058326482772827
54,3056852,3056853,-0.010390086099505424,-0.009228037670254707,0.987546980381012,2.3469204902648926,-4.040016174316406,-0.15532514452934265,0.6794660091400146,0.8774561285972595,-0.13049347698688507,-0.19998371601104736,1.8142844438552856,-1.3940796852111816
55,3056862,3056863,-0.0625513568520546,-0.0695909634232521,0.9912827610969543,-5.34570837020874,-6.93841552734375,0.03235206380486488,0.66896653175354,0.8609569072723389,-0.113994300365448,-0.13197028636932373,1.6987289190292358,-1.391504168510437
56,3056872,3056873,-0.04479371756315231,-0.0947500690817833,0.9509478211402893,-10.046158790588379,-8.121478080749512,0.5102759599685669,0.66896653175354,0.8669566512107849,-0.13799309730529785,-0.03232691437005997,1.6177042722702026,-1.385318636894226
57,3056882,3056883,-0.06696680933237076,-0.09928072243928909,0.9694348573684692,-12.266289710998535,-7.065356731414795,0.3065866231918335,0.6629668474197388,0.8759561777114868,-0.1229938492178917,-0.007268591318279505,1.616996169090271,-1.3869404792785645
58,3056892,3056893,-0.1368274837732315,-0.17624148726463318,0.9974848628044128,-12.355853080749512,-4.1378326416015625,0.4323130249977112,0.6734663248062134,0.8864556550979614,-0.1334933191537857,0.001959271728992462,1.5068225860595703,-1.3924446105957031
59,3056902,3056903,-0.8699599504470825,-0.3567187190055847,0.9018447399139404,-10.156835556030273,0.16279946267604828,0.5381676554679871,0.6644667387008667,0.8774561285972595,-0.11549422144889832,0.033923450857400894,1.333856225013733,-1.3846222162246704
60,3056912,3056913,-0.3529362082481384,-0.0006392633076757193,0.932112455368042,-7.037320613861084,3.630380153656006,0.3934856057167053,0.6629668474197388,0.8999549746513367,-0.13499325513839722,0.025387588888406754,1.268109917640686,-1.3827831745147705
61,3056922,3056923,-0.2478683441877365,-0.007071624975651503,1.0484619140625,-2.7763781547546387,5.917994976043701,0.21236459910869598,0.6704664826393127,0.8924553394317627,-0.12149392068386078,-0.024647317826747894,1.1973737478256226,-1.3869152069091797
62,3056932,3056933,-0.19032250344753265,-0.042591579258441925,1.1081337928771973,0.7628360986709595,6.755533218383789,-0.21243777871131897,0.66896653175354,0.8909554481506348,-0.1229938492178917,-0.11520431190729141,1.26667320728302,-1.3933652639389038
63,3056942,3056943,-0.18631407618522644,-0.07791057974100113,1.0827981233596802,1.9440360069274902,7.2654709815979,-0.31216567754745483,0.66896653175354,0.8759561777114868,-0.14399279654026031,-0.23348663747310638,1.2429007291793823,-1.3981304168701172
64,3056952,3056953,-0.2103043794631958,-0.09918086975812912,0.9752706289291382,1.412850022315979,4.96680212020874,-0.2926046848297119,0.6614668965339661,0.9074546098709106,-0.11849407106637955,-0.2865137755870819,1.2924444675445557,-1.3902322053909302
65,3056962,3056963,-0.08620721846818924,-0.003751131007447839,0.9188253879547119,0.2789160907268524,2.7096219062805176,-0.29315903782844543,0.6644667387008667,0.8984550833702087,-0.12749361991882324,-0.37966087460517883,1.3162339925765991,-1.3981215953826904
66,3056972,3056973,-0.28022465109825134,0.0823451578617096,0.8941724300384521,-3.0847113132476807,-1.8014241456985474,-0.36056962609291077,0.6659666895866394,0.8909554481506348,-0.12899354100227356,-0.3305966556072235,1.3108946084976196,-1.392033576965332
67,3056982,3056983,-0.2369793802499771,-0.17160506546497345,0.8782740831375122,-6.584351062774658,-3.664077043533325,0.08543884009122849,0.6569671630859375,0.8999549746513367,-0.12899354100227356,-0.3635439872741699,1.2421295642852783,-1.4033066034317017
68,3056992,3056993,-0.37181663513183594,-0.20610971748828888,0.995555579662323,-9.01644229888916,-7.052773475646973,0.1417725533246994,0.6644667387008667,0.8924553394317627,-0.12749361991882324,-0.2556450664997101,1.1068451404571533,-1.40104079246521
69,3057002,3057003,-0.2542797923088074,-0.18974125385284424,0.8741589188575745,-10.446528434753418,-6.3573808670043945,0.5825908780097961,0.6659666895866394,0.8849557638168335,-0.1229938492178917,-0.07405085116624832,1.1629540920257568,-1.3684245347976685
70,3057012,3057013,-0.423872709274292,-0.2264307290315628,1.029363751411438,-11.323808670043945,-8.434399604797363,0.2206457555294037,0.6524673700332642,0.9074546098709106,-0.12749361991882324,-0.13769395649433136,0.8502932190895081,-1.405369520187378
71,3057022,3057023,-0.579234778881073,-0.3442431390285492,0.9763556718826294,-10.087522506713867,-5.0070295333862305,0.39205044507980347,0.66896653175354,0.8879556059837341,-0.12899354100227356,-0.18271119892597198,0.8252059817314148,-1.413630485534668
72,3057032,3057033,-0.17295238375663757,-0.11513397097587585,0.8909704685211182,-8.321829795837402,-1.9482836723327637,0.6543527245521545,0.6599670052528381,0.8909554481506348,-0.113994300365448,-0.27733147144317627,1.0159761905670166,-1.4201383590698242
73,3057042,3057043,0.06541365385055542,0.04137077555060387,0.8181853294372559,-6.813112258911133,0.4316014051437378,0.49974527955055237,0.6674666404724121,0.9014549255371094,-0.12449377030134201,-0.3214574456214905,0.9294785857200623,-1.4257169961929321
74,3057052,3057053,0.06818076968193054,0.16778689622879028,0.9308347702026367,-6.998190402984619,-0.12463151663541794,0.7321018576622009,0.6629668474197388,0.8999549746513367,-0.1319933980703354,-0.27918344736099243,0.7917003631591797,-1.419031023979187
75,3057062,3057063,-0.0801343247294426,0.02736835367977619,1.0128594636917114,-5.098743915557861,-2.709437847137451,0.06281956285238266,0.6824658513069153,0.8924553394317627,-0.13649317622184753,-0.06762485951185226,0.7309292554855347,-1.3853615522384644
76,3057072,3057073,-0.23741130530834198,-0.07173872739076614,0.9926204681396484,-6.846816062927246,-3.342585325241089,0.6157305240631104,0.66896653175354,0.8939552903175354,-0.13499325513839722,-0.14516033232212067,0.5570409297943115,-1.4034637212753296
77,3057082,3057083,-0.16404980421066284,-0.07231494039297104,1.0026381015777588,-6.99773645401001,-4.9713873863220215,0.29703640937805176,0.6704664826393127,0.8864556550979614,-0.13649317622184753,-0.14777284860610962,0.5071918964385986,-1.4029088020324707
78,3057092,3057093,-0.3750334084033966,-0.0015873254742473364,0.9655961990356445,-7.4516825675964355,-5.963683605194092,0.04992970824241638,0.6884655356407166,0.8744562864303589,-0.1334933191537857,-0.05458387732505798,0.5154582262039185,-1.3918968439102173
79,3057102,3057103,-0.16402238607406616,0.0057629854418337345,0.9827057719230652,-7.169976234436035,-6.194421768188477,0.48013556003570557,0.6824658513069153,0.8864556550979614,-0.13049347698688507,0.05185395106673241,0.3060968816280365,-1.3831884860992432
80,3057112,3057113,-0.21939212083816528,0.0013916901079937816,0.8541072010993958,-6.5289506912231445,-5.053799629211426,0.33245065808296204,0.6884655356407166,0.8834558129310608,-0.13649317622184753,0.14169445633888245,0.18045899271965027,-1.3759260177612305
81,3057122,3057123,-0.307024747133255,0.03775585815310478,0.9223679900169373,-5.3429341316223145,-4.445112705230713,0.3696868121623993,0.6869656443595886,0.8909554481506348,-0.13799309730529785,0.25342386960983276,0.2685471773147583,-1.3675369024276733
82,3057132,3057133,-0.06016155332326889,0.07195072621107101,1.022101879119873,-3.3039627075195312,-3.2524962425231934,0.24516624212265015,0.6824658513069153,0.8894554972648621,-0.13649317622184753,0.34996458888053894,-0.03737751767039299,-1.3638428449630737
83,3057142,3057143,-0.07697026431560516,-0.09711025655269623,1.054836630821228,-1.9707982540130615,-0.07211918383836746,0.7725219130516052,0.6734663248062134,0.8894554972648621,-0.13649317622184753,0.40683794021606445,-0.0821734294295311,-1.3545036315917969
84,3057152,3057153,-0.11256489157676697,-0.11831087619066238,1.0988595485687256,0.9258678555488586,3.0966033935546875,0.13538669049739838,0.66896653175354,0.8819558620452881,-0.11699414998292923,0.38065657019615173,0.12002754956483841,-1.351395845413208
85,3057162,3057163,-0.3341517150402069,-0.10484275221824646,0.967787504196167,2.253793239593506,6.273919582366943,0.8773422241210938,0.676466166973114,0.8924553394317627,-0.12449377030134201,0.2913675606250763,0.2850196957588196,-1.343888282775879
86,3057172,3057173,-0.5808393359184265,0.015939932316541672,1.0036791563034058,1.7214137315750122,7.232912063598633,0.3525589406490326,0.6674666404724121,0.8894554972648621,-0.13049347698688507,0.10544167459011078,-0.04852655529975891,-1.3392729759216309
87,3057182,3057183,-0.1457492858171463,0.006663268432021141,0.90338134765625,-0.44014978408813477,7.062245845794678,0.43554434180259705,0.6749662160873413,0.8879556059837341,-0.13499325513839722,-0.028430430218577385,1.4093542098999023,-1.3617324829101562
88,3057192,3057193,0.10729529708623886,0.08666034787893295,0.878869354724884,-4.801007270812988,4.444941520690918,0.38152238726615906,0.683965802192688,0.8849557638168335,-0.13499325513839722,-0.0468011312186718,1.265850305557251,-1.3538293838500977
89,3057202,3057203,0.10416315495967865,0.16989240050315857,0.9340517520904541,-15.084952354431152,1.7039955854415894,0.8984860777854919,0.6719663739204407,0.8939552903175354,-0.13499325513839722,-0.016385160386562347,1.0851720571517944,-1.344242811203003
90,3057212,3057213,0.05683499202132225,0.15058082342147827,0.957892119884491,-26.613094329833984,-1.4473870992660522,0.8027480244636536,0.6719663739204407,0.8939552903175354,-0.12599369883537292,-0.007934613153338432,0.864220917224884,-1.335492730140686
91,3057222,3057223,-0.010748174972832203,0.14783397316932678,1.0800410509109497,-37.55364227294922,-3.023902654647827,1.3492496013641357,0.6704664826393127,0.8954551815986633,-0.1334933191537857,0.19868461787700653,0.32093995809555054,-1.3120402097702026
92,3057232,3057233,-0.19339485466480255,-0.06563989818096161,0.9801281094551086,-42.59894561767578,-3.525132656097412,0.7669170498847961,0.6779661178588867,0.9029548168182373,-0.13799309730529785,0.25602075457572937,-0.3481036126613617,-1.2966418266296387
93,3057242,3057243,-0.18042203783988953,-0.11209556460380554,1.060978889465332,-42.26859664916992,-2.7873215675354004,0.22071753442287445,0.6659666895866394,0.9029548168182373,-0.14399279654026031,0.34074828028678894,-0.5592095255851746,-1.2973556518554688
94,3057252,3057253,-0.6812704205513,-0.2337527871131897,1.2012721300125122,-33.56312942504883,-0.7816344499588013,0.36478903889656067,0.6809659600257874,0.8909554481506348,-0.14099295437335968,0.37397098541259766,-0.9262719750404358,-1.2953914403915405
95,3057262,3057263,-0.5304396152496338,-0.10944703221321106,1.0069752931594849,-22.822391510009766,2.483537197113037,0.8883758783340454,0.6734663248062134,0.9074546098709106,-0.13049347698688507,0.2708265483379364,-1.0672211647033691,-1.2962133884429932
96,3057272,3057273,-1.0657768249511719,-0.2222130447626114,1.0024616718292236,-12.482329368591309,5.6430463790893555,1.0755482912063599,0.6749662160873413,0.9089545607566833,-0.1319933980703354,0.1871398240327835,-1.4577922821044922,-1.2796645164489746
97,3057282,3057283,-0.8683881163597107,-0.09103528410196304,1.0219155550003052,-3.328819513320923,7.831820011138916,0.6572523713111877,0.6734663248062134,0.9074546098709106,-0.14249287545681,0.13886676728725433,-1.532328724861145,-1.274430274963379
98,3057292,3057293,-0.5070236325263977,-0.007603474427014589,0.9338637590408325,2.989774227142334,8.453227043151855,0.6181877255439758,0.6854656934738159,0.8954551815986633,-0.13949301838874817,0.13653124868869781,-1.4150524139404297,-1.2806835174560547
99,3057302,3057303,-0.04651618003845215,0.06343580037355423,0.9995262622833252,6.757474422454834,7.956292152404785,0.14426802098751068,0.6719663739204407,0.896955132484436,-0.1319933980703354,0.0006755178910680115,-1.2126343250274658,-1.281860589981079
100,3057312,3057313,0.02681131660938263,0.054948750883340836,1.0298856496810913,5.385682106018066,6.610727787017822,0.036097150295972824,0.6704664826393127,0.9074546098709106,-0.1334933191537857,-0.10748354345560074,-1.205040454864502,-1.2785582542419434
101,3057322,3057323,-0.054037608206272125,-0.025732792913913727,1.0619299411773682,-0.5753111839294434,4.616676330566406,0.5064549446105957,0.6704664826393127,0.9074546098709106,-0.1334933191537857,0.03281291946768761,-1.3777488470077515,-1.2897372245788574
102,3057332,3057333,-0.06220126897096634,-0.018570637330412865,0.9667103886604309,-6.511865615844727,3.508493661880493,0.3660033643245697,0.6704664826393127,0.9074546098709106,-0.1334933191537857,0.02225550264120102,-1.4930635690689087,-1.2866637706756592
103,3057342,3057343,-0.1763586848974228,-0.21324488520622253,1.1447536945343018,-11.497543334960938,1.7268190383911133,0.17330360412597656,0.6719663739204407,0.911954402923584,-0.13499325513839722,-0.01568976789712906,-1.7599607706069946,-1.2724322080612183
104,3057352,3057353,-0.16392679512500763,-0.4211275279521942,1.011913776397705,-14.042835235595703,1.8518916368484497,-0.1477368175983429,0.66896653175354,0.911954402923584,-0.1319933980703354,-0.07312806695699692,-2.005319356918335,-1.264868974685669
105,3057362,3057363,-0.31429439783096313,-0.37121257185935974,0.9835448265075684,-11.730779647827148,2.2759621143341064,-0.02618190087378025,0.6749662160873413,0.9179540872573853,-0.1319933980703354,-0.1387961208820343,-1.9756160974502563,-1.2629300355911255
106,3057372,3057373,-0.8293886780738831,-0.43976226449012756,1.0400820970535278,-5.726550579071045,3.109752893447876,0.3200766146183014,0.6584670543670654,0.919454038143158,-0.12149392068386078,-0.22348423302173615,-2.1599740982055664,-1.2520354986190796
107,3057382,3057383,-0.4747433066368103,-0.22212176024913788,0.8193700313568115,0.11835156381130219,3.2888317108154297,0.44839319586753845,0.6674666404724121,0.9164541363716125,-0.13649317622184753,-0.29311683773994446,-2.2524924278259277,-1.2441327571868896
108,3057392,3057393,-0.10887248069047928,0.2633781135082245,0.9615490436553955,6.589886665344238,2.1373093128204346,0.4871668815612793,0.6824658513069153,0.9314534068107605,-0.12749361991882324,-0.25831180810928345,-2.249553680419922,-1.2533562183380127
109,3057402,3057403,-0.16863702237606049,0.028579799458384514,0.9249760508537292,12.870867729187012,0.46175211668014526,0.14041902124881744,0.66896653175354,0.9179540872573853,-0.1229938492178917,-0.27473682165145874,-2.1234347820281982,-1.2469669580459595
110,3057412,3057413,-0.23162402212619781,-0.23480607569217682,1.0767356157302856,15.722749710083008,-1.2736761569976807,0.45733508467674255,0.6704664826393127,0.9224538803100586,-0.13649317622184753,-0.17920948565006256,-1.917898178100586,-1.2580046653747559
111,3057422,3057423,-0.29006636142730713,-0.5375718474388123,1.0571943521499634,19.043231964111328,-1.6253020763397217,0.3181730806827545,0.6584670543670654,0.90445476770401,-0.13049347698688507,-0.18370531499385834,-1.7876650094985962,-1.246161699295044
112,3057432,3057433,-0.093082956969738,-0.1469450294971466,0.9881532192230225,18.05448341369629,-0.6404226422309875,0.18119299411773682,0.6554672122001648,0.90445476770401,-0.12749361991882324,-0.052964210510253906,-1.6331055164337158,-1.281153678894043
113,3057442,3057443,-0.13330471515655518,-0.042520202696323395,1.0211702585220337,14.173246383666992,1.9548237323760986,0.42044180631637573,0.6779661178588867,0.8879556059837341,-0.12899354100227356,-0.09578230232000351,-1.5083389282226562,-1.2722355127334595
114,3057452,3057453,-0.16778121888637543,-0.0696990042924881,0.9636303186416626,10.53512191772461,3.914076328277588,0.3763575851917267,0.6734663248062134,0.8924553394317627,-0.14849257469177246,-0.29452088475227356,-1.3117849826812744,-1.2190730571746826
115,3057462,3057463,-0.2746613025665283,0.03158411383628845,1.0036518573760986,6.529911518096924,5.816685199737549,0.3040482997894287,0.6719663739204407,0.9029548168182373,-0.14099295437335968,-0.3664894700050354,-1.4044944047927856,-1.2148900032043457
116,3057472,3057473,-0.42023196816444397,-0.22293560206890106,0.993444561958313,2.8347997665405273,4.687428951263428,-0.03525637835264206,0.6659666895866394,0.8849557638168335,-0.1319933980703354,-0.3537578880786896,-1.334251880645752,-1.2307238578796387
117,3057482,3057483,-0.29687827825546265,-0.20764219760894775,1.0241684913635254,1.6775541305541992,2.7422850131988525,0.1041150912642479,0.6674666404724121,0.8954551815986633,-0.12749361991882324,-0.38959449529647827,-1.3689255714416504,-1.2284736633300781
118,3057492,3057493,-0.2884869873523712,-0.3251264691352844,0.9762203693389893,2.3003242015838623,0.8844934701919556,-0.05404151976108551,0.6734663248062134,0.8834558129310608,-0.14249287545681,-0.4265991449356079,-1.3235042095184326,-1.221795916557312
119,3057502,3057503,-0.09718350321054459,-0.08379748463630676,0.9811331629753113,4.611656665802002,-2.2937536239624023,-0.10607703030109406,0.6779661178588867,0.8909554481506348,-0.14399279654026031,-0.42622753977775574,-1.2623400688171387,-1.2182673215866089
120,3057512,3057513,-0.027487659826874733,-0.06801708787679672,0.9879025816917419,7.81341552734375,-4.889855861663818,-0.7473679780960083,0.6659666895866394,0.8939552903175354,-0.14099295437335968,-0.38581201434135437,-1.1568716764450073,-1.2227686643600464
121,3057522,3057523,-0.0004839243192691356,-0.10522948205471039,0.9303261637687683,10.66823959350586,-5.797615051269531,-0.5604614615440369,0.6704664826393127,0.8954551815986633,-0.13949301838874817,-0.2562386989593506,-1.0026355981826782,-1.2468026876449585
122,3057532,3057533,0.01940811052918434,-0.0021350733004510403,1.0105187892913818,11.698718070983887,-6.980888366699219,-0.566301167011261,0.6809659600257874,0.8849557638168335,-0.14399279654026031,-0.16355212032794952,-0.8874495625495911,-1.2572367191314697
123,3057542,3057543,0.08983471244573593,0.15731115639209747,1.0130681991577148,11.012578964233398,-4.095628261566162,0.05127148702740669,0.6704664826393127,0.8804559707641602,-0.1334933191537857,-0.09197474271059036,-0.6972925662994385,-1.265720009803772
124,3057552,3057553,0.076261006295681,0.10402397066354752,0.9233775734901428,9.403993606567383,-2.3690974712371826,-0.13904480636119843,0.6674666404724121,0.8834558129310608,-0.14249287545681,0.10332091152667999,-1.158488154411316,-1.3254927396774292
125,3057562,3057563,-0.052006013691425323,-0.009797819890081882,0.975818395614624,7.4498467445373535,0.8203574419021606,-0.3874164819717407,0.676466166973114,0.8954551815986633,-0.12749361991882324,0.09739353507757187,-1.055884599685669,-1.3235554695129395
126,3057572,3057573,-0.05330820754170418,0.03514273092150688,1.019015908241272,8.879679679870605,5.3338470458984375,-0.32264435291290283,0.676466166973114,0.8834558129310608,-0.14249287545681,0.04551519826054573,-1.0322765111923218,-1.3253196477890015
127,3057582,3057583,-0.09331130981445312,0.006463017780333757,1.0521844625473022,11.189279556274414,8.908493995666504,-0.8348665833473206,0.6749662160873413,0.8879556059837341,-0.14399279654026031,-0.06993871927261353,-0.9731462001800537,-1.3253536224365234
128,3057592,3057593,-0.002430606633424759,-0.09304796159267426,0.9907855987548828,16.323461532592773,11.029411315917969,-1.0544239282608032,0.676466166973114,0.8654567003250122,-0.14549271762371063,-0.23156926035881042,-0.6332947611808777,-1.3149187564849854
129,3057602,3057603,-0.08424206078052521,-0.16429463028907776,1.031153917312622,19.893415451049805,11.458013534545898,-1.42897629737854,0.6719663739204407,0.8819558620452881,-0.14399279654026031,-0.5011247992515564,-0.37311655282974243,-1.2903401851654053
130,3057612,3057613,-0.13664621114730835,-0.08487515151500702,1.0843669176101685,20.688962936401367,8.903264045715332,-1.887230634689331,0.676466166973114,0.8804559707641602,-0.13949301838874817,-0.6158543229103088,-0.0037322125863283873,-1.301893711090088
131,3057622,3057623,-0.05742715671658516,-0.06771483272314072,1.0431592464447021,17.890987396240234,3.465775966644287,-1.853136658668518,0.6629668474197388,0.8909554481506348,-0.14999249577522278,-0.44436219334602356,0.1236717626452446,-1.370154857635498
132,3057632,3057633,-0.003532969858497381,-0.10111453384160995,1.0512077808380127,12.3905029296875,-1.1408298015594482,-1.237288475036621,0.6614668965339661,0.8804559707641602,-0.14549271762371063,-0.4218772053718567,0.2686459720134735,-1.3881882429122925
133,3057642,3057643,-0.002142116893082857,-0.0017511624610051513,1.0158443450927734,6.151698589324951,-4.153020858764648,-1.161434531211853,0.6779661178588867,0.8789560198783875,-0.13499325513839722,-0.3927043676376343,0.2416122704744339,-1.4031225442886353
134,3057652,3057653,-0.006582346744835377,0.03320467099547386,1.0519686937332153,0.9088342189788818,-4.4417195320129395,-0.7903276085853577,0.66896653175354,0.8759561777114868,-0.13499325513839722,-0.33549800515174866,0.05635518208146095,-1.4218090772628784
135,3057662,3057663,-0.10688700526952744,-0.024050699546933174,1.0601353645324707,-0.9388367533683777,-4.626397609710693,-1.4161702394485474,0.676466166973114,0.8804559707641602,-0.13649317622184753,-0.276604026556015,0.10532019287347794,-1.4337596893310547
136,3057672,3057673,-0.017115630209445953,-0.03030478022992611,1.002111554145813,1.1787201166152954,-0.8734605312347412,-1.0972429513931274,0.6674666404724121,0.8714563846588135,-0.14249287545681,-0.2655041813850403,0.0830327719449997,-1.444029450416565
137,3057682,3057683,0.0245499350130558,-0.09715315699577332,0.9595516324043274,4.624060153961182,2.149475336074829,-1.1200501918792725,0.6629668474197388,0.8699564933776855,-0.1319933980703354,-0.3735268712043762,0.17553399503231049,-1.4371192455291748
138,3057692,3057693,-0.024332258850336075,-0.030981598421931267,1.004946231842041,9.416866302490234,4.993394374847412,-1.3406027555465698,0.6734663248062134,0.8834558129310608,-0.1334933191537857,-0.45266062021255493,0.32955488562583923,-1.444300889968872
139,3057702,3057703,0.06659960001707077,0.10970543324947357,1.0286496877670288,13.08663558959961,6.495785713195801,-1.1995768547058105,0.6674666404724121,0.8834558129310608,-0.12749361991882324,-0.5735931396484375,0.5490877032279968,-1.4474306106567383
140,3057712,3057713,0.09329462796449661,0.10944411158561707,0.9775382280349731,14.01016902923584,4.343135356903076,-1.7167946100234985,0.6614668965339661,0.8924553394317627,-0.13049347698688507,-0.6869754195213318,0.7257561683654785,-1.4558923244476318
141,3057722,3057723,0.11430856585502625,0.0877392515540123,0.8928757309913635,12.489522933959961,1.735212802886963,-1.534286379814148,0.6749662160873413,0.8789560198783875,-0.13799309730529785,-0.7551645636558533,0.9717530608177185,-1.466042160987854
142,3057732,3057733,0.016081739217042923,-0.012103368528187275,0.9021216034889221,8.145959854125977,-2.6604363918304443,-1.3531800508499146,0.6719663739204407,0.8849557638168335,-0.14099295437335968,-0.7614532709121704,1.0881266593933105,-1.479351282119751
143,3057742,3057743,-0.25586581230163574,-0.0011778431944549084,1.0184986591339111,1.9569705724716187,-6.80401086807251,-1.0169415473937988,0.6704664826393127,0.8804559707641602,-0.13949301838874817,-0.5355583429336548,0.9741963148117065,-1.5016402006149292
144,3057752,3057753,-0.04633637145161629,0.004502452444285154,0.9709281325340271,-4.910163879394531,-8.682029724121094,-0.4883066713809967,0.6824658513069153,0.8774561285972595,-0.12149392068386078,-0.4159446358680725,0.9861709475517273,-1.510895013809204
145,3057762,3057763,0.0491502583026886,-0.06298179179430008,0.9226335287094116,-7.213980674743652,-10.237762451171875,-0.8028713464736938,0.6674666404724121,0.8684565424919128,-0.14849257469177246,-0.32652387022972107,0.913933277130127,-1.523031234741211
146,3057772,3057773,0.000776926928665489,-0.024350035935640335,0.9556334614753723,-9.699275016784668,-8.246868133544922,-1.1931954622268677,0.6809659600257874,0.8639568090438843,-0.14099295437335968,-0.18029266595840454,0.6513349413871765,-1.5456711053848267
147,3057782,3057783,0.001022728974930942,0.03372713550925255,0.9334492683410645,-7.600187301635742,-3.731189727783203,-1.1968907117843628,0.683965802192688,0.8549572229385376,-0.14699265360832214,-0.1449231058359146,0.5340681076049805,-1.5660278797149658
148,3057792,3057793,0.0016713555669412017,0.10881002992391586,1.0179797410964966,-3.2015604972839355,0.6835582256317139,-1.3620455265045166,0.683965802192688,0.8639568090438843,-0.15599219501018524,-0.11097323149442673,0.2575959265232086,-1.5964508056640625
149,3057802,3057803,-0.03028869815170765,0.04752866178750992,1.0811479091644287,2.422010660171509,5.2327117919921875,-0.7142173647880554,0.6854656934738159,0.8564571738243103,-0.15449227392673492,-0.16240330040454865,0.2972486615180969,-1.6069148778915405
150,3057812,3057813,-0.048605356365442276,-0.006558053195476532,1.0492602586746216,9.465073585510254,7.854252815246582,-1.584957242012024,0.691465437412262,0.850457489490509,-0.14549271762371063,-0.26286542415618896,0.4246680736541748,-1.624246597290039
151,3057822,3057823,-0.029134107753634453,-0.13526709377765656,1.0278929471969604,15.866439819335938,7.677027702331543,-1.552975058555603,0.6824658513069153,0.8654567003250122,-0.1514924168586731,-0.38059648871421814,0.6572988033294678,-1.640630841255188
152,3057832,3057833,-0.08154499530792236,-0.1430932581424713,1.047882080078125,18.068470001220703,7.0440168380737305,-1.4920072555541992,0.691465437412262,0.8534573316574097,-0.15449227392673492,-0.5752869248390198,0.9668880105018616,-1.6628682613372803
153,3057842,3057843,-0.021956689655780792,-0.05622396245598793,1.0639228820800781,15.313648223876953,3.8084347248077393,-1.4266525506973267,0.6899654865264893,0.8549572229385376,-0.14399279654026031,-0.6453412175178528,0.9207045435905457,-1.6941161155700684
154,3057852,3057853,0.008602662943303585,0.02454194612801075,1.0681368112564087,10.082182884216309,0.06151232123374939,-1.56473708152771,0.6869656443595886,0.8489575386047363,-0.14399279654026031,-0.526471734046936,1.1680668592453003,-1.6881425380706787
155,3057862,3057863,-0.024245411157608032,0.04517531022429466,1.091823935508728,2.727546215057373,-4.410601615905762,-1.5879336595535278,0.676466166973114,0.8534573316574097,-0.14249287545681,-0.4800630807876587,1.2389521598815918,-1.7088984251022339
156,3057872,3057873,-0.04062042385339737,0.012313402257859707,1.0756036043167114,-3.7373838424682617,-6.342610836029053,-0.8858915567398071,0.6824658513069153,0.8564571738243103,-0.14549271762371063,-0.3823302984237671,1.2600855827331543,-1.7169337272644043
157,3057882,3057883,-0.4394393265247345,-0.028570910915732384,1.0881860256195068,-8.187263488769531,-7.1353840827941895,-0.7002893686294556,0.6674666404724121,0.8654567003250122,-0.13949301838874817,-0.2592006325721741,1.1828068494796753,-1.7278313636779785
158,3057892,3057893,-0.36305683851242065,0.1605236828327179,1.08994460105896,-11.050936698913574,-7.11090087890625,-0.392998605966568,0.6884655356407166,0.8654567003250122,-0.14849257469177246,-0.262805700302124,1.0429182052612305,-1.7497323751449585
159,3057902,3057903,-0.09810049086809158,0.20424343645572662,1.1274077892303467,-11.3226318359375,-4.319070339202881,-0.15790970623493195,0.6704664826393127,0.8864556550979614,-0.13049347698688507,-0.14753849804401398,0.8711669445037842,-1.751240849494934
160,3057912,3057913,0.0007791827083565295,0.062672458589077,1.0888257026672363,-8.402532577514648,-1.9139772653579712,0.10027340054512024,0.6794660091400146,0.8744562864303589,-0.12749361991882324,-0.010113099589943886,0.8003156185150146,-1.7339788675308228
161,3057922,3057923,-0.03013971634209156,-0.0033246891107410192,1.077786922454834,-4.189785480499268,0.10930624604225159,0.20548005402088165,0.6779661178588867,0.8789560198783875,-0.13499325513839722,-0.042026519775390625,0.696127712726593,-1.746531367301941
162,3057932,3057933,-0.10505109280347824,-0.028666546568274498,1.016035556793213,0.0741807222366333,3.0862698554992676,0.48924344778060913,0.6704664826393127,0.8834558129310608,-0.13649317622184753,-0.05764354020357132,0.6826446056365967,-1.74190092086792
163,3057942,3057943,-0.3223511874675751,-0.11237574368715286,0.9592313766479492,5.392542839050293,4.084568500518799,0.2530825436115265,0.6809659600257874,0.8909554481506348,-0.13499325513839722,-0.08187410980463028,0.9383301734924316,-1.7330057621002197
164,3057952,3057953,-0.18045608699321747,-0.14266550540924072,1.0990889072418213,6.592113494873047,5.031855583190918,0.640796422958374,0.6644667387008667,0.8924553394317627,-0.14549271762371063,-0.13447338342666626,1.0338820219039917,-1.7304364442825317
165,3057962,3057963,-0.2101406306028366,-0.08153443038463593,1.129555106163025,5.284656047821045,4.693547248840332,1.104357361793518,0.6659666895866394,0.896955132484436,-0.14099295437335968,-0.1997682750225067,0.932767927646637,-1.7363609075546265
166,3057972,3057973,-0.04663803055882454,0.0052245971746742725,1.0329034328460693,1.162069320678711,3.696298360824585,1.663130283355713,0.6704664826393127,0.8954551815986633,-0.12449377030134201,-0.2609733045101166,1.0024126768112183,-1.7244737148284912
167,3057982,3057983,-0.022476691752672195,-0.03458890691399574,1.0103169679641724,-2.4707181453704834,0.7997061610221863,1.1023138761520386,0.6734663248062134,0.8894554972648621,-0.1334933191537857,-0.29365798830986023,1.0026341676712036,-1.7118477821350098
168,3057992,3057993,-0.1366717666387558,-0.103082075715065,1.0946614742279053,-6.927168369293213,-2.895272731781006,1.5482515096664429,0.66896653175354,0.8879556059837341,-0.13499325513839722,-0.28461581468582153,0.9418449401855469,-1.694744348526001
169,3058002,3058003,-0.16395209729671478,-0.09988321363925934,1.033929705619812,-9.55827522277832,-5.2078046798706055,1.7902251482009888,0.6404679417610168,0.9014549255371094,-0.13649317622184753,-0.23436087369918823,1.0196044445037842,-1.6654177904129028
170,3058012,3058013,0.006329898256808519,0.011846939101815224,1.0017857551574707,-12.52682113647461,-7.5597710609436035,1.4371129274368286,0.66896653175354,0.8939552903175354,-0.13799309730529785,-0.127980574965477,1.2446459531784058,-1.6334019899368286
171,3058022,3058023,0.002803791780024767,0.06868802756071091,0.9961221814155579,-14.717068672180176,-8.361634254455566,0.621045708656311,0.6614668965339661,0.8954551815986633,-0.13649317622184753,-0.13910183310508728,0.9933090209960938,-1.6460444927215576
172,3058032,3058033,0.002659947844222188,-0.015355316922068596,0.9826589822769165,-16.361276626586914,-8.069910049438477,1.6278295516967773,0.6614668965339661,0.8954551815986633,-0.13649317622184753,-0.006245231255888939,0.7213860154151917,-1.6210715770721436
173,3058042,3058043,0.06984424591064453,0.027541043236851692,0.8610272407531738,-16.91044807434082,-5.6194682121276855,1.8037370443344116,0.6614668965339661,0.8954551815986633,-0.13649317622184753,0.09227458387613297,0.4321931302547455,-1.5975861549377441
174,3058052,3058053,0.0894656702876091,0.1118277981877327,0.8744970560073853,-15.379910469055176,-3.213175058364868,1.9022374153137207,0.6644667387008667,0.9014549255371094,-0.12749361991882324,0.10898937284946442,0.1462872475385666,-1.5881168842315674
175,3058062,3058063,0.023166105151176453,0.07697794586420059,0.974323034286499,-11.268115997314453,-0.21650543808937073,1.5824087858200073,0.6584670543670654,0.90445476770401,-0.1334933191537857,0.026516878977417946,0.24582815170288086,-1.590694785118103
176,3058072,3058073,0.01695398986339569,0.014002316631376743,1.048290491104126,-5.342845916748047,1.8929859399795532,1.8946703672409058,0.6599670052528381,0.9089545607566833,-0.1319933980703354,0.047421470284461975,0.1386205554008484,-1.5710816383361816
177,3058082,3058083,-0.026242956519126892,-0.015854308381676674,0.9766640663146973,-1.4611177444458008,2.9505488872528076,1.5637584924697876,0.6734663248062134,0.9104544520378113,-0.1334933191537857,0.019706418737769127,0.33329305052757263,-1.5520522594451904
178,3058092,3058093,0.011268706992268562,-0.059873513877391815,0.9654868245124817,-0.5069628357887268,3.459652900695801,1.9000623226165771,0.6704664826393127,0.8954551815986633,-0.12749361991882324,-0.03811099752783775,0.2857898473739624,-1.528611183166504
179,3058102,3058103,0.003565510967746377,-0.046069927513599396,0.9663900136947632,-2.0250422954559326,2.236274003982544,1.968246340751648,0.6704664826393127,0.8984550833702087,-0.13049347698688507,-0.09463470429182053,0.24021677672863007,-1.505819320678711
180,3058112,3058113,-0.0379825197160244,-0.053113967180252075,0.9350860714912415,-3.4607367515563965,0.8378086686134338,1.6552454233169556,0.6704664826393127,0.9074546098709106,-0.14549271762371063,-0.11679525673389435,0.44096773862838745,-1.4919099807739258
181,3058122,3058123,-0.010649822652339935,0.11670269072055817,0.9047907590866089,-8.517916679382324,-1.2912516593933105,1.8735982179641724,0.6614668965339661,0.9014549255371094,-0.13649317622184753,-0.10981007665395737,0.2993502616882324,-1.474266767501831
182,3058132,3058133,-0.03084341064095497,0.12700141966342926,0.9286047220230103,-14.199295997619629,-2.749514102935791,2.5110838413238525,0.676466166973114,0.8894554972648621,-0.11849407106637955,-0.045631472021341324,0.07372274994850159,-1.4484354257583618
183,3058142,3058143,-0.08439753949642181,-0.03331829607486725,0.9636200666427612,-16.36823272705078,-4.521730422973633,2.4251420497894287,0.6659666895866394,0.896955132484436,-0.12599369883537292,0.03440935164690018,-0.22560417652130127,-1.4196094274520874
184,3058152,3058153,-0.07591448724269867,-0.0840003490447998,1.0076704025268555,-18.19515609741211,-5.702633857727051,2.786623001098633,0.6629668474197388,0.9089545607566833,-0.12599369883537292,0.2215489000082016,-0.3983204662799835,-1.3810291290283203
185,3058162,3058163,-0.49030202627182007,-0.15040145814418793,1.1123632192611694,-14.682472229003906,-4.710156440734863,2.5703163146972656,0.6704664826393127,0.90445476770401,-0.1334933191537857,0.316045880317688,-0.7006791830062866,-1.3471604585647583
186,3058172,3058173,-0.6628327369689941,-0.2516430616378784,0.910272479057312,-10.346187591552734,-1.0786858797073364,2.624800682067871,0.6749662160873413,0.8999549746513367,-0.14399279654026031,0.26826220750808716,-0.6396047472953796,-1.3251070976257324
187,3058182,3058183,-0.11056892573833466,-0.08729726821184158,0.9262818694114685,-3.9787771701812744,2.197553873062134,2.7735280990600586,0.66896653175354,0.9029548168182373,-0.14099295437335968,0.23601573705673218,-0.7335465550422668,-1.297525405883789
188,3058192,3058193,-0.013449188321828842,-0.10214312374591827,0.8829280734062195,1.4279404878616333,4.23640775680542,2.434967517852783,0.6794660091400146,0.9014549255371094,-0.13049347698688507,0.09736201912164688,-0.5714290142059326,-1.2798566818237305
189,3058202,3058203,0.04261745885014534,0.12915436923503876,0.9520265460014343,4.011673450469971,5.187277317047119,1.7717748880386353,0.6749662160873413,0.8909554481506348,-0.1229938492178917,0.055918604135513306,-0.5781043767929077,-1.2618439197540283
190,3058212,3058213,-0.03422382101416588,-0.08786006271839142,1.0240609645843506,3.483853340148926,4.2282915115356445,1.9788403511047363,0.6644667387008667,0.8954551815986633,-0.13949301838874817,0.016767889261245728,-0.4244943857192993,-1.2466164827346802
191,3058222,3058223,-0.13983869552612305,-0.2246614694595337,1.042792797088623,1.913859248161316,2.9506523609161377,2.4122321605682373,0.6719663739204407,0.911954402923584,-0.1229938492178917,0.043574534356594086,-0.41312697529792786,-1.2236825227737427
192,3058232,3058233,-0.12333052605390549,-0.12861712276935577,1.0678026676177979,-1.2140822410583496,0.5927004814147949,2.4408953189849854,0.6719663739204407,0.896955132484436,-0.14099295437335968,-0.05701230466365814,-0.29308125376701355,-1.2028980255126953
193,3058242,3058243,-0.3013877272605896,-0.14805066585540771,0.949368417263031,-7.926697254180908,-0.8636992573738098,2.633274793624878,0.6719663739204407,0.8909554481506348,-0.13499325513839722,-0.055337902158498764,-0.4764198660850525,-1.1734073162078857
194,3058252,3058253,-0.14571383595466614,-0.04593054577708244,0.9460826516151428,-13.244768142700195,-2.6345791816711426,2.9992520809173584,0.6749662160873413,0.9059546589851379,-0.14999249577522278,-0.06124808266758919,-0.5972498059272766,-1.1404012441635132
195,3058262,3058263,0.06464292854070663,0.08438033610582352,0.895756185054779,-15.12740421295166,-4.49476432800293,3.1295504570007324,0.6704664826393127,0.8984550833702087,-0.12749361991882324,-0.019741501659154892,-0.7939852476119995,-1.1088833808898926
196,3058272,3058273,0.03785483539104462,0.1712132692337036,0.886379063129425,-15.024445533752441,-6.632870197296143,3.0475986003875732,0.6734663248062134,0.9074546098709106,-0.1334933191537857,0.07204356044530869,-1.0857617855072021,-1.073721170425415
197,3058282,3058283,-0.22168013453483582,0.174645334482193,0.9665514230728149,-12.54733657836914,-7.835932731628418,2.6379477977752686,0.6809659600257874,0.896955132484436,-0.12599369883537292,0.23327207565307617,-1.2860320806503296,-1.0469554662704468
198,3058292,3058293,-0.3045905530452728,-0.189814031124115,1.0174834728240967,-5.9261064529418945,-7.061826705932617,2.5686445236206055,0.6674666404724121,0.8924553394317627,-0.1334933191537857,0.3297232687473297,-1.409724235534668,-1.0197187662124634
199,3058302,3058303,-0.3072243928909302,-0.20232868194580078,1.1536693572998047,2.2549517154693604,-4.962789535522461,1.9409986734390259,0.676466166973114,0.8864556550979614,-0.14549271762371063,0.37699094414711,-1.4663290977478027,-0.9941918253898621
200,3058312,3058313,-0.1850947141647339,-0.22110141813755035,0.9795979857444763,8.426162719726562,-0.8906922340393066,2.5197603702545166,0.6749662160873413,0.8939552903175354,-0.13499325513839722,0.27927330136299133,-1.2468189001083374,-0.9639380574226379
201,3058322,3058323,-0.25499412417411804,-0.2167675644159317,0.9038571715354919,15.016026496887207,2.264106273651123,2.1048638820648193,0.6749662160873413,0.8939552903175354,-0.14099295437335968,0.3147064447402954,-1.213254451751709,-0.9412895441055298
202,3058332,3058333,-0.3163478970527649,0.009879063814878464,0.9208672046661377,16.28167152404785,4.963951110839844,2.596923351287842,0.66896653175354,0.896955132484436,-0.13499325513839722,0.2290193736553192,-0.9705714583396912,-0.9206379652023315
203,3058342,3058343,-0.2165113389492035,0.045614443719387054,0.7868803143501282,13.935310363769531,4.946873664855957,2.196143388748169,0.6704664826393127,0.9104544520378113,-0.14549271762371063,0.15083545446395874,-0.731854259967804,-0.9027547240257263
204,3058352,3058353,-0.07295138388872147,0.022307706996798515,1.0056177377700806,8.583643913269043,3.521191358566284,2.1831274032592773,0.676466166973114,0.8834558129310608,-0.1514924168586731,0.09843820333480835,-0.6398773193359375,-0.8769201040267944
205,3058362,3058363,-6.836946704424918e-05,-0.023656832054257393,0.9738104939460754,0.8305911421775818,2.5701751708984375,2.420442581176758,0.6629668474197388,0.8819558620452881,-0.1319933980703354,0.07161059975624084,-0.5743466019630432,-0.8557984232902527
206,3058372,3058373,-0.007040081080049276,0.022321544587612152,1.0270709991455078,-5.505043029785156,-0.5153015851974487,2.537231922149658,0.6629668474197388,0.8819558620452881,-0.1319933980703354,0.09052293002605438,-0.6326953768730164,-0.8368890881538391
207,3058382,3058383,-0.42055875062942505,-0.11598927527666092,0.9907148480415344,-8.616272926330566,-2.9221203327178955,1.68645179271698,0.6719663739204407,0.8909554481506348,-0.14399279654026031,0.13524626195430756,-0.7524968385696411,-0.8212254047393799
208,3058392,3058393,-0.22037898004055023,-0.050238531082868576,0.9723672866821289,-10.29914379119873,-4.424076080322266,1.3829525709152222,0.6719663739204407,0.8909554481506348,-0.14399279654026031,0.2740703821182251,-0.9195545315742493,-0.815584123134613
209,3058402,3058403,-0.23587265610694885,-0.08043726533651352,1.0236810445785522,-9.205748558044434,-5.105390548706055,0.9347642660140991,0.676466166973114,0.8954551815986633,-0.14249287545681,0.35219669342041016,-1.093806266784668,-0.8042862415313721
210,3058412,3058413,-0.3468564450740814,-0.0413283109664917,1.1259913444519043,-4.846879005432129,-3.323681116104126,0.3433855175971985,0.6749662160873413,0.8849557638168335,-0.13499325513839722,0.4183356463909149,-1.2168892621994019,-0.7971324920654297
211,3058422,3058423,-0.09411047399044037,-0.04236119985580444,1.0751721858978271,0.8232969641685486,-0.7090634107589722,-0.061303555965423584,0.6824658513069153,0.8894554972648621,-0.1514924168586731,0.4390508532524109,-1.250896692276001,-0.791740357875824
212,3058432,3058433,-0.09492280334234238,-0.059714145958423615,0.9955481886863708,7.1915602684021,2.6097970008850098,-0.18443609774112701,0.6704664826393127,0.8834558129310608,-0.1334933191537857,0.39817801117897034,-1.1845448017120361,-0.7897622585296631
213,3058442,3058443,-0.012679879553616047,-0.06634605675935745,0.9993944764137268,13.607183456420898,5.061882972717285,-0.9045591354370117,0.6704664826393127,0.8834558129310608,-0.1334933191537857,0.3050087094306946,-1.0230399370193481,-0.7954267859458923
214,3058452,3058453,-0.4694322347640991,-0.03602254390716553,1.0122332572937012,16.0052490234375,6.113784313201904,-0.7424544095993042,0.6749662160873413,0.8849557638168335,-0.14399279654026031,0.06248439475893974,-0.5664531588554382,-0.7927200794219971
215,3058462,3058463,-0.2565211355686188,0.09927219897508621,1.019484519958496,14.874800682067871,6.25111722946167,-0.5507969856262207,0.6704664826393127,0.8864556550979614,-0.13649317622184753,-0.02573782578110695,-0.5411996245384216,-0.7855296730995178
216,3058472,3058473,-0.04791994020342827,-0.003148086601868272,1.0045874118804932,11.323058128356934,3.4677276611328125,-0.7327684164047241,0.6704664826393127,0.8864556550979614,-0.13649317622184753,-0.025443365797400475,-0.32240909337997437,-0.8063421845436096
217,3058482,3058483,-0.22863304615020752,-0.02492189221084118,1.005196452140808,4.2417683601379395,-0.5222589373588562,-0.7162644863128662,0.6719663739204407,0.8939552903175354,-0.14099295437335968,0.025626283138990402,-0.2724802494049072,-0.8227288722991943
218,3058492,3058493,-0.1588960886001587,-0.009854095987975597,0.9511469602584839,-2.7138254642486572,-4.139438152313232,-0.9870436787605286,0.6749662160873413,0.8909554481506348,-0.13799309730529785,0.062337059527635574,-0.25834164023399353,-0.8350493311882019
219,3058502,3058503,-0.009639104828238487,0.011954842135310173,0.9992755651473999,-7.89957857131958,-5.486657619476318,-1.138282060623169,0.6749662160873413,0.896955132484436,-0.1319933980703354,0.13993054628372192,-0.3569284975528717,-0.8490146398544312
220,3058512,3058513,0.011393280699849129,0.03936237841844559,0.953420102596283,-11.701685905456543,-3.8878350257873535,-0.8181186318397522,0.6959651708602905,0.9029548168182373,-0.13799309730529785,0.21296000480651855,-0.5212587118148804,-0.857509434223175
221,3058522,3058523,0.012985787354409695,0.04685800522565842,0.9869653582572937,-11.495312690734863,-2.101808547973633,-1.4752159118652344,0.6809659600257874,0.8999549746513367,-0.12899354100227356,0.2843274772167206,-0.7250273823738098,-0.871753990650177
222,3058532,3058533,0.0006140705663710833,-0.0005880712415091693,1.0661821365356445,-7.904223918914795,1.0410301685333252,-2.055774450302124,0.6779661178588867,0.8939552903175354,-0.14999249577522278,0.17562231421470642,-0.8968504071235657,-0.8745183348655701
223,3058542,3058543,-0.03060188703238964,-0.015232004225254059,1.0009474754333496,-1.2323352098464966,5.1190900802612305,-2.2812373638153076,0.6779661178588867,0.8939552903175354,-0.14999249577522278,0.21168720722198486,-0.9728655219078064,-0.9032626152038574
224,3058552,3058553,-0.12334130704402924,-0.05102412402629852,1.1518688201904297,5.337163925170898,6.2098517417907715,-1.7597922086715698,0.6824658513069153,0.8924553394317627,-0.13949301838874817,0.13319458067417145,-0.8627602458000183,-0.9189124703407288
225,3058562,3058563,-0.03676653280854225,-0.007293948903679848,1.0205403566360474,13.22587776184082,7.646814346313477,-1.9153169393539429,0.6779661178588867,0.896955132484436,-0.14399279654026031,0.0168390404433012,-0.7081676721572876,-0.9351094365119934
226,3058572,3058573,0.013546306639909744,0.013353013433516026,0.9625911712646484,17.7635555267334,7.431506633758545,-1.8792871236801147,0.6779661178588867,0.8939552903175354,-0.14999249577522278,-0.11941325664520264,-0.4458838105201721,-0.9485514163970947
227,3058582,3058583,-0.12310638278722763,0.01975221000611782,0.9993200302124023,18.369855880737305,4.324429988861084,-2.66633939743042,0.6659666895866394,0.8879556059837341,-0.14099295437335968,-0.09014032036066055,-0.15161758661270142,-0.9846816658973694
228,3058592,3058593,-0.04033781588077545,0.018026040866971016,0.9707896113395691,14.645084381103516,1.4235846996307373,-2.2657840251922607,0.676466166973114,0.8924553394317627,-0.13949301838874817,-0.15849314630031586,-0.29434463381767273,-0.9905344843864441
229,3058602,3058603,0.03074955940246582,0.074199378490448,0.9939005374908447,7.539693832397461,-2.0831499099731445,-2.065096139907837,0.6719663739204407,0.8909554481506348,-0.14699265360832214,-0.17082776129245758,-0.07884770631790161,-1.0161027908325195
230,3058612,3058613,-0.0308681707829237,-0.02826203778386116,0.9852784276008606,0.8094863295555115,-4.07472038269043,-1.7155431509017944,0.6734663248062134,0.8954551815986633,-0.12749361991882324,-0.1256740689277649,0.0038368410896509886,-1.036988377571106
231,3058622,3058623,0.02046654187142849,0.006145142484456301,0.9969940185546875,-3.5021209716796875,-5.592568397521973,-1.8628519773483276,0.6704664826393127,0.8954551815986633,-0.13949301838874817,-0.05639924854040146,-0.009093782864511013,-1.0574233531951904
232,3058632,3058633,0.03672420233488083,-0.028786081820726395,0.9913266897201538,-6.804325580596924,-4.917323589324951,-1.6176519393920898,0.6704664826393127,0.8954551815986633,-0.13949301838874817,0.024249965324997902,-0.2988821566104889,-1.071705937385559
233,3058642,3058643,-0.30705034732818604,-0.1409675031900406,1.029964804649353,-5.765936374664307,-3.2401812076568604,-1.579349160194397,0.6644667387008667,0.8984550833702087,-0.13649317622184753,0.09069287776947021,-0.3953154385089874,-1.0876065492630005
234,3058652,3058653,-0.2682246267795563,-0.4896003007888794,1.0259335041046143,-2.9825685024261475,-0.33730700612068176,-1.0359454154968262,0.6779661178588867,0.8879556059837341,-0.14699265360832214,0.13375219702720642,-0.45132026076316833,-1.1034266948699951
235,3058662,3058663,-0.1486169397830963,-0.5169563889503479,0.9648534655570984,3.9129555225372314,1.8379366397857666,-1.3197065591812134,0.6719663739204407,0.8909554481506348,-0.1319933980703354,0.13477002084255219,-0.4355371594429016,-1.115352988243103
236,3058672,3058673,-0.3542572855949402,-0.0038813436403870583,1.042535424232483,9.355451583862305,4.28306245803833,-0.9866347908973694,0.6704664826393127,0.8744562864303589,-0.13949301838874817,0.09438622742891312,-0.30874398350715637,-1.127624273300171
237,3058682,3058683,-0.5911805033683777,0.032726727426052094,0.9824807047843933,14.179760932922363,5.883493423461914,-0.9578720331192017,0.6719663739204407,0.896955132484436,-0.13799309730529785,0.008174299262464046,-0.09367991983890533,-1.1355711221694946
238,3058692,3058693,-0.2722357511520386,0.0410204753279686,1.0036801099777222,16.554967880249023,6.489531517028809,-1.4899626970291138,0.6704664826393127,0.90445476770401,-0.14549271762371063,0.03690192848443985,0.1055230125784874,-1.1567847728729248
239,3058702,3058703,-0.1724942922592163,-0.038759030401706696,0.9964994788169861,15.145185470581055,6.112809181213379,-1.1286818981170654,0.6719663739204407,0.8789560198783875,-0.14099295437335968,-0.09207488596439362,0.3837825059890747,-1.1684784889221191
240,3058712,3058713,-0.04737817496061325,0.0025872443802654743,0.9956166744232178,11.105208396911621,5.236128807067871,-1.0306708812713623,0.6719663739204407,0.8849557638168335,-0.13799309730529785,-0.2751426100730896,0.5395830869674683,-1.173993468284607
241,3058722,3058723,-0.001914988737553358,-0.1176004484295845,1.0107510089874268,4.068562030792236,4.182227611541748,-0.3175516724586487,0.66896653175354,0.8849557638168335,-0.13499325513839722,-0.36281850934028625,0.6768670678138733,-1.1804569959640503
242,3058732,3058733,-0.0167863629758358,-0.07551265507936478,1.0413230657577515,-2.9363040924072266,1.3582137823104858,-0.3684442341327667,0.66896653175354,0.8849557638168335,-0.13499325513839722,-0.33407315611839294,0.6870695948600769,-1.1841202974319458
243,3058742,3058743,-0.01820005103945732,-0.05151576176285744,0.9957314729690552,-9.781919479370117,-2.804409980773926,-0.131632462143898,0.66896653175354,0.8849557638168335,-0.13499325513839722,-0.32043784856796265,0.5811729431152344,-1.1864112615585327
244,3058752,3058753,-0.06470490247011185,-0.03520989790558815,0.991457462310791,-14.383668899536133,-6.173845291137695,-0.45084038376808167,0.66896653175354,0.8849557638168335,-0.14099295437335968,-0.23939545452594757,0.3860428035259247,-1.1922025680541992
245,3058762,3058763,-0.023724809288978577,0.01619102619588375,1.0119264125823975,-15.658217430114746,-7.723552227020264,-0.9579890966415405,0.6734663248062134,0.8864556550979614,-0.12749361991882324,-0.19289319217205048,0.1330043375492096,-1.2013136148452759
246,3058772,3058773,0.018309084698557854,0.01947915554046631,0.9885457158088684,-13.496052742004395,-7.71586799621582,-1.0740517377853394,0.6734663248062134,0.8864556550979614,-0.12749361991882324,-0.050160981714725494,-0.10846497118473053,-1.212721824645996
247,3058782,3058783,0.015752041712403297,0.016897432506084442,1.006230354309082,-7.615128040313721,-6.636594295501709,-1.4599075317382812,0.6749662160873413,0.8879556059837341,-0.14699265360832214,0.07530954480171204,-0.2087029069662094,-1.2216644287109375
248,3058792,3058793,-0.03861929476261139,-0.030924435704946518,0.9974369406700134,0.0796392410993576,-3.998901605606079,-1.6306674480438232,0.66896653175354,0.9029548168182373,-0.13499325513839722,0.17087654769420624,-0.2665509879589081,-1.236446499824524
249,3058802,3058803,-0.09160435944795609,-0.07147106528282166,0.9811608195304871,6.726428508758545,-0.42615917325019836,-2.096292495727539,0.6734663248062134,0.8834558129310608,-0.1514924168586731,0.1301632523536682,-0.2012428343296051,-1.2561672925949097
250,3058812,3058813,-0.04815524443984032,0.044221557676792145,1.0310633182525635,12.921411514282227,4.359099864959717,-1.919360876083374,0.66896653175354,0.8909554481506348,-0.14999249577522278,0.08757132291793823,-0.09972599893808365,-1.2752914428710938
251,3058822,3058823,-0.09479296207427979,0.008795368485152721,0.9865612387657166,16.19990348815918,7.492347240447998,-1.3686692714691162,0.6749662160873413,0.8879556059837341,-0.1229938492178917,-0.012528127990663052,0.15535078942775726,-1.292561650276184
252,3058832,3058833,-0.0839025229215622,-0.017395274713635445,1.001190185546875,14.975027084350586,8.493646621704102,-1.1739256381988525,0.6659666895866394,0.8909554481506348,-0.13799309730529785,-0.07173029333353043,0.13493146002292633,-1.3046475648880005
253,3058842,3058843,-0.05669351667165756,-0.004303403198719025,1.006941556930542,11.735119819641113,7.449328422546387,-1.2490695714950562,0.6674666404724121,0.8834558129310608,-0.13949301838874817,-0.20400261878967285,0.5860921144485474,-1.3182175159454346
254,3058852,3058853,-0.023207221180200577,-0.01270793192088604,0.9876681566238403,6.621419906616211,5.461422920227051,-1.1509398221969604,0.6719663739204407,0.8849557638168335,-0.1229938492178917,-0.23262687027454376,0.7396408915519714,-1.3279714584350586
255,3058862,3058863,0.02613162063062191,0.008059401996433735,0.9905164837837219,-0.7596146464347839,3.1139745712280273,-0.8398605585098267,0.6644667387008667,0.8984550833702087,-0.1334933191537857,-0.2939196527004242,0.7893960475921631,-1.3389031887054443
256,3058872,3058873,0.007201219443231821,-0.040394894778728485,0.9766681790351868,-8.598077774047852,-0.49437159299850464,-1.0522383451461792,0.676466166973114,0.90445476770401,-0.12749361991882324,-0.16319800913333893,0.35838714241981506,-1.3462655544281006
257,3058882,3058883,-0.035294707864522934,-0.009208223782479763,1.0024484395980835,-13.337000846862793,-2.5597639083862305,-1.0133363008499146,0.6749662160873413,0.8879556059837341,-0.12899354100227356,-0.13247233629226685,0.20205482840538025,-1.3562777042388916
258,3058892,3058893,-0.08409104496240616,-0.04428861662745476,1.0229111909866333,-14.321653366088867,-3.8814761638641357,-0.8725059628486633,0.6659666895866394,0.8819558620452881,-0.14699265360832214,-0.07737652957439423,0.05901331827044487,-1.3638184070587158
259,3058902,3058903,-0.27241426706314087,-0.05780894681811333,0.9493195414543152,-10.61986255645752,-3.135942220687866,-0.747468888759613,0.6599670052528381,0.8759561777114868,-0.14099295437335968,-0.1011078730225563,-0.127760648727417,-1.3768781423568726
260,3058912,3058913,-0.226701021194458,-0.0624086819589138,1.16262686252594,-4.215819358825684,-3.1028270721435547,-0.3758354187011719,0.676466166973114,0.8804559707641602,-0.13049347698688507,-0.12303995341062546,0.04696698486804962,-1.3808380365371704
261,3058922,3058923,-0.20184685289859772,-0.06203421577811241,1.0331673622131348,4.597821235656738,0.493572473526001,0.23127934336662292,0.6614668965339661,0.8804559707641602,-0.14249287545681,-0.12192660570144653,0.0418703630566597,-1.3802610635757446
262,3058932,3058933,-0.10248497873544693,-0.08459781110286713,1.0088326930999756,10.226850509643555,2.165832042694092,0.28258252143859863,0.6809659600257874,0.8699564933776855,-0.14999249577522278,-0.2171342968940735,0.16256266832351685,-1.3831127882003784
263,3058942,3058943,-0.4559643268585205,-0.02699316293001175,1.0222409963607788,13.258439064025879,2.2005035877227783,-0.11065896600484848,0.66896653175354,0.8699564933776855,-0.1319933980703354,-0.1724570095539093,0.2063429206609726,-1.380328893661499
264,3058952,3058953,-0.2302347719669342,-0.054565880447626114,0.9578527212142944,11.84052848815918,2.019632577896118,-0.050751350820064545,0.6719663739204407,0.8819558620452881,-0.13799309730529785,-0.19144737720489502,0.5513688325881958,-1.3755918741226196
265,3058962,3058963,-0.7452012300491333,-0.02265593223273754,1.0102959871292114,7.6832380294799805,0.4012751579284668,0.10431409627199173,0.676466166973114,0.8684565424919128,-0.13949301838874817,-0.19420935213565826,0.15067318081855774,-1.3879090547561646
266,3058972,3058973,-0.4063569903373718,-0.08795187622308731,1.0632439851760864,1.8604332208633423,-1.2144767045974731,0.3081165850162506,0.6749662160873413,0.8699564933776855,-0.13799309730529785,-0.16567693650722504,0.13072927296161652,-1.3908183574676514
267,3058982,3058983,-0.04500918090343475,-0.1890200525522232,1.0268014669418335,-2.298534870147705,-1.8637535572052002,0.4218765199184418,0.66896653175354,0.8759561777114868,-0.1319933980703354,-0.13898897171020508,0.2346499115228653,-1.382175087928772
268,3058992,3058993,-0.03950461372733116,-0.15343549847602844,1.0021381378173828,-2.215231418609619,-2.897679328918457,0.20405332744121552,0.6659666895866394,0.8879556059837341,-0.14699265360832214,-0.03314127400517464,0.22767075896263123,-1.3728305101394653
269,3059002,3059003,-0.010232801549136639,-0.01990610733628273,0.9583548307418823,-1.5742082595825195,-3.9623754024505615,-0.9487735033035278,0.66896653175354,0.8819558620452881,-0.13799309730529785,0.08122469484806061,0.14477227628231049,-1.372534155845642
270,3059012,3059013,-0.015326944179832935,0.017207583412528038,1.0085622072219849,0.2575393319129944,-2.9181907176971436,-0.5841134190559387,0.6734663248062134,0.8924553394317627,-0.12749361991882324,0.05061858519911766,0.16011135280132294,-1.3834642171859741
271,3059022,3059023,-0.009963680990040302,0.013321669772267342,1.001115322113037,2.838543176651001,-0.5304521918296814,-0.7916990518569946,0.66896653175354,0.8879556059837341,-0.12899354100227356,0.07167234271764755,-0.000139858660986647,-1.392582654953003
272,3059032,3059033,0.036364808678627014,-0.06486590206623077,1.0144118070602417,5.974304676055908,1.9610092639923096,-0.34919852018356323,0.6674666404724121,0.8744562864303589,-0.12749361991882324,0.04913024231791496,0.1073264479637146,-1.3977025747299194
273,3059042,3059043,-0.0635129064321518,-0.050542838871479034,1.0166988372802734,9.723039627075195,3.5817177295684814,-0.47963669896125793,0.66896653175354,0.8819558620452881,-0.1229938492178917,0.005112361628562212,0.26773351430892944,-1.4047881364822388
274,3059052,3059053,-0.13163766264915466,-0.019419167190790176,1.0147825479507446,11.776932716369629,4.939969062805176,-0.8913602828979492,0.6524673700332642,0.8894554972648621,-0.14249287545681,-0.061157770454883575,0.46750572323799133,-1.4127287864685059
275,3059062,3059063,-0.07379008084535599,0.01420510932803154,1.0041199922561646,11.675043106079102,5.172245025634766,-0.9617874622344971,0.66896653175354,0.8879556059837341,-0.14099295437335968,-0.1364109367132187,0.6777669191360474,-1.423025131225586
276,3059072,3059073,0.0017234812257811427,0.01049585547298193,0.9837326407432556,9.714400291442871,3.6259703636169434,-1.2069647312164307,0.6719663739204407,0.8849557638168335,-0.1319933980703354,-0.2026335895061493,0.8688575625419617,-1.4347143173217773
277,3059082,3059083,0.004211360588669777,0.11407633870840073,1.035223126411438,3.7465531826019287,2.617680072784424,-1.1779965162277222,0.676466166973114,0.8774561285972595,-0.14249287545681,-0.3171635568141937,0.9216141104698181,-1.4563697576522827
278,3059092,3059093,-0.04514789953827858,-0.0025869763921946287,0.9830928444862366,-2.071383237838745,1.1383411884307861,-0.8341370224952698,0.6719663739204407,0.8789560198783875,-0.14399279654026031,-0.33435696363449097,0.9513874650001526,-1.4632630348205566
279,3059102,3059103,-0.08053923398256302,0.03687205910682678,1.0337201356887817,-7.313182830810547,-1.7016847133636475,-0.4564778506755829,0.6719663739204407,0.8789560198783875,-0.14399279654026031,-0.31996187567710876,0.8893581032752991,-1.4675750732421875
280,3059112,3059113,-0.09947046637535095,0.01346016675233841,0.9767774939537048,-10.445013046264648,-4.580942153930664,-0.7670921087265015,0.6659666895866394,0.8939552903175354,-0.13499325513839722,-0.26692742109298706,0.7530249357223511,-1.4732325077056885
281,3059122,3059123,-0.16578339040279388,-0.054629482328891754,0.9315988421440125,-12.258810997009277,-6.4556989669799805,-0.14431831240653992,0.6614668965339661,0.8834558129310608,-0.15449227392673492,-0.13462911546230316,0.5906897187232971,-1.4663830995559692
282,3059132,3059133,-0.3702091872692108,-0.018673377111554146,1.0002816915512085,-11.542655944824219,-7.141502380371094,-0.24468423426151276,0.6824658513069153,0.8894554972648621,-0.13949301838874817,-0.0421205572783947,0.4075296223163605,-1.4663658142089844
283,3059142,3059143,-0.19332480430603027,-0.006423601880669594,0.9846295714378357,-8.208409309387207,-5.62726354598999,-0.2045438140630722,0.6674666404724121,0.8834558129310608,-0.14549271762371063,0.04800795018672943,0.25233790278434753,-1.4675507545471191
284,3059152,3059153,-1.3179644346237183,0.05766811966896057,1.0856002569198608,-2.096750020980835,-2.759113073348999,0.17932604253292084,0.6644667387008667,0.8954551815986633,-0.14549271762371063,0.11928679049015045,0.45207077264785767,-1.4581177234649658
285,3059162,3059163,-0.6590089797973633,-0.06446907669305801,0.9818384647369385,3.2720298767089844,0.4522427022457123,0.5014019012451172,0.683965802192688,0.8879556059837341,-0.1319933980703354,0.15294583141803741,0.3055756986141205,-1.4549574851989746
286,3059172,3059173,-1.1295229196548462,-0.04554859176278114,1.0034568309783936,6.675442695617676,2.891908884048462,0.7517772316932678,0.676466166973114,0.8744562864303589,-0.14849257469177246,0.1395687311887741,0.384449303150177,-1.4493902921676636
287,3059182,3059183,-0.4943055510520935,0.00018511814414523542,1.0683677196502686,7.021814823150635,4.65491247177124,0.4479694068431854,0.6794660091400146,0.8894554972648621,-0.13949301838874817,0.09289322793483734,0.5008882284164429,-1.4436641931533813
288,3059192,3059193,-0.44576209783554077,-0.1382790356874466,1.0074939727783203,7.232573986053467,6.252252578735352,0.8113416433334351,0.6779661178588867,0.8909554481506348,-0.13799309730529785,-0.007507764734327793,0.5606422424316406,-1.4413913488388062
289,3059202,3059203,-0.4684460759162903,-0.19096945226192474,0.9623100161552429,3.8755757808685303,6.020878314971924,0.6950478553771973,0.6749662160873413,0.8639568090438843,-0.13499325513839722,-0.1469080150127411,0.6695888638496399,-1.437147617340088
290,3059212,3059213,-0.08520471304655075,-0.19197764992713928,0.9692872762680054,0.47827401757240295,4.798029899597168,0.8320661783218384,0.6554672122001648,0.8834558129310608,-0.14249287545681,-0.25254690647125244,0.7112137675285339,-1.432557225227356
291,3059222,3059223,-0.10540083050727844,-0.1996190994977951,1.0187867879867554,-4.735245704650879,1.7938038110733032,0.9029921889305115,0.6779661178588867,0.8789560198783875,-0.14099295437335968,-0.31522196531295776,0.6779828071594238,-1.4248746633529663
292,3059232,3059233,-0.028662951663136482,-0.03251240402460098,0.9815089106559753,-8.817943572998047,-2.3183085918426514,0.6855573058128357,0.6704664826393127,0.9014549255371094,-0.13049347698688507,-0.3113674521446228,0.5644067525863647,-1.417587399482727
293,3059242,3059243,0.020794497802853584,0.03793966770172119,1.0018683671951294,-12.075313568115234,-5.08228063583374,0.40185415744781494,0.676466166973114,0.8774561285972595,-0.13649317622184753,-0.3184521794319153,0.6080511808395386,-1.4180752038955688
294,3059252,3059253,-0.011423788033425808,0.005138186737895012,1.0055861473083496,-12.432052612304688,-7.963014125823975,0.3358991742134094,0.6644667387008667,0.8984550833702087,-0.14249287545681,-0.21028152108192444,0.527936577796936,-1.410019874572754
295,3059262,3059263,-0.01453486829996109,-0.020121464505791664,0.9859861731529236,-11.842480659484863,-7.629827499389648,0.8143582940101624,0.6734663248062134,0.8894554972648621,-0.1334933191537857,-0.07094188034534454,0.3053659200668335,-1.4014426469802856
296,3059272,3059273,0.006319925654679537,0.01660098135471344,1.0202118158340454,-11.181663513183594,-7.098884582519531,0.14338722825050354,0.6704664826393127,0.8774561285972595,-0.14249287545681,0.06604718416929245,0.09832274913787842,-1.3926717042922974
297,3059282,3059283,-0.11036179959774017,-0.11961151659488678,1.058065414428711,-7.991549491882324,-5.391205310821533,-0.02995014376938343,0.683965802192688,0.8789560198783875,-0.14099295437335968,0.19961102306842804,0.13115407526493073,-1.385413646697998
298,3059292,3059293,-0.03396594151854515,0.003670559963211417,1.0352753400802612,-2.125842332839966,-1.2611321210861206,-0.373757004737854,0.6824658513069153,0.8834558129310608,-0.13649317622184753,0.25912225246429443,0.09521710127592087,-1.3827589750289917
299,3059302,3059303,0.03701084479689598,-0.016183769330382347,0.9838625192642212,-0.30157193541526794,3.9624528884887695,-0.09636406600475311,0.6674666404724121,0.8834558129310608,-0.1514924168586731,0.23736168444156647,0.06275381147861481,-1.3846499919891357
300,3059312,3059313,-0.005778701044619083,-0.03907341882586479,1.0091350078582764,1.882790446281433,7.305902481079102,-0.007310590706765652,0.6614668965339661,0.8894554972648621,-0.13649317622184753,0.06403347104787827,0.0627855509519577,-1.3940162658691406
301,3059322,3059323,-0.025187181308865547,0.0022756203543394804,1.024253487586975,1.8284193277359009,9.693207740783691,-0.3207491934299469,0.6734663248062134,0.8864556550979614,-0.13649317622184753,-0.012028345838189125,0.08532290160655975,-1.3940849304199219
302,3059332,3059333,-0.025922568514943123,-0.047110430896282196,0.9751466512680054,1.6564329862594604,9.526056289672852,-0.6284134387969971,0.6614668965339661,0.8924553394317627,-0.1334933191537857,-0.18300200998783112,0.09843269735574722,-1.4037117958068848
303,3059342,3059343,0.029179753735661507,0.015203149057924747,1.0186845064163208,-1.307949185371399,7.084100246429443,-0.2558748722076416,0.676466166973114,0.8834558129310608,-0.14249287545681,-0.32172757387161255,0.0885820984840393,-1.413553237915039
304,3059352,3059353,-0.028410378843545914,-0.02618170902132988,0.9876981973648071,-3.9056830406188965,3.108980655670166,-0.022089041769504547,0.676466166973114,0.8924553394317627,-0.1334933191537857,-0.4096963107585907,0.03389203920960426,-1.4185651540756226
305,3059362,3059363,0.031011277809739113,0.0995846688747406,0.9639732837677002,-5.686271667480469,-1.4094501733779907,-0.11383288353681564,0.6809659600257874,0.8849557638168335,-0.14099295437335968,-0.4018344283103943,0.018267447128891945,-1.4209970235824585
306,3059372,3059373,0.030959617346525192,0.07326308637857437,1.055376648902893,-7.168816566467285,-5.378577709197998,0.27495190501213074,0.676466166973114,0.8864556550979614,-0.1334933191537857,-0.32886919379234314,-0.10395606607198715,-1.4188610315322876
307,3059382,3059383,-0.216836079955101,-0.11577584594488144,0.9986400008201599,-7.517037391662598,-9.238219261169434,0.2953769862651825,0.6749662160873413,0.8879556059837341,-0.13799309730529785,-0.18558752536773682,-0.16514569520950317,-1.4135421514511108
308,3059392,3059393,-0.44860565662384033,-0.27264899015426636,1.006532907485962,-6.6758131980896,-10.057412147521973,0.5930095314979553,0.676466166973114,0.8714563846588135,-0.13949301838874817,0.0019245435250923038,-0.2901906967163086,-1.407510757446289
309,3059402,3059403,-0.574725329875946,-0.5948923230171204,1.1410657167434692,-4.529897689819336,-10.900710105895996,0.24383965134620667,0.66896653175354,0.8849557638168335,-0.15599219501018524,0.25468727946281433,-0.39106884598731995,-1.4009894132614136
310,3059412,3059413,-0.4723261892795563,-0.23701661825180054,0.977142870426178,-1.5273125171661377,-6.939016342163086,0.7041848301887512,0.6644667387008667,0.8924553394317627,-0.13649317622184753,0.3930712938308716,-0.44195252656936646,-1.392006754875183
311,3059422,3059423,-1.344180941581726,0.060832493007183075,1.041384220123291,2.5196452140808105,-1.4575905799865723,0.8826062679290771,0.6719663739204407,0.8909554481506348,-0.13799309730529785,0.30503547191619873,-0.4315813481807709,-1.3834033012390137
312,3059432,3059433,-0.9434787631034851,-0.13952429592609406,1.0331417322158813,5.302767276763916,4.7009477615356445,0.9713465571403503,0.6719663739204407,0.8849557638168335,-0.13799309730529785,0.12014865130186081,-0.2263818383216858,-1.3736637830734253
313,3059442,3059443,-0.1444685310125351,-0.033535923808813095,0.9806616902351379,6.869311332702637,9.573553085327148,1.111289143562317,0.6719663739204407,0.8849557638168335,-0.13799309730529785,0.004919059108942747,-0.07014133036136627,-1.3657984733581543
314,3059452,3059453,-0.10996533930301666,-0.001521915546618402,1.064604640007019,5.633311748504639,10.56450080871582,1.2328622341156006,0.6719663739204407,0.8849557638168335,-0.13799309730529785,-0.0782831534743309,-0.1995689570903778,-1.3557559251785278
315,3059462,3059463,-0.7881039977073669,-0.16220656037330627,0.9922441244125366,3.524717330932617,7.838998794555664,1.1067023277282715,0.6719663739204407,0.896955132484436,-0.1229938492178917,-0.2228538542985916,-0.13235190510749817,-1.3448866605758667
316,3059472,3059473,-0.42201104760169983,-0.010100549086928368,1.0096055269241333,-0.2746782898902893,4.226499080657959,1.1693286895751953,0.6734663248062134,0.8954551815986633,-0.13049347698688507,-0.08929270505905151,-0.1217251718044281,-1.3356016874313354
317,3059482,3059483,0.022037984803318977,0.04321204870939255,1.0146386623382568,-3.086841344833374,-0.97604900598526,1.4956729412078857,0.6794660091400146,0.90445476770401,-0.1334933191537857,-0.11203949898481369,-0.1544235646724701,-1.3222417831420898
318,3059492,3059493,-0.5918408632278442,-0.42290058732032776,0.991233766078949,-4.90861701965332,-4.421569347381592,1.384824275970459,0.6599670052528381,0.8879556059837341,-0.1319933980703354,-0.06876290589570999,-0.21628853678703308,-1.3083112239837646
319,3059502,3059503,-0.25676199793815613,-0.1918177604675293,0.994995653629303,-4.811328411102295,-7.2399582862854,0.886951744556427,0.6704664826393127,0.8864556550979614,-0.13049347698688507,-0.11753720790147781,-0.29340702295303345,-1.2931472063064575
320,3059512,3059513,-0.04826411232352257,0.027647262439131737,0.9738864302635193,-4.670464038848877,-8.360140800476074,0.7022489309310913,0.6719663739204407,0.9029548168182373,-0.13799309730529785,-0.13135282695293427,-0.09344989061355591,-1.2826652526855469
321,3059522,3059523,0.011249756440520287,0.06429262459278107,1.0319533348083496,-2.848874807357788,-7.486680507659912,0.6060277819633484,0.6614668965339661,0.8864556550979614,-0.13949301838874817,0.14428448677062988,-0.38308432698249817,-1.2802687883377075
322,3059532,3059533,-0.02553650364279747,-0.028544317930936813,0.9808706641197205,-1.8710708618164062,-5.754218101501465,0.6528052091598511,0.6824658513069153,0.8774561285972595,-0.13949301838874817,0.10780717432498932,-0.283747136592865,-1.2702405452728271
323,3059542,3059543,-0.023255905136466026,0.0038423705846071243,1.0026026964187622,0.24955111742019653,-2.5257315635681152,1.2949753999710083,0.6704664826393127,0.8864556550979614,-0.13649317622184753,0.18916791677474976,-0.3085108697414398,-1.264361023902893
324,3059552,3059553,-0.011231034062802792,0.01857299916446209,1.0102014541625977,1.1977229118347168,0.007995376363396645,0.9295883178710938,0.6779661178588867,0.8909554481506348,-0.1319933980703354,0.22404542565345764,-0.23432224988937378,-1.2547595500946045
325,3059562,3059563,0.008634159341454506,-0.002590842079371214,0.9749560952186584,2.639611005783081,3.239079475402832,0.3189069926738739,0.6719663739204407,0.8909554481506348,-0.14399279654026031,0.21278570592403412,-0.2153838723897934,-1.2505807876586914
326,3059572,3059573,-0.012635554186999798,-0.004716529045253992,0.9894328713417053,2.188443899154663,4.125405311584473,0.5319441556930542,0.6734663248062134,0.8894554972648621,-0.13649317622184753,0.16466346383094788,-0.1852114349603653,-1.2466927766799927
327,3059582,3059583,-0.012882927432656288,0.004527423530817032,0.989936113357544,0.6865872144699097,5.479872703552246,0.525888979434967,0.6854656934738159,0.8774561285972595,-0.14549271762371063,0.08799515664577484,-0.09575546532869339,-1.2403814792633057
328,3059592,3059593,-0.004933522082865238,0.010802032425999641,0.9964848756790161,-1.148036003112793,4.7395830154418945,0.3567984700202942,0.6749662160873413,0.8819558620452881,-0.12899354100227356,0.008358605206012726,-0.17890006303787231,-1.2320629358291626
329,3059602,3059603,0.001737404614686966,0.009084911085665226,0.9761412739753723,-2.944863796234131,3.3715157508850098,0.33123260736465454,0.6809659600257874,0.8819558620452881,-0.14399279654026031,-0.058302585035562515,-0.28975751996040344,-1.2256450653076172
330,3059612,3059613,0.001885002013295889,0.037232790142297745,1.0165513753890991,-4.049649238586426,1.5326985120773315,0.7307209968566895,0.6794660091400146,0.8834558129310608,-0.14549271762371063,-0.031469739973545074,-0.48460760712623596,-1.2202821969985962
331,3059622,3059623,-0.01293057668954134,-0.04320697858929634,0.9975200295448303,-3.416701316833496,-1.0337238311767578,0.9342069625854492,0.683965802192688,0.8849557638168335,-0.14399279654026031,0.09286955744028091,-0.11905518174171448,-1.2261197566986084
332,3059632,3059633,-0.009365351870656013,-0.01457219384610653,1.0019809007644653,-1.2991222143173218,-2.290347099304199,1.3700488805770874,0.6779661178588867,0.8909554481506348,-0.14099295437335968,0.1024312749505043,-0.1819300800561905,-1.211711049079895
333,3059642,3059643,-0.027646474540233612,0.01462272834032774,1.0423316955566406,0.36407211422920227,-1.8004732131958008,1.361806035041809,0.6779661178588867,0.8789560198783875,-0.14099295437335968,0.12485533207654953,-0.20844440162181854,-1.1994550228118896
334,3059652,3059653,-0.024505257606506348,-0.005066268146038055,1.006430983543396,0.665280818939209,-0.24847306311130524,1.0403860807418823,0.6809659600257874,0.8789560198783875,-0.13499325513839722,0.14231714606285095,-0.21873289346694946,-1.188610553741455
335,3059662,3059663,0.014452962204813957,0.030258404091000557,1.0230021476745605,-0.9846709966659546,2.1551244258880615,1.739986777305603,0.6719663739204407,0.8789560198783875,-0.14399279654026031,0.1251460462808609,-0.23601359128952026,-1.1747304201126099
336,3059672,3059673,-0.021615689620375633,-0.009868760593235493,1.0206122398376465,-1.473517894744873,4.615650653839111,1.5534484386444092,0.6854656934738159,0.8834558129310608,-0.13949301838874817,0.07792627066373825,-0.27524295449256897,-1.1566283702850342
337,3059682,3059683,-0.007815798744559288,-0.015994878485798836,0.9874546527862549,-1.296572208404541,5.529538631439209,1.498549222946167,0.66896653175354,0.8939552903175354,-0.14399279654026031,0.003000497817993164,-0.24289077520370483,-1.1412699222564697
338,3059692,3059693,-0.0009723381954245269,0.022523680701851845,1.0247303247451782,-1.3655656576156616,5.9675469398498535,1.3163570165634155,0.6779661178588867,0.8879556059837341,-0.12599369883537292,-0.08548750728368759,-0.2763006389141083,-1.1237285137176514
339,3059702,3059703,-0.03720925375819206,0.0028626176062971354,1.0288351774215698,-1.4712928533554077,5.27849006652832,1.3015137910842896,0.6614668965339661,0.8774561285972595,-0.15449227392673492,-0.1695326417684555,-0.31019502878189087,-1.1090209484100342
340,3059712,3059713,-0.16610799729824066,-0.049033764749765396,1.0070862770080566,-0.9390705227851868,3.6840014457702637,1.5316758155822754,0.6719663739204407,0.8849557638168335,-0.14699265360832214,-0.17179538309574127,-0.3432352840900421,-1.0955637693405151
341,3059722,3059723,-0.1922980099916458,-0.24205337464809418,1.034902811050415,-1.5374071598052979,1.128495216369629,1.39837646484375,0.6674666404724121,0.8894554972648621,-0.12749361991882324,-0.22753757238388062,-0.3654114603996277,-1.0793722867965698
342,3059732,3059733,-0.523118257522583,-0.3407379984855652,0.9412240982055664,-1.3329927921295166,-0.21379454433918,2.2969188690185547,0.66896653175354,0.8819558620452881,-0.13499325513839722,-0.2616673707962036,-0.31527379155158997,-1.056277871131897
343,3059742,3059743,-0.5849902629852295,-0.5463427305221558,1.0001826286315918,-0.12635070085525513,-4.0307936668396,1.4953875541687012,0.676466166973114,0.8984550833702087,-0.12149392068386078,-0.26297321915626526,-0.3294464647769928,-1.0342679023742676
344,3059752,3059753,-0.38474658131599426,-0.30036282539367676,1.0234898328781128,0.20714889466762543,-5.466495037078857,1.6301254034042358,0.6794660091400146,0.8744562864303589,-0.13049347698688507,-0.22444690763950348,-0.1899779886007309,-1.017216682434082
345,3059762,3059763,-0.009259720332920551,-0.12118221819400787,0.9403891563415527,0.09034600108861923,-7.837599754333496,2.0029144287109375,0.6674666404724121,0.8774561285972595,-0.13049347698688507,-0.13417579233646393,-0.21226400136947632,-0.9942810535430908
346,3059772,3059773,0.052491120994091034,0.06362714618444443,0.983048141002655,-2.1449646949768066,-8.781886100769043,2.027954578399658,0.6644667387008667,0.8834558129310608,-0.13049347698688507,-0.011052164249122143,-0.2466229647397995,-0.9778467416763306
347,3059782,3059783,-0.1433606594800949,-0.04240190237760544,1.0088289976119995,-3.1042864322662354,-8.096325874328613,2.3375513553619385,0.683965802192688,0.8849557638168335,-0.13499325513839722,0.126536563038826,-0.5188979506492615,-0.9584437608718872
348,3059792,3059793,-0.09494969993829727,-0.014564971439540386,0.9613472819328308,-3.834104537963867,-5.827270984649658,2.341449499130249,0.6794660091400146,0.8894554972648621,-0.13949301838874817,0.17935867607593536,-0.5749854445457458,-0.9328120946884155
349,3059802,3059803,0.01036787312477827,0.0678340420126915,0.9570327997207642,-1.789130687713623,-0.5280349254608154,2.3147733211517334,0.6809659600257874,0.8849557638168335,-0.1319933980703354,0.033406488597393036,-0.6249428987503052,-0.9022327065467834
350,3059812,3059813,-0.030819183215498924,0.062060363590717316,1.0627597570419312,0.3989645838737488,3.8009440898895264,1.696779727935791,0.6734663248062134,0.8804559707641602,-0.13649317622184753,0.112750343978405,-0.642218828201294,-0.8933125734329224
351,3059822,3059823,-0.03809569031000137,-0.11820083111524582,0.9909617304801941,3.355563163757324,6.8115410804748535,1.3787604570388794,0.6809659600257874,0.8879556059837341,-0.13499325513839722,-0.02162521332502365,-0.6073423027992249,-0.8734753131866455
352,3059832,3059833,-0.014968592673540115,-0.03875580430030823,1.0111783742904663,7.702478885650635,7.215068340301514,1.466227412223816,0.6734663248062134,0.8834558129310608,-0.14549271762371063,-0.12780044972896576,-0.512660801410675,-0.8578046560287476
353,3059842,3059843,-0.03868372365832329,-0.004994703456759453,1.0347058773040771,10.159799575805664,4.971561908721924,0.805532693862915,0.6749662160873413,0.8879556059837341,-0.13499325513839722,-0.07107120007276535,-0.36397528648376465,-0.8575550317764282
354,3059852,3059853,-0.12215448915958405,-0.15008847415447235,1.1171797513961792,9.942606925964355,2.272813081741333,1.266711711883545,0.676466166973114,0.8864556550979614,-0.14249287545681,-0.1357947736978531,-0.19935423135757446,-0.8426938652992249
355,3059862,3059863,0.006264983210712671,0.001595451612956822,1.0455454587936401,8.090889930725098,0.01590489037334919,0.898723840713501,0.683965802192688,0.8849557638168335,-0.13799309730529785,-0.15159301459789276,-0.25450319051742554,-0.8294785618782043
356,3059872,3059873,-0.019497346132993698,-0.034899450838565826,1.1043412685394287,4.319965839385986,-3.3100643157958984,1.1280925273895264,0.6704664826393127,0.8624568581581116,-0.1514924168586731,-0.1135503426194191,-0.20231419801712036,-0.815456748008728
357,3059882,3059883,-0.08237147331237793,-0.12784841656684875,1.0605731010437012,2.281219720840454,-4.785892009735107,0.9732500910758972,0.66896653175354,0.8819558620452881,-0.14999249577522278,-0.04681609570980072,-0.13009706139564514,-0.8045507073402405
358,3059892,3059893,-0.04989205300807953,-0.06231333687901497,1.0590170621871948,0.39849966764450073,-5.322475433349609,1.138879656791687,0.683965802192688,0.8819558620452881,-0.14399279654026031,0.03884532302618027,-0.09178575128316879,-0.792657732963562
359,3059902,3059903,-0.044542279094457626,-0.08002472668886185,1.0817160606384277,-0.9753611087799072,-4.366208076477051,1.4643492698669434,0.6704664826393127,0.8714563846588135,-0.1334933191537857,0.11255281418561935,-0.08415637910366058,-0.7765585780143738
360,3059912,3059913,-0.042519234120845795,-0.14116470515727997,1.026609182357788,-1.97071373462677,-2.3991212844848633,1.4774342775344849,0.6704664826393127,0.8984550833702087,-0.14249287545681,0.09014678001403809,-0.0947103500366211,-0.7553649544715881
361,3059922,3059923,-0.014566242694854736,-0.04758357256650925,0.9687076210975647,-0.5288106799125671,-0.6879600286483765,1.492812991142273,0.6629668474197388,0.8939552903175354,-0.14399279654026031,0.04119330272078514,-0.10572633892297745,-0.7369727492332458
362,3059932,3059933,0.05990687012672424,-0.035987548530101776,0.9658383131027222,1.2949248552322388,0.8114073872566223,1.460342526435852,0.6704664826393127,0.8984550833702087,-0.13949301838874817,0.026003550738096237,-0.1682630479335785,-0.7161312699317932
363,3059942,3059943,-0.04352271556854248,-0.00896317046135664,0.9927535653114319,3.2831826210021973,1.604944109916687,1.5642799139022827,0.6734663248062134,0.90445476770401,-0.1334933191537857,0.05162755772471428,-0.11921603977680206,-0.7062287926673889
364,3059952,3059953,-0.05244790390133858,-0.05279120057821274,1.0158599615097046,4.926232814788818,0.23006528615951538,1.7838119268417358,0.66896653175354,0.8909554481506348,-0.12599369883537292,0.02778162993490696,-0.04712473601102829,-0.6882784366607666
365,3059962,3059963,0.006133598741143942,-0.010677723214030266,0.9365004897117615,7.545104503631592,-0.030961008742451668,1.8788390159606934,0.6719663739204407,0.8909554481506348,-0.14099295437335968,0.01336754858493805,0.054397162050008774,-0.6685783267021179
366,3059972,3059973,0.08856898546218872,0.17405493557453156,0.8589789271354675,7.770323753356934,-0.23656082153320312,2.2416481971740723,0.6704664826393127,0.8984550833702087,-0.1334933191537857,-0.059013139456510544,0.041865959763526917,-0.6487084627151489
367,3059982,3059983,0.0380847193300724,0.2637189030647278,1.0439938306808472,7.087174892425537,-1.6149303913116455,1.9091217517852783,0.6809659600257874,0.896955132484436,-0.13499325513839722,-0.018042568117380142,0.09810113906860352,-0.6303162574768066
368,3059992,3059993,-0.11184343695640564,0.08699708431959152,1.0217305421829224,5.541444301605225,-2.187340497970581,2.401768207550049,0.6779661178588867,0.8909554481506348,-0.12899354100227356,0.04971373826265335,0.18933042883872986,-0.6112499237060547
369,3060002,3060003,-0.15800365805625916,-0.032984890043735504,1.004338026046753,3.777618646621704,-2.8222455978393555,2.9181973934173584,0.6749662160873413,0.8909554481506348,-0.11999399960041046,0.12815862894058228,0.2752176523208618,-0.5923818945884705
370,3060012,3060013,-0.3939971923828125,-0.056688740849494934,1.0346922874450684,1.7052576541900635,-1.895238995552063,3.1429555416107178,0.6749662160873413,0.8849557638168335,-0.14399279654026031,0.1993895322084427,0.2622615098953247,-0.5658954381942749
371,3060022,3060023,-0.2627204656600952,-0.19952425360679626,1.0061136484146118,-0.33202823996543884,-1.7459063529968262,2.907365560531616,0.6854656934738159,0.8954551815986633,-0.13949301838874817,0.2408902943134308,0.2915392816066742,-0.5350291728973389
372,3060032,3060033,-0.2288960963487625,-0.14032062888145447,1.0514379739761353,-1.6741501092910767,-0.3328098654747009,3.0664584636688232,0.6719663739204407,0.9029548168182373,-0.13499325513839722,0.18038196861743927,0.2863444983959198,-0.5055762529373169
373,3060042,3060043,-0.10205613821744919,-0.050031110644340515,1.0237635374069214,-2.733527898788452,0.1351792812347412,2.2907676696777344,0.6629668474197388,0.896955132484436,-0.12599369883537292,0.1724075824022293,0.2660605013370514,-0.47807031869888306
374,3060052,3060053,-0.02243356592953205,-0.05807088315486908,1.004656434059143,-2.921846866607666,0.3688868284225464,2.1710205078125,0.6659666895866394,0.9089545607566833,-0.13499325513839722,0.16405992209911346,0.23113667964935303,-0.45049354434013367
375,3060062,3060063,0.05761983245611191,-0.0032887770794332027,0.9623616337776184,-2.7568390369415283,1.0036050081253052,2.269265651702881,0.6584670543670654,0.8954551815986633,-0.1334933191537857,0.137190580368042,0.1913309097290039,-0.4217565357685089
376,3060072,3060073,-0.015425015240907669,-0.003611768828704953,0.9829661846160889,-1.4072574377059937,0.41253185272216797,2.2189061641693115,0.6734663248062134,0.8894554972648621,-0.13649317622184753,0.12036525458097458,0.1700204759836197,-0.4011274576187134
377,3060082,3060083,0.033659838140010834,0.05835718289017677,0.9169824719429016,0.5670414566993713,0.6524046063423157,2.0594661235809326,0.6674666404724121,0.8894554972648621,-0.1334933191537857,0.10041850805282593,0.16265246272087097,-0.3801945745944977
378,3060092,3060093,-0.009060466662049294,0.011327642016112804,0.9607269167900085,2.6687698364257812,-0.039513472467660904,2.0888915061950684,0.6644667387008667,0.8834558129310608,-0.13049347698688507,0.09737721085548401,0.18850301206111908,-0.36036717891693115
379,3060102,3060103,0.021822508424520493,0.07098858058452606,0.9725567102432251,3.1813883781433105,0.376085102558136,2.897195816040039,0.6809659600257874,0.8819558620452881,-0.1319933980703354,0.10648587346076965,0.23618565499782562,-0.3412269949913025
380,3060112,3060113,-0.01925966702401638,0.07349471747875214,0.9647457599639893,5.673178672790527,-0.7377991080284119,1.8958730697631836,0.6779661178588867,0.8909554481506348,-0.13799309730529785,0.12923413515090942,0.3001139163970947,-0.32120442390441895
381,3060122,3060123,0.02020004205405712,0.03292868658900261,0.9873951077461243,4.93172025680542,0.31341686844825745,2.3524086475372314,0.6779661178588867,0.8849557638168335,-0.14399279654026031,0.14203108847141266,0.3234986662864685,-0.29929301142692566
382,3060132,3060133,-0.18221309781074524,-0.11833455413579941,0.9633743166923523,2.607405185699463,0.34623920917510986,2.2392537593841553,0.6629668474197388,0.8909554481506348,-0.1319933980703354,0.1481441855430603,0.3189917504787445,-0.2739918529987335
383,3060142,3060143,-0.17249174416065216,-0.1518692821264267,1.0258270502090454,1.6813915967941284,0.6487295031547546,1.9864141941070557,0.6749662160873413,0.8879556059837341,-0.12899354100227356,0.08014875650405884,0.22462747991085052,-0.25196102261543274
384,3060152,3060153,-0.0064519476145505905,-0.15032944083213806,0.9554609656333923,-0.8339694738388062,1.1888362169265747,2.2004354000091553,0.6554672122001648,0.8864556550979614,-0.13649317622184753,0.0698966234922409,0.2569500803947449,-0.23184029757976532
385,3060162,3060163,-0.277679979801178,-0.17637978494167328,0.8739163875579834,0.3809135854244232,0.9626724123954773,2.3972253799438477,0.6554672122001648,0.8864556550979614,-0.13649317622184753,0.01736702024936676,0.2683869004249573,-0.20345436036586761
386,3060172,3060173,-0.191102996468544,-0.05228631570935249,0.9814292192459106,-0.020488573238253593,-0.23174981772899628,2.2675583362579346,0.6554672122001648,0.8864556550979614,-0.13649317622184753,0.05488813295960426,0.227668896317482,-0.17474377155303955
387,3060182,3060183,-0.5041520595550537,-0.010615382343530655,0.9297648072242737,1.2433016300201416,-0.7313317060470581,1.5821195840835571,0.6749662160873413,0.8849557638168335,-0.12899354100227356,0.016085734590888023,0.1888684183359146,-0.15350651741027832
388,3060192,3060193,-0.6528798937797546,0.13381467759609222,0.872151792049408,1.763877272605896,-1.8791730403900146,1.9768012762069702,0.6794660091400146,0.8894554972648621,-0.12449377030134201,0.02009415812790394,0.2247709184885025,-0.1307038515806198
389,3060202,3060203,-0.24982567131519318,0.003390110330656171,0.9560011029243469,2.822968006134033,-3.650397777557373,1.664214849472046,0.6734663248062134,0.8774561285972595,-0.1334933191537857,0.07248685508966446,0.20994053781032562,-0.11233742535114288
390,3060212,3060213,-0.04206645488739014,0.046456485986709595,0.9082522988319397,3.088921546936035,-3.61871075630188,2.2268106937408447,0.6569671630859375,0.8759561777114868,-0.14699265360832214,0.0756850615143776,0.26804623007774353,-0.09886153042316437
391,3060222,3060223,-0.08056928217411041,0.018817588686943054,0.9954150915145874,4.519922256469727,-4.099130153656006,1.812746524810791,0.676466166973114,0.8624568581581116,-0.14249287545681,0.2196090668439865,0.3481390178203583,-0.07668984681367874
392,3060232,3060233,0.026515083387494087,0.022297251969575882,1.001705288887024,3.680138111114502,-3.4801583290100098,1.6367950439453125,0.6854656934738159,0.8744562864303589,-0.14249287545681,0.2800799310207367,0.2858772873878479,-0.05545681342482567
393,3060242,3060243,-0.0031790053471922874,-0.09798222780227661,0.9638709425926208,2.664426565170288,-1.3063676357269287,1.653156042098999,0.683965802192688,0.8759561777114868,-0.13799309730529785,0.2671999931335449,0.28121963143348694,-0.04410132020711899
394,3060252,3060253,-0.07332215458154678,-0.11137260496616364,1.0434997081756592,2.0597033500671387,0.9608562588691711,1.5042457580566406,0.6824658513069153,0.8624568581581116,-0.1334933191537857,0.2832085192203522,0.34018972516059875,-0.031031468883156776
395,3060262,3060263,-0.04247002303600311,0.0016829397063702345,1.0199177265167236,1.904496669769287,4.089969635009766,1.4759682416915894,0.6794660091400146,0.8744562864303589,-0.13649317622184753,0.17220838367938995,0.3929315209388733,-0.021746613085269928
396,3060272,3060273,-0.13924215734004974,-0.05807182937860489,1.107546091079712,2.1798925399780273,4.714034557342529,1.1099597215652466,0.6734663248062134,0.8744562864303589,-0.15449227392673492,0.11856687813997269,0.44472500681877136,-0.008257227949798107
397,3060282,3060283,-0.10424013435840607,-0.07749884575605392,1.099847674369812,1.362165093421936,5.313941478729248,0.9078641533851624,0.6824658513069153,0.8744562864303589,-0.13049347698688507,0.1738106906414032,0.4896548390388489,0.010678183287382126
398,3060292,3060293,0.005705998744815588,-0.012494607828557491,0.999416708946228,0.6977275013923645,4.622509002685547,0.9254422187805176,0.6779661178588867,0.8819558620452881,-0.14399279654026031,0.09096115082502365,0.518006443977356,0.01784222200512886
399,3060302,3060303,-0.026716845110058784,-0.061802953481674194,1.0381373167037964,0.09857413172721863,3.5270326137542725,1.001989722251892,0.6599670052528381,0.8819558620452881,-0.14099295437335968,0.017261667177081108,0.5399940609931946,0.030422315001487732
400,3060312,3060313,-0.04075618460774422,-0.12901555001735687,0.9872521162033081,-0.617324948310852,1.794727087020874,0.713988721370697,0.6794660091400146,0.8744562864303589,-0.13649317622184753,-0.04498092830181122,0.5524235963821411,0.04019002988934517
401,3060322,3060323,0.012578664347529411,0.004265379626303911,1.0006033182144165,-2.076629400253296,-0.36259162425994873,0.1608155369758606,0.66896653175354,0.8729563355445862,-0.13499325513839722,-0.05335119366645813,0.5367839932441711,0.04528634250164032
402,3060332,3060333,0.012457696720957756,-0.009497339837253094,0.972578227519989,-2.3471901416778564,-2.4431614875793457,0.8569364547729492,0.6719663739204407,0.8699564933776855,-0.1319933980703354,-0.03567597270011902,0.5087452530860901,0.05330071970820427
403,3060342,3060343,-0.021495141088962555,-0.08267555385828018,0.9922274351119995,-3.0758304595947266,-4.310909748077393,0.2082356959581375,0.6749662160873413,0.8729563355445862,-0.12899354100227356,0.06182149797677994,0.4720235764980316,0.06815765053033829
404,3060352,3060353,-0.0936836302280426,-0.17574197053909302,1.0693211555480957,-2.4772963523864746,-4.188854694366455,0.17824190855026245,0.6659666895866394,0.8729563355445862,-0.1319933980703354,0.28805315494537354,0.6561206579208374,0.08358697593212128
405,3060362,3060363,-0.007496166042983532,-0.06833819299936295,1.019302487373352,-2.909395933151245,-2.961583375930786,0.40507209300994873,0.6779661178588867,0.8699564933776855,-0.14399279654026031,0.09179286658763885,0.3979875445365906,0.07882203161716461
406,3060372,3060373,-0.5901062488555908,-0.03065875545144081,0.9398236274719238,-4.471127510070801,-0.27212294936180115,0.24242153763771057,0.6749662160873413,0.8819558620452881,-0.13799309730529785,0.09350328892469406,0.6881235241889954,0.07534737884998322
407,3060382,3060383,-0.5814865231513977,0.17080281674861908,0.9999523162841797,-6.099645614624023,1.5420827865600586,0.661720335483551,0.676466166973114,0.8864556550979614,-0.13649317622184753,0.08511105179786682,0.5104739665985107,0.08177369087934494
408,3060392,3060393,-0.3065547049045563,0.271019846200943,1.0666449069976807,-5.953434944152832,2.7670881748199463,0.777986466884613,0.6704664826393127,0.8774561285972595,-0.13649317622184753,-0.014558082446455956,0.39981722831726074,0.08236860483884811
409,3060402,3060403,0.026401735842227936,0.10102373361587524,0.9706593751907349,-7.375221252441406,2.990534543991089,0.8642913699150085,0.6659666895866394,0.8879556059837341,-0.12899354100227356,-0.04126627743244171,0.34826719760894775,0.08864758163690567
410,3060412,3060413,-0.020653409883379936,0.0026534709613770247,0.9599915146827698,-7.359125137329102,2.0808982849121094,0.009232183918356895,0.6674666404724121,0.8864556550979614,-0.1334933191537857,-0.06436144560575485,0.2136177122592926,0.08934193849563599
411,3060422,3060423,-0.05302286893129349,0.055259592831134796,0.9982044696807861,-6.630974769592285,0.5954256653785706,-0.1524398773908615,0.6674666404724121,0.8894554972648621,-0.13649317622184753,-0.0028650560416281223,0.08994406461715698,0.09194999188184738
412,3060432,3060433,0.002002937952056527,-0.00790295097976923,0.997931957244873,-5.607535362243652,-1.0366344451904297,-0.3172989785671234,0.6704664826393127,0.8924553394317627,-0.13949301838874817,0.02021089754998684,0.052293576300144196,0.08530726283788681
413,3060442,3060443,-0.01344327349215746,0.005860048811882734,1.0395536422729492,-3.8398382663726807,-1.2143051624298096,-0.31335681676864624,0.6794660091400146,0.8774561285972595,-0.13949301838874817,0.05075883865356445,0.0985916405916214,0.07783861458301544
414,3060452,3060453,0.006612375378608704,-0.008672570809721947,0.9179734587669373,-1.3952200412750244,-1.535387635231018,-0.7122445106506348,0.6749662160873413,0.8789560198783875,-0.13799309730529785,0.08125736564397812,0.11352203041315079,0.07300306856632233
415,3060462,3060463,-0.08951830118894577,-0.09863646328449249,1.0476124286651611,-0.47521352767944336,-1.3457516431808472,-0.24143385887145996,0.6734663248062134,0.8834558129310608,-0.12749361991882324,0.1301056444644928,0.07766258716583252,0.0696767196059227
416,3060472,3060473,-0.08952689915895462,-0.08277896791696548,1.0958266258239746,-0.3659566342830658,0.5507543087005615,-0.39390829205513,0.6659666895866394,0.8759561777114868,-0.12599369883537292,0.13839209079742432,0.05860495567321777,0.06854546070098877
417,3060482,3060483,-0.07718382030725479,-0.029209712520241737,1.0918704271316528,-0.3833845853805542,2.3897955417633057,-0.2752390503883362,0.6809659600257874,0.8729563355445862,-0.13799309730529785,0.12576939165592194,0.053671885281801224,0.06440888345241547
418,3060492,3060493,-0.034037768840789795,-0.055354293435811996,1.0789095163345337,-2.174783229827881,3.226745128631592,-0.6684651374816895,0.6719663739204407,0.8939552903175354,-0.1529923528432846,0.07111821323633194,0.03157123923301697,0.06354493647813797
419,3060502,3060503,-0.007044707424938679,-0.13183902204036713,0.9867786765098572,-2.9353179931640625,4.548060894012451,-0.4813823997974396,0.6854656934738159,0.8744562864303589,-0.1334933191537857,0.0010154860792681575,-0.007877434603869915,0.05804755166172981
420,3060512,3060513,-0.0039696116000413895,-0.0007139606168493629,0.9933086633682251,-4.490527153015137,4.753772735595703,-0.6816676259040833,0.6674666404724121,0.8894554972648621,-0.12449377030134201,-0.08384139090776443,-0.0763268992304802,0.05124138295650482
421,3060522,3060523,-0.04846348613500595,-0.030604390427470207,0.9626656770706177,-3.9453394412994385,3.4639639854431152,-0.966343343257904,0.66896653175354,0.8939552903175354,-0.13499325513839722,-0.08910506218671799,-0.14596803486347198,0.044951681047677994
422,3060532,3060533,-0.20245157182216644,-0.0252919290214777,0.9909146428108215,-4.061829566955566,1.967069387435913,-0.9138875603675842,0.6734663248062134,0.8864556550979614,-0.12749361991882324,-0.16218934953212738,-0.21307311952114105,0.03679927811026573
423,3060542,3060543,-0.4102364778518677,0.06057747080922127,0.9614726305007935,-2.424362897872925,-0.06479980051517487,-0.18657845258712769,0.6599670052528381,0.896955132484436,-0.14099295437335968,-0.22767852246761322,-0.2668735682964325,0.03013841062784195
424,3060552,3060553,-0.04383125528693199,-0.09435799717903137,0.8984189629554749,-1.3084014654159546,-2.76134991645813,-0.3899478018283844,0.6674666404724121,0.8954551815986633,-0.1334933191537857,-0.21215733885765076,-0.29707616567611694,0.02730681374669075
425,3060562,3060563,0.028357556089758873,0.0664408877491951,0.9469489455223083,0.5654027462005615,-5.152442932128906,0.18567845225334167,0.6704664826393127,0.8894554972648621,-0.14249287545681,-0.15551091730594635,-0.31714707612991333,0.026763858273625374
426,3060572,3060573,-0.5155749320983887,0.14729058742523193,1.0338729619979858,2.9704768657684326,-6.413904190063477,0.12930889427661896,0.6749662160873413,0.8849557638168335,-0.1319933980703354,-0.039153244346380234,-0.2344392091035843,0.02535814419388771
427,3060582,3060583,-0.14028792083263397,0.09695316851139069,1.0367107391357422,4.581886291503906,-6.624433517456055,-0.132207989692688,0.6779661178588867,0.8879556059837341,-0.13499325513839722,0.048758987337350845,-0.19300992786884308,0.022733060643076897
428,3060592,3060593,-0.38642528653144836,-0.29724738001823425,1.1136213541030884,3.474663257598877,-7.451468467712402,-0.10572861135005951,0.66896653175354,0.8849557638168335,-0.13499325513839722,0.20088006556034088,-0.1399560123682022,0.020854992792010307
429,3060602,3060603,-0.2079213410615921,-0.12602274119853973,1.0436701774597168,3.2006382942199707,-1.4783071279525757,0.2418411672115326,0.6704664826393127,0.8924553394317627,-0.14249287545681,0.2523496448993683,-0.0786033421754837,0.023227836936712265
430,3060612,3060613,-0.27100834250450134,-0.2924354672431946,0.9917522668838501,2.246201753616333,0.7514263987541199,0.2772262990474701,0.6704664826393127,0.8864556550979614,-0.13949301838874817,0.2482510805130005,-0.025028565898537636,0.024920031428337097
431,3060622,3060623,-0.22929894924163818,-0.24177971482276917,1.0150368213653564,-0.3760192394256592,2.9487011432647705,0.2990066409111023,0.6719663739204407,0.8849557638168335,-0.12899354100227356,0.2580731213092804,-0.006396558601409197,0.032044269144535065
432,3060632,3060633,-0.273458868265152,-0.11431834846735,0.9717717170715332,-2.1903903484344482,4.997077465057373,0.05456245318055153,0.676466166973114,0.8834558129310608,-0.13649317622184753,0.13822855055332184,-0.03531487658619881,0.039944857358932495
433,3060642,3060643,-0.033141378313302994,-0.00044262490700930357,0.9692734479904175,-4.8766069412231445,5.321563243865967,-0.09654088318347931,0.6824658513069153,0.8864556550979614,-0.1334933191537857,0.0815039649605751,-0.097673200070858,0.04362577944993973
434,3060652,3060653,0.07725991308689117,0.029578113928437233,1.0347542762756348,-6.585273265838623,3.6512796878814697,0.012117949314415455,0.6794660091400146,0.8864556550979614,-0.14549271762371063,-0.008093430660665035,-0.19290849566459656,0.047655072063207626
435,3060662,3060663,0.12425986677408218,0.06976243108510971,0.9306280612945557,-6.869711875915527,1.8139492273330688,-0.10789436101913452,0.676466166973114,0.8894554972648621,-0.13949301838874817,-0.06702578067779541,-0.30897870659828186,0.04900634288787842
436,3060672,3060673,0.026445288211107254,0.014301793649792671,0.8711565732955933,-5.169412612915039,-0.36982667446136475,-0.5265705585479736,0.683965802192688,0.8759561777114868,-0.13799309730529785,-0.08471851795911789,-0.4099391996860504,0.04149821773171425
437,3060682,3060683,-0.02622058615088463,0.1496122181415558,0.9993346929550171,-2.504230260848999,-2.6637134552001953,-1.032938838005066,0.6854656934738159,0.8864556550979614,-0.14549271762371063,-0.05714836344122887,-0.48579472303390503,0.029024774208664894
438,3060692,3060693,-0.002922781277447939,-0.04420424997806549,1.053634762763977,1.6366324424743652,-5.0457892417907715,-0.7209376096725464,0.6704664826393127,0.8804559707641602,-0.14549271762371063,0.021501272916793823,-0.49442631006240845,0.019088370725512505
439,3060702,3060703,-0.02497219108045101,-0.08799822628498077,1.0662864446640015,6.659611225128174,-3.158139944076538,-0.9413459300994873,0.683965802192688,0.8819558620452881,-0.1319933980703354,0.09760584682226181,-0.4230703115463257,0.005797137971967459
440,3060712,3060713,-0.07727751135826111,-0.001185526023618877,1.0652669668197632,9.845758438110352,-1.9110238552093506,-0.8289858102798462,0.66896653175354,0.8759561777114868,-0.14699265360832214,0.14695490896701813,-0.2770703136920929,-0.004755294881761074
441,3060722,3060723,-0.14110076427459717,-0.059336669743061066,1.1427706480026245,10.613334655761719,-0.5045389533042908,-1.2845070362091064,0.6809659600257874,0.8879556059837341,-0.14699265360832214,0.17265766859054565,-0.1034117266535759,-0.01318387035280466
442,3060732,3060733,-0.05977039411664009,-0.08513153344392776,1.053303837776184,9.412240028381348,1.6695420742034912,-1.2684576511383057,0.6854656934738159,0.8804559707641602,-0.1334933191537857,0.13986407220363617,0.0718795582652092,-0.023675834760069847
443,3060742,3060743,0.026157688349485397,-0.002316304948180914,0.9925903081893921,4.6148176193237305,3.2400598526000977,-1.2026607990264893,0.6734663248062134,0.8984550833702087,-0.14549271762371063,0.0847524106502533,0.19857336580753326,-0.03166816383600235
444,3060752,3060753,0.0001550694869365543,-0.011352992616593838,0.969010055065155,-0.4976612329483032,4.485011577606201,-1.0215400457382202,0.6734663248062134,0.8954551815986633,-0.13949301838874817,-0.008473756723105907,0.22639226913452148,-0.0362144336104393
445,3060762,3060763,-0.0013762974413111806,-0.03501405194401741,0.9847064018249512,-5.523399829864502,4.289595127105713,-1.3427985906600952,0.6734663248062134,0.8984550833702087,-0.13949301838874817,-0.03419440984725952,0.03334518149495125,-0.04500094801187515
446,3060772,3060773,0.06631278991699219,0.12179875373840332,0.8756982684135437,-8.186392784118652,5.69716215133667,-1.2287236452102661,0.6644667387008667,0.8954551815986633,-0.14549271762371063,-0.15223081409931183,-0.06905707716941833,-0.05892229825258255
447,3060782,3060783,-0.01383943110704422,0.025289097800850868,0.9428436756134033,-8.973268508911133,-0.7205449342727661,-1.3342646360397339,0.6749662160873413,0.8819558620452881,-0.13799309730529785,-0.1772194355726242,-0.14429181814193726,-0.06968482583761215
448,3060792,3060793,0.11200868338346481,0.12177833169698715,0.9194918274879456,-8.188974380493164,-1.3854317665100098,-1.6104669570922852,0.6749662160873413,0.9059546589851379,-0.13799309730529785,-0.17230884730815887,-0.2934049665927887,-0.0881999209523201
449,3060802,3060803,0.04885169863700867,0.12871158123016357,0.9086179733276367,-4.47252893447876,-3.749643087387085,-0.7442838549613953,0.676466166973114,0.8924553394317627,-0.14549271762371063,-0.13211169838905334,-0.3230416774749756,-0.1005014032125473
450,3060812,3060813,-0.006960609462112188,0.1006605252623558,1.0026118755340576,0.8227845430374146,-5.32503080368042,-0.9154333472251892,0.6674666404724121,0.8804559707641602,-0.14549271762371063,-0.026697803288698196,-0.3624346852302551,-0.11288083344697952
451,3060822,3060823,-0.02617301605641842,-0.0025346779730170965,1.0150402784347534,4.967217445373535,-4.254369258880615,-0.7143932580947876,0.6734663248062134,0.8744562864303589,-0.13649317622184753,0.04968133196234703,-0.30849698185920715,-0.12212617695331573
452,3060832,3060833,-0.08694186061620712,-0.019285550341010094,1.0656853914260864,8.739375114440918,-3.42541766166687,-1.2998270988464355,0.6749662160873413,0.8789560198783875,-0.13799309730529785,0.14215895533561707,-0.18949206173419952,-0.13618431985378265
453,3060842,3060843,-0.07234908640384674,-0.03277966007590294,1.1101646423339844,9.71413803100586,-0.6578553318977356,-1.0938010215759277,0.6734663248062134,0.8774561285972595,-0.14549271762371063,0.25550153851509094,-0.10724929720163345,-0.14913076162338257
454,3060852,3060853,-0.01121626514941454,-0.01622134819626808,0.9800941944122314,9.630424499511719,2.341667890548706,-1.4802422523498535,0.676466166973114,0.8774561285972595,-0.14849257469177246,0.2214275598526001,-0.08425730466842651,-0.1607743799686432
455,3060862,3060863,-0.045458678156137466,-0.024384869262576103,0.9792415499687195,6.162181377410889,5.48704719543457,-1.5831794738769531,0.6674666404724121,0.8774561285972595,-0.14249287545681,0.12234878540039062,0.005928926635533571,-0.1727834790945053
456,3060872,3060873,-0.02435842528939247,-0.029189273715019226,0.9868950843811035,3.2430551052093506,7.07054328918457,-1.4771476984024048,0.6674666404724121,0.8774561285972595,-0.14249287545681,0.0009484149049967527,0.0924181342124939,-0.18531695008277893
457,3060882,3060883,0.027124173939228058,-0.004471226129680872,0.9803504347801208,0.8390305042266846,8.219585418701172,-1.3402596712112427,0.6674666404724121,0.8774561285972595,-0.14249287545681,-0.1620318591594696,0.13425295054912567,-0.19312028586864471
458,3060892,3060893,-0.02296546660363674,-0.01641870103776455,0.9994904398918152,-1.479655385017395,6.563371658325195,-1.6147356033325195,0.6674666404724121,0.8774561285972595,-0.14249287545681,-0.21708348393440247,0.06592431664466858,-0.21067644655704498
459,3060902,3060903,0.07626219093799591,0.10749470442533493,0.9458044171333313,-2.771566152572632,3.5024068355560303,-1.8468577861785889,0.6824658513069153,0.8834558129310608,-0.13049347698688507,-0.31534647941589355,0.033291853964328766,-0.2284465730190277
460,3060912,3060913,0.12762372195720673,0.15819311141967773,0.9452544450759888,-2.565354824066162,0.5679340362548828,-1.441124677658081,0.6809659600257874,0.8819558620452881,-0.14399279654026031,-0.3612188994884491,0.057178545743227005,-0.2448592483997345
461,3060922,3060923,-0.13004986941814423,-0.07742907851934433,1.036620855331421,-1.8898499011993408,-3.107332706451416,-1.4527599811553955,0.6734663248062134,0.8834558129310608,-0.14249287545681,-0.33586618304252625,0.02242382988333702,-0.2605459690093994
462,3060932,3060933,-0.029965940862894058,0.07156923413276672,1.0419580936431885,-1.0803771018981934,-6.293389320373535,-1.3486264944076538,0.66896653175354,0.8729563355445862,-0.14099295437335968,-0.2212638258934021,-0.006185992620885372,-0.2765096426010132
463,3060942,3060943,0.012902484275400639,-0.012751753441989422,1.0058366060256958,0.6692580580711365,-7.656610488891602,-0.9624927639961243,0.6749662160873413,0.8789560198783875,-0.1319933980703354,-0.10151834040880203,0.057479746639728546,-0.28876030445098877
464,3060952,3060953,-0.5036717653274536,-0.2009880691766739,1.041366457939148,1.4268635511398315,-8.327765464782715,-1.6280672550201416,0.6674666404724121,0.8834558129310608,-0.13049347698688507,0.06179390475153923,0.0769699439406395,-0.3081035614013672
465,3060962,3060963,-0.5148868560791016,-0.27125197649002075,1.209007740020752,1.63047456741333,-5.174545764923096,-0.7178213000297546,0.6869656443595886,0.8849557638168335,-0.1319933980703354,0.19791701436042786,0.10667641460895538,-0.31632134318351746
