,timestamp_start,timestamp_end,acc.x,acc.y,acc.z,gyro.x,gyro.y,gyro.z,mag.x,mag.y,mag.z,stabilizer.pitch,stabilizer.roll,stabilizer.yaw
0,2874018,2874019,-0.5331885814666748,0.020584724843502045,0.9882440567016602,-5.617856502532959,-2.622486114501953,1.785733938217163,0.7169641256332397,0.9059546589851379,-0.11699414998292923,0.8200520277023315,-0.09883000701665878,-1.9864301681518555
1,2874028,2874029,-0.04241243377327919,-0.3157624304294586,1.016313910484314,-6.415341854095459,-6.3239593505859375,0.5884856581687927,0.7349632382392883,0.8939552903175354,-0.11699414998292923,0.8522244691848755,-0.1342429220676422,-1.979435682296753
2,2874038,2874039,0.1784145087003708,-0.1332072615623474,1.0282458066940308,-6.748415946960449,-1.510477066040039,1.3089220523834229,0.7259637117385864,0.896955132484436,-0.113994300365448,0.8265681862831116,-0.3115982413291931,-1.9579741954803467
3,2874048,2874049,0.13758660852909088,-0.08314558863639832,0.9752412438392639,-3.373147487640381,4.539788722991943,0.12289338558912277,0.7274636030197144,0.8924553394317627,-0.10649467259645462,0.8090640902519226,-0.32753270864486694,-1.957352638244629
4,2874058,2874059,-0.34051626920700073,-0.12056659162044525,1.036209225654602,0.34353312849998474,4.4124979972839355,0.5693152546882629,0.7244637608528137,0.8984550833702087,-0.11849407106637955,0.8471094965934753,-0.3593362867832184,-1.9557406902313232
5,2874068,2874069,-0.21006354689598083,0.06790222227573395,1.0085312128067017,3.0411524772644043,9.5118989944458,0.3687714636325836,0.7289635539054871,0.8939552903175354,-0.11699414998292923,0.7861455082893372,-0.3408491909503937,-1.9539378881454468
6,2874078,2874079,-0.15164007246494293,-0.04822712764143944,1.0337392091751099,5.282957553863525,7.748112201690674,0.5157627463340759,0.7274636030197144,0.90445476770401,-0.10949452221393585,0.6770097017288208,-0.27020666003227234,-1.955958366394043
7,2874088,2874089,-0.056226618587970734,-0.050560783594846725,1.0433859825134277,6.832082271575928,8.610136985778809,-0.09362205862998962,0.7154642343521118,0.90445476770401,-0.11849407106637955,0.630968451499939,-0.17581164836883545,-1.960606336593628
8,2874098,2874099,0.05881423503160477,0.17560555040836334,1.0620548725128174,6.173299789428711,8.554396629333496,0.6225035190582275,0.7154642343521118,0.8984550833702087,-0.11849407106637955,0.6546555757522583,-0.07378280907869339,-1.9701488018035889
9,2874108,2874109,0.02486257441341877,0.07752884924411774,1.063315987586975,4.225882053375244,5.220386028289795,0.5610639452934265,0.7244637608528137,0.8954551815986633,-0.11249437183141708,0.5516071915626526,0.012493791058659554,-1.9693541526794434
10,2874118,2874119,-0.049943748861551285,0.02372172474861145,1.0822043418884277,0.8075355291366577,4.049983978271484,0.6866939067840576,0.7214639186859131,0.9014549255371094,-0.11249437183141708,0.5407348871231079,0.04918292164802551,-1.9661701917648315
11,2874128,2874129,-0.011347455903887749,-0.09957728534936905,1.009122610092163,-2.2661993503570557,2.9287846088409424,0.5952751040458679,0.722963809967041,0.911954402923584,-0.11699414998292923,0.7501921057701111,-0.16783669590950012,-1.930553913116455
12,2874138,2874139,-0.05561361089348793,-0.11058616638183594,1.0256909132003784,-5.196516036987305,3.133709192276001,0.00970255397260189,0.7124643921852112,0.9164541363716125,-0.11549422144889832,0.7349579930305481,-0.012255734764039516,-1.961296558380127
13,2874148,2874149,-0.03645564615726471,-0.029530353844165802,1.0317538976669312,-5.737301349639893,6.2678327560424805,0.20552891492843628,0.7214639186859131,0.8954551815986633,-0.10049497336149216,0.6298106908798218,-0.1756068766117096,-1.9399755001068115
14,2874158,2874159,0.06280291825532913,0.03895973414182663,0.9744369983673096,-4.260548114776611,11.646370887756348,0.554812490940094,0.7274636030197144,0.919454038143158,-0.10949452221393585,0.4910641610622406,-0.26471248269081116,-1.9316785335540771
15,2874168,2874169,0.0035037011839449406,0.023413540795445442,1.0275821685791016,-2.5739564895629883,12.747995376586914,0.5980477929115295,0.7094644904136658,0.9104544520378113,-0.10949452221393585,0.287082701921463,-0.1896456629037857,-1.9457049369812012
16,2874178,2874179,0.09601113200187683,0.029595697298645973,0.9745582342147827,-0.09328059107065201,15.213397026062012,0.759623110294342,0.7199639678001404,0.9209539294242859,-0.1049947515130043,0.07103028893470764,-0.22649596631526947,-1.936931848526001
17,2874188,2874189,0.09097006916999817,0.07835874706506729,0.9062173366546631,3.618279457092285,15.746842384338379,-0.3826156258583069,0.7184640765190125,0.9224538803100586,-0.09749512374401093,-0.08847934007644653,-0.2075180560350418,-1.93331778049469
18,2874198,2874199,0.08586230129003525,0.07540076225996017,0.9047356843948364,5.082518577575684,10.171838760375977,0.8342716693878174,0.7139642834663391,0.9269536137580872,-0.113994300365448,-0.23108762502670288,-0.14066076278686523,-1.9381366968154907
19,2874208,2874209,-0.002337709302082658,-0.0428096242249012,0.9943488836288452,6.385158061981201,6.363162040710449,0.8557367324829102,0.7094644904136658,0.9104544520378113,-0.11249437183141708,0.09512781351804733,-0.05412645637989044,-1.9465086460113525
20,2874218,2874219,0.06057804450392723,0.09545538574457169,0.9930669665336609,4.566269397735596,2.3867177963256836,0.8375517725944519,0.7094644904136658,0.9164541363716125,-0.11849407106637955,-0.019806666299700737,0.03183506801724434,-1.9379057884216309
21,2874228,2874229,0.10324765741825104,0.16221468150615692,0.9735693335533142,1.7266061305999756,4.028112411499023,1.0332272052764893,0.7094644904136658,0.9104544520378113,-0.11549422144889832,-0.07848209142684937,0.09048576653003693,-1.929274082183838
22,2874238,2874239,-0.032623689621686935,-0.16933803260326385,1.0000745058059692,-0.9601584672927856,1.8945049047470093,1.1785205602645874,0.7049647569656372,0.9209539294242859,-0.10799460113048553,-0.14559581875801086,0.09726405143737793,-1.9142111539840698
23,2874248,2874249,-0.2139812409877777,-0.0010646138107404113,1.0719974040985107,-4.2091264724731445,3.2091498374938965,1.855424404144287,0.6989650130271912,0.9179540872573853,-0.1229938492178917,-0.22006763517856598,0.06752391159534454,-1.89777410030365
24,2874258,2874259,-0.11825445294380188,-0.047147929668426514,1.1064817905426025,-4.498704433441162,6.941249847412109,2.2126646041870117,0.7019649147987366,0.9209539294242859,-0.11099445074796677,-0.2546118199825287,-0.004050803370773792,-1.87604820728302
25,2874268,2874269,-0.48665156960487366,-0.3725322186946869,1.0455992221832275,-6.942843437194824,3.211134672164917,1.5715501308441162,0.7049647569656372,0.9239537715911865,-0.1049947515130043,-0.11898741126060486,-0.2180704027414322,-1.8457565307617188
26,2874278,2874279,-0.37064501643180847,-0.4769778251647949,0.9371529221534729,-5.926192760467529,7.6297478675842285,2.31695818901062,0.7049647569656372,0.9239537715911865,-0.1049947515130043,-0.19193333387374878,-0.041099436581134796,-1.840119481086731
27,2874288,2874289,-0.2046811878681183,-0.11064653843641281,0.9796462655067444,-4.005593776702881,7.653110504150391,2.214725971221924,0.7049647569656372,0.9239537715911865,-0.1049947515130043,-0.3631591498851776,-0.12940014898777008,-1.8143421411514282
28,2874298,2874299,-0.07664072513580322,-0.05538104847073555,1.0193480253219604,-1.6941157579421997,7.797331809997559,2.2860300540924072,0.6989650130271912,0.9209539294242859,-0.10799460113048553,-0.5281781554222107,-0.11489897221326828,-1.7921286821365356
29,2874308,2874309,-0.42535093426704407,-0.1507200449705124,1.00637686252594,0.3294767439365387,1.8626021146774292,1.4601141214370728,0.7019649147987366,0.9269536137580872,-0.113994300365448,-0.6860948204994202,-0.13733556866645813,-1.7659268379211426
30,2874318,2874319,-0.1210673600435257,-0.07915294170379639,1.0228906869888306,1.146875023841858,4.558097839355469,2.6317620277404785,0.7004649639129639,0.9254537224769592,-0.10349482297897339,-0.7897888422012329,-0.1371740847826004,-1.743709921836853
31,2874328,2874329,-0.03444705531001091,-0.11519008129835129,0.9760380387306213,0.3722755014896393,3.103393316268921,2.401350736618042,0.6944652795791626,0.9314534068107605,-0.10949452221393585,-0.8695708513259888,-0.12950366735458374,-1.7189116477966309
32,2874338,2874339,-0.06393177807331085,-0.16389822959899902,0.9369427561759949,0.44106006622314453,-0.8276926279067993,2.5885894298553467,0.6959651708602905,0.9269536137580872,-0.11699414998292923,-0.9042255282402039,-0.06372855603694916,-1.6942389011383057
33,2874348,2874349,0.013620622456073761,0.00750346714630723,0.9876756072044373,-1.2077772617340088,-3.7664270401000977,2.508781671524048,0.7019649147987366,0.9479525685310364,-0.1229938492178917,-0.881450355052948,-0.08348888158798218,-1.6697314977645874
34,2874358,2874359,-0.023195022717118263,-0.00425531854853034,0.9650510549545288,-1.9991036653518677,-5.955881118774414,2.083984851837158,0.7079645991325378,0.9389530420303345,-0.11699414998292923,-0.8116797208786011,-0.18740183115005493,-1.6500028371810913
35,2874368,2874369,-0.04923822358250618,-0.007932941429316998,0.9684034585952759,-3.488741636276245,-6.446997165679932,1.714497685432434,0.6959651708602905,0.9389530420303345,-0.11099445074796677,-0.7123123407363892,-0.43737778067588806,-1.6433604955673218
36,2874378,2874379,-0.08477506786584854,-0.06576328724622726,0.9306671023368835,-4.372713565826416,-6.93743371963501,1.6022671461105347,0.6869656443595886,0.9359531998634338,-0.12599369883537292,-0.6045057773590088,-0.6885601282119751,-1.6383302211761475
37,2874388,2874389,-0.07389894127845764,0.009458032436668873,0.959613025188446,-1.8581076860427856,-5.6215715408325195,1.9398924112319946,0.7064646482467651,0.9314534068107605,-0.10349482297897339,-0.5067258477210999,-0.3768821060657501,-1.59587562084198
38,2874398,2874399,-0.4886707663536072,-0.23193666338920593,1.0509904623031616,1.0403709411621094,-7.405770301818848,2.3430254459381104,0.6899654865264893,0.9359531998634338,-0.11099445074796677,-0.44270163774490356,-0.6545217037200928,-1.594223976135254
39,2874408,2874409,-0.8187560439109802,-0.6783723831176758,0.98183673620224,5.381330966949463,1.1654353141784668,2.0780751705169678,0.7049647569656372,0.9539523124694824,-0.11999399960041046,-0.409253865480423,-0.5855995416641235,-1.5675177574157715
40,2874418,2874419,-0.1497805118560791,-0.14653493463993073,0.963259220123291,8.851690292358398,2.8195385932922363,1.7797231674194336,0.6929653286933899,0.950952410697937,-0.10799460113048553,-0.4497500956058502,-0.6634194254875183,-1.5598230361938477
41,2874428,2874429,0.0861780121922493,0.06118186190724373,0.847741425037384,11.37765884399414,8.262679100036621,1.5789202451705933,0.6899654865264893,0.9449527263641357,-0.10199490189552307,-0.5171698331832886,-0.34430018067359924,-1.52522611618042
42,2874438,2874439,0.022256802767515182,0.013819633983075619,0.8907527923583984,13.532092094421387,7.153233528137207,1.3663119077682495,0.6869656443595886,0.9389530420303345,-0.11999399960041046,-0.6297577023506165,-0.26217058300971985,-1.5094887018203735
43,2874448,2874449,-0.00513578113168478,-0.0006784943398088217,0.9319413900375366,13.354574203491211,6.594578742980957,1.2152190208435059,0.6974651217460632,0.9284535646438599,-0.10049497336149216,-0.6064231991767883,-0.025079168379306793,-1.4912079572677612
44,2874458,2874459,-0.009326635859906673,0.007449460215866566,0.9104769825935364,11.567950248718262,4.334602355957031,1.5481139421463013,0.6929653286933899,0.9479525685310364,-0.10799460113048553,-0.7108070254325867,0.1973026543855667,-1.4674125909805298
45,2874468,2874469,-0.05672534555196762,-0.10763534903526306,0.8698961734771729,10.465993881225586,0.8699047565460205,1.6909618377685547,0.6899654865264893,0.9359531998634338,-0.11699414998292923,-0.7872517108917236,0.3150683045387268,-1.4511133432388306
46,2874478,2874479,-0.11872600764036179,-0.0951562151312828,0.7978923320770264,6.1000237464904785,2.9078633785247803,1.6362265348434448,0.691465437412262,0.9284535646438599,-0.12449377030134201,-0.8819663524627686,0.4513252079486847,-1.4288959503173828
47,2874488,2874489,-0.3668553829193115,-0.027063746005296707,0.8515284657478333,-0.6487774848937988,4.235177516937256,1.9069879055023193,0.6929653286933899,0.9389530420303345,-0.1229938492178917,-0.7369198799133301,0.4990600645542145,-1.4177122116088867
48,2874498,2874499,-0.5624768733978271,0.013844795525074005,0.8935257196426392,-6.371890068054199,-6.084233283996582,1.868452787399292,0.683965802192688,0.9299534559249878,-0.11699414998292923,-0.8379276394844055,0.4521265923976898,-1.399034023284912
49,2874508,2874509,-0.9411964416503906,-0.030763089656829834,0.9980491995811462,-10.811222076416016,-14.434347152709961,1.3671916723251343,0.691465437412262,0.9284535646438599,-0.11549422144889832,-0.7104897499084473,0.4103661775588989,-1.379292368888855
50,2874518,2874519,-0.40923911333084106,-0.25182756781578064,0.9649588465690613,-10.008111953735352,-12.903206825256348,2.105921745300293,0.6899654865264893,0.9269536137580872,-0.11999399960041046,-0.5422607064247131,0.2535552680492401,-1.3682620525360107
51,2874528,2874529,-0.450435072183609,-0.38820236921310425,1.032568097114563,-7.51085090637207,-6.794524192810059,3.1321444511413574,0.6959651708602905,0.9239537715911865,-0.113994300365448,-0.39132556319236755,0.029857313260436058,-1.3590508699417114
52,2874538,2874539,-0.17393073439598083,-0.2652445435523987,0.9726259708404541,-7.435584545135498,-6.533508777618408,2.3622946739196777,0.7034648060798645,0.9254537224769592,-0.11849407106637955,-0.2906135022640228,-0.09593807905912399,-1.3341718912124634
53,2874548,2874549,-0.09227167069911957,-0.4159928560256958,0.9777604341506958,-3.4957222938537598,-3.2850053310394287,1.8071491718292236,0.6884655356407166,0.9254537224769592,-0.12449377030134201,-0.20189575850963593,-0.2515183389186859,-1.3212097883224487
54,2874558,2874559,-0.11071699112653732,-0.14147710800170898,1.023774266242981,0.21918600797653198,-5.103460788726807,0.944410502910614,0.6974651217460632,0.9254537224769592,-0.10949452221393585,-0.080894336104393,-0.18605291843414307,-1.2965054512023926
55,2874568,2874569,-0.20537462830543518,-0.2274864912033081,1.0107172727584839,7.070179462432861,-3.204688310623169,1.2295023202896118,0.6899654865264893,0.9329533576965332,-0.1229938492178917,-0.13527941703796387,-0.17795272171497345,-1.2866369485855103
56,2874578,2874579,-0.1538245677947998,-0.3824445903301239,1.011911392211914,14.253561973571777,7.673244953155518,1.940463900566101,0.691465437412262,0.9284535646438599,-0.10649467259645462,-0.2440079301595688,0.7296903729438782,-1.2114442586898804
57,2874588,2874589,-0.528558075428009,-0.02190230041742325,0.822931706905365,15.217575073242188,13.20659065246582,1.1023674011230469,0.6959651708602905,0.9149542450904846,-0.1049947515130043,-0.36164215207099915,0.29110097885131836,-1.2358875274658203
58,2874598,2874599,-0.44226810336112976,0.06368391960859299,0.8660506010055542,8.199926376342773,7.272286891937256,0.8878204226493835,0.6974651217460632,0.9254537224769592,-0.12149392068386078,-0.49497589468955994,0.5042325258255005,-1.222470760345459
59,2874608,2874609,-0.2291237860918045,0.004550034645944834,0.8869672417640686,3.4748189449310303,2.6664011478424072,0.15838949382305145,0.6929653286933899,0.9269536137580872,-0.12599369883537292,-0.5747735500335693,0.5496434569358826,-1.21818208694458
60,2874618,2874619,0.005668741185218096,-0.3074052035808563,0.9510732889175415,-2.642209053039551,1.1962941884994507,0.7990325093269348,0.6899654865264893,0.9359531998634338,-0.1229938492178917,-0.048688117414712906,-0.04350972920656204,-1.2407490015029907
61,2874628,2874629,-0.06719497591257095,-0.2644318640232086,0.9257811307907104,-7.795431613922119,-3.4580042362213135,1.0460326671600342,0.7034648060798645,0.9254537224769592,-0.10949452221393585,-0.06630430370569229,-0.08334499597549438,-1.2309279441833496
62,2874638,2874639,-0.15635909140110016,-0.04120679944753647,0.9336661100387573,-9.032154083251953,-5.399438381195068,0.8496721386909485,0.6929653286933899,0.9269536137580872,-0.113994300365448,-0.029297128319740295,-0.10717188566923141,-1.2188977003097534
63,2874648,2874649,-0.07619630545377731,-0.08977079391479492,0.8452968001365662,-4.307782173156738,-2.3519339561462402,0.7743862271308899,0.691465437412262,0.919454038143158,-0.11249437183141708,-0.0705162063241005,-0.06581876426935196,-1.2089935541152954
64,2874658,2874659,-0.17873530089855194,-0.04559651017189026,0.825507402420044,0.4914683997631073,3.8211798667907715,0.6220319867134094,0.7004649639129639,0.9254537224769592,-0.11849407106637955,-0.005321124568581581,-0.03446817770600319,-1.1996864080429077
65,2874668,2874669,-0.1142217144370079,-0.14170394837856293,0.8731011748313904,5.4115166664123535,7.121278762817383,-0.4369069039821625,0.691465437412262,0.9224538803100586,-0.11549422144889832,-0.07852786779403687,0.019462814554572105,-1.1951488256454468
66,2874678,2874679,-0.11337728798389435,-0.12047305703163147,0.9289682507514954,11.373639106750488,7.126321792602539,0.17421652376651764,0.7004649639129639,0.9284535646438599,-0.11549422144889832,-0.27035394310951233,0.16926869750022888,-1.1950663328170776
67,2874688,2874689,-0.16429120302200317,-0.06074725091457367,1.0666710138320923,13.624984741210938,6.892031669616699,0.774453341960907,0.7064646482467651,0.919454038143158,-0.11849407106637955,-0.35377514362335205,0.10619297623634338,-1.1973921060562134
68,2874698,2874699,-0.10755780339241028,-0.09617172926664352,0.9512704014778137,14.57745361328125,11.720535278320312,1.3456408977508545,0.6974651217460632,0.9164541363716125,-0.13049347698688507,-0.3917992115020752,0.2901843190193176,-1.1895127296447754
69,2874708,2874709,-0.0027010897174477577,-0.07939214259386063,0.8397294282913208,12.601318359375,11.634746551513672,0.6758163571357727,0.6959651708602905,0.9179540872573853,-0.12899354100227356,-0.588594377040863,0.3203003406524658,-1.184686541557312
70,2874718,2874719,-0.40212520956993103,-0.023060277104377747,0.8699523210525513,8.471375465393066,11.421196937561035,0.24417422711849213,0.6929653286933899,0.9179540872573853,-0.1229938492178917,-0.6735523343086243,0.45123231410980225,-1.1780346632003784
71,2874728,2874729,-0.7163603901863098,-0.20581480860710144,0.8395256400108337,3.9344446659088135,4.1944804191589355,0.5897005200386047,0.6929653286933899,0.9269536137580872,-0.1319933980703354,-0.6444255113601685,0.5877649188041687,-1.1683672666549683
72,2874738,2874739,-1.1157104969024658,0.011439424008131027,1.0533864498138428,-0.34216126799583435,-5.5495195388793945,0.9358047246932983,0.6944652795791626,0.9014549255371094,-0.12749361991882324,-0.6673133373260498,0.6584969758987427,-1.160565972328186
73,2874748,2874749,-0.7797976732254028,-0.11849509924650192,1.022432804107666,-3.765833854675293,-8.948562622070312,0.7973655462265015,0.7049647569656372,0.8999549746513367,-0.12599369883537292,-0.6124416589736938,0.6809839606285095,-1.1483581066131592
74,2874758,2874759,-0.5169417858123779,-0.7267292141914368,1.0525331497192383,-3.030430793762207,-8.614169120788574,0.992945671081543,0.7064646482467651,0.8984550833702087,-0.13049347698688507,-0.6100048422813416,0.6567497849464417,-1.1390366554260254
75,2874768,2874769,-0.7115852236747742,-0.3702228367328644,1.0148195028305054,-2.668325424194336,-5.967565536499023,1.4793946743011475,0.7124643921852112,0.9014549255371094,-0.11849407106637955,-0.6666556596755981,0.633841872215271,-1.1304082870483398
76,2874778,2874779,-1.8558951616287231,-0.5072705745697021,0.9779070615768433,-2.492009162902832,-4.058377265930176,1.8569660186767578,0.7094644904136658,0.9014549255371094,-0.13649317622184753,-0.5942281484603882,0.6124873161315918,-1.113149642944336
77,2874788,2874789,-1.1323037147521973,-0.26259949803352356,0.967255711555481,-2.1139280796051025,-3.190516233444214,2.106091022491455,0.7094644904136658,0.9164541363716125,-0.11849407106637955,-0.5453943014144897,0.5872365236282349,-1.094655156135559
78,2874798,2874799,-0.008445867337286472,0.029599206522107124,0.966352105140686,-1.6374951601028442,-2.8904805183410645,2.147172212600708,0.7019649147987366,0.8939552903175354,-0.12599369883537292,-0.5682138204574585,0.7782143950462341,-1.0655335187911987
79,2874808,2874809,-0.008008678443729877,0.02325766533613205,1.0147783756256104,-0.01671110838651657,-2.7195401191711426,1.5540804862976074,0.6944652795791626,0.9134542942047119,-0.12749361991882324,-0.514677107334137,0.6207870841026306,-1.0537651777267456
80,2874818,2874819,-0.05723251402378082,-0.04244217276573181,0.9605219960212708,-0.5681779384613037,-2.427834987640381,1.5791188478469849,0.6989650130271912,0.9089545607566833,-0.13799309730529785,-0.4652623236179352,0.553726315498352,-1.0423258543014526
81,2874828,2874829,-0.45512011647224426,-0.13842183351516724,0.9860119223594666,-2.167633056640625,-2.5217931270599365,1.4279924631118774,0.7049647569656372,0.9089545607566833,-0.12599369883537292,-0.48266837000846863,0.5414507985115051,-1.030491590499878
82,2874838,2874839,-0.5198906064033508,-0.04688601195812225,0.9733906388282776,-2.408174991607666,-2.807588815689087,1.1283663511276245,0.7004649639129639,0.9074546098709106,-0.12749361991882324,-0.43026891350746155,0.507927417755127,-1.01608145236969
83,2874848,2874849,-0.05066803842782974,-0.043165430426597595,1.0185253620147705,-2.9837920665740967,-3.0788893699645996,1.4065715074539185,0.7094644904136658,0.9104544520378113,-0.13649317622184753,-0.4458392262458801,0.683131754398346,-0.994277834892273
84,2874858,2874859,-0.13335677981376648,-0.1643177568912506,0.9603656530380249,-2.6311330795288086,-3.280062675476074,1.15242338180542,0.6989650130271912,0.9029548168182373,-0.13499325513839722,-0.519611120223999,0.7762129306793213,-0.9838120937347412
85,2874868,2874869,-0.018980253487825394,-0.06277067214250565,1.0149859189987183,-1.9701075553894043,-3.2732560634613037,0.8846584558486938,0.7109644412994385,0.896955132484436,-0.11999399960041046,-0.5172414779663086,0.7299509644508362,-0.9760684370994568
86,2874878,2874879,-0.2150069922208786,-0.1787264049053192,0.9773568511009216,-3.4248299598693848,-3.999945640563965,0.6776019930839539,0.7019649147987366,0.9059546589851379,-0.12599369883537292,-0.30295729637145996,0.6775894165039062,-0.9532619118690491
87,2874888,2874889,-0.09208410978317261,-0.06770626455545425,1.0075033903121948,-6.817716598510742,-5.954216003417969,0.5708990097045898,0.7124643921852112,0.8954551815986633,-0.12449377030134201,-0.361395001411438,0.5972849130630493,-0.9572337865829468
88,2874898,2874899,-0.009682752192020416,-0.021292541176080704,1.0055862665176392,-8.215910911560059,-5.677923202514648,1.1274601221084595,0.6989650130271912,0.911954402923584,-0.12599369883537292,-0.2581477165222168,0.46716970205307007,-0.9481202960014343
89,2874908,2874909,-0.044902242720127106,-0.021559858694672585,1.011356234550476,-8.535802841186523,-6.06339693069458,1.244065523147583,0.7019649147987366,0.9059546589851379,-0.1319933980703354,-0.2369382381439209,0.32105591893196106,-0.9410250782966614
90,2874918,2874919,-0.036544207483530045,-0.04802153259515762,1.0561021566390991,-8.630696296691895,-5.423819065093994,1.48041832447052,0.7184640765190125,0.9164541363716125,-0.12449377030134201,-0.13787803053855896,0.18535718321800232,-0.9268941879272461
91,2874928,2874929,-0.6324662566184998,-0.16126179695129395,0.9882351160049438,-6.794702053070068,-4.682999134063721,1.1128849983215332,0.7124643921852112,0.8984550833702087,-0.13049347698688507,-0.05543365702033043,0.2058108001947403,-0.9088544845581055
92,2874938,2874939,-0.5400546789169312,-0.2328173965215683,1.0080827474594116,-2.356170177459717,-3.355231285095215,0.7094482779502869,0.7169641256332397,0.9059546589851379,-0.12899354100227356,0.006293924991041422,0.11607584357261658,-0.8966233134269714
93,2874948,2874949,-0.24034760892391205,-0.09867891669273376,1.0089969635009766,-0.26589256525039673,-2.4948277473449707,1.196410894393921,0.7169641256332397,0.8999549746513367,-0.11999399960041046,0.0565187968313694,0.08520954102277756,-0.885204017162323
94,2874958,2874959,-0.7775319218635559,-0.38405275344848633,1.046996831893921,1.7011066675186157,-0.6306365132331848,1.6450114250183105,0.7139642834663391,0.8939552903175354,-0.13499325513839722,0.09555260837078094,0.09418639540672302,-0.8732258677482605
95,2874968,2874969,-0.7503790855407715,-0.4096805453300476,1.0965315103530884,2.3777482509613037,0.9782674908638,1.2607022523880005,0.7139642834663391,0.8939552903175354,-0.13499325513839722,0.10913409292697906,0.12548251450061798,-0.8588712811470032
96,2874978,2874979,-0.8120116591453552,-0.25640490651130676,1.0319111347198486,3.1204657554626465,1.7481801509857178,1.128922700881958,0.7139642834663391,0.8939552903175354,-0.13499325513839722,0.10074026137590408,0.16024038195610046,-0.8474881649017334
97,2874988,2874989,-0.26327282190322876,0.040337320417165756,0.9824441075325012,1.3056724071502686,1.995693564414978,1.1451196670532227,0.7064646482467651,0.9254537224769592,-0.12749361991882324,0.08986315131187439,0.1927783340215683,-0.8372392654418945
98,2874998,2874999,-0.6835629940032959,0.02690294198691845,0.9950243234634399,-0.04827337712049484,1.9958255290985107,0.27316275238990784,0.7019649147987366,0.9149542450904846,-0.12599369883537292,0.07769494503736496,0.20357833802700043,-0.8299870491027832
99,2875008,2875009,-0.5364594459533691,-0.012820588424801826,1.0170420408248901,-1.8159856796264648,1.0665934085845947,0.30713939666748047,0.7004649639129639,0.9074546098709106,-0.1334933191537857,-0.00872791837900877,0.32118239998817444,-0.8320305347442627
100,2875018,2875019,-0.015864070504903793,-0.08134625107049942,1.040125846862793,-4.136881351470947,-0.11877559870481491,0.7285637259483337,0.6974651217460632,0.90445476770401,-0.12149392068386078,-0.003503745188936591,0.2603316605091095,-0.8275127410888672
101,2875028,2875029,-0.03522797301411629,-0.18822914361953735,0.9854298830032349,-5.3452606201171875,-1.4115102291107178,0.14268091320991516,0.7079645991325378,0.9059546589851379,-0.1319933980703354,-0.05080047994852066,0.24194294214248657,-0.8238843679428101
102,2875038,2875039,-0.023715073242783546,-0.04985472559928894,0.9951738715171814,-7.597114086151123,-3.1400630474090576,0.2588598430156708,0.7094644904136658,0.9014549255371094,-0.12749361991882324,0.0009640611242502928,0.1235182136297226,-0.8175565004348755
103,2875048,2875049,-0.04873393103480339,0.014684394001960754,1.0186635255813599,-8.694079399108887,-4.485740661621094,0.3727959990501404,0.7109644412994385,0.9149542450904846,-0.12599369883537292,0.14485478401184082,-0.022537633776664734,-0.8067224621772766
104,2875058,2875059,-0.054146114736795425,0.00586182763800025,1.0184593200683594,-8.864169120788574,-4.987329006195068,0.16754117608070374,0.691465437412262,0.9104544520378113,-0.12149392068386078,0.22650690376758575,-0.17384572327136993,-0.7992406487464905
105,2875068,2875069,-0.1379781812429428,0.006259133107960224,1.019458293914795,-6.59414529800415,-3.8279261589050293,-0.13370351493358612,0.7109644412994385,0.911954402923584,-0.113994300365448,0.3053988516330719,-0.1684364229440689,-0.8005939722061157
106,2875078,2875079,-0.02159625105559826,-0.005215258337557316,1.0295225381851196,-2.1599948406219482,-1.8747605085372925,-0.3323936462402344,0.7004649639129639,0.9134542942047119,-0.11849407106637955,0.35579949617385864,-0.11672192066907883,-0.806675374507904
107,2875088,2875089,-0.017685214057564735,-0.05507969856262207,0.9719449281692505,0.8393933773040771,1.2704981565475464,-0.6827460527420044,0.7079645991325378,0.9089545607566833,-0.13499325513839722,0.3599592447280884,-0.15025891363620758,-0.8090477585792542
108,2875098,2875099,-0.17793767154216766,-0.06422445178031921,1.1158291101455688,3.1241087913513184,3.9629623889923096,-1.0306077003479004,0.7079645991325378,0.9209539294242859,-0.14699265360832214,0.31095513701438904,-0.0697840228676796,-0.8195981383323669
109,2875108,2875109,-0.06787613034248352,-0.007601730525493622,1.0696436166763306,3.292208433151245,6.431223392486572,-1.0126302242279053,0.7064646482467651,0.919454038143158,-0.12749361991882324,0.21893714368343353,-0.10374189168214798,-0.8255457878112793
110,2875118,2875119,-0.07182984799146652,-0.15050704777240753,1.0116581916809082,1.851220965385437,7.68076753616333,-1.232890009880066,0.7094644904136658,0.9134542942047119,-0.12449377030134201,0.09516038745641708,-0.13831931352615356,-0.8308393955230713
111,2875128,2875129,-0.21196700632572174,-0.1419680118560791,1.0420594215393066,-0.5738989114761353,7.170019149780273,-0.8900335431098938,0.7034648060798645,0.9104544520378113,-0.12449377030134201,-0.033845532685518265,-0.1319798231124878,-0.8415914177894592
112,2875138,2875139,-0.19358664751052856,-0.052093505859375,0.9978893995285034,-2.49725341796875,5.108004093170166,-0.9084121584892273,0.7004649639129639,0.9104544520378113,-0.12449377030134201,-0.1413365751504898,-0.16180668771266937,-0.8499059081077576
113,2875148,2875149,0.009784146212041378,0.01760156825184822,1.0290364027023315,-3.6870713233947754,2.1034252643585205,-1.0342280864715576,0.7079645991325378,0.9269536137580872,-0.12899354100227356,-0.2095383256673813,-0.21914541721343994,-0.8591836094856262
114,2875158,2875159,0.011954804882407188,0.0027543953619897366,1.015092134475708,-3.393028736114502,-1.291825532913208,-0.9655501246452332,0.7064646482467651,0.9224538803100586,-0.1334933191537857,-0.219936341047287,-0.07196063548326492,-0.8796414136886597
115,2875168,2875169,-0.15614525973796844,-0.15878143906593323,0.953508734703064,-2.871727466583252,-4.2858099937438965,-0.4875868558883667,0.7094644904136658,0.9254537224769592,-0.12749361991882324,-0.175612673163414,-0.1370917111635208,-0.8878819346427917
116,2875178,2875179,-0.1789998710155487,-0.027020972222089767,1.0299875736236572,-2.250145673751831,-6.39046573638916,-0.757442831993103,0.7034648060798645,0.9104544520378113,-0.12749361991882324,-0.08947672694921494,-0.19634564220905304,-0.892442524433136
117,2875188,2875189,-0.340849906206131,-0.0029716750141233206,1.0619518756866455,-1.5365251302719116,-7.4410576820373535,-0.7179315090179443,0.7019649147987366,0.9209539294242859,-0.12599369883537292,-0.039213526993989944,-0.03733941540122032,-0.9082787036895752
118,2875198,2875199,-0.30678123235702515,-0.10581743717193604,1.0476632118225098,-2.662614583969116,-6.341378688812256,-0.09141594171524048,0.7064646482467651,0.9164541363716125,-0.12449377030134201,0.08701657503843307,-0.10083363950252533,-0.913699209690094
119,2875208,2875209,-0.38497263193130493,-0.4236012101173401,0.9872199892997742,-3.015199661254883,-3.90571928024292,0.0754641741514206,0.7049647569656372,0.9209539294242859,-0.11999399960041046,0.12085094302892685,-0.17030058801174164,-0.9147010445594788
120,2875218,2875219,-1.4949212074279785,-0.5502350330352783,1.0112720727920532,-4.698001861572266,-2.2539334297180176,0.17008903622627258,0.7049647569656372,0.9329533576965332,-0.11999399960041046,0.1990204006433487,-0.2592836618423462,-0.9109987616539001
121,2875228,2875229,-1.6460669040679932,-0.24380125105381012,1.0277904272079468,-4.714993476867676,0.13007691502571106,0.2723248302936554,0.7004649639129639,0.9284535646438599,-0.13049347698688507,0.16834698617458344,-0.35678359866142273,-0.9051609635353088
122,2875238,2875239,-1.18873131275177,-0.5775032043457031,0.9460883736610413,-4.49713134765625,1.6265381574630737,0.603469967842102,0.6974651217460632,0.9344532489776611,-0.12749361991882324,0.16480548679828644,-0.4423750936985016,-0.9011106491088867
123,2875248,2875249,-1.4387224912643433,-1.08073890209198,0.984553873538971,-2.66630220413208,2.0614213943481445,0.6802594661712646,0.7064646482467651,0.9164541363716125,-0.12149392068386078,0.19578295946121216,-0.4365527033805847,-0.8992502689361572
124,2875258,2875259,-0.5750171542167664,-0.760315477848053,0.9950090050697327,-1.5645089149475098,2.565215826034546,0.5397254228591919,0.6974651217460632,0.919454038143158,-0.11849407106637955,0.07762544602155685,-0.27032220363616943,-0.8992194533348083
125,2875268,2875269,-0.6509060263633728,-0.3282826840877533,1.0418659448623657,0.25292956829071045,2.1070213317871094,1.0956220626831055,0.7034648060798645,0.9104544520378113,-0.12149392068386078,0.040036581456661224,-0.30392971634864807,-0.8908144235610962
126,2875278,2875279,-1.1346992254257202,-0.8917200565338135,0.9849331378936768,1.2438956499099731,0.29893192648887634,0.8335561752319336,0.6989650130271912,0.911954402923584,-0.113994300365448,0.016783669590950012,-0.24960444867610931,-0.8832710981369019
127,2875288,2875289,-0.381378173828125,-0.3372243046760559,0.9663666486740112,0.005567394196987152,-1.4147920608520508,0.6977403163909912,0.7004649639129639,0.9104544520378113,-0.12749361991882324,0.10104243457317352,-0.2682930529117584,-0.8775800466537476
128,2875298,2875299,-0.019091472029685974,-0.04303746297955513,0.994696855545044,-3.082775354385376,-3.7402408123016357,0.48228466510772705,0.7049647569656372,0.9149542450904846,-0.1229938492178917,0.13375112414360046,-0.3158993124961853,-0.8695405125617981
129,2875308,2875309,0.022021908313035965,-0.056508250534534454,1.0199415683746338,-4.833282947540283,-4.084336280822754,-0.15526676177978516,0.7004649639129639,0.9284535646438599,-0.12749361991882324,0.20905791223049164,-0.39612799882888794,-0.8689880967140198
130,2875318,2875319,-0.04712291061878204,-0.01838432252407074,0.9778788685798645,-6.550212383270264,-2.898524761199951,-0.22833479940891266,0.7064646482467651,0.9134542942047119,-0.1334933191537857,0.273759663105011,-0.5057030916213989,-0.869164228439331
131,2875328,2875329,-0.10842356830835342,0.0022520460188388824,1.0087968111038208,-6.707770824432373,-0.6595594882965088,-0.38136836886405945,0.7169641256332397,0.9209539294242859,-0.1229938492178917,0.24449221789836884,-0.6253057718276978,-0.8660718202590942
132,2875338,2875339,-0.08871103823184967,-0.05044963210821152,0.9762759804725647,-5.384271144866943,1.3541655540466309,-1.0041311979293823,0.7034648060798645,0.9254537224769592,-0.12149392068386078,0.25429168343544006,-0.6651841998100281,-0.8737939596176147
133,2875348,2875349,-0.013082538731396198,-0.3153088390827179,1.0303722620010376,-2.70747971534729,3.578906297683716,-0.8794021010398865,0.6989650130271912,0.9389530420303345,-0.1229938492178917,0.2242245376110077,-0.7481496334075928,-0.8789967894554138
134,2875358,2875359,-0.43371111154556274,-0.16415050625801086,0.9814114570617676,1.0187926292419434,4.878257751464844,-1.0453674793243408,0.7049647569656372,0.9209539294242859,-0.12899354100227356,0.1572640836238861,-0.7712008357048035,-0.8850407004356384
135,2875368,2875369,-0.2519107758998871,-0.038093335926532745,1.0119608640670776,4.470944881439209,5.033350944519043,-1.534944772720337,0.7139642834663391,0.9239537715911865,-0.11699414998292923,0.0720660462975502,-0.7283445000648499,-0.8955062627792358
136,2875378,2875379,-0.06445159018039703,-0.32722628116607666,1.0039503574371338,7.363218784332275,4.470657825469971,-1.0225212574005127,0.7079645991325378,0.9329533576965332,-0.12599369883537292,0.060592297464609146,-0.6373940110206604,-0.9139840602874756
137,2875388,2875389,-0.023594290018081665,-0.2351439744234085,0.9983289241790771,8.74605655670166,2.637342691421509,-0.7041582465171814,0.7109644412994385,0.9269536137580872,-0.12599369883537292,-0.07873508334159851,-0.5117279887199402,-0.9184002876281738
138,2875398,2875399,-0.1488426774740219,-0.10829012840986252,1.0053097009658813,7.923285961151123,1.3063687086105347,-0.5190905332565308,0.6974651217460632,0.919454038143158,-0.12449377030134201,-0.11515634506940842,-0.3818818926811218,-0.9278419017791748
139,2875408,2875409,-0.30639219284057617,-0.07010823488235474,0.9848195910453796,6.2081170082092285,-0.40663355588912964,-0.30336612462997437,0.7079645991325378,0.9239537715911865,-0.12599369883537292,-0.05292607098817825,-0.2750535309314728,-0.9405838251113892
140,2875418,2875419,-0.4284427762031555,0.013518654741346836,1.0187016725540161,3.1146388053894043,-3.0999186038970947,-0.6709566712379456,0.7019649147987366,0.911954402923584,-0.1319933980703354,-0.09541935473680496,-0.20720846951007843,-0.9410237073898315
141,2875428,2875429,-0.3168494403362274,0.05167293921113014,1.000625491142273,-0.7345495223999023,-3.789149761199951,-0.3478696644306183,0.6989650130271912,0.9149542450904846,-0.113994300365448,-0.03236604481935501,-0.2646058201789856,-0.9469403624534607
142,2875438,2875439,-0.47919782996177673,-0.0653955340385437,1.0298168659210205,-4.786985874176025,-3.160259962081909,-0.08531787246465683,0.6959651708602905,0.9149542450904846,-0.13499325513839722,0.10778973251581192,-0.32473650574684143,-0.9566157460212708
143,2875448,2875449,-0.9660884141921997,-0.729199230670929,0.9621378183364868,-5.829174995422363,-2.5314860343933105,-0.1729837954044342,0.7019649147987366,0.9239537715911865,-0.1229938492178917,0.10446076840162277,-0.4221709072589874,-0.9512850046157837
144,2875458,2875459,-1.026056170463562,-0.67032390832901,1.0442543029785156,-6.763355731964111,-1.5525344610214233,0.558833658695221,0.7139642834663391,0.9269536137580872,-0.1229938492178917,0.23157037794589996,-0.5268680453300476,-0.9560126662254333
145,2875468,2875469,-0.7876331806182861,-0.11828895658254623,0.9896700382232666,-4.022796630859375,-1.060624361038208,0.24914127588272095,0.7004649639129639,0.9284535646438599,-0.11549422144889832,0.2565346360206604,-0.6305406093597412,-0.9485315680503845
146,2875478,2875479,-1.060342788696289,-0.442918598651886,0.9670336842536926,-1.0814497470855713,0.8288474082946777,0.8015802502632141,0.7109644412994385,0.9239537715911865,-0.12899354100227356,0.2539558410644531,-0.6760649085044861,-0.9450218081474304
147,2875488,2875489,-0.39863505959510803,-0.26211443543434143,0.9898252487182617,2.7448601722717285,2.786167860031128,0.8868898749351501,0.7004649639129639,0.919454038143158,-0.10949452221393585,0.2085699886083603,-0.6627435684204102,-0.9340094327926636
148,2875498,2875499,-0.44747304916381836,-0.4487750232219696,1.0706464052200317,7.1332011222839355,4.9457197189331055,0.9257389307022095,0.7049647569656372,0.9269536137580872,-0.1319933980703354,0.12598659098148346,-0.5809619426727295,-0.9249632954597473
149,2875508,2875509,-0.5586521625518799,-0.5214768648147583,0.9563205242156982,10.603425979614258,6.395202159881592,0.13890089094638824,0.7049647569656372,0.9149542450904846,-0.1229938492178917,0.024997327476739883,-0.43523108959198,-0.9172035455703735
150,2875518,2875519,-0.3540261387825012,-0.5382543206214905,1.0274373292922974,12.665352821350098,6.1543097496032715,0.6870636343955994,0.7124643921852112,0.9224538803100586,-0.12449377030134201,-0.14863991737365723,-0.25194603204727173,-0.9073324203491211
151,2875528,2875529,-0.873474657535553,-0.1947755515575409,0.9686751961708069,11.424174308776855,5.073187351226807,0.7184577584266663,0.7034648060798645,0.9134542942047119,-0.12749361991882324,-0.16026552021503448,-0.06490858644247055,-0.9076980352401733
152,2875538,2875539,-0.43407684564590454,-0.3948146402835846,1.008408546447754,7.550007343292236,1.110917568206787,-0.07500723004341125,0.7049647569656372,0.9089545607566833,-0.10799460113048553,-0.19681097567081451,-0.18853029608726501,-0.8951846361160278
153,2875548,2875549,-0.07221969962120056,-0.13591137528419495,0.8873271346092224,3.4061625003814697,-3.254936695098877,-0.317333459854126,0.7019649147987366,0.9149542450904846,-0.1319933980703354,-0.1730806827545166,-0.14959679543972015,-0.8952854871749878
154,2875558,2875559,-0.24087455868721008,-0.001619976945221424,0.9573098421096802,-2.237410068511963,-4.946081638336182,0.16709713637828827,0.7109644412994385,0.9209539294242859,-0.13499325513839722,-0.024533862248063087,-0.11869912594556808,-0.9053223133087158
155,2875568,2875569,-0.08881103992462158,0.005162505898624659,1.0028204917907715,-4.900998592376709,-8.204734802246094,0.39878320693969727,0.6944652795791626,0.9134542942047119,-0.12749361991882324,0.1406259983778,-0.15163466334342957,-0.9098763465881348
156,2875578,2875579,-0.2845657467842102,0.02483593299984932,1.10397207736969,-6.3610382080078125,-6.7652459144592285,0.358989953994751,0.7124643921852112,0.9104544520378113,-0.11549422144889832,0.24903590977191925,-0.21934041380882263,-0.9055882692337036
157,2875588,2875589,-0.8574975728988647,-0.1481819599866867,1.0856828689575195,-3.9088830947875977,-4.574832916259766,0.1580175757408142,0.7094644904136658,0.919454038143158,-0.12149392068386078,0.31482040882110596,-0.2862454354763031,-0.8992676734924316
158,2875598,2875599,-0.5504104495048523,-0.11720766872167587,1.1324125528335571,-0.30885469913482666,-0.04081818088889122,0.44946393370628357,0.7124643921852112,0.9134542942047119,-0.12149392068386078,0.30723047256469727,-0.31286078691482544,-0.8951829671859741
159,2875608,2875609,-0.35117465257644653,-0.22520020604133606,1.0114728212356567,4.125186920166016,9.139965057373047,1.0723824501037598,0.6989650130271912,0.911954402923584,-0.11099445074796677,0.21634943783283234,-0.2849120497703552,-0.8898245692253113
160,2875618,2875619,-0.441830039024353,-0.32505548000335693,0.9532904624938965,7.276791572570801,14.593198776245117,0.2894541621208191,0.7004649639129639,0.9104544520378113,-0.12149392068386078,0.034094661474227905,-0.1987248659133911,-0.8805984258651733
161,2875628,2875629,-0.38714903593063354,-0.15559467673301697,0.9051266312599182,9.898853302001953,17.025768280029297,-0.3455429971218109,0.7049647569656372,0.9179540872573853,-0.1229938492178917,-0.05148807913064957,-0.13407501578330994,-0.8856161832809448
162,2875638,2875639,-0.6587741374969482,-0.10561385005712509,0.8772117495536804,9.503165245056152,13.224452018737793,-0.08781245350837708,0.7004649639129639,0.9104544520378113,-0.12749361991882324,-0.2800683379173279,0.0209775660187006,-0.8864907026290894
163,2875648,2875649,-0.2655390202999115,0.04078194126486778,0.8782724142074585,7.666773796081543,11.900291442871094,-1.3208361864089966,0.6989650130271912,0.9149542450904846,-0.1319933980703354,-0.4470921456813812,0.10222828388214111,-0.8874545693397522
164,2875658,2875659,-0.4213557839393616,0.01613531820476055,0.8782950639724731,4.655384540557861,4.923687934875488,-1.2005594968795776,0.7019649147987366,0.9239537715911865,-0.1049947515130043,-0.4899573028087616,0.15219908952713013,-0.9003826975822449
165,2875668,2875669,-0.3487723767757416,0.2204253375530243,1.0773859024047852,0.4896654188632965,-3.710888385772705,-0.3032858669757843,0.7004649639129639,0.919454038143158,-0.12749361991882324,-0.5136474370956421,0.22297854721546173,-0.9095339775085449
166,2875678,2875679,-0.39052507281303406,0.08583194762468338,1.0500234365463257,-4.04982328414917,-8.727057456970215,-0.1090284138917923,0.7004649639129639,0.919454038143158,-0.12749361991882324,-0.235084667801857,0.23369200527668,-0.9206514954566956
167,2875688,2875689,-0.38483482599258423,-0.31655794382095337,1.0690057277679443,-4.396400451660156,-12.97779369354248,-0.42744722962379456,0.7004649639129639,0.919454038143158,-0.12749361991882324,-0.33639657497406006,0.19178926944732666,-0.9139181971549988
168,2875698,2875699,-0.34505006670951843,-0.3536232113838196,1.0274871587753296,-3.40195631980896,-10.534005165100098,-0.5164796710014343,0.6974651217460632,0.9164541363716125,-0.12449377030134201,-0.1884128600358963,0.1285398155450821,-0.9153133034706116
169,2875708,2875709,-0.4593425393104553,-0.20072348415851593,1.0728236436843872,-4.788276195526123,-7.425343036651611,1.1178761720657349,0.7064646482467651,0.90445476770401,-0.10949452221393585,-0.0757916122674942,0.06812915951013565,-0.9164972305297852
170,2875718,2875719,-0.9848928451538086,-0.24199865758419037,1.1112563610076904,-3.399301767349243,-0.5409759879112244,1.069930076599121,0.7064646482467651,0.9014549255371094,-0.13049347698688507,-0.010511978529393673,-0.0744880810379982,-0.9068081974983215
171,2875728,2875729,-0.44713374972343445,-0.08844564110040665,0.9164992570877075,-0.8361863493919373,2.5731699466705322,1.0588566064834595,0.7019649147987366,0.9239537715911865,-0.113994300365448,-0.009679391980171204,-0.11559118330478668,-0.8974378108978271
172,2875738,2875739,-0.09776072204113007,0.05924706906080246,0.9458370208740234,0.9875056743621826,5.410562515258789,1.3156869411468506,0.6989650130271912,0.9179540872573853,-0.12599369883537292,-0.04722030460834503,-0.11531286686658859,-0.8880659937858582
173,2875748,2875749,-0.05547773092985153,0.1424572765827179,0.9525257349014282,3.6790170669555664,6.734392166137695,0.8277610540390015,0.6989650130271912,0.911954402923584,-0.13799309730529785,-0.11298868805170059,-0.06558039784431458,-0.8818145394325256
174,2875758,2875759,-0.3195798397064209,0.09651206433773041,0.8567083477973938,6.812565803527832,5.480073928833008,-0.2883436679840088,0.7019649147987366,0.9209539294242859,-0.12899354100227356,-0.1942613273859024,0.022923508659005165,-0.8759820461273193
175,2875768,2875769,-1.001118540763855,0.1159437745809555,0.9368425607681274,8.168700218200684,3.5939412117004395,-0.494922935962677,0.6929653286933899,0.9209539294242859,-0.1319933980703354,-0.2714160978794098,0.08479899168014526,-0.8780869245529175
176,2875778,2875779,-0.3644653856754303,-0.012874058447778225,1.0441681146621704,7.600160598754883,0.8481324315071106,-0.8742364645004272,0.7079645991325378,0.9299534559249878,-0.11999399960041046,-0.3310834765434265,0.2349025458097458,-0.8821693062782288
177,2875788,2875789,-0.3466104567050934,-0.13492818176746368,1.0471482276916504,5.812553405761719,0.767652153968811,-0.565158486366272,0.6929653286933899,0.9149542450904846,-0.1229938492178917,-0.2883860170841217,0.15394365787506104,-0.8881555795669556
178,2875798,2875799,-0.353649377822876,-0.1957659125328064,1.070184588432312,3.3231072425842285,-2.0900774002075195,-0.3548746109008789,0.7259637117385864,0.9029548168182373,-0.1229938492178917,-0.3094349801540375,0.263424277305603,-0.8908450603485107
179,2875808,2875809,-0.15448376536369324,-0.08791304379701614,1.0927330255508423,-0.18785925209522247,-3.7869887351989746,0.648412823677063,0.6959651708602905,0.8999549746513367,-0.13799309730529785,-0.30047282576560974,0.31427332758903503,-0.8892935514450073
180,2875818,2875819,-0.1558869481086731,-0.14191117882728577,1.086045742034912,-1.1819287538528442,-4.128300666809082,0.37519827485084534,0.7094644904136658,0.8984550833702087,-0.14249287545681,-0.27345409989356995,0.38959482312202454,-0.880882978439331
181,2875828,2875829,-0.19246411323547363,-0.1513182669878006,1.0656393766403198,-2.3197619915008545,-2.535796880722046,0.12879027426242828,0.7064646482467651,0.9134542942047119,-0.12749361991882324,-0.24539072811603546,0.36164137721061707,-0.8778519630432129
182,2875838,2875839,-0.3265148103237152,-0.21811777353286743,1.1050536632537842,-2.0240070819854736,-2.124744176864624,1.2471965551376343,0.7064646482467651,0.9104544520378113,-0.11849407106637955,-0.23797127604484558,0.25756964087486267,-0.8773854374885559
183,2875848,2875849,-0.5703628659248352,-0.4073396325111389,0.9766373634338379,-2.405219793319702,1.133914589881897,1.3992003202438354,0.7139642834663391,0.8999549746513367,-0.13799309730529785,-0.23125135898590088,0.22873078286647797,-0.8658791780471802
184,2875858,2875859,-0.8074254393577576,-0.6044493317604065,0.8647682666778564,-0.6346858143806458,3.0867013931274414,1.050438642501831,0.7004649639129639,0.9074546098709106,-0.12149392068386078,-0.25482144951820374,0.26067227125167847,-0.8537107706069946
185,2875868,2875869,-0.8697575330734253,-0.8121663928031921,0.9387462139129639,-1.8758383989334106,-0.5463889837265015,1.475388765335083,0.7154642343521118,0.9104544520378113,-0.13049347698688507,-0.27528509497642517,0.3043864369392395,-0.8409221768379211
186,2875878,2875879,-0.29950419068336487,-0.6112485527992249,0.9519809484481812,1.2274982929229736,4.450814723968506,2.2849574089050293,0.7004649639129639,0.9104544520378113,-0.12749361991882324,-0.2536700367927551,0.21917225420475006,-0.8287960290908813
187,2875888,2875889,0.06368986517190933,0.10556107759475708,0.9209175109863281,1.0549172163009644,1.5958069562911987,1.8274002075195312,0.7139642834663391,0.9059546589851379,-0.12599369883537292,-0.03905326500535011,0.0937696173787117,-0.8025645613670349
188,2875898,2875899,-0.09313193708658218,0.3104397654533386,0.9516795873641968,0.1025267168879509,-0.39495208859443665,2.3399784564971924,0.7094644904136658,0.9104544520378113,-0.12149392068386078,-0.15963305532932281,0.19171014428138733,-0.7909232378005981
189,2875908,2875909,-0.33098798990249634,0.12805134057998657,1.0240741968154907,0.7743809223175049,-2.3394715785980225,1.4386943578720093,0.6989650130271912,0.9149542450904846,-0.12599369883537292,-0.10870806872844696,0.21588295698165894,-0.7725275754928589
190,2875918,2875919,-0.04996795579791069,0.01594114489853382,0.9210675954818726,2.1055057048797607,-1.8015873432159424,0.9493874907493591,0.6884655356407166,0.8924553394317627,-0.12749361991882324,-0.06175782158970833,0.2492215782403946,-0.7598845958709717
191,2875928,2875929,0.05516541749238968,0.018487349152565002,0.8823003172874451,2.131369113922119,-1.938301682472229,1.6812958717346191,0.7064646482467651,0.9014549255371094,-0.13649317622184753,-0.03983699157834053,0.28999048471450806,-0.7484370470046997
192,2875938,2875939,-0.0029531887266784906,-0.0009663976379670203,0.97496098279953,1.5940996408462524,1.333723545074463,1.411414384841919,0.7139642834663391,0.8939552903175354,-0.14099295437335968,-0.04124034568667412,0.32107269763946533,-0.732805609703064
193,2875948,2875949,-0.2664910852909088,0.00021419409313239157,1.0204832553863525,-0.968652606010437,1.4610992670059204,0.7571030855178833,0.7064646482467651,0.8924553394317627,-0.13949301838874817,-0.07776934653520584,0.2685402035713196,-0.7201717495918274
194,2875958,2875959,-0.15949256718158722,0.06645101308822632,1.0527032613754272,-2.2746479511260986,4.251990795135498,0.8876456618309021,0.7004649639129639,0.9014549255371094,-0.12749361991882324,-0.13338571786880493,0.2587510943412781,-0.711220920085907
195,2875968,2875969,-0.08622478693723679,0.04707628861069679,1.0900471210479736,-2.834942579269409,4.62770938873291,-0.11217242479324341,0.7064646482467651,0.8954551815986633,-0.13649317622184753,-0.21660014986991882,0.23357678949832916,-0.7038167119026184
196,2875978,2875979,-0.13786180317401886,0.005934469401836395,1.0698391199111938,-3.4580471515655518,4.458737850189209,-0.29461175203323364,0.7199639678001404,0.896955132484436,-0.13799309730529785,-0.30036279559135437,0.20050418376922607,-0.70274817943573
197,2875988,2875989,-0.08204197138547897,0.054003238677978516,1.0679311752319336,-2.0188348293304443,1.2907980680465698,0.6689144968986511,0.7034648060798645,0.9014549255371094,-0.12749361991882324,-0.095774345099926,-0.11155984550714493,-0.6928654313087463
198,2875998,2875999,-0.2086951732635498,0.016148298978805542,1.1049548387527466,-1.1061686277389526,1.7169495820999146,0.1830926537513733,0.7109644412994385,0.8909554481506348,-0.12599369883537292,-0.15048302710056305,-0.09792651236057281,-0.6870583295822144
199,2876008,2876009,-0.17589236795902252,-0.04472111165523529,1.053938627243042,2.4927337169647217,2.096919059753418,0.42719560861587524,0.7094644904136658,0.90445476770401,-0.12749361991882324,-0.19196657836437225,-0.062400124967098236,-0.683978796005249
200,2876018,2876019,-0.09088310599327087,-0.010018535889685154,1.0970251560211182,4.867245674133301,-0.3798067569732666,1.0140551328659058,0.7004649639129639,0.8924553394317627,-0.1334933191537857,-0.2303629219532013,0.024772079661488533,-0.6773931980133057
201,2876028,2876029,-0.060080282390117645,0.009541762992739677,1.1207069158554077,8.573558807373047,-0.42610839009284973,0.22416220605373383,0.7019649147987366,0.8939552903175354,-0.12899354100227356,-0.25439998507499695,0.023564394563436508,-0.6697897911071777
202,2876038,2876039,-0.06501691043376923,0.05248253047466278,1.1516159772872925,9.838261604309082,-0.47355443239212036,0.7357534766197205,0.7109644412994385,0.8999549746513367,-0.13499325513839722,-0.21066814661026,0.06493229418992996,-0.6654695868492126
203,2876048,2876049,-0.06878646463155746,-0.04713527485728264,1.0971077680587769,9.856829643249512,4.874518394470215,1.455553412437439,0.7019649147987366,0.8939552903175354,-0.1229938492178917,-0.2609884738922119,0.19352345168590546,-0.6550992727279663
204,2876058,2876059,-0.13439083099365234,-0.22665545344352722,1.0575615167617798,8.401030540466309,1.5455015897750854,0.7661108374595642,0.7184640765190125,0.919454038143158,-0.1334933191537857,-0.3414542078971863,0.37977564334869385,-0.6394407749176025
205,2876068,2876069,-0.08604184538125992,-0.1907362937927246,1.0217074155807495,6.284560680389404,-1.9166498184204102,1.2414518594741821,0.691465437412262,0.9164541363716125,-0.12749361991882324,-0.3927401900291443,0.535334587097168,-0.626613438129425
206,2876078,2876079,-0.17650040984153748,-0.09285974502563477,1.0178502798080444,4.055471420288086,2.312443494796753,2.182610273361206,0.6959651708602905,0.8939552903175354,-0.11999399960041046,-0.4871739447116852,0.5789389610290527,-0.6146007180213928
207,2876088,2876089,-0.17715846002101898,-0.09618803858757019,1.0400059223175049,1.7157008647918701,-2.592172861099243,1.5495530366897583,0.6974651217460632,0.9074546098709106,-0.10949452221393585,-0.5105783343315125,0.6501587629318237,-0.5909133553504944
208,2876098,2876099,-0.07905199378728867,-0.10538827627897263,1.0187739133834839,-3.1305503845214844,-3.581833839416504,1.8406057357788086,0.6974651217460632,0.90445476770401,-0.11849407106637955,-0.48430025577545166,0.6571457386016846,-0.571223258972168
209,2876108,2876109,-0.012079590000212193,-0.041269417852163315,1.0616768598556519,-6.629403591156006,-5.157817363739014,1.706712007522583,0.6899654865264893,0.9029548168182373,-0.113994300365448,-0.4258306324481964,0.5983260869979858,-0.5487640500068665
210,2876118,2876119,-0.053751762956380844,-0.08866892009973526,1.0138431787490845,-8.170923233032227,-4.737401485443115,2.2786951065063477,0.683965802192688,0.9209539294242859,-0.11999399960041046,-0.34219130873680115,0.4956192672252655,-0.5284669399261475
211,2876128,2876129,-0.03764041140675545,-0.02882523089647293,0.995137095451355,-8.109065055847168,-4.65269660949707,1.821956992149353,0.6989650130271912,0.9149542450904846,-0.12899354100227356,-0.254772424697876,0.3796900510787964,-0.5079087615013123
212,2876138,2876139,-0.13627436757087708,-0.1849958598613739,1.0929871797561646,-6.993401527404785,-7.334769248962402,1.1874879598617554,0.6944652795791626,0.9104544520378113,-0.12749361991882324,-0.18057948350906372,0.4810302257537842,-0.48020219802856445
213,2876148,2876149,-0.3859899938106537,-0.11737337708473206,0.9925229549407959,-2.6309444904327393,-2.6924021244049072,1.5280416011810303,0.6974651217460632,0.9134542942047119,-0.11549422144889832,-0.10870599746704102,0.3354443609714508,-0.4682818055152893
214,2876158,2876159,-0.3696106970310211,-0.13452854752540588,1.0917105674743652,0.8541467785835266,-1.7908941507339478,2.447033166885376,0.7004649639129639,0.9134542942047119,-0.11549422144889832,-0.09387008100748062,0.5306301116943359,-0.44296175241470337
215,2876168,2876169,-0.19334840774536133,-0.20930272340774536,1.0355031490325928,3.695207118988037,3.1996498107910156,2.646700620651245,0.6974651217460632,0.90445476770401,-0.12449377030134201,-0.10375247150659561,0.47301170229911804,-0.4211273491382599
216,2876178,2876179,-0.06727121770381927,-0.24197018146514893,1.0169379711151123,3.7231533527374268,4.691633701324463,2.8382396697998047,0.7019649147987366,0.9179540872573853,-0.12899354100227356,-0.17020797729492188,0.5202898979187012,-0.3957025706768036
217,2876188,2876189,-0.20090694725513458,-0.21920299530029297,0.9160354733467102,2.122147560119629,6.6741943359375,2.781480550765991,0.6854656934738159,0.919454038143158,-0.11849407106637955,-0.19957037270069122,0.421185702085495,-0.37143468856811523
218,2876198,2876199,-0.1430702805519104,-0.17166395485401154,0.8312509059906006,-1.000632643699646,7.237255573272705,3.276512861251831,0.691465437412262,0.9254537224769592,-0.11849407106637955,-0.32052308320999146,0.4385080337524414,-0.34531089663505554
219,2876208,2876209,-0.19861724972724915,-0.059371355921030045,0.9290602803230286,-5.31644868850708,2.7128524780273438,2.9051787853240967,0.6869656443595886,0.9089545607566833,-0.1229938492178917,-0.4892139732837677,0.6097179055213928,-0.3146785497665405
220,2876218,2876219,-0.2825113832950592,0.22203992307186127,0.9457112550735474,-5.319079875946045,4.5256829261779785,3.6287169456481934,0.7064646482467651,0.9254537224769592,-0.11249437183141708,-0.5485570430755615,0.5184968709945679,-0.2884775996208191
221,2876228,2876229,-0.36683616042137146,0.0932481661438942,0.8959441781044006,-9.221026420593262,-1.8564985990524292,4.403036117553711,0.6974651217460632,0.9164541363716125,-0.12449377030134201,-0.5592395663261414,0.39333251118659973,-0.251604288816452
222,2876238,2876239,-0.15162687003612518,-0.1310449242591858,0.9768083691596985,-10.126474380493164,-7.765005111694336,4.011683940887451,0.7064646482467651,0.9134542942047119,-0.11849407106637955,-0.4161807596683502,0.30038127303123474,-0.19847099483013153
223,2876248,2876249,0.08421994000673294,-0.15941910445690155,0.8838284611701965,-9.29333209991455,-11.187999725341797,3.5474162101745605,0.7034648060798645,0.90445476770401,-0.13049347698688507,-0.3427346348762512,0.13403448462486267,-0.16259774565696716
224,2876258,2876259,0.029899848625063896,-0.11393208801746368,0.9043655395507812,-9.086312294006348,-13.165484428405762,3.3726351261138916,0.7019649147987366,0.911954402923584,-0.11999399960041046,-0.20639005303382874,0.18681170046329498,-0.12019936740398407
225,2876268,2876269,-0.05335785821080208,0.02087535336613655,0.9665797352790833,-6.841156482696533,-11.397806167602539,3.0627899169921875,0.7034648060798645,0.9134542942047119,-0.11549422144889832,0.008829370141029358,0.03583315759897232,-0.08463127166032791
226,2876278,2876279,-0.05060717090964317,0.013777321204543114,1.0692157745361328,-4.056994915008545,-8.19890308380127,2.7109858989715576,0.7034648060798645,0.9074546098709106,-0.1334933191537857,-0.024507813155651093,-0.06508545577526093,-0.06649308651685715
227,2876288,2876289,-0.013760569505393505,-0.21163351833820343,1.0253466367721558,-0.24589058756828308,-1.7687090635299683,2.816981554031372,0.7109644412994385,0.9059546589851379,-0.13799309730529785,0.08222431689500809,-0.11184395849704742,-0.03759673610329628
228,2876298,2876299,-0.0450499951839447,-0.15545909106731415,1.0599387884140015,0.751115083694458,1.0589138269424438,2.447479724884033,0.7109644412994385,0.9089545607566833,-0.12899354100227356,0.10615701973438263,-0.11428893357515335,-0.010745500214397907
229,2876308,2876309,-0.1810643970966339,-0.30075564980506897,1.1037007570266724,1.7145861387252808,3.065369129180908,2.855233669281006,0.7079645991325378,0.9179540872573853,-0.13499325513839722,0.07726316154003143,-0.025891434401273727,0.01585225947201252
230,2876318,2876319,-0.36318910121917725,-0.508064329624176,1.132706642150879,2.218350410461426,6.411855220794678,2.67279052734375,0.7094644904136658,0.9134542942047119,-0.12449377030134201,-0.05875557288527489,-0.0012742675608024001,0.03960822895169258
231,2876328,2876329,-0.16150827705860138,-0.09715268760919571,1.0129214525222778,0.9166195392608643,6.837843894958496,2.322972297668457,0.6944652795791626,0.9074546098709106,-0.12749361991882324,-0.14949694275856018,0.0174952931702137,0.06490959972143173
232,2876338,2876339,-0.08482544869184494,-0.02607085183262825,1.0671347379684448,-1.2274317741394043,2.7626492977142334,2.7716894149780273,0.6959651708602905,0.9209539294242859,-0.1319933980703354,-0.22642460465431213,0.011118394322693348,0.08933176100254059
233,2876348,2876349,-0.0889740139245987,-0.16163119673728943,1.016485333442688,-2.736161231994629,-0.4089713394641876,2.9349937438964844,0.6944652795791626,0.9104544520378113,-0.12149392068386078,-0.10768809914588928,-0.025260530412197113,0.12184154987335205
234,2876358,2876359,-0.15183883905410767,-0.15932007133960724,1.0619866847991943,-4.693944454193115,-3.8434014320373535,2.231825590133667,0.6989650130271912,0.9209539294242859,-0.11999399960041046,-0.08539903163909912,-0.09723600000143051,0.14915236830711365
235,2876368,2876369,-0.07291581481695175,-0.08435395359992981,1.0438792705535889,-5.531656265258789,-5.8902482986450195,1.7961713075637817,0.6989650130271912,0.911954402923584,-0.12599369883537292,-0.06990755349397659,-0.045563675463199615,0.1718524992465973
236,2876378,2876379,-0.06954032182693481,0.015806423500180244,1.0204582214355469,-5.5296454429626465,-7.165946960449219,2.2712671756744385,0.6944652795791626,0.9224538803100586,-0.12449377030134201,-0.022291133180260658,-0.1480800211429596,0.1911916434764862
237,2876388,2876389,-0.10161968320608139,-0.11949671059846878,0.9779409170150757,-3.3051400184631348,-5.399379730224609,2.706122875213623,0.6944652795791626,0.9224538803100586,-0.12449377030134201,0.08718069642782211,-0.16609102487564087,0.21621501445770264
238,2876398,2876399,-0.4866039752960205,-0.3730378746986389,0.9379020929336548,-2.2552101612091064,-5.892967700958252,3.25838303565979,0.6944652795791626,0.9224538803100586,-0.12449377030134201,0.12311113625764847,-0.22660109400749207,0.24311897158622742
239,2876408,2876409,-0.8716893196105957,-0.5262128710746765,0.9411236047744751,-0.17961697280406952,-2.2106361389160156,2.48502254486084,0.6959651708602905,0.9149542450904846,-0.12599369883537292,0.20335793495178223,-0.25097376108169556,0.27476099133491516
240,2876418,2876419,-0.8353890776634216,-0.7856651544570923,0.9980505704879761,0.27716001868247986,0.8526802659034729,2.8085687160491943,0.7109644412994385,0.9239537715911865,-0.113994300365448,0.15841229259967804,-0.33749330043792725,0.3006811738014221
241,2876428,2876429,-0.42970314621925354,-0.26232054829597473,0.9594007134437561,1.317478895187378,2.9826126098632812,2.493852376937866,0.6959651708602905,0.9299534559249878,-0.1229938492178917,0.21308022737503052,-0.2620808184146881,0.32537150382995605
242,2876438,2876439,-0.8735978603363037,-0.5533146858215332,0.9135172367095947,0.6576753258705139,2.2360434532165527,2.6980059146881104,0.683965802192688,0.911954402923584,-0.11699414998292923,0.1884179413318634,-0.24973435699939728,0.3504009246826172
243,2876448,2876449,-0.861587643623352,-0.5214972496032715,0.9299420118331909,0.6359733939170837,1.3507063388824463,3.3573434352874756,0.7079645991325378,0.9149542450904846,-0.12899354100227356,0.08517816662788391,-0.3171137273311615,0.3824766278266907
244,2876458,2876459,-1.4436025619506836,-0.1883414089679718,1.0277234315872192,0.43580174446105957,0.4858857989311218,2.7636191844940186,0.7034648060798645,0.9074546098709106,-0.12149392068386078,0.08153963088989258,-0.31238293647766113,0.41459017992019653
245,2876468,2876469,-0.8435425162315369,-0.17168976366519928,1.1108072996139526,0.13764092326164246,-0.893848717212677,2.356130361557007,0.6989650130271912,0.9239537715911865,-0.12899354100227356,0.1626725047826767,-0.23035404086112976,0.43717700242996216
246,2876478,2876479,-0.3433366119861603,-0.03257505223155022,1.0588265657424927,1.6305922269821167,-1.9367860555648804,2.2445497512817383,0.6974651217460632,0.9134542942047119,-0.1334933191537857,0.1840842366218567,-0.29473215341567993,0.4631726145744324
247,2876488,2876489,-0.31783419847488403,-0.23941324651241302,0.9639027714729309,1.7065207958221436,0.5442368388175964,2.5339388847351074,0.7109644412994385,0.9179540872573853,-0.13499325513839722,0.06318067759275436,-0.27213144302368164,0.4907757043838501
248,2876498,2876499,-0.1935417354106903,-0.5439503788948059,1.0557937622070312,1.3868249654769897,-3.116405725479126,2.232846260070801,0.7094644904136658,0.9104544520378113,-0.13049347698688507,0.09174133837223053,-0.2467065304517746,0.5133486390113831
249,2876508,2876509,-0.27523425221443176,-0.40088075399398804,0.9997577667236328,1.1417080163955688,-3.5542285442352295,1.8171780109405518,0.7094644904136658,0.919454038143158,-0.13049347698688507,0.0064453184604644775,-0.011927315965294838,0.531882107257843
250,2876518,2876519,-0.14395974576473236,-0.08374998718500137,0.9634938836097717,-0.43127548694610596,-2.8540117740631104,2.2006664276123047,0.7064646482467651,0.9164541363716125,-0.12149392068386078,0.2192152738571167,-0.22897988557815552,0.5517396330833435
251,2876528,2876529,-0.1038510650396347,-0.060094669461250305,1.0526418685913086,-1.9677708148956299,-4.739683628082275,1.710695743560791,0.7004649639129639,0.9164541363716125,-0.11249437183141708,0.28057610988616943,-0.24053798615932465,0.5726290345191956
252,2876538,2876539,-0.09230853617191315,-0.07248373329639435,1.1194610595703125,-2.816666603088379,-4.175894737243652,1.5117114782333374,0.7184640765190125,0.9134542942047119,-0.11549422144889832,0.21541941165924072,-0.27521389722824097,0.5944519639015198
253,2876548,2876549,-0.14073757827281952,-0.04950053617358208,1.0877008438110352,-2.2887983322143555,-1.8731688261032104,0.9878268241882324,0.7124643921852112,0.9074546098709106,-0.11549422144889832,0.3455621302127838,-0.3200516402721405,0.6064436435699463
254,2876558,2876559,-0.12610605359077454,-0.1558573991060257,1.0245362520217896,-1.1217955350875854,0.07081693410873413,1.70332670211792,0.6974651217460632,0.9164541363716125,-0.13649317622184753,0.2268463373184204,0.20947924256324768,0.5991942286491394
255,2876568,2876569,-0.4257664978504181,-0.4562135934829712,0.9790096282958984,0.5138913989067078,1.0308284759521484,0.8034837245941162,0.6989650130271912,0.9089545607566833,-0.1229938492178917,0.23378674685955048,0.16183917224407196,0.6159061193466187
256,2876578,2876579,-0.19254174828529358,-0.1939975619316101,0.9478662014007568,-0.6673368215560913,1.393937587738037,0.08742761611938477,0.6929653286933899,0.911954402923584,-0.12599369883537292,0.22111184895038605,0.12928439676761627,0.6244188547134399
257,2876588,2876589,-0.0380159430205822,0.0076722679659724236,0.9812170267105103,-4.651087760925293,2.4282877445220947,0.10531853884458542,0.7109644412994385,0.9089545607566833,-0.11999399960041046,0.20024824142456055,0.06722865998744965,0.6295441389083862
258,2876598,2876599,-0.08807224035263062,0.010019684210419655,0.958969235420227,-7.952237606048584,1.5960673093795776,0.12333347648382187,0.7049647569656372,0.9179540872573853,-0.11999399960041046,0.1743195354938507,-0.048329006880521774,0.6345869898796082
259,2876608,2876609,0.044104915112257004,0.03228608891367912,0.9133057594299316,-9.607771873474121,3.1064624786376953,1.1103545427322388,0.6929653286933899,0.9239537715911865,-0.1229938492178917,0.14195185899734497,-0.1397564709186554,0.6387778520584106
260,2876618,2876619,-0.005681200884282589,0.003187666181474924,0.9472196102142334,-10.338685989379883,-0.01854810118675232,0.5799802541732788,0.7049647569656372,0.9149542450904846,-0.12599369883537292,0.12581634521484375,-0.32570794224739075,0.6513063907623291
261,2876628,2876629,-0.23493529856204987,0.04907285049557686,0.9542647004127502,-9.580536842346191,2.4034104347229004,0.646438479423523,0.7019649147987366,0.9209539294242859,-0.11699414998292923,0.119954414665699,-0.5117206573486328,0.6603833436965942
262,2876638,2876639,-0.41368648409843445,-0.01762065663933754,0.9844845533370972,-7.684310436248779,-0.9764445424079895,0.735530436038971,0.6959651708602905,0.9209539294242859,-0.11099445074796677,0.10958179831504822,-0.46281614899635315,0.6581694483757019
263,2876648,2876649,-0.19812968373298645,-0.10041003674268723,0.9709897637367249,-3.1469311714172363,-1.712388277053833,0.471299946308136,0.7049647569656372,0.9149542450904846,-0.12599369883537292,0.1286172866821289,-0.585091233253479,0.6673738360404968
264,2876658,2876659,-0.07998017221689224,0.08428468555212021,0.9892475008964539,-0.38851502537727356,-1.1238514184951782,0.2393898218870163,0.7094644904136658,0.9254537224769592,-0.12449377030134201,0.10045737028121948,-0.6426624059677124,0.6752727627754211
265,2876668,2876669,-0.31133416295051575,0.043830037117004395,1.109196424484253,2.5470798015594482,-2.0850141048431396,0.3079068064689636,0.7019649147987366,0.9059546589851379,-0.1229938492178917,0.1470424234867096,-0.6463747620582581,0.6761454343795776
266,2876678,2876679,-0.43160000443458557,-0.21230673789978027,1.1569340229034424,5.765502452850342,-3.6763839721679688,0.3772002160549164,0.7064646482467651,0.9104544520378113,-0.1334933191537857,0.20617398619651794,-0.5999659299850464,0.6764737367630005
267,2876688,2876689,-0.8407042026519775,-0.3225940763950348,1.0320923328399658,5.8497843742370605,-2.6169254779815674,0.36019814014434814,0.7154642343521118,0.9104544520378113,-0.12449377030134201,0.3346087634563446,-0.7283869385719299,0.6839090585708618
268,2876698,2876699,-0.7557419538497925,-0.4069075286388397,1.025847315788269,5.938648223876953,-0.707309901714325,0.5353842973709106,0.7154642343521118,0.9074546098709106,-0.12149392068386078,0.2942869961261749,-0.6930570602416992,0.6934819221496582
269,2876708,2876709,-0.6206217408180237,-0.5505986213684082,1.1200813055038452,4.256627082824707,-0.33838963508605957,0.713783323764801,0.7124643921852112,0.9134542942047119,-0.1334933191537857,0.3050265610218048,-0.5966829657554626,0.6982772946357727
270,2876718,2876719,-1.3165245056152344,-0.8107572197914124,1.1758161783218384,5.208339691162109,1.9200170040130615,0.6664870977401733,0.7199639678001404,0.9179540872573853,-0.11699414998292923,0.2910533547401428,-0.5165407657623291,0.7035300731658936
271,2876728,2876729,-0.3364178240299225,-0.3260284662246704,1.0463322401046753,5.531140327453613,3.9638490676879883,0.6892999410629272,0.7124643921852112,0.9164541363716125,-0.12449377030134201,0.25147467851638794,-0.4214715361595154,0.707891047000885
272,2876738,2876739,-0.26695916056632996,-0.2688734233379364,0.9792258739471436,4.615787506103516,2.9576165676116943,0.5153310894966125,0.7034648060798645,0.9134542942047119,-0.13649317622184753,0.19176538288593292,-0.33374643325805664,0.7149195075035095
273,2876748,2876749,-0.23623210191726685,-0.2755696475505829,1.0110244750976562,3.1983277797698975,1.7192747592926025,0.4956606328487396,0.7079645991325378,0.9179540872573853,-0.11999399960041046,0.14930814504623413,-0.27075329422950745,0.7188354134559631
274,2876758,2876759,-0.14487479627132416,-0.15922699868679047,1.085222601890564,-0.08027799427509308,-0.3633163273334503,0.9547865390777588,0.7079645991325378,0.9239537715911865,-0.11999399960041046,0.13544650375843048,-0.45078977942466736,0.7359511852264404
275,2876768,2876769,-0.00933726318180561,-0.08241192996501923,1.0660346746444702,-2.0394017696380615,-1.4780607223510742,0.17982111871242523,0.7154642343521118,0.9164541363716125,-0.11549422144889832,0.14923299849033356,-0.5262125134468079,0.7488740086555481
276,2876778,2876779,-0.00465085543692112,-0.022488512098789215,1.0087926387786865,-2.046858310699463,-2.781526803970337,-0.4074929356575012,0.6929653286933899,0.9239537715911865,-0.11699414998292923,0.19400137662887573,-0.541454553604126,0.7476814389228821
277,2876788,2876789,-0.20405380427837372,-0.06310073286294937,1.0384825468063354,-0.7485917806625366,-4.460099220275879,-0.1011672094464302,0.7079645991325378,0.9239537715911865,-0.12599369883537292,0.24507656693458557,-0.5463064908981323,0.7424759864807129
278,2876798,2876799,-0.031423356384038925,0.02653210610151291,1.0302512645721436,4.002820014953613,-1.4442176818847656,-0.5753929018974304,0.7034648060798645,0.9134542942047119,-0.10949452221393585,0.29569011926651,-0.5098431706428528,0.7388947606086731
279,2876808,2876809,-0.008397418074309826,-0.024545127525925636,0.9229522943496704,8.166764259338379,2.2708194255828857,-0.4244019091129303,0.7004649639129639,0.9104544520378113,-0.12149392068386078,0.22363466024398804,-0.40743526816368103,0.7386236190795898
280,2876818,2876819,-0.034936387091875076,0.005740557797253132,0.9153019785881042,11.100862503051758,4.540789604187012,-0.7647863030433655,0.7019649147987366,0.9149542450904846,-0.1229938492178917,0.11508938670158386,-0.31720513105392456,0.7407767176628113
281,2876828,2876829,0.08970769494771957,0.0914352685213089,0.8658913373947144,12.050013542175293,5.367147922515869,-0.5136401653289795,0.7034648060798645,0.9074546098709106,-0.12449377030134201,0.05060552433133125,-0.12145233899354935,0.7302001118659973
282,2876838,2876839,0.01023756992071867,0.07731173932552338,0.8951586484909058,11.354101181030273,3.060417413711548,-0.8443824648857117,0.6959651708602905,0.9029548168182373,-0.10799460113048553,0.06681369990110397,0.00646821316331625,0.7182579040527344
283,2876848,2876849,-0.1427324414253235,-0.058447182178497314,0.8920496702194214,8.22124195098877,3.1649973392486572,-0.8665801882743835,0.6884655356407166,0.9134542942047119,-0.12449377030134201,0.02332441881299019,0.18416351079940796,0.7074109315872192
284,2876858,2876859,-0.10502797365188599,-0.13530799746513367,0.9515741467475891,5.413105010986328,-0.7875134348869324,-0.031736377626657486,0.7034648060798645,0.8924553394317627,-0.12449377030134201,0.004444218706339598,-0.04843662679195404,0.7139102220535278
285,2876868,2876869,0.059523217380046844,0.14903004467487335,0.9630582332611084,0.5304418206214905,-2.115053415298462,-0.5133132934570312,0.7079645991325378,0.9029548168182373,-0.11699414998292923,0.035014558583498,0.03879906237125397,0.7084158658981323
286,2876878,2876879,0.0025635953061282635,-0.11507371813058853,0.995361328125,-1.1154813766479492,-2.957141637802124,-0.068617083132267,0.7094644904136658,0.8954551815986633,-0.12749361991882324,-0.00022104784147813916,-0.15655452013015747,0.7163581252098083
287,2876888,2876889,-0.08105061203241348,-0.17927566170692444,0.9846088886260986,-2.459597587585449,-3.7267825603485107,-0.11128757894039154,0.7199639678001404,0.9029548168182373,-0.12599369883537292,0.07586552947759628,-0.15936674177646637,0.7122790813446045
288,2876898,2876899,-0.00985883828252554,0.00036911311326548457,1.0292725563049316,-0.15409375727176666,-4.636557579040527,0.06490327417850494,0.7049647569656372,0.896955132484436,-0.14699265360832214,0.15891002118587494,-0.2911679744720459,0.7127696871757507
289,2876908,2876909,0.0023395319003611803,-0.039485327899456024,0.9845028519630432,4.593782424926758,-4.6509108543396,0.16423144936561584,0.7184640765190125,0.8954551815986633,-0.12149392068386078,0.24185767769813538,-0.3667275309562683,0.7142431139945984
290,2876918,2876919,-0.10175822675228119,-0.20096392929553986,1.0021328926086426,9.441937446594238,-3.275009870529175,-0.5787030458450317,0.7154642343521118,0.8864556550979614,-0.12749361991882324,0.3141588270664215,-0.21524769067764282,0.709140956401825
291,2876928,2876929,-0.3607737720012665,-0.18149948120117188,1.0135061740875244,14.90324592590332,-1.5166536569595337,-0.6033006906509399,0.7124643921852112,0.8894554972648621,-0.13049347698688507,0.35652419924736023,0.011879858560860157,0.6981589794158936
292,2876938,2876939,-0.16174481809139252,-0.030496925115585327,1.0393458604812622,17.216819763183594,-0.8803619146347046,-0.8800631761550903,0.7019649147987366,0.8789560198783875,-0.13499325513839722,0.37597453594207764,0.23328261077404022,0.6886191368103027
293,2876948,2876949,0.005492269527167082,0.0008730713161639869,1.0395714044570923,16.552879333496094,3.2095487117767334,-0.26255863904953003,0.7244637608528137,0.8834558129310608,-0.13049347698688507,0.352764368057251,0.5432800650596619,0.6764428615570068
294,2876958,2876959,-0.1173427551984787,-0.0414104238152504,1.0172032117843628,12.94771957397461,3.674790382385254,-0.6948825120925903,0.7124643921852112,0.8864556550979614,-0.12449377030134201,0.3014468550682068,0.7466086745262146,0.6718984842300415
295,2876968,2876969,-0.09570299834012985,0.05965080484747887,1.0348271131515503,6.8656325340271,5.409204006195068,-0.9206181764602661,0.7094644904136658,0.8834558129310608,-0.1334933191537857,0.2326238453388214,0.6691000461578369,0.6748550534248352
296,2876978,2876979,0.03930726274847984,0.05817132815718651,0.9826816320419312,-0.29651519656181335,5.65664005279541,-1.051064372062683,0.7124643921852112,0.8834558129310608,-0.12149392068386078,0.21079856157302856,0.49389201402664185,0.6777169704437256
297,2876988,2876989,0.06890644133090973,0.09114639461040497,0.9797387719154358,-5.316315650939941,6.6257171630859375,-1.053776502609253,0.7214639186859131,0.8864556550979614,-0.12449377030134201,0.11535782366991043,0.5072111487388611,0.6660395264625549
298,2876998,2876999,0.09780212491750717,0.03496493026614189,0.9774191379547119,-5.4040913581848145,4.738550662994385,-0.6230010390281677,0.7034648060798645,0.8984550833702087,-0.13049347698688507,0.024136537685990334,0.45907753705978394,0.6575567126274109
299,2877008,2877009,0.08472394198179245,0.08148230612277985,1.0088015794754028,-4.159425258636475,2.7116105556488037,-0.06203768029808998,0.7079645991325378,0.8999549746513367,-0.11699414998292923,-0.033657316118478775,0.41869086027145386,0.6512449383735657
300,2877018,2877019,0.07983534038066864,0.08825580030679703,1.0225318670272827,1.036110758781433,2.843914270401001,0.04222723841667175,0.7109644412994385,0.8939552903175354,-0.1319933980703354,0.06156570836901665,0.408953458070755,0.6534522771835327
301,2877028,2877029,0.03259413689374924,-0.048870749771595,0.9943550825119019,5.2004265785217285,-0.6892039179801941,-0.04818602651357651,0.7334632873535156,0.8744562864303589,-0.1334933191537857,0.03333468735218048,0.3444425165653229,0.6583963632583618
302,2877038,2877039,-0.08504583686590195,-0.031201232224702835,1.0522946119308472,9.355344772338867,-4.21082067489624,-0.4836958944797516,0.6989650130271912,0.8909554481506348,-0.12899354100227356,0.06249482184648514,0.4961864948272705,0.6540300250053406
303,2877048,2877049,-0.5280227661132812,-0.010820274241268635,1.0545053482055664,13.942535400390625,-0.5966474413871765,-0.09635721147060394,0.7094644904136658,0.8834558129310608,-0.11549422144889832,0.01622197777032852,0.5726295113563538,0.6483132243156433
304,2877058,2877059,-0.4118873178958893,-0.08323472738265991,1.0318117141723633,12.974479675292969,0.24431711435317993,0.2855086326599121,0.7004649639129639,0.8774561285972595,-0.1334933191537857,0.027330925688147545,0.769782304763794,0.6466721892356873
305,2877068,2877069,0.11149416118860245,-0.002652895636856556,0.9710615277290344,11.75081729888916,4.6881022453308105,1.3169331550598145,0.7094644904136658,0.8774561285972595,-0.12149392068386078,0.09399928897619247,1.0064407587051392,0.651272177696228
306,2877078,2877079,0.11778144538402557,0.03446109592914581,1.0378057956695557,7.710423469543457,-2.3188791275024414,-0.06381529569625854,0.7034648060798645,0.8744562864303589,-0.12749361991882324,0.08130358904600143,1.1301153898239136,0.6582239866256714
307,2877088,2877089,-0.038018714636564255,-0.27270370721817017,1.0747318267822266,2.2526614665985107,-2.0706005096435547,0.01089541893452406,0.7034648060798645,0.8744562864303589,-0.12749361991882324,0.10951361060142517,1.2437026500701904,0.6570426821708679
308,2877098,2877099,-0.013090593740344048,-0.11575687676668167,1.0391769409179688,-3.28676700592041,-1.3572688102722168,-0.13095834851264954,0.7034648060798645,0.8744562864303589,-0.12749361991882324,0.13194210827350616,1.2608428001403809,0.6571463942527771
309,2877108,2877109,-0.04245288670063019,-0.005322746001183987,1.0271966457366943,-7.313699245452881,0.8086730241775513,-0.2323862910270691,0.7139642834663391,0.8759561777114868,-0.13499325513839722,0.0688520073890686,1.199974775314331,0.6472976803779602
310,2877118,2877119,-0.08250239491462708,-0.038637060672044754,1.1357425451278687,-10.865646362304688,0.4111698269844055,-0.17530040442943573,0.7199639678001404,0.8789560198783875,-0.1319933980703354,0.13138431310653687,1.074317455291748,0.6549046635627747
311,2877128,2877129,-0.08521438390016556,-0.0971231535077095,1.1279757022857666,-9.969913482666016,2.008303165435791,0.050710178911685944,0.7124643921852112,0.8804559707641602,-0.1334933191537857,0.09490608423948288,0.9121102690696716,0.6493704915046692
312,2877138,2877139,-0.25775304436683655,-0.12665683031082153,1.126490592956543,-10.4428071975708,3.6149346828460693,-1.1645033359527588,0.7094644904136658,0.8954551815986633,-0.13649317622184753,0.0506235733628273,0.7644994258880615,0.6450355648994446
313,2877148,2877149,-0.14971241354942322,-0.05369364097714424,1.1224987506866455,-7.3506646156311035,5.18970251083374,-0.5869437456130981,0.7079645991325378,0.8939552903175354,-0.13499325513839722,-0.163417249917984,0.8423603177070618,0.6075265407562256
314,2877158,2877159,-0.08814959228038788,-0.2655434310436249,1.1224400997161865,-2.8557112216949463,4.427759170532227,-0.10434269160032272,0.7019649147987366,0.9029548168182373,-0.13499325513839722,-0.18542082607746124,0.829296886920929,0.6073070168495178
315,2877168,2877169,-0.06772509962320328,-0.09783776849508286,1.093399167060852,1.8038561344146729,5.161195278167725,0.05028388649225235,0.7094644904136658,0.8954551815986633,-0.12449377030134201,-0.0549401193857193,0.8146993517875671,0.6329153776168823
316,2877178,2877179,-0.09751435369253159,-0.025632916018366814,1.0882346630096436,1.5649514198303223,-0.13125164806842804,-0.35361889004707336,0.6899654865264893,0.896955132484436,-0.12599369883537292,-0.10948308557271957,0.776732861995697,0.6292964220046997
317,2877188,2877189,-0.13918614387512207,0.013634884729981422,1.0813987255096436,2.976832389831543,-1.190409541130066,-0.4629130959510803,0.6989650130271912,0.911954402923584,-0.11999399960041046,-0.1787301003932953,0.8821669220924377,0.6156024932861328
318,2877198,2877199,-0.27576884627342224,0.12444975972175598,1.10909903049469,0.6067927479743958,-3.309218645095825,0.06201748177409172,0.7019649147987366,0.9179540872573853,-0.12899354100227356,-0.14860589802265167,0.9179154634475708,0.6143999695777893
319,2877208,2877209,-0.18295346200466156,0.06576430052518845,1.09820556640625,-2.9487977027893066,-3.467194080352783,0.374843955039978,0.7004649639129639,0.919454038143158,-0.13049347698688507,-0.022723207250237465,0.908049464225769,0.6285999417304993
320,2877218,2877219,-0.2565973997116089,-0.03520822897553444,1.0413398742675781,-5.7649359703063965,-3.2423691749572754,0.07798665016889572,0.6989650130271912,0.9179540872573853,-0.11699414998292923,0.023625582456588745,0.8483052253723145,0.6332736015319824
321,2877228,2877229,-0.5066735744476318,-0.06837081164121628,1.012499451637268,-8.771905899047852,-2.8113040924072266,0.27019476890563965,0.7019649147987366,0.9059546589851379,-0.11099445074796677,0.06697925925254822,0.7321164011955261,0.6355187296867371
322,2877238,2877239,-0.2817993462085724,-0.06616532057523727,1.0372599363327026,-9.86469841003418,-0.9187639951705933,0.7342490553855896,0.6944652795791626,0.8954551815986633,-0.11549422144889832,0.09059290587902069,0.7249624133110046,0.6388698220252991
323,2877248,2877249,-0.26165005564689636,-0.1814989298582077,1.0212987661361694,-10.924456596374512,0.9146698713302612,0.7990882396697998,0.683965802192688,0.9209539294242859,-0.11999399960041046,-0.0035289039369672537,0.7509090900421143,0.6312150955200195
324,2877258,2877259,-0.11456697434186935,-0.3069745898246765,0.9956653714179993,-10.923126220703125,3.5934488773345947,1.1766109466552734,0.6929653286933899,0.9209539294242859,-0.12599369883537292,-0.038221701979637146,0.55313640832901,0.635593593120575
325,2877268,2877269,-0.173639714717865,-0.16965903341770172,1.007253646850586,-10.274805068969727,4.589046478271484,0.7425637245178223,0.6974651217460632,0.9164541363716125,-0.11849407106637955,-0.1105344295501709,0.3671668767929077,0.6429548263549805
326,2877278,2877279,-0.18657727539539337,-0.05706880986690521,1.1506332159042358,-10.072066307067871,2.515817880630493,1.051772952079773,0.691465437412262,0.9224538803100586,-0.12749361991882324,-0.17377914488315582,0.2685694694519043,0.6480304002761841
327,2877288,2877289,-0.8900657892227173,-0.19020114839076996,1.1033440828323364,-8.167808532714844,2.8543663024902344,1.3268111944198608,0.6899654865264893,0.9269536137580872,-0.1229938492178917,-0.08140716701745987,0.10688675194978714,0.6742374897003174
328,2877298,2877299,-0.8380999565124512,-0.14487507939338684,0.9794121980667114,-5.617614269256592,2.890735387802124,0.8575880527496338,0.7034648060798645,0.9224538803100586,-0.12449377030134201,-0.14422479271888733,0.05207165330648422,0.683236300945282
329,2877308,2877309,-0.3092631697654724,-0.017927834764122963,0.9036786556243896,-2.582886219024658,1.4390552043914795,1.0616703033447266,0.6959651708602905,0.9149542450904846,-0.12899354100227356,-0.19045040011405945,0.04211871325969696,0.6901066303253174
330,2877318,2877319,-0.2131180465221405,0.03158475086092949,0.8692802786827087,-0.47892311215400696,1.1357135772705078,1.1187068223953247,0.6989650130271912,0.9239537715911865,-0.11999399960041046,-0.21685713529586792,0.06803974509239197,0.6995546817779541
331,2877328,2877329,-0.06012742966413498,0.08898299187421799,0.8639192581176758,1.164981722831726,0.47939053177833557,1.0592732429504395,0.6974651217460632,0.9284535646438599,-0.10649467259645462,-0.23142622411251068,0.052557095885276794,0.7078503370285034
332,2877338,2877339,-0.002613325836136937,-0.08777695894241333,0.8035929203033447,2.0543832778930664,-0.3113330900669098,0.109060138463974,0.7049647569656372,0.9359531998634338,-0.11699414998292923,-0.2308739423751831,0.19941233098506927,0.7198252081871033
333,2877348,2877349,-0.1890498697757721,-0.5262960195541382,0.883103609085083,1.8299095630645752,-1.9948952198028564,0.6164975762367249,0.6899654865264893,0.9299534559249878,-0.11699414998292923,-0.21731828153133392,0.21348941326141357,0.7211927175521851
334,2877358,2877359,-0.17767393589019775,-0.03387349471449852,1.022159457206726,-0.6348714828491211,-2.2802975177764893,0.1841045469045639,0.6929653286933899,0.9299534559249878,-0.113994300365448,-0.1765735149383545,0.2049856185913086,0.7249689102172852
335,2877368,2877369,-0.36453142762184143,-0.02264736220240593,1.1095198392868042,-3.5328683853149414,-11.501877784729004,0.6175826787948608,0.7139642834663391,0.9299534559249878,-0.11099445074796677,-0.12119987607002258,0.16668899357318878,0.7272986769676208
336,2877378,2877379,-0.38266316056251526,-0.16759715974330902,0.9707323312759399,-4.8158793449401855,1.8353304862976074,1.2527321577072144,0.6959651708602905,0.9239537715911865,-0.11999399960041046,-0.035777781158685684,0.08369278907775879,0.7311726808547974
337,2877388,2877389,-1.1448581218719482,-0.2508212924003601,1.1248291730880737,-7.4366536140441895,1.3544509410858154,1.2467708587646484,0.7034648060798645,0.9134542942047119,-0.12449377030134201,-0.05871982127428055,0.11346924304962158,0.744586706161499
338,2877398,2877399,-0.8541643023490906,-0.23572653532028198,0.9852908253669739,-8.886507987976074,2.6330647468566895,1.4469115734100342,0.6974651217460632,0.9104544520378113,-0.12149392068386078,-0.2281196415424347,0.16440443694591522,0.7518644332885742
339,2877408,2877409,-1.53981351852417,-0.13425830006599426,0.9150747656822205,-8.240126609802246,5.478240013122559,1.6398470401763916,0.7079645991325378,0.9209539294242859,-0.12599369883537292,-0.2267228066921234,0.0649125725030899,0.7695291042327881
340,2877418,2877419,-1.5293874740600586,-0.6908220052719116,0.8619677424430847,-8.518209457397461,4.366200923919678,2.140047550201416,0.7034648060798645,0.9074546098709106,-0.12449377030134201,-0.23577024042606354,-0.10597756505012512,0.7853701710700989
341,2877428,2877429,-0.7660040259361267,-0.6669608950614929,0.9252210855484009,-9.138873100280762,0.18690155446529388,2.260514974594116,0.6944652795791626,0.90445476770401,-0.12749361991882324,-0.27131712436676025,-0.0027640187181532383,0.8140049576759338
342,2877438,2877439,-0.42634034156799316,-0.16513344645500183,0.8637999296188354,-9.346478462219238,-3.8917524814605713,1.384311318397522,0.7019649147987366,0.9179540872573853,-0.12899354100227356,-0.31149083375930786,-0.19573186337947845,0.8284105658531189
343,2877448,2877449,-0.20589278638362885,0.059549618512392044,0.8118776679039001,-8.117278099060059,-6.035947322845459,0.7442013621330261,0.6959651708602905,0.9179540872573853,-0.12599369883537292,-0.2275124341249466,-0.3713846504688263,0.8393271565437317
344,2877458,2877459,-0.023952504619956017,0.1299373209476471,0.891150951385498,-6.744155406951904,-7.592850685119629,1.0692371129989624,0.6869656443595886,0.9089545607566833,-0.11999399960041046,-0.11396915465593338,-0.5228605270385742,0.8459237813949585
345,2877468,2877469,0.001432608114555478,0.10458521544933319,0.9792120456695557,-5.115936756134033,-8.764103889465332,0.608616054058075,0.691465437412262,0.9164541363716125,-0.13049347698688507,0.02672690898180008,-0.6376333832740784,0.8543378710746765
346,2877478,2877479,-0.1529010534286499,-0.10381340980529785,1.1306318044662476,-3.723266363143921,-11.09049129486084,0.760083794593811,0.7064646482467651,0.8984550833702087,-0.12149392068386078,0.1617700457572937,-0.6486260890960693,0.8623080849647522
347,2877488,2877489,-0.26236286759376526,-0.2855679988861084,1.07496178150177,1.988102912902832,0.3342384099960327,0.6731746792793274,0.7049647569656372,0.911954402923584,-0.12899354100227356,0.11163850128650665,-0.6911563277244568,0.8715236186981201
348,2877498,2877499,-0.11314906179904938,-0.10960622131824493,1.044927954673767,5.275476455688477,3.460524797439575,-0.07838930189609528,0.6959651708602905,0.9089545607566833,-0.1319933980703354,0.09933330863714218,-0.6591377854347229,0.8772401213645935
349,2877508,2877509,-0.13316567242145538,-0.007723585236817598,0.9873772859573364,5.7952446937561035,7.3173723220825195,-0.13665297627449036,0.7124643921852112,0.9164541363716125,-0.12149392068386078,0.023788129910826683,-0.5855545401573181,0.8788890838623047
350,2877518,2877519,-0.16249719262123108,-0.09854861348867416,0.9849262237548828,6.940943241119385,9.875136375427246,1.2960619926452637,0.7049647569656372,0.9179540872573853,-0.11999399960041046,-0.09171807765960693,-0.5041877031326294,0.8814180493354797
351,2877528,2877529,-0.08332522213459015,-0.22879841923713684,0.9166058897972107,4.727437973022461,6.123054027557373,0.2958926260471344,0.6959651708602905,0.9089545607566833,-0.1229938492178917,-0.08563212305307388,-0.42030924558639526,0.8837160468101501
352,2877538,2877539,-0.08247122913599014,-0.14538757503032684,1.0011184215545654,1.7202144861221313,4.905462741851807,0.048509929329156876,0.7094644904136658,0.9104544520378113,-0.12149392068386078,-0.18718558549880981,-0.37995094060897827,0.8905062079429626
353,2877548,2877549,-0.09485477954149246,-0.14828863739967346,0.9545002579689026,-0.6569284200668335,1.46244215965271,0.3889629542827606,0.7019649147987366,0.9059546589851379,-0.1229938492178917,-0.25186461210250854,-0.3799055814743042,0.8917168974876404
354,2877558,2877559,0.014235536567866802,-0.17900198698043823,0.9119008779525757,-2.760575294494629,-2.771644115447998,0.335753858089447,0.7049647569656372,0.911954402923584,-0.12599369883537292,-0.25183841586112976,-0.4199126660823822,0.8933778405189514
355,2877568,2877569,-0.112327441573143,-0.41494619846343994,0.9265090823173523,-5.389209270477295,-6.348113059997559,-0.2714247405529022,0.6989650130271912,0.9179540872573853,-0.13799309730529785,-0.17509837448596954,-0.4949711263179779,0.8905988335609436
356,2877578,2877579,-0.3289048373699188,-0.16222727298736572,1.0288870334625244,-5.707259178161621,-7.522286415100098,0.01406726986169815,0.6989650130271912,0.896955132484436,-0.12599369883537292,-0.2733118534088135,-0.5925030708312988,0.9023509621620178
357,2877588,2877589,-0.19071641564369202,0.06315244734287262,0.9696677923202515,-3.7661454677581787,-6.8129048347473145,0.9584615230560303,0.6884655356407166,0.9164541363716125,-0.12749361991882324,-0.1593945175409317,-0.6796867847442627,0.9008225202560425
358,2877598,2877599,-0.058742593973875046,0.016091598197817802,0.9408389329910278,-1.6301255226135254,-6.851064205169678,0.9224757552146912,0.7124643921852112,0.9134542942047119,-0.12449377030134201,-0.034064147621393204,-0.737302839756012,0.904557466506958
359,2877608,2877609,-0.11073567718267441,0.04782899469137192,0.9765145182609558,0.8658444285392761,-5.611743927001953,0.4529415965080261,0.7034648060798645,0.90445476770401,-0.12149392068386078,0.08295052498579025,-0.7542228102684021,0.9076602458953857
360,2877618,2877619,-0.052916232496500015,-0.030056342482566833,0.9940847158432007,4.180049896240234,-7.123826026916504,-0.25156086683273315,0.7094644904136658,0.9014549255371094,-0.13649317622184753,0.19462721049785614,-0.7098565697669983,0.9065499305725098
361,2877628,2877629,-0.014203774742782116,0.08836762607097626,0.9861971735954285,7.482227802276611,-3.5150506496429443,-0.3263225257396698,0.7154642343521118,0.8954551815986633,-0.13049347698688507,0.21819205582141876,-0.6187249422073364,0.9099607467651367
362,2877638,2877639,0.08437427878379822,0.1531088948249817,0.9650477170944214,8.153603553771973,0.05369013547897339,-0.5883838534355164,0.7019649147987366,0.9059546589851379,-0.12599369883537292,0.2594187259674072,-0.49817994236946106,0.9061635732650757
363,2877648,2877649,0.06649322807788849,0.09758607298135757,0.9564018249511719,8.056132316589355,3.637328863143921,-1.5523484945297241,0.7154642343521118,0.8924553394317627,-0.12149392068386078,0.17112980782985687,-0.5808562636375427,0.9044808149337769
364,2877658,2877659,0.0139175308868289,0.12279483675956726,0.9431679844856262,7.205690383911133,6.242785930633545,-0.7850794196128845,0.7064646482467651,0.9014549255371094,-0.12449377030134201,0.10382375121116638,-0.303846538066864,0.8958117961883545
365,2877668,2877669,-0.03198578953742981,0.01635102555155754,0.9836063981056213,5.661386966705322,4.852267742156982,-0.7200917601585388,0.7019649147987366,0.9149542450904846,-0.1229938492178917,0.02576691284775734,-0.3399977684020996,0.8891640305519104
366,2877678,2877679,0.025269994512200356,-0.003851832589134574,0.9343063235282898,3.099356174468994,5.743546962738037,-0.8944094777107239,0.7184640765190125,0.8954551815986633,-0.12449377030134201,-0.05076843500137329,-0.2603381276130676,0.8841730952262878
367,2877688,2877689,0.095307357609272,0.083244189620018,0.92857825756073,2.155447006225586,4.311732769012451,-0.9936728477478027,0.7124643921852112,0.9134542942047119,-0.13649317622184753,-0.13332395255565643,-0.2839219570159912,0.8763498067855835
368,2877698,2877699,0.06441417336463928,0.042482890188694,0.9248990416526794,-0.09995843470096588,0.4691593647003174,-0.5505042672157288,0.7109644412994385,0.896955132484436,-0.12599369883537292,-0.23319190740585327,-0.2565874457359314,0.8749845623970032
369,2877708,2877709,0.06890822947025299,-0.07126398384571075,0.9548636078834534,-0.3867461383342743,-1.6791601181030273,-0.7387602925300598,0.7184640765190125,0.8864556550979614,-0.12149392068386078,-0.21429437398910522,-0.26318588852882385,0.8674575686454773
370,2877718,2877719,0.053718969225883484,-0.07182586938142776,0.9585713148117065,0.5055890679359436,-4.615506172180176,-0.5836441516876221,0.7049647569656372,0.8939552903175354,-0.13499325513839722,-0.15622460842132568,-0.2568824291229248,0.8575649261474609
371,2877728,2877729,-0.04213949665427208,-0.10024310648441315,1.036712884902954,1.0655806064605713,-7.512133598327637,-0.06217161938548088,0.7274636030197144,0.8984550833702087,-0.1334933191537857,-0.04527289420366287,-0.37858206033706665,0.8444797396659851
372,2877738,2877739,-0.012577278539538383,-0.04396222159266472,1.0110989809036255,1.9322798252105713,-8.428994178771973,0.08179876208305359,0.7184640765190125,0.8954551815986633,-0.13649317622184753,0.09173133969306946,-0.34629809856414795,0.8391919732093811
373,2877748,2877749,-0.0236611757427454,-0.24225527048110962,1.1028778553009033,2.9752988815307617,-8.412544250488281,-0.4288337528705597,0.7124643921852112,0.8924553394317627,-0.13049347698688507,0.2368091344833374,-0.3003308176994324,0.8337779641151428
374,2877758,2877759,-0.000996567658148706,-0.044491756707429886,1.0816394090652466,5.0874528884887695,-8.189894676208496,-0.42967167496681213,0.7109644412994385,0.8909554481506348,-0.12899354100227356,0.31647568941116333,-0.365196168422699,0.8293602466583252
375,2877768,2877769,-0.012188608758151531,-0.06459394842386246,1.0958201885223389,6.239682674407959,-4.313277721405029,-0.1759038269519806,0.7199639678001404,0.8879556059837341,-0.14399279654026031,0.4272509813308716,-0.25336167216300964,0.8227560520172119
376,2877778,2877779,-0.1364562064409256,-0.03837667033076286,1.1251106262207031,7.889787197113037,0.8211061954498291,-1.1002753973007202,0.7079645991325378,0.896955132484436,-0.13799309730529785,0.46707606315612793,-0.1952270269393921,0.8174071311950684
377,2877788,2877789,-0.07636190950870514,-0.045946620404720306,1.1215993165969849,7.596183776855469,2.628453254699707,-0.8967884182929993,0.7079645991325378,0.896955132484436,-0.13799309730529785,0.44418591260910034,-0.04874471202492714,0.8069649338722229
378,2877798,2877799,-0.07821616530418396,-0.10626798868179321,1.1150575876235962,7.297726154327393,7.177378177642822,-0.8661778569221497,0.7079645991325378,0.896955132484436,-0.13799309730529785,0.3680835962295532,0.014881787821650505,0.801857590675354
379,2877808,2877809,-0.05638628453016281,-0.05072528123855591,1.0423266887664795,6.090397357940674,9.953178405761719,-1.2174228429794312,0.7064646482467651,0.8834558129310608,-0.12449377030134201,0.23199240863323212,0.0009512074757367373,0.8004466891288757
380,2877818,2877819,-0.06886045634746552,-0.0059829168021678925,1.1235603094100952,3.7471461296081543,8.443001747131348,-1.3707400560379028,0.7244637608528137,0.8984550833702087,-0.12749361991882324,0.15720131993293762,0.17505866289138794,0.7817019820213318
381,2877828,2877829,-0.04055904224514961,0.002924926346167922,1.1097040176391602,2.0726637840270996,7.576422691345215,-1.1529834270477295,0.7049647569656372,0.9029548168182373,-0.1229938492178917,0.026923857629299164,0.17131321132183075,0.7732348442077637
382,2877838,2877839,-0.26732581853866577,-0.010205840691924095,1.0693302154541016,1.619432806968689,4.518078327178955,-1.3392279148101807,0.7004649639129639,0.90445476770401,-0.11549422144889832,-0.0705578550696373,0.218510702252388,0.7625541090965271
383,2877848,2877849,-0.11356955021619797,0.021080724895000458,1.043569803237915,0.8645224571228027,2.113805055618286,-1.1643251180648804,0.7019649147987366,0.896955132484436,-0.113994300365448,-0.12466216832399368,0.25499194860458374,0.7496604919433594
384,2877858,2877859,0.033305782824754715,-0.01084139570593834,1.009255290031433,0.12128123641014099,-0.9041744470596313,-0.311221182346344,0.7094644904136658,0.90445476770401,-0.12749361991882324,-0.1384965032339096,0.20745749771595,0.7411584854125977
385,2877868,2877869,-0.047219935804605484,0.09632715582847595,1.0526150465011597,-0.5267429947853088,-3.282813549041748,-0.162916362285614,0.7034648060798645,0.9134542942047119,-0.12449377030134201,-0.09439005702733994,0.21135959029197693,0.7356685996055603
386,2877878,2877879,-0.07348854839801788,0.21139086782932281,1.069844126701355,-1.2077380418777466,-7.046314716339111,-0.19020600616931915,0.7049647569656372,0.911954402923584,-0.11699414998292923,-0.0031271574553102255,0.14204536378383636,0.7337456941604614
387,2877888,2877889,-0.2709094285964966,0.1712193638086319,1.048030138015747,0.17127671837806702,-7.422255992889404,-0.5630720257759094,0.7049647569656372,0.9089545607566833,-0.11999399960041046,0.12471310794353485,0.007434818893671036,0.7296479940414429
388,2877898,2877899,-0.025628237053751945,0.1481504738330841,0.9378446340560913,0.9837108254432678,-6.620409965515137,-0.4054211974143982,0.7094644904136658,0.8984550833702087,-0.12449377030134201,0.24841848015785217,0.11383993178606033,0.7212435603141785
389,2877908,2877909,0.024846015498042107,0.07989495247602463,0.888006865978241,2.6258413791656494,-5.994106769561768,-0.26829835772514343,0.7124643921852112,0.9104544520378113,-0.12749361991882324,0.3539223074913025,0.1591983139514923,0.715094804763794
390,2877918,2877919,0.05339768901467323,-0.04984385147690773,0.8847334980964661,4.893176078796387,-1.4876965284347534,-0.5465698838233948,0.7109644412994385,0.911954402923584,-0.12599369883537292,0.422673761844635,0.0216138307005167,0.7135829925537109
391,2877928,2877929,-0.046447839587926865,-0.013866829685866833,0.8914127349853516,5.868723392486572,2.275426149368286,-0.428927481174469,0.7064646482467651,0.9104544520378113,-0.12149392068386078,0.42333534359931946,0.1326722502708435,0.7063435912132263
392,2877938,2877939,-0.11690276116132736,0.08510635048151016,0.979371964931488,6.308786869049072,5.159598350524902,-1.1238188743591309,0.7064646482467651,0.90445476770401,-0.11249437183141708,0.3690700829029083,0.31841063499450684,0.6970189809799194
393,2877948,2877949,-0.05595673993229866,0.05658295750617981,0.9620278477668762,6.601084232330322,8.876409530639648,-0.8870359659194946,0.7049647569656372,0.9089545607566833,-0.10799460113048553,0.25586503744125366,0.15847548842430115,0.6955644488334656
394,2877958,2877959,-0.012454653158783913,0.020081406459212303,0.9752570390701294,5.721558570861816,10.850587844848633,-1.5486449003219604,0.7079645991325378,0.9029548168182373,-0.11099445074796677,0.0979539155960083,0.22582685947418213,0.6845760345458984
395,2877968,2877969,-0.03989531844854355,0.06062393635511398,1.039841890335083,4.742919921875,10.897658348083496,-1.703815221786499,0.7064646482467651,0.9134542942047119,-0.13049347698688507,-0.07543947547674179,0.13283206522464752,0.6743531227111816
396,2877978,2877979,0.015349342487752438,0.08815682679414749,1.0410093069076538,4.364796161651611,7.5433349609375,-1.1345871686935425,0.7049647569656372,0.9059546589851379,-0.1319933980703354,-0.2273649275302887,0.4619571566581726,0.6486160159111023
397,2877988,2877989,0.009570350870490074,0.07161083072423935,1.0291626453399658,4.9005937576293945,4.55601167678833,-0.7578366994857788,0.7034648060798645,0.90445476770401,-0.1334933191537857,-0.04504161700606346,0.3452068567276001,0.6459649205207825
398,2877998,2877999,-0.03398306667804718,0.09847445040941238,0.98008131980896,5.185352325439453,0.9785878658294678,-0.4138820767402649,0.7034648060798645,0.9074546098709106,-0.11849407106637955,-0.10635436326265335,0.38874730467796326,0.6389692425727844
399,2878008,2878009,-0.0031794921960681677,0.06502626836299896,1.0580430030822754,4.665745258331299,-3.2717373371124268,-0.3904299736022949,0.6899654865264893,0.9029548168182373,-0.12899354100227356,-0.1651504933834076,0.5003848671913147,0.6332565546035767
400,2878018,2878019,-0.054967474192380905,0.01379090640693903,1.1307446956634521,3.403439521789551,-3.837538957595825,0.03938101977109909,0.7019649147987366,0.8999549746513367,-0.11999399960041046,-0.10300013422966003,0.5920765995979309,0.6301497220993042
401,2878028,2878029,-0.1678764969110489,-0.058739934116601944,1.085379719734192,3.61258864402771,-2.058389663696289,0.5688834190368652,0.6989650130271912,0.8999549746513367,-0.12899354100227356,-0.0631161630153656,0.677065908908844,0.6315698623657227
402,2878038,2878039,-0.36368250846862793,-0.19092370569705963,0.9899608492851257,2.589146137237549,-4.603936195373535,0.0282854326069355,0.6929653286933899,0.9089545607566833,-0.113994300365448,-0.006987322121858597,0.7456371188163757,0.6357389092445374
403,2878048,2878049,-0.184197336435318,-0.06950146704912186,1.0321228504180908,1.3529047966003418,-3.758920669555664,0.6260778307914734,0.6989650130271912,0.8939552903175354,-0.13499325513839722,0.06070318445563316,0.8057585954666138,0.6369832158088684
404,2878058,2878059,-0.14997683465480804,-0.09780921787023544,1.0606260299682617,-0.631872832775116,-1.3022433519363403,0.500953197479248,0.6944652795791626,0.9134542942047119,-0.12749361991882324,0.16849657893180847,0.8296225070953369,0.6465609073638916
405,2878068,2878069,-0.10082343220710754,-0.09788655489683151,0.9883931875228882,-2.6439321041107178,2.5293221473693848,0.7936939001083374,0.7109644412994385,0.9209539294242859,-0.11699414998292923,0.1500030755996704,0.8133575916290283,0.652027428150177
406,2878078,2878079,0.00832692626863718,-0.002052586292847991,0.9926289916038513,-4.925205230712891,5.182619571685791,1.073724627494812,0.6989650130271912,0.9089545607566833,-0.11999399960041046,0.08458659052848816,0.7588756680488586,0.6589449048042297
407,2878088,2878089,-0.04755784943699837,-0.061816416680812836,1.0380284786224365,-6.959964275360107,5.18917179107666,0.988355278968811,0.6884655356407166,0.9224538803100586,-0.1334933191537857,-0.0008383981185033917,0.6780714988708496,0.6663371324539185
408,2878098,2878099,-0.219875305891037,-0.2334834635257721,1.0674986839294434,-6.594423770904541,6.157716274261475,0.5302914977073669,0.7034648060798645,0.9104544520378113,-0.10949452221393585,-0.10162320733070374,0.5789705514907837,0.672308623790741
409,2878108,2878109,-0.17731136083602905,-0.13244198262691498,1.1079033613204956,-5.912600994110107,6.811105728149414,0.2932724952697754,0.7019649147987366,0.9089545607566833,-0.11099445074796677,-0.07663802802562714,0.49012789130210876,0.6870828866958618
410,2878118,2878119,-0.06212165206670761,-0.038201380521059036,0.9961756467819214,-3.947296380996704,7.6934614181518555,0.8823080658912659,0.6944652795791626,0.9074546098709106,-0.13049347698688507,-0.20158377289772034,0.41247907280921936,0.6888149976730347
411,2878128,2878129,-0.18049763143062592,-0.374355673789978,1.0073589086532593,-1.2759745121002197,4.059635639190674,1.254148006439209,0.6974651217460632,0.9104544520378113,-0.12449377030134201,-0.3075645864009857,0.45363831520080566,0.6939616799354553
412,2878138,2878139,-0.10004264861345291,-0.19608737528324127,0.977179765701294,0.26135045289993286,3.6223256587982178,0.7376841902732849,0.6974651217460632,0.919454038143158,-0.12749361991882324,-0.380050390958786,0.5106774568557739,0.7032478451728821
413,2878148,2878149,-0.05403805524110794,-0.08214603364467621,0.9152690768241882,3.0769524574279785,3.2211508750915527,1.0562626123428345,0.6974651217460632,0.9164541363716125,-0.11549422144889832,-0.45226800441741943,0.5343541502952576,0.7085850834846497
414,2878158,2878159,-0.33582648634910583,-0.07256869971752167,0.9112856388092041,2.58127760887146,-1.9221221208572388,0.641737699508667,0.6959651708602905,0.9299534559249878,-0.1319933980703354,-0.45858991146087646,0.6498886346817017,0.720807671546936
415,2878168,2878169,-0.37622302770614624,-0.1903352290391922,0.95335853099823,2.4133503437042236,-1.8317152261734009,1.1042253971099854,0.6884655356407166,0.9164541363716125,-0.11549422144889832,-0.2255570888519287,0.4794924855232239,0.7477794289588928
416,2878178,2878179,-0.3405907452106476,0.09861898422241211,0.9233829379081726,0.008594393730163574,-2.834505081176758,0.9346649050712585,0.6899654865264893,0.9089545607566833,-0.11099445074796677,-0.27022939920425415,0.5112795829772949,0.7515032291412354
417,2878188,2878189,-0.44329267740249634,0.05571049079298973,0.8392307758331299,-3.0593724250793457,-4.9016923904418945,0.9907299876213074,0.7064646482467651,0.9164541363716125,-0.11849407106637955,-0.2776206433773041,0.5637924671173096,0.7566317319869995
418,2878198,2878199,-0.7632124423980713,0.15006260573863983,0.949117124080658,-5.636425018310547,-6.07073450088501,0.6836044788360596,0.7079645991325378,0.9029548168182373,-0.13499325513839722,-0.18052540719509125,0.49768102169036865,0.76743084192276
419,2878208,2878209,-0.8515782356262207,-0.05361057445406914,0.9326304197311401,-5.260751724243164,-4.782665252685547,0.8991736769676208,0.6974651217460632,0.919454038143158,-0.1334933191537857,-0.0965442880988121,0.6224441528320312,0.7832934260368347
420,2878218,2878219,-0.28758999705314636,0.020941317081451416,0.9268098473548889,-6.703128337860107,-3.374464750289917,0.7833073139190674,0.7019649147987366,0.9029548168182373,-0.113994300365448,-0.028946246951818466,0.5808947086334229,0.7943795323371887
421,2878228,2878229,-0.4191853106021881,0.02633175253868103,0.9610909223556519,-5.7973222732543945,3.019547462463379,1.2523077726364136,0.7019649147987366,0.8879556059837341,-0.11699414998292923,-0.002619171980768442,0.4643503427505493,0.7996505498886108
422,2878238,2878239,-0.12342510372400284,0.0325346514582634,0.9671133160591125,-6.579133033752441,2.8064382076263428,1.2275538444519043,0.691465437412262,0.90445476770401,-0.1334933191537857,-0.05107651650905609,0.3507833778858185,0.8066299557685852
423,2878248,2878249,0.0017652390524744987,0.052726466208696365,1.0661543607711792,-6.610337734222412,4.03400993347168,0.4280703067779541,0.7019649147987366,0.9059546589851379,-0.12599369883537292,-0.10603980720043182,0.23474958539009094,0.8117884993553162
424,2878258,2878259,-0.08688613772392273,-0.07306370139122009,1.0625128746032715,-5.81525993347168,4.544918060302734,0.8355970978736877,0.7139642834663391,0.8939552903175354,-0.11999399960041046,-0.17776861786842346,0.12700790166854858,0.8139188289642334
425,2878268,2878269,-0.06270623952150345,-0.1465708166360855,1.0295226573944092,-3.8471219539642334,7.26484489440918,1.1897540092468262,0.7124643921852112,0.8924553394317627,-0.13649317622184753,-0.27934497594833374,0.18093591928482056,0.8216961622238159
426,2878278,2878279,-0.1594415009021759,-0.1251562386751175,1.048530101776123,-2.113640785217285,5.834991931915283,1.1846977472305298,0.7094644904136658,0.8834558129310608,-0.12149392068386078,-0.3847483992576599,0.04925219342112541,0.8265500664710999
427,2878288,2878289,-0.1316407322883606,-0.048484060913324356,1.1129041910171509,-0.06514967978000641,2.136476755142212,1.0882612466812134,0.7139642834663391,0.8849557638168335,-0.12599369883537292,-0.45778214931488037,0.09662225097417831,0.8388542532920837
428,2878298,2878299,-0.15808284282684326,-0.1663009226322174,1.052797555923462,1.379597783088684,-0.23763245344161987,1.1369706392288208,0.6959651708602905,0.896955132484436,-0.1229938492178917,-0.3388369679450989,0.02653718739748001,0.8575011491775513
429,2878308,2878309,-0.13338328897953033,-0.19389621913433075,1.0708529949188232,1.9157313108444214,-2.0818684101104736,0.5007386207580566,0.7139642834663391,0.8999549746513367,-0.13799309730529785,-0.404323011636734,0.04555528238415718,0.8628391623497009
430,2878318,2878319,-0.05409405753016472,-0.08800438791513443,0.9620863199234009,1.99929678440094,-2.2990283966064453,0.8799153566360474,0.6959651708602905,0.8879556059837341,-0.12599369883537292,-0.43069902062416077,0.07486007362604141,0.8668470978736877
431,2878328,2878329,-0.14786049723625183,-0.10965218394994736,1.0724529027938843,0.7244149446487427,-6.230266094207764,1.5149834156036377,0.6989650130271912,0.9089545607566833,-0.12599369883537292,-0.35036852955818176,0.09753572940826416,0.8802376985549927
432,2878338,2878339,-0.4623880684375763,-0.1156306117773056,1.0384992361068726,-0.18272702395915985,-4.119079113006592,2.236983060836792,0.7019649147987366,0.9029548168182373,-0.11699414998292923,-0.25879600644111633,0.17274613678455353,0.9018207788467407
433,2878348,2878349,-0.3440941274166107,-0.2208097279071808,1.0903294086456299,-1.1195461750030518,-6.231971740722656,1.836452603340149,0.7019649147987366,0.9089545607566833,-0.11699414998292923,-0.17106375098228455,0.15918050706386566,0.9233413338661194
434,2878358,2878359,-0.1673513948917389,-0.23937413096427917,1.1155266761779785,-1.6466912031173706,-5.352429389953613,1.9356105327606201,0.7064646482467651,0.9104544520378113,-0.13049347698688507,-0.08273383975028992,0.13046130537986755,0.9432445764541626
435,2878368,2878369,-0.196503683924675,-0.10141980648040771,1.0360347032546997,-3.2864277362823486,-1.34263014793396,2.2148749828338623,0.6974651217460632,0.9104544520378113,-0.12449377030134201,-0.021021464839577675,0.01628618687391281,0.9579339623451233
436,2878378,2878379,-0.4915997385978699,-0.2634405195713043,0.9769707322120667,-5.098697185516357,-2.226041793823242,1.8911277055740356,0.6899654865264893,0.9179540872573853,-0.1229938492178917,0.005825220141559839,-0.04710494354367256,0.9784977436065674
437,2878388,2878389,-0.16388234496116638,-0.20788641273975372,1.009666085243225,-4.287672996520996,0.923555314540863,1.7764818668365479,0.7109644412994385,0.9149542450904846,-0.11999399960041046,0.013393555767834187,-0.05431804433465004,0.9990203380584717
438,2878398,2878399,-0.03676632046699524,-0.09532902389764786,1.0453641414642334,-3.715503215789795,1.4138145446777344,1.4552812576293945,0.6974651217460632,0.9104544520378113,-0.12749361991882324,0.057206958532333374,0.015528659336268902,1.0236902236938477
439,2878408,2878409,-0.2419944554567337,-0.2254907190799713,1.0829107761383057,-2.5167386531829834,1.80039644241333,1.3836712837219238,0.7094644904136658,0.9254537224769592,-0.11549422144889832,-0.04999491572380066,-0.0481242761015892,1.0360095500946045
440,2878418,2878419,-0.6955423355102539,-0.1367158144712448,1.108441948890686,-0.5803856253623962,4.534704685211182,1.168317198753357,0.6989650130271912,0.9029548168182373,-0.11699414998292923,-0.03439108282327652,-0.07975883036851883,1.048482894897461
441,2878428,2878429,-0.26252472400665283,-0.03321636840701103,1.0002787113189697,-0.23156695067882538,6.16936731338501,0.4264199733734131,0.7019649147987366,0.9089545607566833,-0.1319933980703354,-0.1921387016773224,-0.0947880744934082,1.0574504137039185
442,2878438,2878439,-0.10606036335229874,-0.0294419527053833,1.0840930938720703,0.7053518891334534,3.249054193496704,0.5582595467567444,0.7019649147987366,0.9149542450904846,-0.11999399960041046,-0.2711958885192871,-0.09625928848981857,1.0616756677627563
443,2878448,2878449,-0.08697230368852615,-0.07037939131259918,1.09831702709198,0.4296601116657257,2.5230255126953125,0.7125341892242432,0.7064646482467651,0.9104544520378113,-0.10949452221393585,-0.3226659595966339,-0.09007192403078079,1.0684821605682373
444,2878458,2878459,-0.049169499427080154,-0.06280414015054703,0.9800218343734741,0.8958538174629211,2.013550281524658,0.32881978154182434,0.6944652795791626,0.90445476770401,-0.1334933191537857,-0.3526324927806854,-0.08502408117055893,1.073892593383789
445,2878468,2878469,-0.11346384137868881,-0.08661144226789474,1.0452336072921753,1.562464952468872,-1.6497435569763184,0.20887897908687592,0.6944652795791626,0.9164541363716125,-0.13049347698688507,-0.35791441798210144,-0.0696159228682518,1.0789214372634888
446,2878478,2878479,-0.1804920881986618,-0.12961015105247498,1.0663564205169678,0.8929227590560913,-4.299140453338623,0.4740372598171234,0.6974651217460632,0.9134542942047119,-0.12149392068386078,-0.3122864067554474,0.017237035557627678,1.0856387615203857
447,2878488,2878489,-0.11853842437267303,-0.17719872295856476,1.0348196029663086,0.2870507836341858,-4.073089599609375,0.12215253710746765,0.7049647569656372,0.9089545607566833,-0.1229938492178917,-0.23205849528312683,0.015422564931213856,1.0888197422027588
448,2878498,2878499,-0.1699497103691101,-0.44354572892189026,1.0004420280456543,-0.3980368375778198,-6.051968574523926,0.6010729074478149,0.6929653286933899,0.9209539294242859,-0.1319933980703354,-0.1505616009235382,0.01776878535747528,1.0910152196884155
449,2878508,2878509,-0.6167015433311462,-0.3674599528312683,0.9523524045944214,-0.38931864500045776,-4.995167255401611,-0.18013663589954376,0.6929653286933899,0.9209539294242859,-0.1319933980703354,-0.06460799276828766,-0.06021427735686302,1.0925426483154297
450,2878518,2878519,-0.4740162789821625,-0.2698298692703247,0.9512535929679871,-1.5405006408691406,-3.870849609375,-0.586143970489502,0.6929653286933899,0.9209539294242859,-0.1319933980703354,0.0016810130327939987,-0.07499773055315018,1.0894776582717896
451,2878528,2878529,-0.5012959241867065,-0.21654826402664185,0.979724645614624,-1.2134422063827515,-2.572136163711548,0.18433457612991333,0.6869656443595886,0.9209539294242859,-0.113994300365448,0.04801115393638611,-0.10730532556772232,1.0871669054031372
452,2878538,2878539,-0.18704067170619965,0.016693830490112305,0.9338697195053101,-2.789623498916626,-2.0766215324401855,-0.24634960293769836,0.7109644412994385,0.9179540872573853,-0.12599369883537292,-0.053173284977674484,-0.1476660668849945,1.0917388200759888
453,2878548,2878549,0.021481534466147423,-0.056270431727170944,0.9142884016036987,-2.070427656173706,-1.2054022550582886,-0.7927026748657227,0.7049647569656372,0.9089545607566833,-0.113994300365448,-0.08327779173851013,-0.18802960216999054,1.0878041982650757
454,2878558,2878559,0.0547332800924778,0.015485966578125954,0.9610415697097778,-0.34897667169570923,-0.6522066593170166,-0.5017629861831665,0.6944652795791626,0.9014549255371094,-0.11849407106637955,0.08252564817667007,-0.2130957394838333,1.0757274627685547
455,2878568,2878569,0.012289403937757015,0.12936583161354065,0.9686871767044067,0.7175255417823792,-2.1775248050689697,-1.0098552703857422,0.7109644412994385,0.8849557638168335,-0.12899354100227356,0.10360068082809448,-0.28428998589515686,1.0665172338485718
456,2878578,2878579,0.008676599711179733,0.10626047104597092,0.945186972618103,1.8164886236190796,-1.823951244354248,-0.9889425039291382,0.7004649639129639,0.9074546098709106,-0.12749361991882324,0.07108483463525772,-0.18528850376605988,1.0605076551437378
457,2878588,2878589,0.11705444008111954,0.07829988747835159,0.8947752714157104,3.6148841381073,0.2830621004104614,-1.2639830112457275,0.7079645991325378,0.9029548168182373,-0.11999399960041046,-0.11880940198898315,-0.1420706808567047,1.0587862730026245
458,2878598,2878599,-0.0021903093438595533,-0.01583492010831833,0.9489690661430359,4.5961198806762695,-0.6983039379119873,-1.7743836641311646,0.7064646482467651,0.8924553394317627,-0.13949301838874817,-0.09879306703805923,-0.0714302510023117,1.0431486368179321
459,2878608,2878609,0.0796341672539711,0.11721564084291458,0.9689208269119263,4.174929618835449,0.6336047053337097,-2.2978763580322266,0.7124643921852112,0.8924553394317627,-0.12749361991882324,-0.15376301109790802,0.0012696092016994953,1.0265945196151733
460,2878618,2878619,0.09476759284734726,0.1388745903968811,0.9105904698371887,3.4838807582855225,-0.6450316309928894,-1.7620352506637573,0.7109644412994385,0.8789560198783875,-0.1229938492178917,-0.13393279910087585,0.05809957534074783,1.0054781436920166
461,2878628,2878629,0.08071676641702652,0.09463030099868774,0.947126567363739,2.0165867805480957,-2.338848114013672,-2.19018816947937,0.7004649639129639,0.8924553394317627,-0.13049347698688507,-0.09419675171375275,0.09666699916124344,0.9850068092346191
462,2878638,2878639,0.07315148413181305,0.11039970815181732,0.9742485880851746,0.26971912384033203,-3.250352621078491,-1.836005449295044,0.7124643921852112,0.8924553394317627,-0.12449377030134201,-0.10115374624729156,0.1111300066113472,0.9645248055458069
463,2878648,2878649,0.1381508708000183,0.2190708965063095,0.9694220423698425,-0.8579532504081726,-5.517046928405762,-1.8713479042053223,0.7034648060798645,0.8924553394317627,-0.1334933191537857,-0.07551062852144241,0.09945211559534073,0.9467718601226807
464,2878658,2878659,0.06292393803596497,0.037970852106809616,0.9506362676620483,-2.7755324840545654,-6.577922821044922,-1.2657588720321655,0.7109644412994385,0.8759561777114868,-0.1229938492178917,-0.019496768712997437,0.0675579309463501,0.9289858341217041
465,2878668,2878669,0.05024564266204834,-0.03393638879060745,0.958075225353241,-3.63798451423645,-5.059859275817871,-1.5345683097839355,0.7274636030197144,0.8924553394317627,-0.13049347698688507,0.0989062637090683,0.011095124296844006,0.9123241901397705
466,2878678,2878679,-0.06551038473844528,0.08538195490837097,0.9717495441436768,-3.8406853675842285,-6.626170635223389,-1.1012701988220215,0.7139642834663391,0.8909554481506348,-0.12599369883537292,0.21279694139957428,-0.05024750158190727,0.8966178894042969
