,timestamp_start,timestamp_end,acc.x,acc.y,acc.z,gyro.x,gyro.y,gyro.z,mag.x,mag.y,mag.z,stabilizer.pitch,stabilizer.roll,stabilizer.yaw
0,142954,142956,0.030233947560191154,0.015262856148183346,0.9599502086639404,-5.8025383949279785,-2.5068764686584473,-0.727939784526825,0.6854656934738159,0.8834558129310608,-0.12149392068386078,-0.3540448844432831,0.9543930888175964,-2.3354880809783936
1,142964,142966,-0.0059356531128287315,-0.01766740344464779,0.9800623655319214,-13.598562240600586,-3.754472017288208,-0.5490619540214539,0.7049647569656372,0.8699564933776855,-0.113994300365448,-0.24457907676696777,0.7633278965950012,-2.3309152126312256
2,142974,142976,-0.026468660682439804,-0.0019526953110471368,1.016460657119751,-17.98936653137207,-3.721067190170288,-0.605228841304779,0.6959651708602905,0.8729563355445862,-0.11999399960041046,-0.19894009828567505,0.4867019057273865,-2.337451696395874
3,142984,142986,0.00023117082309909165,0.04164775460958481,1.0445739030838013,-18.749496459960938,-1.426924228668213,-0.5240942239761353,0.7004649639129639,0.8594570159912109,-0.11549422144889832,-0.24442367255687714,0.6538966298103333,-2.3563754558563232
4,142994,142996,-0.01994740217924118,0.0031906457152217627,1.0840283632278442,-16.82941436767578,-0.600043535232544,-1.0341967344284058,0.6974651217460632,0.8564571738243103,-0.13649317622184753,-0.22953887283802032,0.33126458525657654,-2.366900682449341
5,143004,143006,-0.05428078770637512,-0.1421869844198227,1.1045787334442139,-10.430830001831055,2.045562744140625,-0.515212893486023,0.7034648060798645,0.8684565424919128,-0.12749361991882324,-0.1836508810520172,0.026696033775806427,-2.3678362369537354
6,143014,143016,-0.06030145287513733,-0.13090258836746216,1.054054856300354,-4.74544620513916,7.291510105133057,-0.4798869490623474,0.7049647569656372,0.8729563355445862,-0.11099445074796677,-0.2801220118999481,-0.09757427126169205,-2.3793108463287354
7,143024,143026,-0.09882401674985886,-0.14319509267807007,1.1416795253753662,-0.19142448902130127,6.307389259338379,0.19485177099704742,0.6974651217460632,0.8684565424919128,-0.11249437183141708,-0.3959945738315582,-0.0036178522277623415,-2.3846209049224854
8,143034,143036,0.009805817157030106,-0.07571792602539062,1.048304796218872,2.9123642444610596,6.649362564086914,-0.08052495867013931,0.6974651217460632,0.8744562864303589,-0.11549422144889832,-0.5062272548675537,-0.06432601064443588,-2.386791944503784
9,143044,143046,-0.0154236676171422,-0.010734391398727894,1.0195633172988892,4.352911472320557,4.108112812042236,-0.1325492411851883,0.6959651708602905,0.8879556059837341,-0.11999399960041046,-0.8544663786888123,-0.6130529046058655,-2.413590431213379
10,143054,143056,-0.016704030334949493,0.024716492742300034,1.0363796949386597,3.9752116203308105,0.6387908458709717,0.0900716707110405,0.6899654865264893,0.8879556059837341,-0.1229938492178917,-0.6577590107917786,0.0984828993678093,-2.3886921405792236
11,143064,143066,-0.02321782149374485,-0.005756836850196123,1.0250531435012817,3.8798913955688477,-3.7062528133392334,0.6631925106048584,0.6884655356407166,0.8954551815986633,-0.12149392068386078,-0.5557525157928467,-0.0558222271502018,-2.385554075241089
12,143074,143076,0.04896429553627968,0.040358319878578186,0.9380688071250916,3.4745399951934814,-5.46551513671875,0.942446231842041,0.6959651708602905,0.8819558620452881,-0.11099445074796677,-0.48431429266929626,0.0682462677359581,-2.3741514682769775
13,143084,143086,0.015487001277506351,-0.0043615601025521755,0.9942261576652527,2.1610140800476074,-10.45462417602539,1.2705938816070557,0.6974651217460632,0.8924553394317627,-0.11549422144889832,-0.34345540404319763,-0.22733181715011597,-2.3717739582061768
14,143094,143096,-0.008796541951596737,-0.01796451024711132,1.0091571807861328,-0.4273642897605896,-9.574590682983398,1.7157938480377197,0.691465437412262,0.8924553394317627,-0.11549422144889832,-0.25773149728775024,0.3325486183166504,-2.343144655227661
15,143104,143106,-0.007922478020191193,-0.20325784385204315,0.9901859760284424,-2.6911203861236572,-5.954864501953125,1.4682843685150146,0.7004649639129639,0.8894554972648621,-0.11549422144889832,-0.1416836977005005,0.2730826735496521,-2.3284380435943604
16,143114,143116,-0.029937535524368286,-0.04083607718348503,0.9958892464637756,-3.061671018600464,-1.027513027191162,1.7753007411956787,0.6884655356407166,0.9104544520378113,-0.12149392068386078,-0.09286855161190033,0.1966296136379242,-2.313692092895508
17,143124,143126,-0.013506473042070866,-0.026662347838282585,1.0174542665481567,-4.06976318359375,3.9050731658935547,1.8320132493972778,0.6824658513069153,0.8954551815986633,-0.11849407106637955,-0.1906372606754303,0.11450549960136414,-2.297703742980957
18,143134,143136,-0.040956515818834305,-0.05781228095293045,0.9734775424003601,-6.292117118835449,6.911123275756836,1.9818170070648193,0.6779661178588867,0.8909554481506348,-0.113994300365448,-0.20991311967372894,0.01250480767339468,-2.2810192108154297
19,143144,143146,-0.14452408254146576,-0.08448545634746552,1.0821787118911743,-7.979063510894775,6.681546688079834,2.0602240562438965,0.691465437412262,0.8924553394317627,-0.11549422144889832,-0.18992745876312256,0.15121139585971832,-2.255971670150757
20,143154,143156,-0.016845114529132843,0.00014629913493990898,1.0049409866333008,-6.817245006561279,7.925257205963135,2.824476957321167,0.6869656443595886,0.896955132484436,-0.11999399960041046,-0.3940468728542328,-0.12918654084205627,-2.233919382095337
21,143164,143166,0.025484105572104454,0.038129307329654694,0.9831345677375793,-5.007024765014648,5.784999847412109,2.5922727584838867,0.6854656934738159,0.8924553394317627,-0.11549422144889832,-0.49910953640937805,-0.3010459840297699,-2.208674669265747
22,143174,143176,-0.036477960646152496,-0.012215226888656616,0.9775431752204895,-3.629978656768799,3.318527936935425,2.7389981746673584,0.683965802192688,0.9029548168182373,-0.113994300365448,-0.5631643533706665,-0.4421265423297882,-2.184328556060791
23,143184,143186,-0.0019989695865660906,-0.0402061901986599,0.9699696898460388,-1.5288854837417603,-0.20264798402786255,2.9345016479492188,0.683965802192688,0.8999549746513367,-0.11099445074796677,-0.5733636021614075,-0.47693362832069397,-2.156712055206299
24,143194,143196,-0.022457145154476166,-0.05808015167713165,0.9996404051780701,0.8710947632789612,-3.8848965167999268,2.8243248462677,0.691465437412262,0.9134542942047119,-0.10649467259645462,-0.5213634371757507,-0.47520217299461365,-2.1272854804992676
25,143204,143206,-0.05609886348247528,-0.09704834967851639,0.943961501121521,5.463310718536377,-7.410877704620361,2.443697214126587,0.683965802192688,0.8999549746513367,-0.11699414998292923,-0.4175841510295868,-0.27501317858695984,-2.0954482555389404
26,143214,143216,-0.10730486363172531,-0.005213923752307892,0.9874457716941833,7.2665252685546875,-8.858419418334961,2.9559919834136963,0.6779661178588867,0.8879556059837341,-0.11699414998292923,-0.2866452932357788,-0.04328589141368866,-2.067232370376587
27,143224,143226,-0.0818316638469696,-0.16578851640224457,0.8515586853027344,10.246686935424805,-6.498168468475342,3.6515631675720215,0.6824658513069153,0.8954551815986633,-0.11549422144889832,-0.3074108362197876,0.08000287413597107,-2.0296719074249268
28,143234,143236,-0.004686649423092604,-0.00755856279283762,0.9518412351608276,6.256545543670654,-5.752792835235596,3.1385724544525146,0.691465437412262,0.9014549255371094,-0.11549422144889832,-0.19707933068275452,-0.025143975391983986,-2.003909111022949
29,143244,143246,0.03204992786049843,0.03751740977168083,0.9693029522895813,0.5770663022994995,-1.8606712818145752,3.384737968444824,0.6944652795791626,0.8894554972648621,-0.10649467259645462,-0.06877761334180832,0.07447127252817154,-1.9746030569076538
30,143254,143256,-0.041732557117938995,-0.029300756752490997,0.9568228125572205,-5.19783878326416,0.42892760038375854,2.8836264610290527,0.6869656443595886,0.8939552903175354,-0.113994300365448,-0.05484630912542343,-0.05219203978776932,-1.9451656341552734
31,143264,143266,-0.032813675701618195,-0.23386068642139435,0.962449848651886,-8.029515266418457,3.082599639892578,3.172520875930786,0.6869656443595886,0.8939552903175354,-0.113994300365448,-0.15457254648208618,0.03473180904984474,-1.9084906578063965
32,143274,143276,-0.013192438520491123,-0.04041893407702446,0.9551070928573608,-9.377523422241211,4.13840913772583,2.9697988033294678,0.6869656443595886,0.8939552903175354,-0.113994300365448,-0.1466464102268219,-0.12384893000125885,-1.8797509670257568
33,143284,143286,0.004317182116210461,0.008688830770552158,0.958584189414978,-7.607919692993164,5.156795978546143,2.6522715091705322,0.6749662160873413,0.8909554481506348,-0.11999399960041046,-0.22834353148937225,-0.20206759870052338,-1.8489233255386353
34,143294,143296,-0.022500598803162575,0.01852297969162464,0.9721275568008423,-5.81299352645874,4.904497146606445,2.821613311767578,0.6944652795791626,0.8984550833702087,-0.12449377030134201,-0.3071909546852112,-0.45486798882484436,-1.8218566179275513
35,143304,143306,0.00786296185106039,0.0046626185066998005,0.981027364730835,-2.9912381172180176,3.648068428039551,2.771052122116089,0.6884655356407166,0.9014549255371094,-0.10949452221393585,-0.364350825548172,-0.45332884788513184,-1.7935649156570435
36,143314,143316,-0.03607115149497986,-0.07837972790002823,0.9797970056533813,0.8696037530899048,0.9332913756370544,2.525029182434082,0.6884655356407166,0.9014549255371094,-0.11549422144889832,-0.4491347074508667,-0.6677151322364807,-1.765424132347107
37,143324,143326,-0.02104843594133854,-0.01689685508608818,0.981065034866333,4.29205846786499,-2.123933792114258,2.1467769145965576,0.6854656934738159,0.8954551815986633,-0.13649317622184753,-0.41729629039764404,-0.6037415862083435,-1.741592288017273
38,143334,143336,-0.050160329788923264,-0.015078854747116566,0.9695881009101868,7.5984086990356445,-5.842244625091553,1.9686410427093506,0.6824658513069153,0.8954551815986633,-0.11249437183141708,-0.34238433837890625,-0.4880959093570709,-1.7205426692962646
39,143344,143346,-0.10553690791130066,0.001878739451058209,0.976016104221344,10.51865005493164,-7.304905891418457,2.6142055988311768,0.6824658513069153,0.8864556550979614,-0.11849407106637955,-0.16428963840007782,-0.260012686252594,-1.7058391571044922
40,143354,143356,-0.047204069793224335,-0.014807096682488918,0.9842391610145569,11.610840797424316,-7.294154644012451,2.2029712200164795,0.6974651217460632,0.8924553394317627,-0.12449377030134201,-0.2513478398323059,-0.14609970152378082,-1.6700066328048706
41,143364,143366,0.00624720798805356,-0.06602180004119873,0.9591671824455261,9.48982048034668,-5.0349507331848145,2.640662670135498,0.6824658513069153,0.8804559707641602,-0.11849407106637955,-0.07002025097608566,0.019054370000958443,-1.65556001663208
42,143374,143376,0.015602280385792255,-0.03391559422016144,0.9870938658714294,5.731098175048828,-3.2908754348754883,2.212151050567627,0.6974651217460632,0.9014549255371094,-0.10949452221393585,-0.00033361572423018515,0.7377926111221313,-1.630797266960144
43,143384,143386,-0.04641503095626831,-0.03742444887757301,0.9493148922920227,0.11967398226261139,-0.8084408044815063,2.5269410610198975,0.6929653286933899,0.8999549746513367,-0.13499325513839722,0.034911371767520905,0.7195494771003723,-1.6068556308746338
44,143394,143396,-0.08943094313144684,-0.034494951367378235,0.9537959098815918,-7.757989406585693,1.0136661529541016,2.1684343814849854,0.6794660091400146,0.8924553394317627,-0.12149392068386078,0.032085563987493515,0.593379557132721,-1.581835150718689
45,143404,143406,0.01609593816101551,0.02742466703057289,0.9719244241714478,-15.775952339172363,3.2265779972076416,2.0948944091796875,0.6959651708602905,0.8909554481506348,-0.1319933980703354,-0.01022322103381157,0.34887614846229553,-1.5573701858520508
46,143414,143416,-0.506312906742096,-0.1452668160200119,0.9258978366851807,-22.403051376342773,4.9790778160095215,2.3428304195404053,0.6884655356407166,0.8984550833702087,-0.11549422144889832,-0.08183366805315018,-0.006161171942949295,-1.5338695049285889
47,143424,143426,-0.297444224357605,-0.04767707362771034,0.9860482811927795,-24.824886322021484,5.274058818817139,2.212911367416382,0.6809659600257874,0.8879556059837341,-0.12899354100227356,-0.16180501878261566,-0.41471341252326965,-1.5082916021347046
48,143434,143436,-0.05528682470321655,0.09028416872024536,0.8427611589431763,-22.632211685180664,7.457087993621826,1.4260348081588745,0.6929653286933899,0.8819558620452881,-0.113994300365448,-0.1781538426876068,-0.7391947507858276,-1.4870305061340332
49,143444,143446,-0.0852896198630333,-0.05779322609305382,0.9552580118179321,-15.612367630004883,1.844905972480774,2.300710916519165,0.6869656443595886,0.896955132484436,-0.12599369883537292,-0.16080522537231445,-1.0370147228240967,-1.469112515449524
50,143454,143456,-0.09779033809900284,-0.10761358588933945,0.9490397572517395,-5.012344837188721,-1.4409000873565674,1.715816617012024,0.676466166973114,0.8924553394317627,-0.12149392068386078,-0.15839876234531403,-1.0411710739135742,-1.4493917226791382
51,143464,143466,-0.0014193461975082755,-0.022158123552799225,0.9812960028648376,6.993610858917236,-2.6866683959960938,1.7697714567184448,0.6869656443595886,0.8999549746513367,-0.12599369883537292,0.006630484946072102,-1.278328776359558,-1.4361388683319092
52,143474,143476,-0.034173473715782166,-0.003758449573069811,0.8886952996253967,18.704912185668945,-0.40022775530815125,2.091514825820923,0.6884655356407166,0.8954551815986633,-0.10949452221393585,0.01736314594745636,-1.0389888286590576,-1.4210225343704224
53,143484,143486,0.00343957613222301,0.010351275093853474,0.9712759256362915,23.00333023071289,-2.2417867183685303,1.4709935188293457,0.6794660091400146,0.8894554972648621,-0.12449377030134201,-0.02589026838541031,-0.8262795805931091,-1.3987243175506592
54,143494,143496,-0.05549447238445282,-0.018575221300125122,0.9897357225418091,24.098112106323242,-0.6540071368217468,1.0789803266525269,0.6869656443595886,0.8939552903175354,-0.11099445074796677,-0.005597356706857681,-0.500774085521698,-1.3881803750991821
55,143504,143506,-0.1220514327287674,-0.04054586589336395,0.9706541299819946,20.04795265197754,0.8468705415725708,0.7448650002479553,0.6884655356407166,0.8774561285972595,-0.12749361991882324,-0.012929401360452175,-0.2778761684894562,-1.37578547000885
56,143514,143516,0.013087696395814419,0.022683141753077507,0.9893971681594849,12.815898895263672,3.1794843673706055,0.6168237924575806,0.6869656443595886,0.8849557638168335,-0.13499325513839722,0.011486251838505268,-0.6297501921653748,-1.3564614057540894
57,143524,143526,-0.14874520897865295,-0.4026705026626587,0.9709445238113403,4.074476718902588,4.709902286529541,1.1409804821014404,0.6869656443595886,0.8879556059837341,-0.12599369883537292,-0.06518629938364029,-0.5930203199386597,-1.3428252935409546
58,143534,143536,-0.07690108567476273,-0.1433819830417633,0.9763699769973755,-1.7268304824829102,5.866340160369873,1.6527897119522095,0.6854656934738159,0.8954551815986633,-0.14549271762371063,-0.16338737308979034,-0.46273109316825867,-1.3298609256744385
59,143544,143546,-0.09843409061431885,0.021347394213080406,0.9689813256263733,-2.588670492172241,6.1199774742126465,1.6267987489700317,0.6944652795791626,0.8924553394317627,-0.12749361991882324,-0.26625245809555054,-0.4571497142314911,-1.3112459182739258
60,143554,143556,-0.056039780378341675,0.030462022870779037,1.0042650699615479,0.29233118891716003,4.765832901000977,1.647146463394165,0.6779661178588867,0.8819558620452881,-0.1229938492178917,-0.34701550006866455,-0.7065955996513367,-1.2883273363113403
61,143564,143566,-0.03448193520307541,-0.038264017552137375,0.9678230881690979,5.90618371963501,2.6720240116119385,1.5656267404556274,0.6899654865264893,0.8789560198783875,-0.13499325513839722,-0.46374207735061646,-0.5888690948486328,-1.2679975032806396
62,143574,143576,0.01952224224805832,-0.021423568949103355,1.0217905044555664,12.759313583374023,-0.37452709674835205,1.2626553773880005,0.6989650130271912,0.8819558620452881,-0.13799309730529785,-0.4641895592212677,-0.4383261799812317,-1.2550873756408691
63,143584,143586,-0.02060428075492382,-0.05701453238725662,0.965556263923645,18.793848037719727,-4.349308967590332,0.6458850502967834,0.6944652795791626,0.8894554972648621,-0.11849407106637955,-0.2738582193851471,-0.12037107348442078,-1.2633192539215088
64,143594,143596,0.013312549330294132,-0.28408533334732056,0.9979490637779236,22.934724807739258,-7.714827060699463,0.6625052690505981,0.6929653286933899,0.8759561777114868,-0.12599369883537292,-0.11048555374145508,0.26805731654167175,-1.2682183980941772
65,143604,143606,-0.008817152120172977,-0.08511294424533844,1.0040348768234253,21.82431983947754,-8.009262084960938,1.229453682899475,0.6929653286933899,0.8669566512107849,-0.12599369883537292,-0.06439404934644699,-0.03419540822505951,-1.251187801361084
66,143614,143616,0.04257560148835182,0.07456427067518234,0.8856531977653503,16.442035675048828,-5.605641841888428,1.36355459690094,0.6809659600257874,0.8729563355445862,-0.14099295437335968,0.03318072855472565,0.05797123908996582,-1.2387840747833252
67,143624,143626,0.022687343880534172,0.0719049870967865,0.9890695810317993,9.973301887512207,-2.625675678253174,1.2936259508132935,0.691465437412262,0.8804559707641602,-0.13649317622184753,-0.051803842186927795,0.26559942960739136,-1.2164846658706665
68,143634,143636,-0.10457981377840042,0.03215673193335533,1.0031901597976685,6.642336845397949,2.191392183303833,1.5510858297348022,0.691465437412262,0.8774561285972595,-0.12149392068386078,-0.05512576177716255,0.3878003656864166,-1.2039531469345093
69,143644,143646,-0.07356762886047363,-0.0009750036406330764,1.0154391527175903,5.937554836273193,6.1726837158203125,0.9752070307731628,0.6869656443595886,0.8849557638168335,-0.1319933980703354,-0.12418430298566818,0.5508370399475098,-1.1922937631607056
70,143654,143656,-0.18722005188465118,-0.11497443914413452,1.1390959024429321,6.117211818695068,5.191589832305908,1.1856346130371094,0.691465437412262,0.8714563846588135,-0.14549271762371063,-0.14081379771232605,0.4984494745731354,-1.1786388158798218
71,143664,143666,-0.04031272232532501,0.005060762632638216,1.0474358797073364,6.547980308532715,6.394792079925537,0.8332677483558655,0.6944652795791626,0.8744562864303589,-0.12749361991882324,-0.10428929328918457,0.4612463712692261,-1.1674420833587646
72,143674,143676,-0.09221362322568893,0.018311884254217148,0.9772188067436218,8.250468254089355,3.5534560680389404,0.5167571306228638,0.6809659600257874,0.8879556059837341,-0.13499325513839722,-0.19080568850040436,0.5187251567840576,-1.156116008758545
73,143684,143686,-0.24691180884838104,0.03411359339952469,0.9980493783950806,9.899051666259766,2.66674542427063,0.6782093048095703,0.6794660091400146,0.8804559707641602,-0.12749361991882324,-0.248354971408844,0.5323649048805237,-1.1472868919372559
74,143694,143696,-0.06121554225683212,0.008873826824128628,1.0119484663009644,11.778979301452637,-1.064716100692749,0.13758963346481323,0.6899654865264893,0.8939552903175354,-0.1229938492178917,-0.11497866362333298,0.6514987945556641,-1.144425392150879
75,143704,143706,-0.042756401002407074,0.00784389954060316,0.9786589741706848,12.918495178222656,-2.9359211921691895,0.31552398204803467,0.683965802192688,0.8819558620452881,-0.1319933980703354,-0.09304933249950409,0.9273410439491272,-1.1438798904418945
76,143714,143716,-0.0341406986117363,0.03236803039908409,1.0329712629318237,14.374659538269043,-2.8880774974823,0.3203875720500946,0.6794660091400146,0.8684565424919128,-0.12149392068386078,-0.1953631341457367,0.9349004626274109,-1.1418777704238892
77,143724,143726,-0.05222436785697937,-0.026844387874007225,0.9972503781318665,14.041725158691406,-1.2529301643371582,0.5080555081367493,0.6794660091400146,0.8774561285972595,-0.12749361991882324,-0.16269059479236603,1.1638412475585938,-1.139707326889038
78,143734,143736,-0.042000479996204376,-0.07351750880479813,1.0022250413894653,11.938185691833496,-0.14291374385356903,0.14178772270679474,0.6824658513069153,0.8714563846588135,-0.12449377030134201,-0.014454699121415615,1.2274161577224731,-1.1279739141464233
79,143744,143746,-0.09989824891090393,-0.00039841714897193015,1.0964059829711914,8.54214096069336,0.020980777218937874,-0.8875390887260437,0.6809659600257874,0.8819558620452881,-0.1229938492178917,-0.03400848060846329,1.3204847574234009,-1.1276798248291016
80,143754,143756,-0.07296020537614822,-0.025363817811012268,1.0432333946228027,5.775322914123535,5.556262016296387,0.17693081498146057,0.6944652795791626,0.8834558129310608,-0.12749361991882324,-0.1087520569562912,1.3661950826644897,-1.1306461095809937
81,143764,143766,-0.03344861418008804,-0.03832150250673294,0.959701657295227,2.4511542320251465,4.997621536254883,0.040509480983018875,0.66896653175354,0.8849557638168335,-0.1319933980703354,-0.2020183503627777,1.49514901638031,-1.133257508277893
82,143774,143776,-0.12860508263111115,0.04174698889255524,0.9992535710334778,1.0815426111221313,5.123661994934082,0.16113688051700592,0.6794660091400146,0.8864556550979614,-0.13949301838874817,-0.29454371333122253,1.51042902469635,-1.1339309215545654
83,143784,143786,-0.22701260447502136,-0.05278092622756958,0.926720917224884,1.9866639375686646,4.975288391113281,0.560260534286499,0.6809659600257874,0.8999549746513367,-0.11999399960041046,-0.37918350100517273,1.5230506658554077,-1.1346092224121094
84,143794,143796,-0.03452058881521225,0.023222900927066803,1.0026205778121948,1.2732435464859009,3.9597487449645996,0.28914737701416016,0.6719663739204407,0.8879556059837341,-0.12599369883537292,-0.37898871302604675,1.4622561931610107,-1.12208890914917
85,143804,143806,-0.070816271007061,-0.09141764044761658,0.9311193227767944,2.038696765899658,1.4363583326339722,0.20370246469974518,0.6794660091400146,0.8954551815986633,-0.13049347698688507,-0.414548397064209,1.5480808019638062,-1.121935248374939
86,143814,143816,-0.32573798298835754,-0.14123928546905518,1.1029679775238037,2.7963569164276123,-1.0818020105361938,0.4390338659286499,0.6614668965339661,0.8834558129310608,-0.11849407106637955,-0.41498902440071106,1.6394845247268677,-1.1174908876419067
87,143824,143826,-0.12406370788812637,-0.06232093274593353,0.9718084335327148,3.5084190368652344,-3.7385127544403076,-0.16924677789211273,0.6809659600257874,0.8849557638168335,-0.12599369883537292,-0.5124537348747253,1.7377039194107056,-1.133851170539856
88,143834,143836,-0.4419565200805664,-0.06748154759407043,0.974028468132019,3.2152023315429688,-5.21380615234375,-0.0520663782954216,0.6674666404724121,0.8924553394317627,-0.11549422144889832,-0.43256092071533203,1.8315975666046143,-1.128826379776001
89,143844,143846,-0.06996685266494751,0.013745391741394997,0.8009663224220276,1.3639549016952515,-3.788550853729248,-0.04841094836592674,0.66896653175354,0.8819558620452881,-0.12599369883537292,-0.2899987995624542,1.8272088766098022,-1.1134008169174194
90,143854,143856,-0.5207546353340149,-0.11712957918643951,0.9344691634178162,0.5327451229095459,-4.551233291625977,0.12391543388366699,0.676466166973114,0.8864556550979614,-0.11849407106637955,-0.21526214480400085,1.8760846853256226,-1.112436056137085
91,143864,143866,-0.17019690573215485,-0.08516443520784378,0.9694597721099854,-3.181117296218872,-4.016448497772217,-0.4584815800189972,0.6749662160873413,0.8879556059837341,-0.1319933980703354,-0.14337998628616333,1.875016212463379,-1.1110308170318604
92,143874,143876,0.008815549314022064,0.01438537985086441,0.9722843170166016,-6.9417405128479,-2.359800338745117,-0.6909103393554688,0.6749662160873413,0.8879556059837341,-0.10799460113048553,-0.30443987250328064,1.8141658306121826,-1.1596859693527222
93,143884,143886,-0.0030729281716048717,0.0212265532463789,0.9591584801673889,-7.995892524719238,-0.2730240523815155,-0.7553179860115051,0.683965802192688,0.8639568090438843,-0.12599369883537292,-0.21058066189289093,1.7157893180847168,-1.1489503383636475
94,143894,143896,-0.1254565566778183,0.0015302507672458887,0.9345260262489319,-10.04985523223877,3.222888946533203,-0.33404308557510376,0.6734663248062134,0.8744562864303589,-0.1334933191537857,-0.24024175107479095,1.589592695236206,-1.158374309539795
95,143904,143906,-0.16746073961257935,0.011930401436984539,0.9782828092575073,-8.255814552307129,3.610405206680298,-0.9037377238273621,0.6884655356407166,0.8744562864303589,-0.1334933191537857,-0.2888759970664978,1.466780424118042,-1.167426347732544
96,143914,143916,-0.0706481784582138,-0.17763368785381317,0.9513183236122131,-7.227813243865967,0.25987333059310913,-0.8587479591369629,0.6779661178588867,0.8729563355445862,-0.12899354100227356,-0.3041865825653076,1.3611537218093872,-1.1739453077316284
97,143924,143926,-0.11631470918655396,-0.04614347591996193,1.0000416040420532,-4.912296772003174,0.9657694697380066,-1.1390279531478882,0.6794660091400146,0.8714563846588135,-0.13049347698688507,-0.3134043216705322,1.291304111480713,-1.1815211772918701
98,143934,143936,-0.006315898150205612,0.017178326845169067,0.9356132745742798,-2.089827299118042,-1.072015404701233,-1.1074637174606323,0.6899654865264893,0.8759561777114868,-0.11999399960041046,-0.30622535943984985,1.3355268239974976,-1.1883411407470703
99,143944,143946,0.039840761572122574,0.14873269200325012,0.9800455570220947,-0.738250732421875,-2.873267889022827,-0.6319271922111511,0.6809659600257874,0.8849557638168335,-0.1319933980703354,-0.341707706451416,1.4043591022491455,-1.2048355340957642
100,143954,143956,-0.10423371940851212,0.0699121281504631,0.9577087759971619,1.2718417644500732,-4.247244358062744,-0.6577132344245911,0.6854656934738159,0.8714563846588135,-0.12749361991882324,-0.27202466130256653,1.4213258028030396,-1.2049610614776611
101,143964,143966,-0.16320227086544037,-0.09250069409608841,0.9714723825454712,0.03026331216096878,-5.494975566864014,-0.5568646788597107,0.6704664826393127,0.8774561285972595,-0.13049347698688507,-0.17919793725013733,1.4336903095245361,-1.2037248611450195
102,143974,143976,-0.046195097267627716,-0.09144426882266998,0.9751701354980469,-2.6606836318969727,-6.365231513977051,-0.8815876841545105,0.6854656934738159,0.8594570159912109,-0.12749361991882324,-0.2087940275669098,1.4119218587875366,-1.2336784601211548
103,143984,143986,-0.14608488976955414,-0.005845516454428434,0.9756798148155212,-6.595406532287598,-5.8654069900512695,-0.3279725909233093,0.6794660091400146,0.8594570159912109,-0.11849407106637955,-0.09495830535888672,1.3332958221435547,-1.2313815355300903
104,143994,143996,-0.1105097159743309,-0.00838162750005722,1.0001300573349,-10.2017822265625,-4.239827632904053,-0.08653539419174194,0.6899654865264893,0.8789560198783875,-0.13799309730529785,-0.007940709590911865,1.3364125490188599,-1.2265030145645142
105,144004,144006,-0.11119446158409119,-0.015895236283540726,0.9890710711479187,-12.070055961608887,-2.256507396697998,-0.29952114820480347,0.683965802192688,0.8699564933776855,-0.12899354100227356,0.044595081359148026,1.2195721864700317,-1.2248315811157227
106,144014,144016,-0.0031231483444571495,0.03041880577802658,0.9945064187049866,-13.207931518554688,-0.24963711202144623,-0.49522751569747925,0.7019649147987366,0.8669566512107849,-0.12599369883537292,0.06178828328847885,1.0751229524612427,-1.2266626358032227
107,144024,144026,-0.06282074749469757,0.06985828280448914,0.9902543425559998,-11.903580665588379,1.8168028593063354,-0.22535820305347443,0.6929653286933899,0.8789560198783875,-0.1319933980703354,0.03395507112145424,1.0845321416854858,-1.2299137115478516
108,144034,144036,-0.007299286779016256,-0.001415044767782092,0.9872263669967651,-10.826510429382324,2.7923998832702637,-0.32460132241249084,0.6929653286933899,0.8789560198783875,-0.1319933980703354,-0.0020396606996655464,0.8818946480751038,-1.2332414388656616
109,144044,144046,0.004616960883140564,0.007620331831276417,1.0081628561019897,-10.434784889221191,3.5762555599212646,-0.11932429671287537,0.6929653286933899,0.8789560198783875,-0.1319933980703354,-0.11699842661619186,0.7676740884780884,-1.253372311592102
110,144054,144056,-0.027803774923086166,-0.02745973691344261,0.9932314157485962,-8.741883277893066,1.7731138467788696,-0.44740089774131775,0.6899654865264893,0.8669566512107849,-0.12899354100227356,-0.14060969650745392,0.6691600680351257,-1.2551509141921997
111,144064,144066,0.024893244728446007,0.0869959145784378,0.9576985836029053,-6.9791107177734375,1.0585858821868896,0.07106421887874603,0.691465437412262,0.8594570159912109,-0.1334933191537857,-0.15910422801971436,0.5388287305831909,-1.2553585767745972
112,144074,144076,0.06876058131456375,0.09355770796537399,1.0155237913131714,-6.898439884185791,-3.26928973197937,-0.5064563751220703,0.676466166973114,0.8744562864303589,-0.13949301838874817,-0.12032347172498703,0.55305415391922,-1.250396728515625
113,144084,144086,-0.06897447258234024,-0.05331327021121979,0.9747253656387329,-5.907702445983887,-6.585583686828613,-0.7387530207633972,0.6884655356407166,0.8774561285972595,-0.13649317622184753,-0.027091115713119507,0.5068725347518921,-1.2491755485534668
114,144094,144096,-0.00822223350405693,0.027172811329364777,1.0141392946243286,-5.651129245758057,-6.999360084533691,-0.8372377157211304,0.6869656443595886,0.8789560198783875,-0.12599369883537292,0.08262542635202408,0.4665446877479553,-1.2485352754592896
115,144104,144106,0.047413114458322525,-0.0888623520731926,1.0150283575057983,-6.57926607131958,-5.529711723327637,-0.6670894622802734,0.6899654865264893,0.8609569072723389,-0.14399279654026031,0.11217029392719269,0.6277372241020203,-1.2655718326568604
116,144114,144116,-0.04232330620288849,-0.06810759007930756,0.9902011156082153,-7.521209716796875,-3.2741520404815674,-0.23374059796333313,0.6899654865264893,0.8789560198783875,-0.12599369883537292,0.1867322474718094,0.47141414880752563,-1.2662779092788696
117,144124,144126,-0.08291590213775635,-0.11067196726799011,1.0358387231826782,-8.83587646484375,-1.2439095973968506,-0.19226573407649994,0.691465437412262,0.8654567003250122,-0.13649317622184753,0.08113472908735275,0.3755078911781311,-1.2837762832641602
118,144134,144136,-0.006603059358894825,-0.08823708444833755,1.0079481601715088,-11.849174499511719,2.888127088546753,0.14465531706809998,0.6989650130271912,0.8579570651054382,-0.12599369883537292,0.0005984773160889745,0.23808546364307404,-1.29111909866333
119,144144,144146,0.02309056557714939,0.011256132274866104,1.029457926750183,-13.06370735168457,3.763432264328003,-0.21882784366607666,0.6929653286933899,0.8699564933776855,-0.12899354100227356,-0.034420181065797806,0.1439303606748581,-1.292191743850708
120,144154,144156,-0.026628367602825165,-0.1812879741191864,1.0290579795837402,-13.316261291503906,3.008998155593872,0.5779464244842529,0.7034648060798645,0.8624568581581116,-0.1334933191537857,0.0011365970131009817,-0.03294245898723602,-1.285308837890625
121,144164,144166,0.06316713988780975,-0.08652254194021225,0.9618753790855408,-12.330880165100098,0.9806497097015381,0.7296029329299927,0.6899654865264893,0.8729563355445862,-0.1319933980703354,-0.02031809836626053,-0.12635667622089386,-1.2793010473251343
122,144174,144176,0.09864934533834457,0.12055953592061996,0.9584677815437317,-9.922985076904297,-3.108445405960083,0.5538749694824219,0.6959651708602905,0.8579570651054382,-0.14099295437335968,0.02139059081673622,-0.2630252540111542,-1.2707858085632324
123,144184,144186,0.02353227324783802,0.08637958765029907,1.0453572273254395,-6.5716023445129395,-4.535410404205322,0.36336657404899597,0.7064646482467651,0.8774561285972595,-0.13049347698688507,0.09083384275436401,-0.2765319049358368,-1.2670387029647827
124,144194,144196,-0.11183425784111023,-0.06620849668979645,1.0889321565628052,-4.59301233291626,-6.805275917053223,0.13849686086177826,0.6944652795791626,0.8774561285972595,-0.13049347698688507,0.13143785297870636,-0.39706483483314514,-1.2642587423324585
125,144204,144206,-0.12848158180713654,-0.16338633000850677,1.0320607423782349,-2.882619619369507,-5.727822780609131,0.6200138330459595,0.7004649639129639,0.8714563846588135,-0.13049347698688507,0.1703222095966339,-0.48304057121276855,-1.2573705911636353
126,144214,144216,-0.11699052155017853,-0.11784055083990097,1.0219038724899292,-2.584637403488159,-1.0458643436431885,0.8844904899597168,0.691465437412262,0.8684565424919128,-0.13649317622184753,0.22480186820030212,-0.4140333831310272,-1.2553157806396484
127,144224,144226,-0.11031853407621384,-0.08863828331232071,1.0365803241729736,-3.111004590988159,1.5317498445510864,0.7884670495986938,0.6944652795791626,0.8564571738243103,-0.12749361991882324,0.09369861334562302,-0.42033857107162476,-1.2471766471862793
128,144234,144236,-0.07964541018009186,-0.08899790048599243,1.0638996362686157,-3.280278444290161,2.699573516845703,1.1791597604751587,0.6884655356407166,0.8714563846588135,-0.13049347698688507,0.08378148823976517,-0.43266528844833374,-1.239398717880249
129,144244,144246,-0.14778856933116913,-0.09197352826595306,1.0218837261199951,-4.51810359954834,2.6552894115448,0.7489608526229858,0.6929653286933899,0.8729563355445862,-0.13799309730529785,0.06563733518123627,-0.5314514636993408,-1.2287052869796753
130,144254,144256,-0.2752525806427002,-0.22183120250701904,0.9967165589332581,-5.856500625610352,-0.384891152381897,1.0526890754699707,0.6974651217460632,0.8834558129310608,-0.13949301838874817,0.07282353192567825,-0.6461247801780701,-1.2183338403701782
131,144264,144266,-0.1366952806711197,-0.03971298038959503,1.0578685998916626,-6.37724494934082,-2.0958499908447266,0.4607471525669098,0.691465437412262,0.8864556550979614,-0.13049347698688507,0.04045775532722473,-0.7655016183853149,-1.2027463912963867
132,144274,144276,-0.007939623668789864,0.032776497304439545,1.062363862991333,-5.381902694702148,-4.712399482727051,-0.20249973237514496,0.6944652795791626,0.8834558129310608,-0.13049347698688507,0.1168067678809166,-0.8045851588249207,-1.2037092447280884
133,144284,144286,-0.2912568151950836,-0.06130851060152054,1.0120850801467896,-3.9064104557037354,-6.274880409240723,0.07751446217298508,0.6884655356407166,0.8744562864303589,-0.11849407106637955,0.2191062867641449,-0.7545902132987976,-1.2112960815429688
134,144294,144296,-0.16294415295124054,-0.04102723300457001,1.0072433948516846,-0.7622501254081726,-7.399358749389648,0.08933023363351822,0.7004649639129639,0.8894554972648621,-0.1334933191537857,0.33922863006591797,-0.8103525042533875,-1.212489366531372
135,144304,144306,-0.15185433626174927,-0.056381773203611374,1.064215064048767,0.9653452634811401,-8.569355964660645,0.3699016869068146,0.691465437412262,0.8774561285972595,-0.13649317622184753,0.42028072476387024,-0.8250433802604675,-1.2077175378799438
136,144314,144316,-0.17993491888046265,-0.13587695360183716,1.0393435955047607,2.9313013553619385,-2.818068504333496,0.7331346273422241,0.6959651708602905,0.8699564933776855,-0.1319933980703354,0.4998960793018341,-0.807155430316925,-1.204461932182312
137,144324,144326,-0.11981718242168427,-0.19973424077033997,1.0592018365859985,4.257047653198242,0.1622624546289444,0.2404070794582367,0.6989650130271912,0.8729563355445862,-0.1319933980703354,0.526360809803009,-0.759904146194458,-1.2019401788711548
138,144334,144336,-0.21471314132213593,-0.092678502202034,1.0484035015106201,3.7018420696258545,5.030394554138184,0.44214940071105957,0.683965802192688,0.8849557638168335,-0.1229938492178917,0.48326388001441956,-0.7169742584228516,-1.1956205368041992
139,144344,144346,-0.21641550958156586,-0.07571029663085938,0.9965788722038269,2.569237470626831,7.202388286590576,1.2861541509628296,0.6899654865264893,0.8849557638168335,-0.12599369883537292,0.2517490088939667,-0.6848326921463013,-1.1601207256317139
140,144354,144356,-0.16059185564517975,0.016445599496364594,1.015285611152649,2.6803221702575684,9.48998737335205,0.7034237384796143,0.6854656934738159,0.8774561285972595,-0.13049347698688507,0.1957499384880066,-0.6526562571525574,-1.1558762788772583
141,144364,144366,-0.06711406260728836,-0.16624091565608978,1.0032838582992554,0.16235677897930145,4.2550249099731445,0.5364504456520081,0.6869656443595886,0.8879556059837341,-0.1229938492178917,0.1164650171995163,-0.6501275300979614,-1.1475499868392944
142,144374,144376,-0.0741996020078659,-0.4445596933364868,1.0375267267227173,0.14963923394680023,-0.8182154297828674,0.16904810070991516,0.683965802192688,0.8909554481506348,-0.13499325513839722,0.11376131325960159,-0.6616044044494629,-1.1459136009216309
143,144384,144386,0.08341415971517563,-0.02588781714439392,1.002489686012268,-0.622792661190033,-5.1051459312438965,0.30907100439071655,0.6884655356407166,0.8804559707641602,-0.12449377030134201,0.18120069801807404,-0.6778901219367981,-1.148937463760376
144,144394,144396,-0.04520469158887863,0.030227066949009895,1.014293909072876,-1.1011004447937012,-8.10136604309082,0.2909186780452728,0.6929653286933899,0.8909554481506348,-0.14099295437335968,0.29980334639549255,-0.7024437785148621,-1.1544864177703857
145,144404,144406,-0.06253502517938614,-0.02377268858253956,1.0132535696029663,0.060819197446107864,-8.598136901855469,0.4790783226490021,0.6929653286933899,0.8939552903175354,-0.13799309730529785,0.30041754245758057,-0.6456848382949829,-1.1385525465011597
146,144414,144416,0.06361701339483261,0.030976368114352226,0.9863989949226379,1.8519833087921143,-7.636524677276611,-0.23325598239898682,0.6854656934738159,0.8954551815986633,-0.12149392068386078,0.4394625127315521,-0.6355306506156921,-1.147197961807251
147,144424,144426,-0.002155182184651494,0.020223582163453102,1.0114635229110718,3.1874217987060547,-4.112814426422119,0.06975767761468887,0.691465437412262,0.8924553394317627,-0.12449377030134201,0.4648556113243103,-0.6042254567146301,-1.1401447057724
148,144434,144436,-0.06588998436927795,-0.02667679265141487,1.026361107826233,3.108443260192871,-0.49618491530418396,0.336620032787323,0.6899654865264893,0.8789560198783875,-0.13799309730529785,0.5093029141426086,-0.5650742053985596,-1.1391651630401611
149,144444,144446,-0.1670631468296051,-0.11135589331388474,1.0473237037658691,3.4367778301239014,2.8471713066101074,0.28173741698265076,0.6944652795791626,0.8864556550979614,-0.1334933191537857,0.5089487433433533,-0.7337709665298462,-1.1232857704162598
150,144454,144456,-0.09219744056463242,-0.1421923041343689,0.9636216759681702,3.326932191848755,6.791054725646973,0.6152121424674988,0.7004649639129639,0.8924553394317627,-0.13649317622184753,0.5764267444610596,-0.6669292449951172,-1.142127513885498
151,144464,144466,-0.16660575568675995,0.022480525076389313,1.0486096143722534,3.258591651916504,6.142799377441406,0.40202397108078003,0.6824658513069153,0.8924553394317627,-0.12149392068386078,0.3355712592601776,-0.6124783158302307,-1.1081351041793823
152,144474,144476,-0.05808694660663605,0.12800943851470947,0.9385890960693359,4.325151443481445,6.104556560516357,-0.17970305681228638,0.6869656443595886,0.8939552903175354,-0.13499325513839722,0.24329029023647308,-0.47776466608047485,-1.108926773071289
153,144484,144486,-0.05271998420357704,0.014936617575585842,0.9888178706169128,5.055800437927246,4.645073890686035,-0.31989651918411255,0.6989650130271912,0.8909554481506348,-0.113994300365448,0.3062766194343567,-0.4728066325187683,-1.1293684244155884
154,144494,144496,-0.07713420689105988,-0.010155504569411278,1.0595487356185913,5.05509090423584,1.5265659093856812,0.07894938439130783,0.6989650130271912,0.8909554481506348,-0.11699414998292923,0.1978306770324707,-0.38795626163482666,-1.12178635597229
155,144504,144506,0.0047137378714978695,-0.028442198410630226,0.9632411599159241,5.544582843780518,-0.35204651951789856,0.1674334704875946,0.6959651708602905,0.8819558620452881,-0.1319933980703354,0.2681548595428467,-0.4413323700428009,-1.125597596168518
156,144514,144516,-0.02924024499952793,-0.0955105647444725,1.0013294219970703,3.920240640640259,-2.2183279991149902,0.15279795229434967,0.7034648060798645,0.8864556550979614,-0.13049347698688507,0.15555158257484436,-0.22338253259658813,-1.1157386302947998
157,144524,144526,0.014863335527479649,-0.010815517045557499,0.9716012477874756,3.7570509910583496,-2.206202983856201,0.25211039185523987,0.6854656934738159,0.8894554972648621,-0.12749361991882324,0.20795711874961853,-0.16916920244693756,-1.1202346086502075
158,144534,144536,-0.12208832800388336,0.014932693913578987,1.0093255043029785,3.5897610187530518,-2.3093314170837402,0.12836076319217682,0.6959651708602905,0.8759561777114868,-0.1319933980703354,0.25925859808921814,-0.11797135323286057,-1.1237787008285522
159,144544,144546,-0.09573241323232651,-0.07826180011034012,0.9845636487007141,1.6765998601913452,-1.427773118019104,0.3252440392971039,0.6989650130271912,0.896955132484436,-0.1229938492178917,0.4392780065536499,-0.22414444386959076,-1.1344963312149048
160,144554,144556,-0.025538694113492966,-0.3099729120731354,0.9934036731719971,0.39627280831336975,-0.7875912189483643,0.32352814078330994,0.6899654865264893,0.8819558620452881,-0.1229938492178917,0.4525343179702759,-0.21226151287555695,-1.131858468055725
161,144564,144566,-0.0028492147102952003,-0.10666417330503464,0.9684330224990845,0.2551661431789398,1.3872473239898682,0.24862778186798096,0.6809659600257874,0.8879556059837341,-0.1229938492178917,0.4380483329296112,-0.20563064515590668,-1.1264010667800903
162,144574,144576,-0.011941400356590748,0.055091120302677155,0.9654617309570312,0.017590003088116646,5.051955699920654,0.336975634098053,0.6959651708602905,0.8879556059837341,-0.11999399960041046,0.36578407883644104,-0.19811227917671204,-1.1190245151519775
163,144584,144586,-0.06548551470041275,-0.08196134865283966,1.0331302881240845,1.47752046585083,5.722196578979492,-0.07667682319879532,0.6899654865264893,0.8939552903175354,-0.12899354100227356,0.3506838083267212,-0.18613941967487335,-1.122268795967102
164,144594,144596,0.002505386481061578,0.01853010803461075,1.0439083576202393,3.300215721130371,9.630975723266602,0.27890345454216003,0.683965802192688,0.8789560198783875,-0.1229938492178917,0.1382959932088852,-0.142167866230011,-1.1072635650634766
165,144604,144606,0.012537053786218166,-0.07029852271080017,0.9678425192832947,4.528055667877197,9.274953842163086,-0.1409240961074829,0.6854656934738159,0.8834558129310608,-0.12149392068386078,0.20001479983329773,-0.14480708539485931,-1.124220848083496
166,144614,144616,-0.029629720374941826,-0.07720132172107697,1.0041353702545166,5.532765865325928,7.710402488708496,-0.5340616106987,0.683965802192688,0.8999549746513367,-0.1319933980703354,-0.006532291881740093,-0.05826091021299362,-1.1174873113632202
167,144624,144626,-0.16887280344963074,-0.10892470926046371,0.9735670685768127,5.018337249755859,4.636896133422852,-0.6861039400100708,0.6779661178588867,0.8789560198783875,-0.13799309730529785,-0.026784416288137436,0.02636333554983139,-1.1298227310180664
168,144634,144636,-0.09844435006380081,-0.11250068992376328,1.001259684562683,3.925959348678589,1.9688444137573242,-0.3337783217430115,0.6824658513069153,0.8924553394317627,-0.13049347698688507,-0.07412412017583847,0.09861160814762115,-1.1363455057144165
169,144644,144646,-0.9159271121025085,-0.08136188238859177,0.959570586681366,3.060533046722412,-1.1560587882995605,-0.6139505505561829,0.6794660091400146,0.8894554972648621,-0.11849407106637955,0.20217213034629822,0.012974586337804794,-1.160629153251648
170,144654,144656,-0.7437634468078613,0.021339427679777145,1.0071678161621094,1.7329515218734741,-3.275707721710205,-0.03517557680606842,0.6854656934738159,0.8804559707641602,-0.1334933191537857,0.14526836574077606,0.12344031035900116,-1.1626856327056885
171,144664,144666,-0.38319462537765503,-0.2850436866283417,0.9526637196540833,0.43964576721191406,-2.031402111053467,0.24451220035552979,0.6884655356407166,0.8804559707641602,-0.13649317622184753,0.025074947625398636,0.13774468004703522,-1.1493408679962158
172,144674,144676,-0.7717991471290588,-0.42986932396888733,1.0276751518249512,0.4292098581790924,1.4507708549499512,0.4066886901855469,0.6899654865264893,0.8729563355445862,-0.12599369883537292,0.015129751525819302,0.1423851102590561,-1.144588828086853
173,144684,144686,-0.5298115611076355,-0.2708500027656555,0.9601394534111023,-0.4613831639289856,4.535853385925293,0.6046923398971558,0.6779661178588867,0.8819558620452881,-0.12599369883537292,-0.038071244955062866,0.1357780396938324,-1.1391443014144897
174,144694,144696,-0.8484253287315369,-0.35507991909980774,1.0020365715026855,0.12606237828731537,5.195173263549805,0.4984056055545807,0.6779661178588867,0.8759561777114868,-0.12899354100227356,-0.1118595078587532,0.1294279396533966,-1.1335253715515137
175,144704,144706,-0.5324131846427917,-0.17012104392051697,0.9764688014984131,0.01640135794878006,4.7171831130981445,0.8447090983390808,0.691465437412262,0.8804559707641602,-0.12749361991882324,-0.18394333124160767,0.1266581416130066,-1.126328468322754
176,144714,144716,-0.03195210546255112,0.05566032603383064,0.7996134757995605,1.877152681350708,5.33301305770874,1.3948720693588257,0.6629668474197388,0.8939552903175354,-0.13499325513839722,-0.27367204427719116,0.1417248547077179,-1.1152361631393433
177,144724,144726,-0.006776679772883654,-0.000352349627064541,0.9237659573554993,1.0663076639175415,-0.44577309489250183,0.7042624354362488,0.6899654865264893,0.8789560198783875,-0.12899354100227356,-0.29902002215385437,0.16319814324378967,-1.1041004657745361
178,144734,144736,-0.3970688581466675,-0.13383269309997559,0.9960495829582214,1.7824877500534058,-2.1154301166534424,0.7675408124923706,0.6809659600257874,0.8759561777114868,-0.11699414998292923,-0.27672672271728516,0.18948043882846832,-1.0957553386688232
179,144744,144746,-1.049896001815796,-0.20704492926597595,0.9537469148635864,1.2107224464416504,-5.140804767608643,0.6445990800857544,0.6929653286933899,0.8819558620452881,-0.11999399960041046,-0.21054235100746155,0.06985647231340408,-1.0919758081436157
180,144754,144756,-0.4963766038417816,-0.2379278838634491,1.00528085231781,0.10228411108255386,-6.536754131317139,0.46569955348968506,0.6959651708602905,0.8639568090438843,-0.13499325513839722,-0.10692713409662247,0.15321241319179535,-1.0877424478530884
181,144764,144766,-0.01216650940477848,-0.5310921669006348,0.9751120805740356,-0.3214210271835327,-6.73945951461792,0.7309262156486511,0.6959651708602905,0.8849557638168335,-0.12599369883537292,-0.13167934119701385,0.221034973859787,-1.0810624361038208
182,144774,144776,-0.012781985104084015,-0.1940593719482422,1.0047322511672974,0.21652370691299438,-6.245393753051758,0.305099755525589,0.6959651708602905,0.8849557638168335,-0.12599369883537292,-0.01594163291156292,0.21538355946540833,-1.0757166147232056
183,144784,144786,-0.06085724011063576,-0.03847237303853035,1.001113772392273,-0.5317108631134033,-4.493593215942383,-0.041963882744312286,0.6959651708602905,0.8849557638168335,-0.12599369883537292,0.0726451724767685,0.2081516534090042,-1.0766210556030273
184,144794,144796,0.01562930829823017,0.018492916598916054,0.9763485193252563,-1.2074874639511108,-1.9590264558792114,-0.22687390446662903,0.6974651217460632,0.8594570159912109,-0.12149392068386078,0.11833139508962631,0.19012576341629028,-1.0772994756698608
185,144804,144806,0.02400197833776474,0.03580253943800926,1.0170403718948364,-2.047431707382202,0.6797055006027222,-0.0012981597101315856,0.6929653286933899,0.8699564933776855,-0.11999399960041046,0.11887500435113907,0.15856119990348816,-1.0784780979156494
186,144814,144816,1.1021534191968385e-06,-0.007150609511882067,0.9855163097381592,-1.6384234428405762,2.197502613067627,-0.8250741958618164,0.6869656443595886,0.8669566512107849,-0.12899354100227356,0.15907374024391174,0.12793533504009247,-1.0828685760498047
187,144824,144826,-0.012997442856431007,-0.10431233048439026,0.9817624688148499,-0.7753548622131348,4.244704246520996,-0.8695516586303711,0.6824658513069153,0.8654567003250122,-0.1334933191537857,0.09486933797597885,0.1086495891213417,-1.0907211303710938
188,144834,144836,-0.09098596125841141,-0.06559885293245316,1.0697429180145264,-0.7960943579673767,4.609974384307861,-1.1052110195159912,0.7034648060798645,0.8564571738243103,-0.12449377030134201,-0.049974050372838974,0.09479179233312607,-1.09974205493927
189,144844,144846,-0.2241639941930771,0.03574211522936821,1.065627098083496,-0.22152525186538696,4.665807723999023,-1.2589521408081055,0.6974651217460632,0.8714563846588135,-0.12749361991882324,-0.12052464485168457,0.08756869286298752,-1.1130019426345825
190,144854,144856,-0.29024538397789,-0.007441286463290453,1.0496066808700562,0.5693451166152954,2.319673776626587,-2.0406081676483154,0.6944652795791626,0.8714563846588135,-0.13049347698688507,-0.02353190816938877,0.0887259766459465,-1.1270183324813843
191,144864,144866,-0.07931670546531677,-0.023407600820064545,1.0154881477355957,0.5034300684928894,2.697909355163574,-1.0791797637939453,0.6944652795791626,0.8804559707641602,-0.12749361991882324,-0.06815372407436371,0.09496694803237915,-1.1433556079864502
192,144874,144876,-0.031970519572496414,-0.021444039419293404,1.0446081161499023,0.5007550120353699,0.8808510303497314,-1.416024923324585,0.6869656443595886,0.8579570651054382,-0.1229938492178917,-0.08993766456842422,0.1016068235039711,-1.155205249786377
193,144884,144886,-0.04940934106707573,-0.02102580852806568,1.0165681838989258,1.000486969947815,-0.6663026809692383,-1.5690525770187378,0.6974651217460632,0.8684565424919128,-0.13949301838874817,-0.1552213877439499,0.11352374404668808,-1.1701257228851318
194,144894,144896,-0.11928515136241913,-0.017001615837216377,1.0116803646087646,0.5358743071556091,-1.3473031520843506,-1.5314940214157104,0.6884655356407166,0.8624568581581116,-0.13649317622184753,-0.13290145993232727,0.12537728250026703,-1.1839866638183594
195,144904,144906,0.011950794607400894,0.01906178705394268,1.0183970928192139,-0.28835201263427734,-1.2137806415557861,-1.6113520860671997,0.6929653286933899,0.8759561777114868,-0.12899354100227356,-0.11013726890087128,0.1237211748957634,-1.199539065361023
196,144914,144916,-0.26522061228752136,-0.11671696603298187,0.9921247959136963,-0.4162577688694,-1.3805625438690186,-1.349424958229065,0.6899654865264893,0.8669566512107849,-0.11999399960041046,-0.08900859951972961,0.1194126158952713,-1.2138798236846924
197,144924,144926,-0.23446246981620789,-0.009783181361854076,1.0169997215270996,-0.574577271938324,-1.367342233657837,-1.316986322402954,0.6809659600257874,0.8579570651054382,-0.11699414998292923,-0.1406356692314148,0.10978899151086807,-1.227653980255127
198,144934,144936,-0.47830331325531006,-0.44490790367126465,1.0311121940612793,-1.7293058633804321,-0.8810046911239624,-1.323332667350769,0.6944652795791626,0.8744562864303589,-0.12749361991882324,0.018217815086245537,0.15796664357185364,-1.240025520324707
199,144944,144946,-0.29197853803634644,-0.28290584683418274,0.9934078454971313,-0.7244331240653992,-0.32492491602897644,-1.188256025314331,0.6929653286933899,0.8789560198783875,-0.12899354100227356,0.01983013190329075,0.13298411667346954,-1.2528642416000366
200,144954,144956,-0.747951090335846,-0.050834640860557556,1.096663236618042,-1.359042763710022,-0.6176565885543823,-1.2053477764129639,0.6884655356407166,0.8684565424919128,-0.13649317622184753,0.02288449928164482,0.10418888926506042,-1.2674314975738525
201,144964,144966,-0.5284403562545776,-0.09731786698102951,1.0539273023605347,-0.4815094470977783,1.2939035892486572,-1.3037410974502563,0.691465437412262,0.8654567003250122,-0.13049347698688507,-0.05587369203567505,0.08687850832939148,-1.2810606956481934
202,144974,144976,-0.1724386066198349,-0.4842003583908081,0.9174543619155884,-0.24101103842258453,2.8954155445098877,-0.7935993671417236,0.6779661178588867,0.8669566512107849,-0.13499325513839722,-0.08987415581941605,0.07902523875236511,-1.2918554544448853
203,144984,144986,-0.08897802978754044,-0.452006995677948,1.0564931631088257,-1.391730546951294,3.0253288745880127,-1.3119158744812012,0.7004649639129639,0.8774561285972595,-0.11549422144889832,-0.1109270229935646,0.05440651252865791,-1.3035790920257568
204,144994,144996,-0.10368192195892334,0.03250274807214737,1.0393834114074707,-0.9885748028755188,4.920037746429443,-1.3800767660140991,0.6899654865264893,0.8729563355445862,-0.13499325513839722,-0.11223766207695007,0.03438660874962807,-1.316543698310852
205,145004,145006,-0.13043160736560822,-0.02233843319118023,0.9905148148536682,-1.6049126386642456,0.30595773458480835,-0.9994522929191589,0.6869656443595886,0.8819558620452881,-0.12899354100227356,-0.1433086097240448,0.08309430629014969,-1.3259923458099365
206,145014,145016,-0.14166739583015442,0.06452363729476929,1.042599081993103,-1.3071448802947998,-2.07958984375,-1.1182279586791992,0.691465437412262,0.8744562864303589,-0.13649317622184753,-0.12686164677143097,0.05041800066828728,-1.3381733894348145
207,145024,145026,-0.08146848529577255,0.017145926132798195,1.0313453674316406,-0.2849597632884979,-4.889498233795166,-1.2394306659698486,0.7004649639129639,0.8744562864303589,-0.13949301838874817,-0.07248569279909134,0.03765116259455681,-1.3474013805389404
208,145034,145036,-0.6814466714859009,-0.4685993492603302,1.0087436437606812,-0.16699057817459106,-5.625351428985596,-0.8855515122413635,0.676466166973114,0.8714563846588135,-0.13649317622184753,-0.13218121230602264,0.10171350091695786,-1.3578380346298218
209,145044,145046,-1.1844875812530518,-0.32363173365592957,0.9912444353103638,0.28082475066185,-5.964256763458252,-0.7042196393013,0.6974651217460632,0.8714563846588135,-0.13949301838874817,-0.030832145363092422,0.08961638808250427,-1.366013526916504
210,145054,145056,-0.9426537752151489,-0.46879562735557556,1.0278489589691162,0.0231306329369545,-6.677722454071045,-0.6072425842285156,0.6779661178588867,0.8699564933776855,-0.13499325513839722,0.015255216509103775,0.08249591290950775,-1.3724665641784668
211,145064,145066,-0.41770339012145996,-0.3716214597225189,1.02989661693573,-2.061912775039673,-2.2334787845611572,-0.17900827527046204,0.6929653286933899,0.8699564933776855,-0.13499325513839722,0.08736290782690048,-0.017278866842389107,-1.3806023597717285
212,145074,145076,0.0055318959057331085,-0.21983562409877777,0.9793593287467957,-3.3104071617126465,-0.3560861349105835,-0.4389936327934265,0.7004649639129639,0.8744562864303589,-0.14249287545681,0.11198457330465317,0.07202430814504623,-1.382401943206787
213,145084,145086,-0.01767391338944435,-0.1614287793636322,1.0271981954574585,-5.044539928436279,1.1317874193191528,-0.5969239473342896,0.6869656443595886,0.8729563355445862,-0.13499325513839722,0.10933955013751984,0.062185268849134445,-1.3883018493652344
214,145094,145096,0.05451931804418564,0.041685622185468674,1.0158487558364868,-4.084351539611816,2.7827906608581543,-1.2334380149841309,0.6974651217460632,0.8804559707641602,-0.13049347698688507,0.07171383500099182,-0.023812977597117424,-1.3958052396774292
215,145104,145106,-0.008009362034499645,0.10484316945075989,0.8722152709960938,-3.937800168991089,1.780814290046692,-1.1215252876281738,0.6974651217460632,0.8684565424919128,-0.13649317622184753,0.03885914385318756,-0.09978722035884857,-1.4063843488693237
216,145114,145116,-0.09705717861652374,-0.003138663712888956,1.0040262937545776,-5.0249552726745605,-0.027078911662101746,-1.3078999519348145,0.6899654865264893,0.8759561777114868,-0.14099295437335968,0.1052330732345581,-0.043182142078876495,-1.4170578718185425
217,145124,145126,-0.13938525319099426,-0.02739451825618744,0.9903892278671265,-2.8234472274780273,0.7989175915718079,-0.6419283151626587,0.6899654865264893,0.8819558620452881,-0.12899354100227356,0.08925729990005493,-0.18703974783420563,-1.4267756938934326
218,145134,145136,-0.05781380459666252,-0.06297668814659119,1.021593689918518,-1.638247013092041,-0.7229986190795898,-0.8857031464576721,0.6899654865264893,0.8879556059837341,-0.12899354100227356,0.09762538969516754,-0.23012082278728485,-1.434162974357605
219,145144,145146,-0.2672363817691803,-0.08826548606157303,1.145926833152771,-0.7316278219223022,1.6792654991149902,-1.2956303358078003,0.6824658513069153,0.8864556550979614,-0.1334933191537857,0.07923717796802521,-0.18354350328445435,-1.4444588422775269
220,145154,145156,-0.17752306163311005,-0.06865228712558746,1.0573420524597168,0.9112844467163086,1.7309339046478271,-1.0246742963790894,0.6794660091400146,0.8804559707641602,-0.12449377030134201,0.05345986783504486,-0.18587644398212433,-1.456315040588379
221,145164,145166,-0.041237469762563705,-0.09819459915161133,0.9953527450561523,0.05358515679836273,3.600456714630127,-0.9992803335189819,0.7034648060798645,0.8864556550979614,-0.13049347698688507,0.003997213672846556,-0.26141563057899475,-1.4662847518920898
222,145174,145176,-0.025611205026507378,0.01751168631017208,0.979544460773468,-0.30486929416656494,3.6618406772613525,-1.0010920763015747,0.6824658513069153,0.8864556550979614,-0.14549271762371063,-0.052010565996170044,-0.19463950395584106,-1.4768872261047363
223,145184,145186,-0.09960819035768509,0.049481842666864395,0.9014678597450256,-0.7249080538749695,2.5304596424102783,-1.0102125406265259,0.6779661178588867,0.896955132484436,-0.1229938492178917,-0.0976407378911972,-0.2106853574514389,-1.4864141941070557
224,145194,145196,0.0013486226089298725,0.06270658224821091,0.9168236255645752,-0.5620375275611877,0.37229201197624207,-1.3429471254348755,0.6719663739204407,0.8909554481506348,-0.12899354100227356,-0.11220142245292664,-0.22589457035064697,-1.4979432821273804
225,145204,145206,-0.01236086618155241,-0.3223269283771515,1.0474773645401,-0.25173166394233704,-1.7592592239379883,-1.4682927131652832,0.691465437412262,0.8894554972648621,-0.13649317622184753,-0.0234714113175869,-0.23767045140266418,-1.515015721321106
226,145214,145216,-0.011744427494704723,-0.1786552369594574,1.038158893585205,0.4564891457557678,-3.1101012229919434,-0.6468440890312195,0.6884655356407166,0.8894554972648621,-0.11549422144889832,0.02068701945245266,-0.23830707371234894,-1.5278630256652832
227,145224,145226,-0.1301688849925995,-0.046861432492733,1.136861801147461,0.3387541174888611,-1.8092668056488037,-0.9968640804290771,0.683965802192688,0.8909554481506348,-0.1319933980703354,-0.01490242499858141,-0.2374715507030487,-1.534015417098999
228,145234,145236,-0.09606605768203735,-0.04469228908419609,1.0477946996688843,1.286083459854126,1.0398328304290771,-0.47012820839881897,0.6824658513069153,0.8864556550979614,-0.13049347698688507,-0.0064231641590595245,-0.23143531382083893,-1.5418527126312256
229,145244,145246,-0.028658704832196236,-0.10909634083509445,1.0145061016082764,0.0549805574119091,2.6422646045684814,-0.7131280303001404,0.683965802192688,0.8879556059837341,-0.12599369883537292,-0.03171593323349953,-0.16043919324874878,-1.5478357076644897
230,145254,145256,0.04594529792666435,-0.02902420423924923,0.9251693487167358,0.837149441242218,5.52424955368042,-0.8855980038642883,0.6719663739204407,0.9029548168182373,-0.13499325513839722,-0.1048322468996048,-0.15791629254817963,-1.5550097227096558
231,145264,145266,0.07774116098880768,0.09245560318231583,0.8907507061958313,-0.12011799216270447,3.242861747741699,-1.003994345664978,0.6944652795791626,0.8834558129310608,-0.13049347698688507,-0.16145235300064087,-0.09026843309402466,-1.5639783143997192
232,145274,145276,-0.08339379727840424,0.07389600574970245,0.9578390717506409,-0.6955195069313049,1.7914507389068604,-0.8544803261756897,0.6854656934738159,0.8924553394317627,-0.14249287545681,-0.12619060277938843,-0.11125227063894272,-1.5754321813583374
233,145284,145286,-0.36443576216697693,0.016715435311198235,1.0401644706726074,-1.0175528526306152,-1.2367652654647827,-1.1863738298416138,0.6824658513069153,0.8774561285972595,-0.13649317622184753,-0.11987021565437317,-0.13555438816547394,-1.586512804031372
234,145294,145296,-0.4747837483882904,0.0250838752835989,1.1091487407684326,-2.2808873653411865,-2.4313857555389404,-0.5156629681587219,0.6824658513069153,0.8864556550979614,-0.13049347698688507,-0.01599462702870369,-0.17422927916049957,-1.5976734161376953
235,145304,145306,-0.31374746561050415,0.010313122533261776,1.018973469734192,-2.087968111038208,-0.5293793082237244,-0.4890800714492798,0.6974651217460632,0.8804559707641602,-0.12749361991882324,-0.07439320534467697,-0.14772671461105347,-1.600979208946228
236,145314,145316,-0.16380266845226288,-0.19322560727596283,0.9622743129730225,-1.714290738105774,1.3624087572097778,-0.45167219638824463,0.6884655356407166,0.8984550833702087,-0.13949301838874817,-0.14984412491321564,-0.18753236532211304,-1.6040974855422974
237,145324,145326,-0.07520641386508942,-0.2505381405353546,0.9977949261665344,-2.0531208515167236,0.29209280014038086,-0.6376388072967529,0.6899654865264893,0.8909554481506348,-0.12599369883537292,-0.14868749678134918,-0.22810402512550354,-1.6107860803604126
238,145334,145336,-0.1946755051612854,-0.06323856115341187,0.9487252235412598,-1.4241527318954468,0.17124894261360168,-0.6865646839141846,0.6869656443595886,0.8939552903175354,-0.12899354100227356,-0.14980699121952057,-0.2629832625389099,-1.6156083345413208
239,145344,145346,-0.7696815729141235,0.15705549716949463,0.9699225425720215,-1.4028066396713257,-0.5734903216362,-0.3789815902709961,0.6899654865264893,0.8939552903175354,-0.12899354100227356,-0.14319635927677155,-0.29202887415885925,-1.6230800151824951
240,145354,145356,-0.385253369808197,-0.17279069125652313,0.9494993686676025,0.9116380214691162,-0.9075700044631958,-0.23207610845565796,0.6734663248062134,0.8894554972648621,-0.12749361991882324,-0.06265215575695038,-0.2945125102996826,-1.629852533340454
241,145364,145366,-0.21253883838653564,-0.29979321360588074,1.0716840028762817,2.0274410247802734,-2.4041643142700195,-0.33652737736701965,0.6809659600257874,0.8939552903175354,-0.11699414998292923,-0.09816743433475494,-0.27476757764816284,-1.6307342052459717
242,145374,145376,-0.6673247218132019,-0.24947023391723633,1.0599279403686523,3.0497918128967285,-2.2594432830810547,0.11796695739030838,0.691465437412262,0.8864556550979614,-0.12449377030134201,-0.05220497399568558,-0.3040427267551422,-1.6324645280838013
243,145384,145386,-0.7007253170013428,-0.14417017996311188,0.9224784970283508,2.2827765941619873,1.5213159322738647,-0.1923188418149948,0.6869656443595886,0.8909554481506348,-0.13799309730529785,-0.05721904709935188,-0.2584396004676819,-1.633314847946167
244,145394,145396,-0.3507452607154846,-0.10422835499048233,0.8948806524276733,2.366179943084717,0.3570188879966736,-0.8170046210289001,0.6899654865264893,0.8819558620452881,-0.113994300365448,-0.0030905171297490597,-0.2186049371957779,-1.6406112909317017
245,145404,145406,-0.009087398648262024,0.07454711198806763,0.9113609790802002,1.2892003059387207,-0.8898042440414429,-0.21522343158721924,0.6884655356407166,0.8864556550979614,-0.12749361991882324,-0.06596935540437698,-0.12844474613666534,-1.6427401304244995
246,145414,145416,0.06751282513141632,-0.048197053372859955,0.9659553170204163,2.358607053756714,-0.7953266501426697,-0.05366086587309837,0.6884655356407166,0.8864556550979614,-0.13049347698688507,-0.05463986098766327,-0.10139358043670654,-1.6441243886947632
247,145424,145426,-0.1178717166185379,-0.29983019828796387,1.013545274734497,1.6192049980163574,-0.384396493434906,0.25807374715805054,0.6899654865264893,0.8909554481506348,-0.13799309730529785,0.02490590326488018,-0.08256188035011292,-1.6467552185058594
248,145434,145436,-0.21644388139247894,-0.31350958347320557,0.9847608208656311,1.614877700805664,1.1587176322937012,-0.31342563033103943,0.6884655356407166,0.8894554972648621,-0.12449377030134201,-0.04829775169491768,-0.06678427755832672,-1.6444191932678223
249,145444,145446,-0.4902259111404419,-0.33672311902046204,1.115665078163147,-0.7214891910552979,-1.9005260467529297,0.40055420994758606,0.6944652795791626,0.8774561285972595,-0.12449377030134201,-0.028360968455672264,-0.06785744428634644,-1.6457445621490479
250,145454,145456,-0.13803867995738983,-0.24443058669567108,1.0136336088180542,-2.2753517627716064,-0.3183157444000244,0.23624765872955322,0.6884655356407166,0.8774561285972595,-0.13049347698688507,-0.0871250182390213,-0.23928414285182953,-1.6417008638381958
251,145464,145466,-0.4153314530849457,0.07403188198804855,1.0209649801254272,-4.114475250244141,-1.7378841638565063,0.861198902130127,0.6854656934738159,0.8834558129310608,-0.12449377030134201,-0.05811667442321777,-0.15606550872325897,-1.6352776288986206
252,145474,145476,-0.42446598410606384,0.15863080322742462,0.8023281097412109,-2.3141863346099854,1.4656274318695068,1.022966742515564,0.6854656934738159,0.8834558129310608,-0.11549422144889832,-0.06252220273017883,-0.2050624042749405,-1.6275030374526978
253,145484,145486,-0.5901604890823364,-0.10636855661869049,1.0706367492675781,0.10980224609375,-2.447434663772583,0.4417940378189087,0.6809659600257874,0.8789560198783875,-0.11999399960041046,-0.029843643307685852,-0.22110551595687866,-1.6212975978851318
254,145494,145496,-0.6437484622001648,-0.3917269706726074,1.0197035074234009,3.0091726779937744,0.0527341403067112,1.0861780643463135,0.6884655356407166,0.8684565424919128,-0.12749361991882324,-0.0205776896327734,-0.19391386210918427,-1.6121398210525513
255,145504,145506,-0.279354453086853,-0.2390752136707306,0.9780744314193726,1.8610217571258545,-3.300489902496338,0.19482769072055817,0.6884655356407166,0.8774561285972595,-0.12149392068386078,0.02344980090856552,-0.15884238481521606,-1.6068480014801025
256,145514,145516,-0.150621235370636,-0.1197737529873848,0.9929696321487427,3.2055325508117676,-3.8924379348754883,0.4218127429485321,0.6944652795791626,0.8864556550979614,-0.11849407106637955,0.0809306874871254,-0.18366149067878723,-1.6050598621368408
257,145524,145526,-0.33035001158714294,-0.012044109404087067,0.9985458850860596,1.944333553314209,-3.9950802326202393,0.40558671951293945,0.6944652795791626,0.8864556550979614,-0.11849407106637955,0.13604460656642914,-0.1412784606218338,-1.6008292436599731
258,145534,145536,-0.3293086290359497,-0.12708906829357147,1.0904994010925293,1.591597557067871,-4.7179059982299805,0.41059592366218567,0.6944652795791626,0.8864556550979614,-0.11849407106637955,0.14359509944915771,-0.043961066752672195,-1.5969607830047607
259,145544,145546,-0.36497563123703003,-0.4187529385089874,1.009566307067871,2.020447254180908,0.1108144223690033,1.1907010078430176,0.6794660091400146,0.8804559707641602,-0.13049347698688507,0.17574165761470795,-0.022155005484819412,-1.5896810293197632
260,145554,145556,-0.2039169818162918,-0.5343895554542542,0.9541453123092651,1.3994518518447876,2.5831847190856934,1.3605331182479858,0.6974651217460632,0.8834558129310608,-0.13049347698688507,0.07997329533100128,-0.13716022670269012,-1.573641300201416
261,145564,145566,-0.6603313684463501,-0.20369456708431244,0.901910126209259,0.8087150454521179,3.4154067039489746,0.8795303702354431,0.6809659600257874,0.8639568090438843,-0.13499325513839722,0.029531879350543022,-0.11507779359817505,-1.5624438524246216
262,145574,145576,-1.0111068487167358,-0.012279617600142956,0.9400091767311096,-1.1426271200180054,-0.5007386803627014,0.8285584449768066,0.691465437412262,0.8744562864303589,-0.12749361991882324,0.020208390429615974,0.022037943825125694,-1.5518426895141602
263,145584,145586,-0.5002599358558655,-0.012318970635533333,0.9340932965278625,-0.4491085112094879,-1.8785969018936157,1.2602628469467163,0.6824658513069153,0.8804559707641602,-0.14249287545681,0.03827209398150444,0.004697926342487335,-1.5405911207199097
264,145594,145596,-0.37086188793182373,0.0030586246866732836,0.9472596049308777,-0.4500426948070526,-2.5276286602020264,1.0898735523223877,0.691465437412262,0.8834558129310608,-0.13049347698688507,0.08083513379096985,-0.009030541405081749,-1.5295674800872803
265,145604,145606,-0.9428756237030029,-0.1335461586713791,1.0246710777282715,-0.37908563017845154,-3.0011789798736572,1.1193344593048096,0.6974651217460632,0.8684565424919128,-0.12149392068386078,0.0645500123500824,-0.16383393108844757,-1.5188324451446533
266,145614,145616,-0.7832261323928833,-0.16737811267375946,1.0491478443145752,-0.9517591595649719,-2.4162254333496094,1.1225121021270752,0.7019649147987366,0.8759561777114868,-0.13499325513839722,0.11302795261144638,-0.16588960587978363,-1.508474349975586
267,145624,145626,-0.3559599816799164,-0.07651515305042267,0.9980318546295166,-2.3756461143493652,-3.7069296836853027,0.7222760915756226,0.6989650130271912,0.8669566512107849,-0.1319933980703354,0.1800786256790161,-0.19040337204933167,-1.499383807182312
268,145634,145636,0.014277946203947067,0.1176154762506485,1.0006996393203735,-2.276595115661621,-2.107180118560791,1.5649827718734741,0.7019649147987366,0.8609569072723389,-0.13499325513839722,0.22358618676662445,-0.14985588192939758,-1.4913148880004883
269,145644,145646,0.029682667925953865,0.033017076551914215,0.9794847369194031,-0.3613457977771759,-3.519482135772705,0.21407262980937958,0.6944652795791626,0.8684565424919128,-0.14849257469177246,0.272629976272583,-0.16464266180992126,-1.4805346727371216
270,145654,145656,-0.28999343514442444,-0.10150066018104553,1.0276803970336914,0.9063302278518677,-2.192392110824585,0.11887054145336151,0.6899654865264893,0.8639568090438843,-0.1319933980703354,0.31062233448028564,-0.15501569211483002,-1.478381872177124
271,145664,145666,-0.15091606974601746,-0.005637177731841803,1.0582736730575562,1.1442961692810059,-0.2754935622215271,0.6217052340507507,0.6944652795791626,0.8624568581581116,-0.12749361991882324,0.320832759141922,-0.13703873753547668,-1.4744906425476074
272,145674,145676,-0.173365980386734,-0.07469751685857773,1.0039693117141724,1.9707087278366089,1.9711400270462036,0.336877703666687,0.6959651708602905,0.8609569072723389,-0.13499325513839722,0.23037709295749664,-0.11176278442144394,-1.4677423238754272
273,145684,145686,-0.2964194715023041,-0.05516977980732918,1.014497995376587,1.2505029439926147,4.063099384307861,0.9214678406715393,0.7019649147987366,0.8579570651054382,-0.12599369883537292,0.18746861815452576,-0.08692015707492828,-1.4635156393051147
274,145694,145696,-0.13608334958553314,-0.07881377637386322,1.0618079900741577,1.5048788785934448,4.8442158699035645,0.32813549041748047,0.7049647569656372,0.8639568090438843,-0.12899354100227356,0.11636126786470413,-0.06624859571456909,-1.4552843570709229
275,145704,145706,-0.09768424183130264,-0.10534889996051788,1.0463234186172485,-0.9877011775970459,2.3032402992248535,0.9479905366897583,0.7004649639129639,0.8684565424919128,-0.13049347698688507,0.07654663175344467,-0.06971146911382675,-1.4501820802688599
276,145714,145716,0.02651236206293106,0.011984877288341522,1.0165399312973022,-1.9805538654327393,2.467651128768921,1.2071551084518433,0.7109644412994385,0.8609569072723389,-0.14099295437335968,0.03785011172294617,-0.09081307053565979,-1.4384406805038452
277,145724,145726,-0.005371745675802231,-6.469829531852156e-05,1.0163383483886719,-2.5236525535583496,-3.4067294597625732,0.8325423002243042,0.7019649147987366,0.8609569072723389,-0.14699265360832214,0.0711965262889862,-0.1292012333869934,-1.4279273748397827
278,145734,145736,-0.009984162636101246,-0.004069893155246973,1.0631341934204102,-3.952854633331299,-5.830909729003906,0.760871410369873,0.7004649639129639,0.850457489490509,-0.1334933191537857,0.15660661458969116,-0.18168683350086212,-1.4193140268325806
279,145744,145746,-0.00029929718584753573,0.1522974967956543,1.083361029624939,-3.7436647415161133,-5.931568145751953,0.6320613622665405,0.7034648060798645,0.8714563846588135,-0.12749361991882324,0.2525682747364044,-0.24006107449531555,-1.4128355979919434
280,145754,145756,0.05875655636191368,0.0997670590877533,0.9787455797195435,-1.6638624668121338,-6.8284430503845215,1.232453465461731,0.6929653286933899,0.8759561777114868,-0.1319933980703354,0.3629792034626007,-0.20532841980457306,-1.4054856300354004
281,145764,145766,-0.003728554118424654,0.05609355866909027,0.9624203443527222,0.45247605443000793,-4.842155933380127,0.3678925335407257,0.6944652795791626,0.8594570159912109,-0.14549271762371063,0.44524016976356506,-0.21118125319480896,-1.3965528011322021
282,145774,145776,0.005698448047041893,0.026102248579263687,1.0173916816711426,2.3100106716156006,-1.6596239805221558,0.7613776326179504,0.6884655356407166,0.8624568581581116,-0.13649317622184753,0.4786927103996277,-0.18507882952690125,-1.387774109840393
283,145784,145786,0.13276295363903046,0.14295168220996857,0.9478769302368164,4.086348533630371,4.313663482666016,1.0752019882202148,0.7049647569656372,0.8699564933776855,-0.1319933980703354,0.43592214584350586,-0.1274767965078354,-1.379285216331482
284,145794,145796,-0.3688049912452698,-0.12314707040786743,1.0883376598358154,4.619746208190918,3.476642370223999,1.264076590538025,0.6959651708602905,0.851957380771637,-0.13499325513839722,0.38346561789512634,-0.12704548239707947,-1.365242838859558
285,145804,145806,-0.4481940269470215,-0.3099648058414459,1.2111129760742188,3.3612401485443115,7.3812360763549805,1.4964622259140015,0.7079645991325378,0.8609569072723389,-0.1319933980703354,0.2819313406944275,-0.0688394084572792,-1.3502631187438965
286,145814,145816,-0.06504403054714203,-0.12990623712539673,1.1181681156158447,0.7024404406547546,10.414894104003906,1.4822009801864624,0.7079645991325378,0.8669566512107849,-0.13499325513839722,0.129697784781456,-0.037930283695459366,-1.3367576599121094
287,145824,145826,-0.0153492521494627,-0.38490745425224304,1.0750293731689453,-0.1274130791425705,9.111358642578125,1.3407340049743652,0.7049647569656372,0.8669566512107849,-0.13499325513839722,-0.017189446836709976,-0.10588793456554413,-1.32000732421875
288,145834,145836,-0.0358101949095726,-0.8410264849662781,1.0323892831802368,-1.7023531198501587,5.7158942222595215,1.4110788106918335,0.7034648060798645,0.8564571738243103,-0.12749361991882324,-0.12464021891355515,-0.11811007559299469,-1.306557536125183
289,145844,145846,-0.044326428323984146,-0.546820342540741,1.0325031280517578,-2.599104166030884,-0.006360246799886227,1.5145972967147827,0.6884655356407166,0.8774561285972595,-0.12749361991882324,-0.07299383729696274,-0.1502566933631897,-1.2951452732086182
290,145854,145856,-0.07628180831670761,-0.36647307872772217,1.0730812549591064,-0.6133542656898499,-3.582756757736206,1.6931285858154297,0.7019649147987366,0.8789560198783875,-0.13499325513839722,-0.042289603501558304,-0.16709871590137482,-1.2797577381134033
291,145864,145866,-0.23234017193317413,-0.29577532410621643,1.1837170124053955,-0.1365131437778473,-12.585979461669922,1.745465874671936,0.7004649639129639,0.8774561285972595,-0.11849407106637955,0.11610395461320877,-0.16506026685237885,-1.262973427772522
292,145874,145876,0.0209442637860775,-0.02082250453531742,1.0540211200714111,2.489860773086548,-10.311087608337402,1.9461110830307007,0.6944652795791626,0.8684565424919128,-0.1334933191537857,0.28352007269859314,-0.06319436430931091,-1.246440052986145
293,145884,145886,-0.11268588900566101,-0.5596231818199158,1.0135995149612427,3.556520938873291,-12.245601654052734,2.1321146488189697,0.6884655356407166,0.8834558129310608,-0.14249287545681,0.466499000787735,-0.07559870928525925,-1.2259033918380737
294,145894,145896,-0.3591083288192749,-0.2516114413738251,1.054993748664856,5.040692329406738,-8.7316312789917,2.3863461017608643,0.6824658513069153,0.8804559707641602,-0.13649317622184753,0.5403475761413574,0.002185830380767584,-1.203660488128662
295,145904,145906,-0.4434664845466614,-0.12192438542842865,1.0249323844909668,5.271244525909424,-1.6405956745147705,2.9073233604431152,0.683965802192688,0.8789560198783875,-0.11999399960041046,0.5937013030052185,-0.048249028623104095,-1.1732563972473145
296,145914,145916,-0.15539395809173584,-0.010015953332185745,0.9899418354034424,5.6158952713012695,4.485106945037842,2.7712557315826416,0.6869656443595886,0.8909554481506348,-0.11099445074796677,0.4722863733768463,0.04504776746034622,-1.1444882154464722
297,145924,145926,-0.7856459617614746,-0.2567293047904968,1.1262110471725464,4.62882137298584,9.498563766479492,3.444732189178467,0.6944652795791626,0.9074546098709106,-0.12149392068386078,0.3522163927555084,0.06110966578125954,-1.1125636100769043
298,145934,145936,-1.0237983465194702,-0.461428701877594,1.0593289136886597,4.091116428375244,15.89693832397461,2.241060733795166,0.6929653286933899,0.9059546589851379,-0.13799309730529785,0.19982030987739563,0.07130090147256851,-1.0799179077148438
299,145944,145946,-1.5658067464828491,-0.3576265871524811,1.1261662244796753,2.3407914638519287,12.013026237487793,2.065833568572998,0.6854656934738159,0.8924553394317627,-0.12149392068386078,-0.013802607543766499,0.26893800497055054,-1.065411925315857
300,145954,145956,-0.8488537669181824,-0.0021393506322056055,0.9804307818412781,1.3203250169754028,13.401991844177246,1.843259572982788,0.6734663248062134,0.9104544520378113,-0.12449377030134201,-0.227699413895607,0.16171039640903473,-1.0397264957427979
301,145964,145966,-1.0750640630722046,-0.055939994752407074,0.942596435546875,0.5177062153816223,5.84318733215332,1.9023138284683228,0.6989650130271912,0.9059546589851379,-0.113994300365448,-0.2921641767024994,0.18576200306415558,-1.0204330682754517
302,145974,145976,-0.46347442269325256,-0.1386406123638153,0.9734517931938171,-0.02443154901266098,-1.2137318849563599,1.6815614700317383,0.676466166973114,0.9074546098709106,-0.12149392068386078,-0.18234290182590485,0.19696864485740662,-0.9989599585533142
303,145984,145986,-0.13826008141040802,-0.44497212767601013,0.9459154009819031,-0.033665478229522705,-6.402523040771484,2.376880645751953,0.6779661178588867,0.8939552903175354,-0.12599369883537292,-0.25654324889183044,0.2708881199359894,-0.9832161068916321
304,145994,145996,-0.019289501011371613,-0.22019986808300018,0.9750195145606995,-0.7195889949798584,-10.104391098022461,2.438166379928589,0.683965802192688,0.9029548168182373,-0.1229938492178917,-0.10267623513936996,0.19391493499279022,-0.9567566514015198
305,146004,146006,-0.23737077414989471,-0.17462001740932465,0.9052613377571106,0.38335981965065,-11.362531661987305,2.5421879291534424,0.6704664826393127,0.9074546098709106,-0.10949452221393585,0.07522757351398468,0.20345191657543182,-0.9300857186317444
306,146014,146016,-0.110019750893116,-0.04033852741122246,0.9410253167152405,-0.8020068407058716,-12.82633113861084,2.3959310054779053,0.6704664826393127,0.9014549255371094,-0.11849407106637955,0.2731560170650482,0.19955550134181976,-0.9032376408576965
307,146024,146026,-0.141696497797966,-0.26967063546180725,0.9805616736412048,-0.4807731509208679,-9.415059089660645,1.9913500547409058,0.6824658513069153,0.9014549255371094,-0.13049347698688507,0.43288809061050415,0.26520946621894836,-0.8823328018188477
308,146034,146036,-0.2797977328300476,-0.027225695550441742,0.9609867334365845,1.093010663986206,-2.841946601867676,2.0093119144439697,0.6809659600257874,0.9059546589851379,-0.11999399960041046,0.5042039752006531,0.203987717628479,-0.8605089783668518
309,146044,146046,-0.1434815376996994,-0.04690459370613098,0.9232023358345032,0.9280094504356384,3.5598385334014893,1.6054576635360718,0.6824658513069153,0.8954551815986633,-0.1334933191537857,0.481173038482666,0.21675994992256165,-0.8443877696990967
310,146054,146056,-0.1253625452518463,-0.03811756521463394,0.8619601130485535,1.3246990442276,9.990729331970215,1.5799914598464966,0.6779661178588867,0.8939552903175354,-0.14099295437335968,0.41545170545578003,0.1009063869714737,-0.8236063718795776
311,146064,146066,-0.08687682449817657,0.09660249948501587,0.8776876330375671,0.2986513674259186,12.943536758422852,1.1182470321655273,0.691465437412262,0.8894554972648621,-0.11549422144889832,0.2782176434993744,0.121506467461586,-0.8110968470573425
312,146074,146076,-0.016042223200201988,0.06285030394792557,1.0130881071090698,1.679715871810913,12.420393943786621,0.23867806792259216,0.691465437412262,0.8774561285972595,-0.12149392068386078,0.0698099136352539,0.14832447469234467,-0.8065716028213501
313,146084,146086,-0.09774398058652878,-0.03997622802853584,1.0923664569854736,2.267620086669922,13.128127098083496,-0.06817227602005005,0.6899654865264893,0.8849557638168335,-0.12599369883537292,-0.14347228407859802,0.1898900866508484,-0.8074299693107605
314,146094,146096,-0.011087935417890549,0.014194528572261333,1.01250422000885,2.869098663330078,11.512091636657715,-0.6050290465354919,0.6884655356407166,0.8804559707641602,-0.11249437183141708,-0.13002242147922516,0.2367769181728363,-0.8067479133605957
315,146104,146106,-0.13732324540615082,-0.017871739342808723,0.9293542504310608,1.2487212419509888,6.11923885345459,-0.9387017488479614,0.6809659600257874,0.8729563355445862,-0.13499325513839722,-0.20321696996688843,0.2746550440788269,-0.8106235265731812
316,146114,146116,-0.015694210305809975,0.12713482975959778,0.9550462961196899,0.4361322224140167,0.7397612929344177,-0.8140407800674438,0.6974651217460632,0.8714563846588135,-0.1334933191537857,-0.12753494083881378,0.2885754704475403,-0.8144048452377319
317,146124,146126,0.05158700793981552,0.02803022414445877,1.0215792655944824,-0.3858036994934082,-5.502700328826904,-0.4738253951072693,0.6899654865264893,0.8759561777114868,-0.12899354100227356,-0.09244699776172638,0.22008855640888214,-0.818269670009613
318,146134,146136,-0.002538381377235055,-0.02895764634013176,1.0075494050979614,0.1389523595571518,-4.445018291473389,-0.3320230543613434,0.6869656443595886,0.8699564933776855,-0.1319933980703354,-0.10868097096681595,0.22828280925750732,-0.8264752626419067
319,146144,146146,-0.009598031640052795,-0.0015480287838727236,0.9663536548614502,-0.8548932075500488,-2.7204227447509766,-0.1656966209411621,0.6809659600257874,0.8759561777114868,-0.1319933980703354,-0.06173604726791382,0.22198334336280823,-0.8284464478492737
320,146154,146156,-0.033477410674095154,0.018794676288962364,1.0007870197296143,-1.6418670415878296,-0.31837818026542664,-0.1868596225976944,0.7019649147987366,0.8699564933776855,-0.13499325513839722,-0.04968084394931793,0.20168426632881165,-0.8309124708175659
321,146164,146166,-0.13535872101783752,-0.0646599531173706,0.8927740454673767,-2.1372151374816895,4.202374458312988,-0.6564103364944458,0.6824658513069153,0.8654567003250122,-0.13049347698688507,-0.10982096195220947,0.17860454320907593,-0.8372880816459656
322,146174,146176,-0.120954729616642,-0.15366220474243164,0.9705363512039185,0.7396581768989563,4.257962703704834,-0.854408860206604,0.691465437412262,0.8624568581581116,-0.12749361991882324,-0.11625298857688904,0.17988978326320648,-0.8404942154884338
323,146184,146186,-0.03563585504889488,-0.07183391600847244,1.0848313570022583,0.5702837705612183,4.825003623962402,-0.4629935026168823,0.6974651217460632,0.8714563846588135,-0.12749361991882324,-0.20182040333747864,0.19379661977291107,-0.850117027759552
324,146194,146196,-0.08511830121278763,-0.08049504458904266,1.126971960067749,2.827073335647583,7.369692802429199,-0.39738526940345764,0.6959651708602905,0.8549572229385376,-0.13499325513839722,-0.2480006366968155,0.2964118421077728,-0.8497320413589478
325,146204,146206,-0.07482039928436279,-0.1519935578107834,1.0173567533493042,3.0118885040283203,7.745589256286621,-0.6438397765159607,0.691465437412262,0.8684565424919128,-0.14249287545681,-0.38438722491264343,0.3435263931751251,-0.8561456203460693
326,146214,146216,-0.03699585050344467,-0.13035424053668976,1.046148419380188,0.7305223941802979,5.7711920738220215,-0.7832925319671631,0.6929653286933899,0.8789560198783875,-0.13499325513839722,-0.4940689504146576,0.3639288544654846,-0.8660740852355957
327,146224,146226,0.013900860212743282,-0.008689268492162228,1.014566421508789,-0.3858833611011505,3.186110734939575,-0.7674601078033447,0.6899654865264893,0.8729563355445862,-0.13799309730529785,-0.49407249689102173,0.29314130544662476,-0.8732280135154724
328,146234,146236,-0.010626474395394325,-0.0834270566701889,0.9573931694030762,-2.158665657043457,-0.21130435168743134,0.24580588936805725,0.6824658513069153,0.8684565424919128,-0.12449377030134201,-0.5239378809928894,0.34121230244636536,-0.8740213513374329
329,146244,146246,0.005202447529882193,0.019103284925222397,0.988528847694397,-4.955662250518799,-4.186376094818115,-0.6657131910324097,0.6899654865264893,0.8789560198783875,-0.1319933980703354,-0.48580577969551086,0.27349841594696045,-0.8757018446922302
330,146254,146256,-0.004063406027853489,-0.15603265166282654,0.9859781861305237,-4.413854598999023,-5.936413764953613,-0.17775772511959076,0.683965802192688,0.8819558620452881,-0.13499325513839722,-0.4126793146133423,0.19563135504722595,-0.8781072497367859
331,146264,146266,-0.09033061563968658,-0.18526755273342133,1.085487723350525,-4.582177639007568,-8.191261291503906,0.22771087288856506,0.6779661178588867,0.8729563355445862,-0.12899354100227356,-0.29149845242500305,0.1908816695213318,-0.8739266395568848
332,146274,146276,-0.23198166489601135,-0.14681515097618103,1.1338270902633667,-2.690495491027832,-3.705366373062134,0.6956809163093567,0.6779661178588867,0.8729563355445862,-0.12899354100227356,-0.21607571840286255,0.13077515363693237,-0.8713904023170471
333,146284,146286,-0.1774941235780716,-0.0036371638998389244,1.0135101079940796,-0.8756266832351685,-0.2577386498451233,0.3848695456981659,0.6779661178588867,0.8729563355445862,-0.12899354100227356,-0.19546225666999817,0.1047050878405571,-0.8680111765861511
334,146294,146296,-0.19128704071044922,0.04476672783493996,1.0436413288116455,0.8465499877929688,2.375230073928833,-0.2664077579975128,0.6944652795791626,0.8714563846588135,-0.12749361991882324,-0.22198264300823212,0.10664411634206772,-0.8676634430885315
335,146304,146306,-0.055520787835121155,0.018163548782467842,0.8951038718223572,1.679986834526062,6.122159004211426,-0.08131889253854752,0.6869656443595886,0.8729563355445862,-0.12599369883537292,-0.31078165769577026,0.1308959275484085,-0.8711056113243103
336,146314,146316,-0.07876024395227432,0.02875591814517975,0.9504463076591492,1.7969592809677124,5.5254106521606445,0.19326545298099518,0.6944652795791626,0.8894554972648621,-0.12149392068386078,-0.26978135108947754,0.08582664281129837,-0.871052622795105
337,146324,146326,0.03930937126278877,0.030171077698469162,1.0085928440093994,1.6382232904434204,4.868176460266113,0.7401831150054932,0.6884655356407166,0.8804559707641602,-0.13049347698688507,-0.4403843879699707,0.11481263488531113,-0.8693218231201172
338,146334,146336,-0.012465357780456543,-0.027972163632512093,0.9848770499229431,1.255386233329773,3.572862148284912,0.6522271633148193,0.6794660091400146,0.8894554972648621,-0.12749361991882324,-0.44130221009254456,0.13829335570335388,-0.8607519268989563
339,146344,146346,-0.10197097063064575,-0.09540041536092758,1.1084576845169067,0.9877144694328308,0.18173904716968536,0.6670652031898499,0.6734663248062134,0.8954551815986633,-0.11849407106637955,-0.46664297580718994,0.15644660592079163,-0.8526540398597717
340,146354,146356,-0.14505815505981445,-0.18604302406311035,1.0233941078186035,-0.11243066936731339,0.007082177326083183,0.8812165260314941,0.6824658513069153,0.8744562864303589,-0.12449377030134201,-0.4702611565589905,0.16497422754764557,-0.845628559589386
341,146364,146366,-0.03375764563679695,0.0005809726426377892,1.0210115909576416,-0.9308331608772278,-2.3512861728668213,0.025268083438277245,0.691465437412262,0.8714563846588135,-0.14549271762371063,-0.3033371567726135,0.08523082733154297,-0.841374397277832
342,146374,146376,-0.008816169574856758,0.006155524402856827,1.0161319971084595,-1.6072324514389038,-3.8115293979644775,-0.09100687503814697,0.6899654865264893,0.8669566512107849,-0.12899354100227356,-0.4044646620750427,0.06644093245267868,-0.8446052670478821
343,146384,146386,-0.0440792515873909,-0.030803650617599487,0.9842275977134705,-1.8626697063446045,-3.97495698928833,0.3604135513305664,0.6794660091400146,0.8774561285972595,-0.13049347698688507,-0.34493836760520935,0.11308714002370834,-0.837120771408081
344,146394,146396,-0.0049304477870464325,0.13911958038806915,1.0387696027755737,-0.7993049025535583,-3.160973310470581,0.39603307843208313,0.6794660091400146,0.8624568581581116,-0.12149392068386078,-0.36354246735572815,0.09001480042934418,-0.8359071016311646
345,146404,146406,-0.046904344111680984,-0.013088291510939598,0.9781086444854736,0.7134071588516235,-1.260990858078003,0.8523122072219849,0.6899654865264893,0.8759561777114868,-0.12899354100227356,-0.19913089275360107,0.024953067302703857,-0.8285068869590759
346,146414,146416,-0.10473670065402985,-0.08434461802244186,1.114668369293213,1.0110145807266235,-0.9250738620758057,1.0071141719818115,0.6929653286933899,0.8699564933776855,-0.1229938492178917,-0.18955351412296295,0.11568562686443329,-0.8139810562133789
347,146424,146426,-0.049405232071876526,-0.04812844470143318,1.04152250289917,1.5237610340118408,2.3246710300445557,0.8211228847503662,0.6929653286933899,0.8789560198783875,-0.14099295437335968,-0.21734492480754852,0.13445119559764862,-0.804820716381073
348,146434,146436,0.0032223372254520655,-0.015289751812815666,1.002793550491333,1.3104108572006226,3.5106146335601807,0.7905117273330688,0.7019649147987366,0.8729563355445862,-0.13799309730529785,-0.27368900179862976,0.15468166768550873,-0.7973918318748474
349,146444,146446,-0.03521011024713516,0.001282470184378326,1.04204523563385,0.6593113541603088,4.905673027038574,0.5897423624992371,0.6854656934738159,0.8654567003250122,-0.13649317622184753,-0.20702220499515533,0.16755494475364685,-0.7883307933807373
350,146454,146456,-0.06949904561042786,-0.011417734436690807,0.9091652631759644,-0.597225546836853,4.744301795959473,0.7225122451782227,0.6809659600257874,0.8549572229385376,-0.13799309730529785,-0.30152854323387146,0.09561072289943695,-0.7884494066238403
351,146464,146466,-0.024360397830605507,0.029175564646720886,0.9963645339012146,-2.4156253337860107,2.2581090927124023,1.0965721607208252,0.6944652795791626,0.8834558129310608,-0.14249287545681,-0.4361442029476166,0.07307236641645432,-0.78227299451828
352,146474,146476,-0.08024318516254425,-0.20623712241649628,1.0459239482879639,-3.1877224445343018,0.9063588976860046,1.3380975723266602,0.6944652795791626,0.8594570159912109,-0.1334933191537857,-0.4646628797054291,0.10484551638364792,-0.7679746150970459
353,146484,146486,-0.007201623171567917,-0.0874679759144783,1.001287579536438,-2.3520562648773193,-0.22215700149536133,1.3256498575210571,0.6929653286933899,0.8579570651054382,-0.12899354100227356,-0.6160200238227844,0.05984131246805191,-0.75816810131073
354,146494,146496,-0.003375149331986904,0.02664712630212307,1.0115903615951538,-2.2144150733947754,-2.043330192565918,1.29142165184021,0.6854656934738159,0.8624568581581116,-0.13049347698688507,-0.5170916318893433,0.0231612678617239,-0.745602548122406
355,146504,146506,-0.15286479890346527,-0.010461607947945595,1.1263446807861328,-1.20989990234375,-5.561173439025879,1.566857099533081,0.6869656443595886,0.8549572229385376,-0.1319933980703354,-0.43981653451919556,-0.0041128527373075485,-0.7308906316757202
356,146514,146516,-0.1368686854839325,-0.051977258175611496,1.0414601564407349,-0.33525899052619934,-4.706575393676758,1.7421618700027466,0.6899654865264893,0.8699564933776855,-0.13499325513839722,-0.49911555647850037,-0.013521144166588783,-0.7173023819923401
357,146524,146526,-0.04932471364736557,-0.0780361220240593,1.037178874015808,1.752790927886963,-5.795350074768066,1.8236578702926636,0.6884655356407166,0.8594570159912109,-0.12749361991882324,-0.39672547578811646,0.07376275211572647,-0.6922934055328369
358,146534,146536,-0.01720856875181198,0.02732553705573082,1.0601118803024292,1.411172866821289,-4.99862813949585,1.4540756940841675,0.683965802192688,0.8729563355445862,-0.13799309730529785,-0.3012101650238037,0.09157684445381165,-0.6743862628936768
359,146544,146546,-0.0120303425937891,0.00938898604363203,1.0372254848480225,1.2690496444702148,-4.6423211097717285,1.2904207706451416,0.6899654865264893,0.8699564933776855,-0.13799309730529785,-0.21274606883525848,0.03969526290893555,-0.6664994955062866
360,146554,146556,-0.05474698171019554,-0.023189041763544083,1.0059173107147217,0.6488789916038513,-3.603964328765869,1.3465267419815063,0.7019649147987366,0.8729563355445862,-0.14099295437335968,-0.21350225806236267,0.05628843232989311,-0.6532593369483948
361,146564,146566,-0.0332825593650341,0.003874786663800478,1.0377788543701172,-0.633134663105011,-2.0070133209228516,1.233978033065796,0.6974651217460632,0.8834558129310608,-0.11849407106637955,-0.026574237272143364,0.055410631000995636,-0.6378805637359619
362,146574,146576,-0.06759902834892273,-0.011474786326289177,0.9763800501823425,-0.7038558721542358,0.42707952857017517,1.803441047668457,0.683965802192688,0.8729563355445862,-0.13499325513839722,-0.16926608979701996,0.05002191662788391,-0.6246687769889832
363,146584,146586,-0.045057155191898346,-0.016424892470240593,0.9839393496513367,-1.6007604598999023,0.6551194190979004,1.5112285614013672,0.6884655356407166,0.8744562864303589,-0.11549422144889832,-0.17309486865997314,0.03207707032561302,-0.6114479303359985
364,146594,146596,-0.1880146861076355,0.008626455441117287,1.0184763669967651,-1.5960193872451782,1.712061882019043,1.2652710676193237,0.7034648060798645,0.8864556550979614,-0.10949452221393585,-0.1929345279932022,0.006832657381892204,-0.5982917547225952
365,146604,146606,-0.03368784859776497,0.03677618131041527,1.022603154182434,-1.4194759130477905,2.210947275161743,1.2039883136749268,0.683965802192688,0.8789560198783875,-0.11999399960041046,-0.22148767113685608,-0.01718355156481266,-0.5865426063537598
366,146614,146616,-0.05650053545832634,0.02467130869626999,1.0199143886566162,-0.7888526916503906,2.0665552616119385,1.4092445373535156,0.6884655356407166,0.8684565424919128,-0.12749361991882324,-0.24798592925071716,-0.03209707513451576,-0.5744131207466125
367,146624,146626,0.003308458486571908,0.009546302258968353,1.0248517990112305,0.6229144930839539,0.3152451515197754,1.1915100812911987,0.683965802192688,0.8879556059837341,-0.11999399960041046,-0.254256010055542,-0.03145630285143852,-0.5617667436599731
368,146634,146636,-0.031124688684940338,-0.02764482982456684,1.0067055225372314,1.2943922281265259,-1.633733868598938,1.40023672580719,0.7019649147987366,0.8789560198783875,-0.14699265360832214,-0.2281045913696289,-0.01441811490803957,-0.5493060946464539
369,146644,146646,-0.02890792116522789,-0.003804211039096117,1.021515130996704,1.9951097965240479,-3.030487298965454,1.3700766563415527,0.683965802192688,0.8759561777114868,-0.12599369883537292,-0.17793332040309906,0.08503590524196625,-0.5304520726203918
370,146654,146656,0.0431022047996521,0.04147209972143173,1.0383962392807007,2.666537046432495,-3.729335308074951,0.9286884665489197,0.6899654865264893,0.8729563355445862,-0.1229938492178917,-0.1150166317820549,0.12149882316589355,-0.5167360305786133
371,146664,146666,-0.01780156046152115,-0.016465462744235992,0.9887223839759827,2.309065103530884,-4.224765777587891,0.9430999755859375,0.6929653286933899,0.8849557638168335,-0.13799309730529785,-0.04643700644373894,0.15933121740818024,-0.5071045160293579
372,146674,146676,-0.06109238788485527,-0.008526264689862728,1.0148919820785522,0.7435181140899658,-3.350252151489258,0.9190171957015991,0.6899654865264893,0.8699564933776855,-0.12899354100227356,0.011321019381284714,0.17682234942913055,-0.4981647729873657
373,146684,146686,-0.027104230597615242,-0.027578186243772507,1.0222169160842896,-1.9977306127548218,-1.7667827606201172,1.3078889846801758,0.6974651217460632,0.8864556550979614,-0.13049347698688507,0.04462044686079025,0.15473967790603638,-0.48635756969451904
374,146694,146696,-0.06546836346387863,-0.05654202774167061,0.9737389087677002,-3.333897352218628,0.19833622872829437,0.6741978526115417,0.6929653286933899,0.8759561777114868,-0.12599369883537292,0.04893478751182556,0.10463198274374008,-0.4769836664199829
375,146704,146706,-0.1514056771993637,0.02023565210402012,1.026503086090088,-5.162174701690674,2.4504122734069824,0.7405521273612976,0.6869656443595886,0.8789560198783875,-0.12899354100227356,0.020876888185739517,0.02695525623857975,-0.4722551107406616
376,146714,146716,0.0041939811781048775,-0.04157116264104843,0.9949949979782104,-4.571177959442139,4.43190860748291,0.5651169419288635,0.6899654865264893,0.8789560198783875,-0.12899354100227356,-0.036390386521816254,-0.05711407959461212,-0.46680909395217896
377,146724,146726,0.004128478467464447,-0.12137128412723541,1.0124516487121582,-3.0957744121551514,5.117648124694824,0.6147727966308594,0.6869656443595886,0.8759561777114868,-0.13499325513839722,-0.11005473136901855,-0.11988461017608643,-0.46252310276031494
378,146734,146736,-0.05281263217329979,-0.022894684225320816,1.0330462455749512,0.012776347808539867,4.25868034362793,0.7986066937446594,0.691465437412262,0.8834558129310608,-0.13049347698688507,-0.17527461051940918,-0.13620148599147797,-0.45673060417175293
379,146744,146746,-0.010937473736703396,-0.039871539920568466,0.984697163105011,2.289827346801758,1.9733269214630127,1.1526364088058472,0.6884655356407166,0.8894554972648621,-0.13049347698688507,-0.21310749650001526,-0.11181945353746414,-0.4456755518913269
380,146754,146756,0.01907193660736084,0.011973691172897816,1.0129990577697754,3.9080452919006348,-0.8173977136611938,0.7296359539031982,0.6824658513069153,0.8894554972648621,-0.12149392068386078,-0.21324408054351807,-0.055561937391757965,-0.4353167414665222
381,146764,146766,-0.09376034885644913,-0.033592820167541504,0.9855178594589233,5.036823749542236,-2.958362340927124,1.2506775856018066,0.6884655356407166,0.8984550833702087,-0.13649317622184753,-0.17766401171684265,0.020618528127670288,-0.42511245608329773
382,146774,146776,-0.05042729899287224,0.004462419543415308,0.9948628544807434,4.614668846130371,-4.913573741912842,1.2892858982086182,0.6854656934738159,0.8684565424919128,-0.12449377030134201,-0.1111728698015213,0.09989731758832932,-0.41328689455986023
383,146784,146786,-0.044347696006298065,-0.07352254539728165,1.0814183950424194,3.0421221256256104,-6.217728137969971,1.2509337663650513,0.683965802192688,0.8639568090438843,-0.12599369883537292,-0.012374197132885456,0.08526334911584854,-0.4026055335998535
384,146794,146796,-0.05459841713309288,-0.023423083126544952,1.0132330656051636,0.3823208510875702,-3.551334857940674,1.8840782642364502,0.6794660091400146,0.8744562864303589,-0.13049347698688507,0.06020352616906166,0.1093030646443367,-0.38790884613990784
385,146804,146806,-0.02272576093673706,-0.0038863923400640488,1.0022270679473877,-2.0644938945770264,-0.6616646647453308,1.981903076171875,0.6929653286933899,0.8759561777114868,-0.11999399960041046,-0.048317790031433105,0.0882674977183342,-0.36910146474838257
386,146814,146816,-0.08646723628044128,-0.029943635687232018,0.9851358532905579,-3.2790772914886475,1.3904321193695068,1.280833125114441,0.6944652795791626,0.8834558129310608,-0.13049347698688507,-0.04253479838371277,0.04332040622830391,-0.3519428074359894
387,146824,146826,0.0009921168675646186,-0.10887058079242706,0.9298330545425415,-3.42842960357666,4.416232109069824,1.9120510816574097,0.6869656443595886,0.8729563355445862,-0.12899354100227356,-0.09509555995464325,-0.007973192259669304,-0.33466917276382446
388,146834,146836,-0.004749339539557695,-0.08140222728252411,0.9524783492088318,-2.6443278789520264,1.804463267326355,1.4638526439666748,0.6794660091400146,0.8894554972648621,-0.12749361991882324,-0.06088921055197716,-0.05255962163209915,-0.31755176186561584
389,146844,146846,-0.022448457777500153,-0.008870706893503666,1.0130828619003296,-1.4225151538848877,1.1167540550231934,1.8199093341827393,0.6869656443595886,0.8999549746513367,-0.12599369883537292,-0.08431562036275864,-0.07068796455860138,-0.30123957991600037
390,146854,146856,-0.018620042130351067,-0.006347036920487881,0.9718372225761414,1.2904554605484009,0.14133191108703613,1.6088656187057495,0.6959651708602905,0.8729563355445862,-0.12599369883537292,-0.09166675060987473,-0.06308222562074661,-0.28391265869140625
391,146864,146866,-0.004471239168196917,0.046174056828022,0.9973192811012268,2.99731707572937,-1.1815869808197021,2.2779057025909424,0.6944652795791626,0.8744562864303589,-0.12149392068386078,-0.08139697462320328,-0.02748226188123226,-0.26463180780410767
392,146874,146876,-0.07946876436471939,0.06477049738168716,1.0651142597198486,3.4195032119750977,-2.547184944152832,1.6520063877105713,0.6809659600257874,0.8729563355445862,-0.11999399960041046,-0.11144204437732697,-0.04487690329551697,-0.24504132568836212
393,146884,146886,-0.24403764307498932,0.013986322097480297,1.019277572631836,4.499802112579346,-0.5545523166656494,2.2284820079803467,0.6869656443595886,0.8729563355445862,-0.1229938492178917,-0.0789894312620163,0.026764973998069763,-0.22458136081695557
394,146894,146896,-0.06474260985851288,-0.07180675119161606,0.9879408478736877,4.1233086585998535,-0.871675431728363,2.0235424041748047,0.6899654865264893,0.8729563355445862,-0.12599369883537292,-0.058696214109659195,0.09997977316379547,-0.2023361325263977
395,146904,146906,0.0012823352590203285,0.009306125342845917,1.0080970525741577,3.7822258472442627,-1.6841100454330444,2.3069775104522705,0.676466166973114,0.8774561285972595,-0.1334933191537857,-0.027077246457338333,0.16489392518997192,-0.18200848996639252
396,146914,146916,0.01725544035434723,0.07994998246431351,0.870361864566803,3.014373540878296,0.6781139969825745,2.4353177547454834,0.683965802192688,0.8819558620452881,-0.13499325513839722,-0.02518310211598873,0.21873225271701813,-0.16026484966278076
397,146924,146926,0.0009804286528378725,-0.03817275911569595,0.9713749885559082,0.8704756498336792,-2.4233663082122803,2.6998848915100098,0.6749662160873413,0.8909554481506348,-0.1229938492178917,-0.06964212656021118,0.24262653291225433,-0.1313876360654831
398,146934,146936,-0.18789291381835938,-0.07973865419626236,0.8781598210334778,-0.6046062111854553,2.0711498260498047,2.553529739379883,0.6779661178588867,0.8729563355445862,-0.1319933980703354,-0.0717509463429451,0.23776677250862122,-0.10621500015258789
399,146944,146946,-0.2598040699958801,-0.5299789309501648,0.9593024849891663,-2.074650287628174,-1.8272113800048828,2.6156110763549805,0.6809659600257874,0.8759561777114868,-0.13499325513839722,-0.051074009388685226,0.20939411222934723,-0.07946257293224335
400,146954,146956,-0.03884248435497284,-0.19549673795700073,0.994931697845459,-3.1429104804992676,-2.5964128971099854,2.6524250507354736,0.6824658513069153,0.8654567003250122,-0.11249437183141708,-0.003445527981966734,0.15909822285175323,-0.05471595376729965
401,146964,146966,-0.9128156304359436,-0.7048556804656982,0.995051383972168,-3.3715929985046387,-2.3027093410491943,2.8407227993011475,0.6854656934738159,0.8744562864303589,-0.12749361991882324,0.04848042502999306,0.10120672732591629,-0.028074074536561966
402,146974,146976,-0.6531245112419128,-0.3668922483921051,0.9885515570640564,-2.543567419052124,-2.383195400238037,2.1611855030059814,0.6989650130271912,0.8729563355445862,-0.11699414998292923,-0.1089489534497261,0.0524548664689064,-0.004440079443156719
403,146984,146986,-0.7390402555465698,-0.052277907729148865,1.0067590475082397,-2.9347083568573,-2.7667949199676514,2.4358623027801514,0.683965802192688,0.8819558620452881,-0.12899354100227356,-0.04550410434603691,0.006407449021935463,0.020031297579407692
404,146994,146996,-0.27927592396736145,-0.09303890913724899,0.9663062691688538,-0.8344088196754456,-3.0764241218566895,2.56086802482605,0.6884655356407166,0.8744562864303589,-0.12449377030134201,0.013486150652170181,-0.0125662162899971,0.04376085847616196
405,147004,147006,-0.676217257976532,-0.08937834203243256,1.0272233486175537,0.6927842497825623,-4.282742023468018,2.206284284591675,0.6884655356407166,0.8684565424919128,-0.1334933191537857,0.010849515907466412,-0.007307891733944416,0.06839336454868317
406,147014,147016,-1.08896005153656,-0.12142037600278854,0.9634197354316711,2.4640865325927734,-4.384819984436035,2.277467966079712,0.6899654865264893,0.8609569072723389,-0.1319933980703354,0.09087983518838882,0.023357631638646126,0.09206636250019073
407,147024,147026,-0.36200132966041565,0.09129191190004349,1.0194851160049438,2.751075029373169,-4.754647254943848,1.798301339149475,0.6899654865264893,0.8609569072723389,-0.1319933980703354,0.11323241889476776,0.06514760106801987,0.11373227834701538
408,147034,147036,-0.87173992395401,-0.23555806279182434,0.9935073256492615,3.3354063034057617,-4.393609523773193,2.162250518798828,0.6899654865264893,0.8609569072723389,-0.1319933980703354,0.20332929491996765,0.11502902209758759,0.1321669965982437
409,147044,147046,-0.39099037647247314,-0.2490406632423401,0.9926209449768066,1.8035821914672852,-2.7559125423431396,2.193047046661377,0.6899654865264893,0.8609569072723389,-0.1319933980703354,0.27748486399650574,0.15188169479370117,0.15274971723556519
410,147054,147056,-0.557602047920227,-0.908492386341095,0.9843721985816956,-0.505709171295166,-2.7491941452026367,1.5704829692840576,0.6944652795791626,0.8594570159912109,-0.14249287545681,0.336738646030426,0.1556495726108551,0.17303630709648132
411,147064,147066,-0.2562403380870819,-0.4901478588581085,1.038882851600647,-2.9013264179229736,-1.5245921611785889,1.5935938358306885,0.7034648060798645,0.8774561285972595,-0.1334933191537857,0.37894001603126526,0.12078718096017838,0.1907258778810501
412,147074,147076,-0.1281254142522812,-0.22248248755931854,0.9955843091011047,-4.44659948348999,-0.3544342517852783,1.677880883216858,0.7094644904136658,0.8594570159912109,-0.13949301838874817,0.39715248346328735,0.05914672091603279,0.20869188010692596
413,147084,147086,-0.024061547592282295,-0.11279274523258209,1.0211491584777832,-6.0572967529296875,1.1857633590698242,1.5332882404327393,0.6944652795791626,0.8684565424919128,-0.1334933191537857,0.45643436908721924,-0.027203885838389397,0.23025353252887726
414,147094,147096,-0.022666331380605698,-0.00829998217523098,1.0056042671203613,-5.886981964111328,2.60994553565979,1.0114238262176514,0.6959651708602905,0.8639568090438843,-0.12599369883537292,0.41496917605400085,-0.12021458894014359,0.2477724552154541
415,147104,147106,-0.0666704848408699,-0.19538600742816925,1.003275990486145,-4.066312313079834,4.12356424331665,1.638485074043274,0.6974651217460632,0.8714563846588135,-0.14549271762371063,0.14127875864505768,-0.05184376612305641,0.25309887528419495
416,147114,147116,-0.03575391322374344,-0.008602422662079334,1.0258197784423828,-0.9416258931159973,3.963514566421509,1.6356241703033447,0.7049647569656372,0.8669566512107849,-0.1319933980703354,0.22732307016849518,-0.16130182147026062,0.2748549282550812
417,147124,147126,-0.06400126963853836,0.02167840488255024,1.0165886878967285,1.7759684324264526,2.781583309173584,1.2567689418792725,0.6944652795791626,0.8624568581581116,-0.12749361991882324,0.24588623642921448,-0.21626216173171997,0.29112911224365234
418,147134,147136,-0.02480318397283554,0.023557418957352638,1.0194734334945679,3.069668769836426,0.37753480672836304,1.2014912366867065,0.7079645991325378,0.8549572229385376,-0.13499325513839722,0.22591441869735718,-0.165865957736969,0.30211329460144043
419,147144,147146,-0.006227921694517136,0.024235766381025314,1.041259527206421,4.290872097015381,-2.1262080669403076,0.9965522289276123,0.7019649147987366,0.8669566512107849,-0.13499325513839722,0.17842333018779755,-0.09942092001438141,0.31145909428596497
420,147154,147156,-0.053802475333213806,-0.01762550137937069,1.0109745264053345,5.579461574554443,-2.837494373321533,0.9316495060920715,0.6959651708602905,0.8609569072723389,-0.13799309730529785,0.15835794806480408,-0.016442980617284775,0.3187370300292969
421,147164,147166,-0.07855041325092316,0.00212097424082458,1.0131133794784546,3.6825642585754395,-2.9405994415283203,1.0052069425582886,0.6959651708602905,0.851957380771637,-0.13499325513839722,0.2219187170267105,0.05500064417719841,0.32535287737846375
422,147174,147176,-0.030973395332694054,-0.007865546271204948,1.0330307483673096,1.4704711437225342,-2.533876657485962,1.159812092781067,0.7004649639129639,0.8624568581581116,-0.13649317622184753,0.2772487699985504,0.09139617532491684,0.3337007761001587
423,147184,147186,-0.014593175612390041,-0.0020759094040840864,1.0163742303848267,0.0232143122702837,-1.6212470531463623,1.1604005098342896,0.7049647569656372,0.8669566512107849,-0.13499325513839722,0.31895938515663147,0.0992874950170517,0.34427323937416077
424,147194,147196,0.008768144994974136,0.024634426459670067,1.0331265926361084,-1.6144633293151855,-1.2058924436569214,1.1239421367645264,0.6989650130271912,0.8729563355445862,-0.14099295437335968,0.34375354647636414,0.08214341849088669,0.3572286069393158
425,147204,147206,0.0006977159064263105,0.025177083909511566,1.0538911819458008,-3.137389659881592,-0.11639324575662613,0.8995131850242615,0.6869656443595886,0.8609569072723389,-0.14399279654026031,0.3557216227054596,0.03913455829024315,0.3684079051017761
426,147214,147216,-0.04814627766609192,-0.032057590782642365,1.0139390230178833,-4.167128086090088,1.931077241897583,0.9129167199134827,0.6869656443595886,0.8669566512107849,-0.12599369883537292,0.33922338485717773,-0.022302784025669098,0.38020846247673035
427,147224,147226,-0.06610456854104996,-0.01261029951274395,1.0237267017364502,-4.278811454772949,2.3542206287384033,1.1037282943725586,0.6824658513069153,0.8684565424919128,-0.12749361991882324,0.23431287705898285,-0.08914706856012344,0.3936142921447754
428,147234,147236,-0.0972689837217331,0.0283138956874609,1.0311763286590576,-2.4872004985809326,2.220134973526001,0.9871872067451477,0.7004649639129639,0.8744562864303589,-0.14249287545681,0.20177724957466125,-0.13451330363750458,0.404948353767395
429,147244,147246,-0.1420470029115677,0.0067628780379891396,1.003408432006836,-0.04660718888044357,1.9233065843582153,0.9980628490447998,0.6944652795791626,0.8714563846588135,-0.13049347698688507,0.17497622966766357,-0.14958138763904572,0.4156339466571808
430,147254,147256,-0.049176257103681564,0.07703358680009842,1.0225725173950195,1.7853344678878784,-0.6482067704200745,0.6004775762557983,0.6869656443595886,0.8729563355445862,-0.13499325513839722,0.24638110399246216,-0.12823906540870667,0.4218042194843292
431,147264,147266,0.002921872306615114,0.05038667470216751,1.0525435209274292,4.023426532745361,-1.2918694019317627,0.7350838780403137,0.683965802192688,0.8699564933776855,-0.113994300365448,0.2572341561317444,-0.07108351588249207,0.4271160364151001
432,147274,147276,-0.06374908238649368,-0.07112020254135132,1.0159591436386108,4.623601913452148,-3.558577060699463,0.3987269401550293,0.6794660091400146,0.8684565424919128,-0.12449377030134201,0.3030843138694763,0.004485102370381355,0.4287942051887512
433,147284,147286,-0.02502918802201748,-0.023915601894259453,0.9811912775039673,3.8864645957946777,-2.5390708446502686,1.3503037691116333,0.6944652795791626,0.8654567003250122,-0.12749361991882324,0.34728923439979553,0.07191131263971329,0.4341824948787689
434,147294,147296,-0.016308870166540146,0.007680470123887062,0.9914907813072205,2.7858381271362305,-1.3664947748184204,1.5797507762908936,0.676466166973114,0.8684565424919128,-0.1334933191537857,0.30595359206199646,0.1211182177066803,0.4475373923778534
435,147304,147306,0.031829655170440674,0.02345958538353443,1.0067641735076904,0.09832541644573212,0.2363085001707077,1.535130262374878,0.7019649147987366,0.8759561777114868,-0.11699414998292923,0.38922119140625,0.13726551830768585,0.4617646336555481
436,147314,147316,-0.065158911049366,-0.13298586010932922,1.0670254230499268,-1.5404870510101318,2.0131118297576904,1.5858005285263062,0.6899654865264893,0.8729563355445862,-0.11999399960041046,0.36361193656921387,0.12060406059026718,0.4800299406051636
437,147324,147326,-0.21146711707115173,-0.08367133885622025,1.01081120967865,-2.9990172386169434,3.896970510482788,1.8636835813522339,0.7004649639129639,0.8864556550979614,-0.1334933191537857,0.30775997042655945,0.08303846418857574,0.49904823303222656
438,147334,147336,-0.30313512682914734,-0.0504801981151104,0.974714457988739,-5.5166707038879395,2.087570905685425,0.9278585314750671,0.6959651708602905,0.8669566512107849,-0.1229938492178917,0.2679049074649811,0.005348077975213528,0.5170921087265015
439,147344,147346,-0.20954039692878723,-0.12263147532939911,0.9877844452857971,-5.641036510467529,0.7274999618530273,1.1057981252670288,0.6959651708602905,0.8729563355445862,-0.13499325513839722,0.24519459903240204,-0.08383188396692276,0.5314796566963196
440,147354,147356,-0.566039502620697,-0.41354691982269287,1.0083342790603638,-4.339463710784912,0.3027259111404419,1.5408164262771606,0.6854656934738159,0.8774561285972595,-0.13049347698688507,0.23112809658050537,-0.1529882252216339,0.5447728633880615
441,147364,147366,-1.4718965291976929,-0.3205496370792389,1.0076106786727905,-1.1689293384552002,-0.4039548337459564,1.6474002599716187,0.6869656443595886,0.8819558620452881,-0.11699414998292923,0.21984699368476868,-0.1831451803445816,0.5616025328636169
442,147374,147376,-1.2727335691452026,-0.014891412109136581,0.9652195572853088,2.068814277648926,-0.6724017858505249,1.7068428993225098,0.6899654865264893,0.8789560198783875,-0.11099445074796677,0.22017396986484528,-0.16189061105251312,0.5770272612571716
443,147384,147386,-0.2594481110572815,-0.3047238290309906,0.9857156276702881,4.897162914276123,-0.4833846688270569,1.4082269668579102,0.6869656443595886,0.8759561777114868,-0.13799309730529785,0.2247209995985031,-0.09754633158445358,0.589961051940918
444,147394,147396,-0.7249574661254883,-0.8828737735748291,1.0010970830917358,6.821460723876953,0.3195655345916748,1.570885419845581,0.6899654865264893,0.8819558620452881,-0.1319933980703354,0.22442539036273956,0.003098096465691924,0.6009745597839355
445,147404,147406,-0.21255889534950256,-0.18263866007328033,0.9799990057945251,7.074709415435791,0.17447465658187866,1.199381947517395,0.6809659600257874,0.8819558620452881,-0.1229938492178917,0.36579909920692444,0.11221545189619064,0.6079472303390503
446,147414,147416,-0.6785531640052795,-0.3014160394668579,0.9681251049041748,6.824313640594482,0.832382321357727,1.0715315341949463,0.6899654865264893,0.8999549746513367,-0.12599369883537292,0.282013475894928,0.22104135155677795,0.6188793778419495
447,147424,147426,-0.4742356240749359,-0.10433431714773178,1.0083173513412476,2.669715166091919,1.6335557699203491,0.9312934279441833,0.6929653286933899,0.8729563355445862,-0.1229938492178917,0.2586027681827545,0.28554731607437134,0.6304770112037659
448,147434,147436,-0.7271151542663574,-0.2985856235027313,0.945895791053772,-0.4412262737751007,2.375856876373291,0.41586509346961975,0.6824658513069153,0.8804559707641602,-0.12449377030134201,0.14894242584705353,0.08340223133563995,0.6544833779335022
449,147444,147446,-0.4350097179412842,-0.5558404326438904,0.9958155155181885,-3.2813620567321777,3.651066541671753,0.18352769315242767,0.6959651708602905,0.8819558620452881,-0.1229938492178917,0.16578957438468933,0.19785931706428528,0.6508585810661316
450,147454,147456,-0.02206200733780861,-0.4280411899089813,1.0046968460083008,-5.948196887969971,3.169822931289673,0.2350306361913681,0.6779661178588867,0.8849557638168335,-0.13499325513839722,0.31878820061683655,0.1138337105512619,0.6553923487663269
451,147464,147466,-0.010439373552799225,-0.6950380206108093,0.9922849535942078,-5.877473831176758,4.554168224334717,0.19544893503189087,0.6899654865264893,0.8789560198783875,-0.11699414998292923,0.1578778177499771,0.020064570009708405,0.6599226593971252
452,147474,147476,-0.13711872696876526,-0.17619822919368744,0.9752591252326965,-3.9539778232574463,4.307769298553467,0.010177665390074253,0.6869656443595886,0.8819558620452881,-0.11699414998292923,0.14657935500144958,-0.05468011647462845,0.662038266658783
453,147484,147486,-0.22447171807289124,0.0173815805464983,0.9890469908714294,-1.307221531867981,4.4732985496521,0.28166663646698,0.6824658513069153,0.8684565424919128,-0.11249437183141708,0.06728515774011612,-0.09160427004098892,0.6606364846229553
454,147494,147496,-0.060003604739904404,0.04397768899798393,0.9865466952323914,1.8849318027496338,4.117927551269531,0.052029017359018326,0.6854656934738159,0.8804559707641602,-0.12449377030134201,-0.005917839240282774,-0.07814441621303558,0.6614823341369629
455,147504,147506,-0.03459353744983673,-0.005088635720312595,1.004982590675354,4.118029594421387,3.555772542953491,-0.7493637204170227,0.6809659600257874,0.8819558620452881,-0.11699414998292923,-0.06746136397123337,-0.01780644804239273,0.6573570966720581
456,147514,147516,-0.03846866637468338,-0.06971970945596695,0.9878881573677063,5.954861640930176,2.3040482997894287,-0.4368853271007538,0.6734663248062134,0.8774561285972595,-0.13049347698688507,-0.11702029407024384,0.06897366046905518,0.6513940095901489
457,147524,147526,-0.028746142983436584,-0.04843667894601822,0.9864431023597717,6.23586368560791,1.0122014284133911,-0.5092624425888062,0.6944652795791626,0.8894554972648621,-0.12449377030134201,-0.14677023887634277,0.17378661036491394,0.6462664604187012
458,147534,147536,-0.09043724834918976,0.0027186034712940454,1.0005698204040527,5.029663562774658,-0.17086085677146912,-0.5249277949333191,0.6929653286933899,0.8729563355445862,-0.13499325513839722,-0.1571594625711441,0.2625490427017212,0.6429926753044128
459,147544,147546,-0.07017394155263901,-0.04192805662751198,0.9728436470031738,2.6284844875335693,-1.4055930376052856,-0.4558187425136566,0.683965802192688,0.8759561777114868,-0.11699414998292923,0.12923143804073334,0.17701345682144165,0.6423965692520142
460,147554,147556,0.04560421407222748,0.0076788924634456635,0.977307140827179,-1.4151955842971802,-1.9552817344665527,-0.2727377116680145,0.6869656443595886,0.8669566512107849,-0.13499325513839722,-0.0757666528224945,0.18287621438503265,0.6379189491271973
461,147564,147566,-0.015417620539665222,-0.09032434225082397,0.9841535091400146,-3.8203442096710205,-1.8836889266967773,-0.3612833321094513,0.6779661178588867,0.8759561777114868,-0.1319933980703354,0.09054776281118393,0.13727810978889465,0.6363785266876221
462,147574,147576,-0.02738751471042633,-0.03475385531783104,0.9946478009223938,-5.560599327087402,0.642532229423523,-0.12127082049846649,0.6884655356407166,0.8654567003250122,-0.12749361991882324,0.0828976184129715,0.060955680906772614,0.6330323815345764
463,147584,147586,-0.012195521034300327,-0.015391644090414047,0.9608263373374939,-4.738821029663086,2.570169448852539,-0.009446099400520325,0.6899654865264893,0.8789560198783875,-0.1319933980703354,-0.0962633341550827,0.12319938093423843,0.6298844814300537
464,147594,147596,0.033986736088991165,0.04622595012187958,1.0182056427001953,-3.293588876724243,4.808116912841797,-0.3417927026748657,0.6959651708602905,0.8849557638168335,-0.13799309730529785,-0.09100615233182907,0.06147545948624611,0.626868724822998
465,147604,147606,-0.04685232788324356,-0.03233196213841438,0.9821063280105591,-0.7021828293800354,5.303680896759033,-0.061273861676454544,0.6794660091400146,0.8714563846588135,-0.1334933191537857,-0.04465056210756302,-0.03468036279082298,0.6283681988716125
466,147614,147616,-0.46016573905944824,-0.008309200406074524,1.0065213441848755,1.2145817279815674,4.2044453620910645,-0.1749783456325531,0.691465437412262,0.8804559707641602,-0.13049347698688507,-0.1404905617237091,-0.02099229395389557,0.629051685333252
467,147624,147626,-0.12447742372751236,0.02547440677881241,0.9822704792022705,3.282407760620117,2.8471474647521973,-0.22402545809745789,0.6899654865264893,0.8609569072723389,-0.12899354100227356,-0.21389034390449524,0.022939488291740417,0.6282623410224915
