,timestamp_start,timestamp_end,acc.x,acc.y,acc.z,gyro.x,gyro.y,gyro.z,mag.x,mag.y,mag.z,stabilizer.pitch,stabilizer.roll,stabilizer.yaw
0,673202,673204,-0.010866131633520126,0.06581171602010727,1.0205572843551636,8.299327850341797,-72.48871612548828,0.4532417356967926,-0.5849707126617432,1.3979300260543823,0.3119843900203705,-2.441505193710327,-1.3831690549850464,4.571709156036377
1,673212,673214,-0.0378367155790329,0.08854330331087112,1.0181238651275635,0.9120211601257324,-69.80597686767578,1.6230770349502563,-0.5879706144332886,1.421928882598877,0.3239837884902954,-1.7451634407043457,-1.3257145881652832,4.587523937225342
2,673222,673224,-0.09221101552248001,0.20033740997314453,1.092668890953064,-17.83783721923828,-39.65986251831055,0.532474160194397,-0.5894705057144165,1.420428991317749,0.31948402523994446,-0.9375209808349609,-1.3775111436843872,4.568871021270752
3,673232,673234,-0.10674972087144852,0.08516313135623932,1.0436246395111084,-38.8184928894043,-6.330800533294678,-1.9393010139465332,-0.5864706635475159,1.4144293069839478,0.3224838674068451,-0.9012148380279541,-1.4900263547897339,4.68858003616333
4,673242,673244,0.00209639361128211,0.1673709899187088,1.1390395164489746,-45.01408004760742,26.608322143554688,-4.118336200714111,-0.5939702987670898,1.421928882598877,0.3209839463233948,-0.5353401899337769,-2.1598196029663086,4.488370895385742
5,673252,673254,-0.046252600848674774,0.20334500074386597,1.148779034614563,-43.12942123413086,49.08184051513672,-4.349441051483154,-0.5969701409339905,1.4309284687042236,0.30898454785346985,-0.8508226275444031,-2.8496193885803223,4.3641743659973145
6,673262,673264,-0.0638553723692894,0.24197007715702057,1.0221515893936157,-20.561996459960938,58.66639709472656,-4.867372512817383,-0.5984700918197632,1.444427728652954,0.31048446893692017,-1.4909961223602295,-3.0165553092956543,4.4263691902160645
7,673272,673274,0.01626666449010372,0.1642381250858307,1.068060278892517,5.613816738128662,51.29218292236328,-8.111271858215332,-0.6044697761535645,1.4384280443191528,0.3314834237098694,-2.0503416061401367,-3.2722206115722656,4.3306965827941895
8,673282,673284,0.037611912935972214,0.14240992069244385,1.0450341701507568,37.212791442871094,29.722368240356445,-6.9598612785339355,-0.5984700918197632,1.420428991317749,0.3314834237098694,-2.5479929447174072,-2.7725913524627686,4.356842517852783
9,673292,673294,0.02883460558950901,0.08336254209280014,1.0470300912857056,63.662174224853516,8.791879653930664,-6.644203186035156,-0.6119694113731384,1.4249287843704224,0.3329833447933197,-3.012284278869629,-2.1861956119537354,4.402932167053223
10,673302,673304,0.017620857805013657,0.21724262833595276,1.0279626846313477,62.6546516418457,-10.57054328918457,-3.0640335083007812,-0.6044697761535645,1.4144293069839478,0.3164841830730438,-2.853963613510132,-1.8462051153182983,4.160794734954834
11,673312,673314,0.06415814906358719,0.20608262717723846,1.0732154846191406,48.93620681762695,-28.57737159729004,2.304884910583496,-0.5954701900482178,1.4024298191070557,0.3164841830730438,-2.698385715484619,-0.9338608980178833,4.2154130935668945
12,673322,673324,0.05378308519721031,-0.00655799126252532,0.9413641691207886,30.052040100097656,-37.2610969543457,3.7574527263641357,-0.6044697761535645,1.3964301347732544,0.3134843111038208,-2.533771276473999,-0.22315466403961182,4.364820957183838
13,673332,673334,0.060099951922893524,0.16593238711357117,1.084173560142517,11.842288970947266,-34.35003662109375,2.720762014389038,-0.5909704566001892,1.3949302434921265,0.3119843900203705,-1.9566264152526855,-0.43705299496650696,4.141720771789551
14,673342,673344,0.10109464079141617,0.1733124852180481,0.9672238230705261,-14.344942092895508,-24.000307083129883,2.4602696895599365,-0.5849707126617432,1.376931071281433,0.30898454785346985,-1.715942621231079,-0.36098453402519226,4.19903039932251
15,673352,673354,0.09060834348201752,0.13648921251296997,1.0355017185211182,-30.022106170654297,-1.8206039667129517,0.019994501024484634,-0.6014699339866638,1.3934303522109985,0.29848507046699524,-1.5211362838745117,-0.6234738230705261,4.194636821746826
16,673362,673364,0.10532104969024658,0.1877932846546173,1.03506338596344,-29.580862045288086,19.961809158325195,-0.5340481400489807,-0.5789710283279419,1.406929612159729,0.3119843900203705,-1.582977533340454,-0.9676216244697571,4.206866264343262
17,673372,673374,0.12158294022083282,0.09595586359500885,1.0400965213775635,-21.5269718170166,40.8619499206543,-1.7958465814590454,-0.5834708213806152,1.3994300365447998,0.3254837095737457,-1.6152530908584595,-1.4042316675186157,4.099705219268799
18,673382,673384,0.07502883672714233,0.042500872164964676,1.0641101598739624,-8.540154457092285,46.140438079833984,-3.5575602054595947,-0.6014699339866638,1.3994300365447998,0.31048446893692017,-2.224907636642456,-1.7269974946975708,4.093588352203369
19,673392,673394,0.021502485498785973,0.1827346384525299,1.0936172008514404,10.547268867492676,38.37553024291992,-5.695991039276123,-0.6089695692062378,1.3949302434921265,0.3029848337173462,-2.6014742851257324,-1.7832767963409424,4.028012752532959
20,673402,673404,0.05529293417930603,0.13451522588729858,1.069770097732544,28.31839942932129,23.28702163696289,-4.543690204620361,-0.5969701409339905,1.3859306573867798,0.31798410415649414,-3.189120054244995,-1.561536431312561,4.057892799377441
21,673412,673414,0.014195500873029232,0.044306084513664246,1.0251379013061523,46.996742248535156,-3.2712457180023193,0.29113879799842834,-0.6029698252677917,1.3799309730529785,0.3209839463233948,-3.2317259311676025,-1.1416494846343994,4.004810810089111
22,673422,673424,-0.02542889676988125,0.07290127128362656,0.930600106716156,50.852298736572266,-18.778491973876953,8.093409538269043,-0.5984700918197632,1.3574321269989014,0.3134843111038208,-3.0562076568603516,-1.0367746353149414,3.8476762771606445
23,673432,673434,-0.014791704714298248,0.20637942850589752,0.9104514122009277,49.33502960205078,-21.42891502380371,11.93124771118164,-0.5744712948799133,1.3664315938949585,0.31048446893692017,-2.86773681640625,-0.23240813612937927,4.0316596031188965
24,673442,673444,0.013502830639481544,0.20296286046504974,0.9721375703811646,49.705875396728516,-23.623292922973633,11.155094146728516,-0.5834708213806152,1.354432225227356,0.30748462677001953,-2.721479654312134,0.12211937457323074,4.116226673126221
25,673452,673454,0.07135359197854996,-0.029652129858732224,0.9245536923408508,45.88844680786133,-29.682937622070312,9.416423797607422,-0.6014699339866638,1.3604319095611572,0.3044847846031189,-2.3304765224456787,0.21791301667690277,4.040602684020996
26,673462,673464,0.03846302255988121,-0.09015275537967682,0.966846227645874,38.235355377197266,-36.20027542114258,5.917209148406982,-0.5864706635475159,1.354432225227356,0.29848507046699524,-1.9704413414001465,0.6226773262023926,4.095760345458984
27,673472,673474,-0.015542724169790745,-0.03391021117568016,0.8935673236846924,31.49712562561035,-35.32876205444336,2.2525794506073,-0.577471137046814,1.3424328565597534,0.3044847846031189,-1.6350046396255493,1.111093521118164,4.189337253570557
28,673482,673484,-0.017713353037834167,0.1130278930068016,0.9049807786941528,27.550077438354492,-26.613344192504883,-0.7223261594772339,-0.5669716596603394,1.3349332809448242,0.3059847056865692,-1.3894280195236206,1.624559998512268,4.287991523742676
29,673492,673494,-0.06461358070373535,0.10850795358419418,0.9119576811790466,25.2775936126709,-11.675776481628418,-1.9058985710144043,-0.5684715509414673,1.3304334878921509,0.3014849126338959,-1.2136844396591187,1.7240052223205566,4.2291460037231445
30,673502,673504,-0.12419302016496658,0.044727060943841934,0.8717536926269531,24.6154842376709,-0.4926924705505371,1.1634774208068848,-0.5849707126617432,1.3439327478408813,0.2939853072166443,-1.184569001197815,1.9247920513153076,4.201709270477295
31,673512,673514,-0.08107941597700119,0.10473848879337311,0.8485274910926819,24.77656364440918,10.412103652954102,4.405694484710693,-0.5759711861610413,1.3259336948394775,0.30898454785346985,-1.1213302612304688,2.05690336227417,4.17780876159668
32,673522,673524,0.008128060959279537,0.1574205607175827,0.8294721841812134,8.583977699279785,11.529398918151855,7.276618957519531,-0.5789710283279419,1.3109344244003296,0.28498575091362,-1.3033822774887085,2.4486868381500244,4.272134304046631
33,673532,673534,0.13431954383850098,0.09519373625516891,0.8713813424110413,-20.277875900268555,3.4063470363616943,8.34049129486084,-0.5819708704948425,1.33793306350708,0.3029848337173462,-1.4283138513565063,2.5548832416534424,4.356377124786377
34,673542,673544,0.07379863411188126,-0.025030337274074554,0.9478851556777954,-52.12095642089844,-5.5559210777282715,9.678518295288086,-0.577471137046814,1.3514324426651,0.3014849126338959,-1.4951415061950684,2.236912727355957,4.415402412414551
35,673552,673554,-0.0032459332142025232,-0.04964219406247139,0.9608062505722046,-57.968177795410156,-17.735944747924805,11.335063934326172,-0.5789710283279419,1.3619319200515747,0.2939853072166443,-1.31765615940094,1.8759145736694336,4.547657489776611
36,673562,673564,0.012640981934964657,0.05434616282582283,0.9456088542938232,-37.96488571166992,-24.910236358642578,13.131460189819336,-0.5744712948799133,1.369431495666504,0.29848507046699524,-1.0093177556991577,1.0230001211166382,4.612605571746826
37,673572,673574,-0.015357092022895813,0.04634544253349304,1.0835044384002686,3.0639548301696777,-34.12274932861328,14.51936149597168,-0.5714713931083679,1.3634318113327026,0.3014849126338959,-0.9339520931243896,1.022771954536438,4.78359842300415
38,673582,673584,0.0018984165508300066,0.027770444750785828,0.999580979347229,41.72524642944336,-33.77606964111328,20.129653930664062,-0.5759711861610413,1.367931604385376,0.3029848337173462,-0.5051681399345398,1.2236696481704712,4.964461803436279
39,673592,673594,-0.028046077117323875,0.14572849869728088,0.9686420559883118,48.38697052001953,-32.72771453857422,25.96278190612793,-0.5729713439941406,1.3649317026138306,0.31798410415649414,-0.15582266449928284,1.4640201330184937,5.131804466247559
40,673602,673604,-0.02942473255097866,0.048379361629486084,0.9067729711532593,32.73783493041992,-22.748340606689453,28.09100341796875,-0.5519723892211914,1.352932333946228,0.31798410415649414,0.3031731843948364,2.0878279209136963,5.417750835418701
41,673612,673614,-0.022048797458410263,0.11320018023252487,0.9640457034111023,-0.7042840123176575,-10.37784194946289,29.318866729736328,-0.577471137046814,1.3574321269989014,0.30748462677001953,0.26238560676574707,2.5924575328826904,5.658019065856934
42,673622,673624,0.005593139212578535,0.01526589784771204,0.9712002873420715,-38.78279113769531,-4.822482585906982,31.044479370117188,-0.5564721822738647,1.3574321269989014,0.3044847846031189,0.3121636211872101,2.5234909057617188,5.928978443145752
43,673632,673634,-0.03686836361885071,0.06716613471508026,0.9773328900337219,-71.83455657958984,1.022562026977539,30.857973098754883,-0.5459727048873901,1.3619319200515747,0.3119843900203705,0.4286951720714569,1.8536808490753174,6.232996463775635
44,673642,673644,-0.026676159352064133,0.16510675847530365,1.1179203987121582,-74.93431854248047,9.923422813415527,31.68732452392578,-0.5669716596603394,1.3739312887191772,0.2969851493835449,0.4959062337875366,1.4867984056472778,6.561405181884766
45,673652,673654,0.028286494314670563,0.03611910715699196,1.086965560913086,-60.68988037109375,23.466007232666016,31.097087860107422,-0.5654717087745667,1.3724313974380493,0.30748462677001953,0.2780486047267914,0.5355391502380371,6.849654197692871
46,673662,673664,0.03458363562822342,0.07649970054626465,1.1004613637924194,-41.77397918701172,33.495479583740234,27.890243530273438,-0.5669716596603394,1.376931071281433,0.3029848337173462,-0.09795147180557251,0.278958261013031,7.111880779266357
47,673672,673674,0.08796637505292892,0.07757861167192459,1.0757029056549072,-14.739155769348145,29.94432830810547,26.93876075744629,-0.5654717087745667,1.3784310817718506,0.30748462677001953,-0.32437458634376526,-0.33175453543663025,7.426074981689453
48,673682,673684,0.07649112492799759,0.01485978253185749,0.9242965579032898,8.082779884338379,20.573219299316406,21.755069732666016,-0.5654717087745667,1.3634318113327026,0.3044847846031189,-0.3644246459007263,-0.4684537351131439,7.746540546417236
49,673692,673694,0.02964119240641594,0.04749945178627968,0.9410184621810913,28.82901954650879,11.893521308898926,16.826770782470703,-0.5669716596603394,1.3619319200515747,0.31798410415649414,-0.46724146604537964,-0.32344165444374084,7.979382514953613
50,673702,673704,0.01067641656845808,0.07249657064676285,1.0796940326690674,46.66487121582031,-1.1226352453231812,15.598943710327148,-0.5519723892211914,1.3409329652786255,0.3059847056865692,-0.8006836175918579,0.21009376645088196,8.092171669006348
51,673712,673714,-0.003033164655789733,0.07598309218883514,0.9378333687782288,66.0713882446289,-16.93280601501465,17.528366088867188,-0.5579720735549927,1.352932333946228,0.30898454785346985,-0.46614351868629456,0.670704185962677,8.299448013305664
52,673722,673724,0.03260468691587448,0.06565012782812119,0.881250262260437,69.87937927246094,-27.63917350769043,20.06190299987793,-0.554972231388092,1.3619319200515747,0.29998499155044556,-0.2118651121854782,1.4404325485229492,8.474664688110352
53,673732,673734,0.034285422414541245,0.04274274408817291,0.9272240400314331,63.28090286254883,-28.99521827697754,21.872995376586914,-0.5474725961685181,1.3574321269989014,0.29848507046699524,0.08462437242269516,1.8325073719024658,8.695737838745117
54,673742,673744,0.004475092049688101,-0.006414384581148624,0.8949652314186096,42.52927017211914,-21.732280731201172,21.56658172607422,-0.5399730205535889,1.3499324321746826,0.29098543524742126,0.26506173610687256,2.7571613788604736,8.856452941894531
55,673752,673754,-0.03130490332841873,0.11424590647220612,0.8855195045471191,11.305490493774414,-10.351149559020996,18.658952713012695,-0.5504724383354187,1.339432954788208,0.28948551416397095,0.6229705810546875,2.9361820220947266,9.106938362121582
56,673762,673764,0.04846365004777908,0.029578864574432373,0.9284259080886841,-24.677783966064453,-0.9069173336029053,15.072704315185547,-0.5429728627204895,1.352932333946228,0.2969851493835449,0.7717022895812988,2.958578586578369,9.3092041015625
57,673772,673774,0.033922720700502396,-0.04611214995384216,0.9367295503616333,-47.02862548828125,10.344876289367676,13.615754127502441,-0.5414729118347168,1.3364331722259521,0.3044847846031189,0.6336124539375305,2.8332359790802,9.419495582580566
58,673782,673784,-0.02994557097554207,0.0971190556883812,0.8848590850830078,-57.35075759887695,22.474477767944336,13.2774076461792,-0.5534723401069641,1.3484325408935547,0.29848507046699524,0.5415991544723511,2.5494959354400635,9.531909942626953
59,673792,673794,0.05121844634413719,-0.026112202554941177,0.9135085344314575,-60.82091522216797,25.393299102783203,14.904435157775879,-0.5429728627204895,1.3709313869476318,0.3209839463233948,0.17448946833610535,1.781922459602356,9.669159889221191
60,673802,673804,-0.01470167562365532,0.066248819231987,0.8985207080841064,-57.323944091796875,16.482107162475586,17.743375778198242,-0.5489725470542908,1.3649317026138306,0.29098543524742126,-0.08593741059303284,1.4654817581176758,9.771379470825195
61,673812,673814,-0.015359967015683651,0.09083537012338638,0.9710457921028137,-47.407344818115234,4.570488929748535,19.75605010986328,-0.5684715509414673,1.3724313974380493,0.3014849126338959,-0.06711861491203308,0.6996627449989319,10.0302734375
62,673822,673824,-0.008866707794368267,0.10846898704767227,0.9073070287704468,-33.577266693115234,-9.391905784606934,23.162996292114258,-0.5534723401069641,1.3784310817718506,0.3164841830730438,-0.27928975224494934,0.3656087815761566,10.159730911254883
63,673832,673834,0.025645384564995766,0.09182042628526688,0.9959049224853516,-5.5111002922058105,-4.715019226074219,27.243072509765625,-0.5459727048873901,1.3739312887191772,0.3059847056865692,0.056713905185461044,-0.08062952756881714,10.467328071594238
64,673842,673844,0.041379041969776154,0.08934643864631653,0.9294090867042542,13.433514595031738,-6.706902503967285,29.407350540161133,-0.554972231388092,1.3859306573867798,0.2969851493835449,0.25001782178878784,-0.03487739711999893,10.744418144226074
65,673852,673854,0.025753062218427658,0.09008750319480896,0.8681545853614807,21.70792007446289,-8.109152793884277,30.140533447265625,-0.5534723401069641,1.4024298191070557,0.31048446893692017,0.33903074264526367,0.12627935409545898,11.032323837280273
66,673862,673864,0.01682550460100174,0.13914541900157928,0.7618765830993652,-1.3060332536697388,5.693319320678711,27.021446228027344,-0.5654717087745667,1.3814308643341064,0.3044847846031189,0.2930709421634674,0.39897996187210083,11.296347618103027
67,673872,673874,0.04434385523200035,0.06670236587524414,0.8788275122642517,-38.51615524291992,16.376359939575195,22.660198211669922,-0.5579720735549927,1.3799309730529785,0.30898454785346985,0.18624822795391083,0.41493627429008484,11.554641723632812
68,673882,673884,0.07669781148433685,0.043354954570531845,0.8979427814483643,-69.69829559326172,21.843339920043945,18.483642578125,-0.5654717087745667,1.420428991317749,0.3134843111038208,-0.39227575063705444,0.17902366816997528,11.698177337646484
69,673892,673894,0.06505720317363739,0.07553783059120178,0.964024007320404,-92.04902648925781,23.388521194458008,15.156039237976074,-0.56997150182724,1.4159291982650757,0.3209839463233948,-0.1826888769865036,-0.7685723304748535,11.989047050476074
70,673902,673904,0.06597016751766205,0.026975251734256744,1.0831059217453003,-105.24278259277344,21.921945571899414,11.116157531738281,-0.5714713931083679,1.4414279460906982,0.31048446893692017,-0.5844195485115051,-1.7727992534637451,12.13222599029541
71,673912,673914,0.03622504323720932,0.08308541774749756,1.020322561264038,-90.87223815917969,34.37448501586914,3.6505048274993896,-0.5759711861610413,1.4519274234771729,0.30898454785346985,-1.0363085269927979,-2.6710939407348633,12.187313079833984
72,673922,673924,0.06848375499248505,0.060750942677259445,1.0451854467391968,-62.014976501464844,51.18071365356445,-3.6355631351470947,-0.5729713439941406,1.4519274234771729,0.3239837884902954,-1.307235598564148,-3.6843793392181396,12.23104190826416
73,673932,673934,0.053734954446554184,0.039223477244377136,1.152647614479065,-15.86574649810791,65.32241821289062,-8.174283981323242,-0.5879706144332886,1.4549272060394287,0.32698363065719604,-1.8363698720932007,-4.188205242156982,12.14706039428711
74,673942,673944,0.03830889239907265,0.1183578372001648,1.1695871353149414,38.41300582885742,64.12464141845703,-12.13960075378418,-0.5924703478813171,1.4564270973205566,0.32848358154296875,-2.649864435195923,-4.472565174102783,12.035743713378906
75,673952,673954,0.09372672438621521,0.16783492267131805,1.0148770809173584,79.3307113647461,41.72167205810547,-14.426129341125488,-0.5999699831008911,1.445927619934082,0.3329833447933197,-3.081127166748047,-3.778292179107666,11.83513069152832
76,673962,673964,0.12195632606744766,0.020482318475842476,1.0291385650634766,93.95060729980469,1.0192875862121582,-10.449248313903809,-0.5909704566001892,1.4309284687042236,0.3239837884902954,-3.314700126647949,-3.2223093509674072,11.648348808288574
77,673972,673974,0.046317826956510544,0.12341201305389404,0.9613174796104431,72.92914581298828,-44.13359451293945,-5.705195903778076,-0.5789710283279419,1.4339282512664795,0.3119843900203705,-3.4848594665527344,-1.7737019062042236,11.557178497314453
78,673982,673984,0.12746073305606842,0.10046325623989105,0.9973552823066711,38.19451904296875,-79.88187408447266,-2.0695912837982178,-0.5834708213806152,1.4114294052124023,0.33748310804367065,-3.0582289695739746,-1.3660144805908203,11.486786842346191
79,673992,673994,0.09543056041002274,0.057853665202856064,1.0252270698547363,7.496562957763672,-97.60063171386719,-0.20431669056415558,-0.5714713931083679,1.408429503440857,0.32848358154296875,-1.9045346975326538,-1.2102152109146118,11.363787651062012
80,674002,674004,0.05649639666080475,0.1482587456703186,0.9278458952903748,-7.328248023986816,-85.78089904785156,1.5975449085235596,-0.554972231388092,1.4009299278259277,0.3119843900203705,-1.1110979318618774,-1.0899438858032227,11.426660537719727
81,674012,674014,0.039996933192014694,0.12427972257137299,0.9808743596076965,-21.77132797241211,-63.49324035644531,0.3773820698261261,-0.5459727048873901,1.4039298295974731,0.3029848337173462,0.015615572221577168,-1.2392196655273438,11.383771896362305
82,674022,674024,0.043464288115501404,0.10355693846940994,0.9064168930053711,-25.573280334472656,-35.291236877441406,-4.3476972579956055,-0.5414729118347168,1.3934303522109985,0.3134843111038208,0.27355626225471497,-1.5353244543075562,11.505971908569336
83,674032,674034,0.05957455188035965,0.024343332275748253,1.0307587385177612,-29.543363571166992,-4.5700297355651855,-9.945037841796875,-0.5594720244407654,1.408429503440857,0.31948402523994446,0.8174450993537903,-1.9713671207427979,11.42816162109375
84,674042,674044,0.03271535411477089,0.19066447019577026,0.9619755744934082,-33.42155456542969,28.069639205932617,-14.085529327392578,-0.5654717087745667,1.4174290895462036,0.31048446893692017,0.6241618990898132,-2.162838935852051,11.41173267364502
85,674052,674054,0.022129593417048454,0.13854260742664337,0.9265164136886597,-43.39893341064453,48.72292709350586,-18.875064849853516,-0.5759711861610413,1.4279285669326782,0.3149842321872711,0.21726126968860626,-2.214693546295166,11.314002990722656
86,674062,674064,0.028337381780147552,0.11058249324560165,1.0144214630126953,-60.62998580932617,39.306640625,-22.255258560180664,-0.5714713931083679,1.4414279460906982,0.3314834237098694,-0.2786935567855835,-2.8841233253479004,11.123032569885254
87,674072,674074,0.01834377460181713,0.11659856885671616,1.0071519613265991,-58.487945556640625,26.48699378967285,-23.518861770629883,-0.577471137046814,1.4414279460906982,0.33448326587677,-0.7330906987190247,-3.278681755065918,10.89714527130127
88,674082,674084,0.07334963232278824,0.09433974325656891,1.0312550067901611,-44.83722686767578,20.475770950317383,-27.277334213256836,-0.5684715509414673,1.4294284582138062,0.31948402523994446,-1.102063536643982,-4.105067253112793,10.680032730102539
89,674092,674094,-0.007197305094450712,0.058105818927288055,1.1964653730392456,-10.845708847045898,11.997572898864746,-29.732816696166992,-0.5609719157218933,1.4399279356002808,0.3329833447933197,-1.3519740104675293,-4.376710414886475,10.41148567199707
90,674102,674104,-0.07025036215782166,0.19715964794158936,1.068434476852417,28.225095748901367,-0.9309295415878296,-27.37870979309082,-0.56997150182724,1.3979300260543823,0.3149842321872711,-1.4468488693237305,-4.479110240936279,10.108248710632324
91,674112,674114,0.011664051562547684,-0.015577883459627628,1.1093693971633911,63.904632568359375,-19.288311004638672,-19.67066764831543,-0.5669716596603394,1.406929612159729,0.30898454785346985,-1.5738600492477417,-3.998056173324585,9.906230926513672
92,674122,674124,-0.04355817288160324,0.11011940240859985,1.2282004356384277,105.94772338867188,-29.98672866821289,-12.464073181152344,-0.5714713931083679,1.4174290895462036,0.31948402523994446,-1.4848649501800537,-2.9886815547943115,9.780179977416992
93,674132,674134,-0.024446656927466393,0.094141885638237,1.1275196075439453,122.82133483886719,-32.65096664428711,-4.440394401550293,-0.5729713439941406,1.4039298295974731,0.32998350262641907,-0.9632363319396973,-2.0572454929351807,9.5697660446167
94,674142,674144,0.04880455508828163,0.10513897985219955,0.9989810585975647,103.93921661376953,-35.60773468017578,1.225088357925415,-0.5714713931083679,1.3874305486679077,0.3134843111038208,-0.42838752269744873,-1.35264253616333,9.429443359375
95,674152,674154,0.0624580942094326,0.08230048418045044,0.9839101433753967,57.80561828613281,-31.89054298400879,-0.20708009600639343,-0.5444727540016174,1.369431495666504,0.30748462677001953,0.18937809765338898,-0.23634865880012512,9.315905570983887
96,674162,674164,0.09527397155761719,0.08448567986488342,0.975355327129364,3.79359769821167,-32.2977409362793,-6.903837203979492,-0.5414729118347168,1.3664315938949585,0.31048446893692017,-0.010379129089415073,0.23289676010608673,9.550752639770508
97,674172,674174,0.10639529675245285,0.13509757816791534,1.0051177740097046,-42.54496383666992,-27.310909271240234,-18.199464797973633,-0.5594720244407654,1.3634318113327026,0.2924853563308716,0.5149887204170227,0.2508673369884491,9.38696575164795
98,674182,674184,0.10372507572174072,0.15302444994449615,0.9505350589752197,-83.77034759521484,-15.015124320983887,-26.775964736938477,-0.5579720735549927,1.382930874824524,0.3119843900203705,0.7341942191123962,-0.3751709461212158,9.234039306640625
99,674192,674194,0.07670817524194717,0.09348472207784653,1.0400141477584839,-101.31781768798828,7.905284881591797,-30.315507888793945,-0.5564721822738647,1.3994300365447998,0.30748462677001953,1.1640628576278687,-1.5717487335205078,8.89113998413086
100,674202,674204,0.007974720560014248,0.1594097912311554,1.0884571075439453,-89.68569946289062,37.4456901550293,-30.773937225341797,-0.5639718174934387,1.4099295139312744,0.3029848337173462,0.2916715443134308,-1.9573547840118408,8.806283950805664
101,674212,674214,0.05815660580992699,0.04856032878160477,1.1449685096740723,-45.589019775390625,43.726341247558594,-32.34107971191406,-0.56997150182724,1.4159291982650757,0.3149842321872711,0.009518933482468128,-3.1680188179016113,8.490675926208496
102,674222,674224,0.03606757894158363,0.20115947723388672,1.2175558805465698,23.54130744934082,28.433305740356445,-31.192062377929688,-0.56997150182724,1.391930341720581,0.3209839463233948,-0.40854209661483765,-3.204425811767578,8.117005348205566
103,674232,674234,0.031498897820711136,0.12958674132823944,1.077912449836731,83.5296401977539,10.774818420410156,-31.435819625854492,-0.5669716596603394,1.3619319200515747,0.30898454785346985,-0.3474384844303131,-3.2088446617126465,7.702083110809326
104,674242,674244,0.045699503272771835,0.1022225171327591,0.9622726440429688,127.56282806396484,-27.134687423706055,-28.124160766601562,-0.5684715509414673,1.369431495666504,0.3044847846031189,-0.5489588975906372,-1.8997708559036255,7.3845319747924805
105,674252,674254,0.009763501584529877,0.0980694517493248,0.9731243848800659,147.6829833984375,-70.23079681396484,-21.257638931274414,-0.5639718174934387,1.3499324321746826,0.3119843900203705,0.021873122081160545,-1.0525704622268677,7.047847747802734
106,674262,674264,-0.02884811908006668,0.13731837272644043,0.8331501483917236,145.9845733642578,-97.3861312866211,-13.307379722595215,-0.5594720244407654,1.3574321269989014,0.29848507046699524,1.047619104385376,0.7049078941345215,6.686014175415039
107,674272,674274,0.06673578172922134,0.1520770788192749,0.8086420893669128,110.3853988647461,-100.42804718017578,-4.592556476593018,-0.5369731187820435,1.3499324321746826,0.30898454785346985,1.8975809812545776,1.7654125690460205,6.624561309814453
108,674282,674284,0.04446963965892792,0.1358770728111267,0.7713515758514404,58.597137451171875,-75.58757781982422,-1.6644359827041626,-0.5384730696678162,1.3274335861206055,0.28948551416397095,3.13092041015625,2.798579454421997,6.474874019622803
109,674292,674294,0.007382884155958891,0.21171174943447113,0.9258216023445129,10.483922958374023,-25.725383758544922,-3.6826093196868896,-0.5174741148948669,1.3184340000152588,0.28048595786094666,3.7090039253234863,3.101933479309082,6.532532691955566
110,674302,674304,-0.003971828147768974,0.14567020535469055,0.9201856851577759,-33.975677490234375,22.19135856628418,-8.097583770751953,-0.5474725961685181,1.339432954788208,0.2654867172241211,3.7772562503814697,3.264310836791992,6.519399642944336
111,674312,674314,-0.08915193378925323,0.1219058409333229,0.9763771891593933,-57.9382438659668,60.89104080200195,-7.735256195068359,-0.5474725961685181,1.369431495666504,0.2864856719970703,3.441314697265625,2.7913970947265625,6.516473293304443
112,674322,674324,-0.07118424773216248,0.1644291877746582,0.9844008088111877,-68.56123352050781,80.11580657958984,-5.176084995269775,-0.5639718174934387,1.382930874824524,0.2939853072166443,3.0527939796447754,2.078770160675049,6.49057149887085
113,674332,674334,0.015202326700091362,0.11851576715707779,0.9549550414085388,-57.03020095825195,83.11209869384766,-4.077412128448486,-0.5564721822738647,1.3814308643341064,0.3044847846031189,1.7891740798950195,1.5856260061264038,6.4224853515625
114,674342,674344,0.06699800491333008,0.09694130718708038,0.9688705205917358,-33.96877670288086,69.44397735595703,-3.5872902870178223,-0.5579720735549927,1.3739312887191772,0.30898454785346985,1.2837910652160645,0.9309476017951965,6.432720184326172
115,674352,674354,0.02229137346148491,0.1002950444817543,0.9957781434059143,-21.264883041381836,43.71366882324219,-5.088795185089111,-0.56997150182724,1.3499324321746826,0.2939853072166443,0.5199223756790161,0.4941272437572479,6.437362194061279
116,674362,674364,0.01081833429634571,0.05030825361609459,0.888156533241272,3.775120735168457,6.458314895629883,-8.00854206085205,-0.5594720244407654,1.3244338035583496,0.2954852283000946,0.2485397607088089,0.34477946162223816,6.3771071434021
117,674372,674374,0.04939570650458336,0.11646567285060883,0.9200412631034851,32.08493423461914,-27.30803680419922,-9.375450134277344,-0.5384730696678162,1.339432954788208,0.3014849126338959,0.2906583249568939,0.5996654629707336,6.2275590896606445
118,674382,674384,0.056610267609357834,0.12108165770769119,0.9535130858421326,52.34059143066406,-45.765586853027344,-7.370208740234375,-0.5489725470542908,1.3349332809448242,0.2939853072166443,0.48402640223503113,1.07935631275177,6.073312759399414
119,674392,674394,0.041037630289793015,0.05484508350491524,0.8734673261642456,60.130985260009766,-52.4465446472168,-5.468632698059082,-0.5474725961685181,1.3274335861206055,0.28948551416397095,1.1073710918426514,1.6409519910812378,5.984965801239014
120,674402,674404,0.038308992981910706,0.01215104479342699,0.8944681286811829,55.00634765625,-46.11384201049805,-5.511681079864502,-0.5489725470542908,1.3229337930679321,0.28198590874671936,1.341505527496338,2.3963000774383545,5.829959869384766
121,674412,674414,0.00735241686925292,0.15258772671222687,0.8233996033668518,32.128631591796875,-34.0367431640625,-8.278048515319824,-0.5489725470542908,1.3259336948394775,0.2969851493835449,1.7808250188827515,2.4834516048431396,5.907077312469482
122,674422,674424,0.02888387069106102,0.20006409287452698,0.9471527338027954,1.444850206375122,-18.358022689819336,-14.895831108093262,-0.5414729118347168,1.315434217453003,0.277486115694046,2.342167377471924,2.843956470489502,5.830144882202148
123,674432,674434,0.056787047535181046,0.037956397980451584,1.0141494274139404,-24.04263687133789,2.2396602630615234,-22.964750289916992,-0.5579720735549927,1.3469326496124268,0.2939853072166443,2.623626947402954,2.7122206687927246,5.746281623840332
124,674442,674444,0.016530022025108337,0.08646053820848465,0.97628253698349,-35.65837478637695,25.831035614013672,-27.77975082397461,-0.5594720244407654,1.3574321269989014,0.28948551416397095,2.571080446243286,2.408217191696167,5.546337127685547
125,674452,674454,-0.018861746415495872,0.10564784705638885,0.9445710778236389,-33.16388702392578,38.46566390991211,-25.05855369567871,-0.5564721822738647,1.3604319095611572,0.29848507046699524,2.117842197418213,2.2026214599609375,5.1939826011657715
126,674462,674464,0.03293595463037491,-0.03336460888385773,0.8794269561767578,-24.02042579650879,36.35386276245117,-21.116186141967773,-0.5579720735549927,1.3349332809448242,0.2969851493835449,1.5077606439590454,1.9602285623550415,4.8685221672058105
127,674472,674474,-0.010643095709383488,0.07097719609737396,0.9499876499176025,-4.779282093048096,20.116230010986328,-17.790132522583008,-0.5594720244407654,1.3424328565597534,0.30748462677001953,1.1483006477355957,1.6963225603103638,4.673940658569336
128,674482,674484,0.019576145336031914,0.12095309048891068,0.9144409894943237,25.852745056152344,-3.172952890396118,-15.129036903381348,-0.562471866607666,1.3604319095611572,0.29848507046699524,0.8418314456939697,1.6894594430923462,4.4583740234375
129,674492,674494,-0.020211873576045036,0.07017668336629868,0.98138827085495,53.69404220581055,-17.759899139404297,-12.78377914428711,-0.5564721822738647,1.3364331722259521,0.28948551416397095,0.8915769457817078,1.9417870044708252,4.309932231903076
130,674502,674504,-0.05661344155669212,0.018918214365839958,0.9625044465065002,71.65266418457031,-29.708898544311523,-8.174050331115723,-0.562471866607666,1.3604319095611572,0.3044847846031189,1.1204235553741455,2.3625359535217285,4.221765995025635
131,674512,674514,-0.05598944053053856,0.08229347318410873,1.0163999795913696,66.37421417236328,-30.268651962280273,-5.189593315124512,-0.5534723401069641,1.3484325408935547,0.28948551416397095,1.5404839515686035,3.3559505939483643,4.055318355560303
132,674522,674524,-0.032940033823251724,0.044326215982437134,0.9210257530212402,43.97180938720703,-22.17336654663086,-5.372677326202393,-0.5669716596603394,1.352932333946228,0.28798559308052063,1.9563806056976318,3.885519027709961,4.066667079925537
133,674532,674534,-0.01726679503917694,0.07487276941537857,0.9712621569633484,10.59253978729248,-13.871838569641113,-6.772466659545898,-0.5654717087745667,1.3274335861206055,0.2864856719970703,2.0350184440612793,4.438592433929443,3.9196054935455322
134,674542,674544,0.0012830825289711356,0.0388459675014019,0.9093896150588989,-14.09811019897461,-6.480935096740723,-6.415136337280273,-0.5534723401069641,1.3454327583312988,0.30748462677001953,2.1863694190979004,4.564818382263184,3.8494210243225098
135,674552,674554,-0.03139215335249901,0.0641271322965622,0.9303537607192993,-28.25824546813965,6.007944583892822,-5.632715702056885,-0.5579720735549927,1.3439327478408813,0.28198590874671936,2.218975067138672,4.371114730834961,3.7942492961883545
136,674562,674564,-0.014998470433056355,0.05293145775794983,0.9439519643783569,-22.745182037353516,14.060226440429688,-1.6960117816925049,-0.5564721822738647,1.3724313974380493,0.2924853563308716,2.123228073120117,4.159578800201416,3.701920509338379
137,674572,674574,-0.00037804216844961047,0.032394614070653915,0.9409236311912537,-13.098692893981934,18.40228843688965,3.0186502933502197,-0.5579720735549927,1.3619319200515747,0.31798410415649414,1.9652576446533203,3.8146908283233643,3.7250499725341797
138,674582,674584,0.03343651816248894,0.05682181939482689,0.9530028104782104,-2.752351760864258,23.058399200439453,6.074760913848877,-0.5684715509414673,1.3604319095611572,0.3044847846031189,1.8785464763641357,3.7735776901245117,3.772209644317627
139,674592,674594,0.006435191724449396,0.06259184330701828,0.9636430144309998,3.686450242996216,21.079448699951172,8.002199172973633,-0.5639718174934387,1.3649317026138306,0.2969851493835449,1.5793256759643555,3.8128321170806885,3.77919602394104
140,674602,674604,0.03713575750589371,0.02861671708524227,0.9484567046165466,3.724107265472412,17.48362922668457,10.155559539794922,-0.562471866607666,1.3634318113327026,0.29848507046699524,1.3043276071548462,3.8782589435577393,3.828911304473877
141,674612,674614,0.008254637010395527,0.0858350619673729,1.0185949802398682,-0.4240705966949463,13.793293952941895,10.174882888793945,-0.5579720735549927,1.3649317026138306,0.3029848337173462,1.1625025272369385,3.9949676990509033,3.9266042709350586
142,674622,674624,0.060551226139068604,0.020522205159068108,0.9542202353477478,1.899064540863037,11.497751235961914,8.840324401855469,-0.5714713931083679,1.3634318113327026,0.2954852283000946,1.010393500328064,3.976179361343384,4.034331321716309
143,674632,674634,0.04648682475090027,0.165604367852211,1.0204485654830933,10.670023918151855,4.404712200164795,5.899453163146973,-0.5819708704948425,1.367931604385376,0.3059847056865692,0.9745773077011108,3.9847521781921387,4.172290802001953
144,674642,674644,-0.003619361435994506,0.07972769439220428,1.016791820526123,17.180654525756836,-3.039787769317627,2.5421056747436523,-0.5744712948799133,1.3604319095611572,0.2924853563308716,1.0361804962158203,4.1378326416015625,4.278833866119385
145,674652,674654,0.021560003980994225,-0.02864433452486992,0.8991013765335083,16.225929260253906,-8.255036354064941,1.2133294343948364,-0.5744712948799133,1.3604319095611572,0.3014849126338959,1.072203516960144,4.385225772857666,4.280638217926025
146,674662,674664,-0.014303384348750114,0.0839262381196022,0.8549909591674805,6.863541603088379,-6.277132511138916,0.7973845601081848,-0.5804709792137146,1.3664315938949585,0.28948551416397095,1.1817965507507324,4.673864364624023,4.268657207489014
147,674672,674674,-0.01763145998120308,0.051525890827178955,0.9784344434738159,-12.072582244873047,2.4604949951171875,0.1852269023656845,-0.5609719157218933,1.367931604385376,0.2969851493835449,1.1793540716171265,4.713832378387451,4.248868942260742
148,674682,674684,-0.009223543107509613,0.03530126065015793,1.0480505228042603,-31.521265029907227,12.646520614624023,-1.2186410427093506,-0.577471137046814,1.3844307661056519,0.29848507046699524,1.121856927871704,4.601053714752197,4.229452610015869
149,674692,674694,-0.0004906608955934644,0.04774072766304016,0.994796633720398,-46.37302017211914,18.813865661621094,-1.8467192649841309,-0.5834708213806152,1.3784310817718506,0.30748462677001953,0.9036306738853455,4.104572296142578,4.221107006072998
150,674702,674704,-0.013786565512418747,0.07759718596935272,1.0505213737487793,-50.567108154296875,21.276559829711914,-1.8938205242156982,-0.5819708704948425,1.391930341720581,0.3059847056865692,0.711595892906189,3.936945676803589,4.142258644104004
151,674712,674714,0.0031665880233049393,-0.04672056809067726,1.0400872230529785,-49.21563720703125,21.41675567626953,-2.561032295227051,-0.5729713439941406,1.391930341720581,0.3119843900203705,0.8595937490463257,3.311497449874878,4.382564544677734
152,674722,674724,0.03858742490410805,0.1029759868979454,0.9574594497680664,-45.168338775634766,21.57512855529785,-3.219660997390747,-0.56997150182724,1.3859306573867798,0.31798410415649414,0.4745846688747406,3.00288724899292,4.217501640319824
153,674732,674734,0.0059302314184606075,0.06677727401256561,1.0327744483947754,-43.983158111572266,25.536911010742188,-1.7887014150619507,-0.56997150182724,1.3859306573867798,0.31798410415649414,0.4485299587249756,2.308276414871216,4.36831521987915
154,674742,674744,-0.019841033965349197,0.07758951932191849,0.9722539186477661,-44.72077178955078,28.168066024780273,-3.068718194961548,-0.56997150182724,1.3859306573867798,0.31798410415649414,0.13439901173114777,2.214508533477783,4.243404388427734
155,674752,674754,-0.027802521362900734,-0.019640475511550903,1.0427945852279663,-38.27730941772461,18.33207893371582,-6.318470478057861,-0.56997150182724,1.3859306573867798,0.31798410415649414,-0.3569790720939636,1.6754577159881592,4.119749546051025
156,674762,674764,-0.030923686921596527,0.09476710110902786,0.9933893084526062,-36.66522216796875,1.1600443124771118,-7.57181453704834,-0.56997150182724,1.3859306573867798,0.31798410415649414,0.25047755241394043,1.2123793363571167,4.53064489364624
157,674772,674774,0.060716208070516586,0.13637356460094452,1.062430739402771,-38.42034912109375,-9.679784774780273,-8.395929336547852,-0.6014699339866638,1.4114294052124023,0.31948402523994446,0.05918174982070923,1.0813909769058228,4.337464809417725
158,674782,674784,0.036487944424152374,-0.05544426292181015,1.0700273513793945,-45.623077392578125,-12.31722640991211,-4.322546482086182,-0.577471137046814,1.405429720878601,0.3224838674068451,0.2743067443370819,0.5419986844062805,4.341838359832764
159,674792,674794,0.01939048059284687,0.14383965730667114,1.0328928232192993,-47.82594299316406,-7.571073532104492,-2.6437606811523438,-0.5819708704948425,1.4039298295974731,0.32698363065719604,0.32185420393943787,0.3390539586544037,4.223374843597412
160,674802,674804,0.007676317356526852,0.18863673508167267,1.1093510389328003,-49.806976318359375,0.7258646488189697,-0.05435636639595032,-0.5789710283279419,1.421928882598877,0.3149842321872711,0.29819250106811523,-0.22086197137832642,4.161643981933594
161,674812,674814,0.015233693644404411,0.0786048024892807,1.0830415487289429,-50.4419059753418,15.745328903198242,0.7928045988082886,-0.5849707126617432,1.4279285669326782,0.3209839463233948,0.35312706232070923,-0.7297212481498718,4.1814398765563965
162,674822,674824,0.09143763780593872,0.06458862870931625,0.9980044960975647,-45.15279006958008,20.27899932861328,-1.790042757987976,-0.5864706635475159,1.4324283599853516,0.3224838674068451,-0.10811064392328262,-1.245429515838623,4.072604179382324
163,674832,674834,0.02229379676282406,-0.05661334469914436,1.164690613746643,-40.42982864379883,25.248565673828125,-5.320301532745361,-0.5819708704948425,1.4399279356002808,0.3209839463233948,-0.7584408521652222,-1.4585586786270142,3.8899333477020264
164,674842,674844,0.020859427750110626,0.08855227380990982,1.18893563747406,-31.664443969726562,36.44144821166992,-6.792171955108643,-0.5999699831008911,1.4309284687042236,0.3239837884902954,-0.1894872486591339,-2.0228688716888428,4.051726341247559
165,674852,674854,0.07954093813896179,0.048870280385017395,1.1741893291473389,-37.50984573364258,35.501243591308594,-3.6695668697357178,-0.6029698252677917,1.4399279356002808,0.3329833447933197,-0.5721597671508789,-2.325042486190796,3.9639499187469482
166,674862,674864,0.029699789360165596,0.09013906866312027,1.1244492530822754,-37.40858840942383,21.08431053161621,2.3226239681243896,-0.6074696183204651,1.435428261756897,0.3254837095737457,-0.9379684925079346,-2.198073148727417,3.8948681354522705
167,674872,674874,-0.010628308169543743,0.21660253405570984,1.1372215747833252,-63.647193908691406,2.2608895301818848,6.360856056213379,-0.5939702987670898,1.4309284687042236,0.32698363065719604,-1.3503754138946533,-2.91646409034729,3.8844969272613525
168,674882,674884,0.06843862682580948,0.1191244125366211,1.2595266103744507,-73.76022338867188,-16.888038635253906,8.087019920349121,-0.5999699831008911,1.445927619934082,0.3239837884902954,-1.3855682611465454,-3.350064277648926,3.9482696056365967
169,674892,674894,0.04278580844402313,0.16543105244636536,1.0455353260040283,-69.61885833740234,-12.531333923339844,9.571028709411621,-0.577471137046814,1.435428261756897,0.33448326587677,-1.3281135559082031,-4.324337005615234,4.027734756469727
170,674902,674904,0.0038876235485076904,0.1156589463353157,1.127975583076477,-45.67160415649414,1.1477714776992798,11.519186973571777,-0.5789710283279419,1.436928153038025,0.31798410415649414,-1.16915762424469,-4.784675598144531,4.14701509475708
171,674912,674914,0.051217854022979736,0.05430958420038223,1.196251630783081,-15.665830612182617,24.20858383178711,7.022176742553711,-0.5864706635475159,1.4294284582138062,0.3254837095737457,-1.1020959615707397,-5.596743583679199,4.220433235168457
172,674922,674924,0.01953856274485588,0.12464363873004913,0.9073954224586487,5.785672664642334,38.780147552490234,-0.8122672438621521,-0.5804709792137146,1.420428991317749,0.32848358154296875,-1.677529215812683,-5.45934534072876,4.386035442352295
173,674932,674934,0.07956966012716293,0.14490358531475067,1.022505760192871,7.835962772369385,27.976945877075195,-9.446126937866211,-0.5969701409339905,1.4279285669326782,0.3239837884902954,-2.037698984146118,-5.500801086425781,4.336008548736572
174,674942,674944,0.061488281935453415,-0.0107491509988904,1.1036721467971802,6.3960185050964355,8.116969108581543,-16.828189849853516,-0.5849707126617432,1.421928882598877,0.3119843900203705,-2.4335591793060303,-5.336460113525391,4.27681303024292
175,674952,674954,0.06667596846818924,0.13383758068084717,1.0234016180038452,7.579381465911865,4.524055480957031,-20.380990982055664,-0.5864706635475159,1.405429720878601,0.3134843111038208,-2.4266531467437744,-5.337108135223389,4.0626678466796875
176,674962,674964,0.019966792315244675,0.0818050429224968,1.0790907144546509,8.687135696411133,-10.86857795715332,-18.062908172607422,-0.5879706144332886,1.4129292964935303,0.3209839463233948,-2.4967429637908936,-5.312726020812988,3.8642070293426514
177,674972,674974,0.07642915844917297,0.0446992926299572,1.2764463424682617,11.82210636138916,-26.650959014892578,-12.819366455078125,-0.5834708213806152,1.405429720878601,0.3254837095737457,-2.243656635284424,-5.191646575927734,3.628610372543335
178,674982,674984,0.08299624919891357,0.06152678653597832,1.0840779542922974,14.506448745727539,-46.07624435424805,-9.64012622833252,-0.5909704566001892,1.406929612159729,0.3149842321872711,-2.1002676486968994,-5.097623348236084,3.5845468044281006
179,674992,674994,0.02023393288254738,0.15943580865859985,0.8348745703697205,15.081084251403809,-55.78122329711914,-4.948918342590332,-0.5729713439941406,1.3949302434921265,0.341982901096344,-1.4943596124649048,-5.076915264129639,3.398524045944214
180,675002,675004,0.015569399110972881,0.12685909867286682,0.8854963779449463,16.656728744506836,-55.3076171875,-1.3097376823425293,-0.5684715509414673,1.3904304504394531,0.3254837095737457,-1.0896755456924438,-4.878871917724609,3.498645782470703
181,675012,675014,-0.04662291705608368,0.082101970911026,1.0892291069030762,28.61639404296875,-40.77211380004883,-4.662268161773682,-0.562471866607666,1.3994300365447998,0.31948402523994446,-0.3857719898223877,-4.792265892028809,3.4125113487243652
182,675022,675024,0.016667084768414497,0.23015038669109344,0.9499319195747375,46.60380554199219,-17.273818969726562,-10.186962127685547,-0.5759711861610413,1.3979300260543823,0.3149842321872711,0.14079950749874115,-4.517557144165039,3.3421339988708496
183,675032,675034,0.0046895635314285755,-0.0020892824977636337,1.183679461479187,68.62271118164062,9.200237274169922,-18.69046401977539,-0.5819708704948425,1.3949302434921265,0.30898454785346985,-0.29151642322540283,-3.9481427669525146,3.7674336433410645
184,675042,675044,0.03605961427092552,0.09338045120239258,1.1677073240280151,86.26302337646484,25.672527313232422,-29.63348388671875,-0.5834708213806152,1.3994300365447998,0.3134843111038208,-0.2261020839214325,-3.452442169189453,3.4718363285064697
185,675052,675054,-0.03970348834991455,0.024947958067059517,1.1474696397781372,90.55181121826172,25.66438865661621,-33.370277404785156,-0.5789710283279419,1.3979300260543823,0.3239837884902954,-0.5894842743873596,-2.5034446716308594,3.3026325702667236
186,675062,675064,-0.08306141942739487,0.08470519632101059,0.9614778757095337,78.12910461425781,7.5774455070495605,-30.751968383789062,-0.5939702987670898,1.4009299278259277,0.32698363065719604,-0.7918400168418884,-1.7680079936981201,2.906923770904541
187,675072,675074,-0.05374101176857948,0.030803950503468513,0.8941181898117065,55.95084762573242,-18.79738426208496,-25.40172004699707,-0.56997150182724,1.3649317026138306,0.30898454785346985,-0.8850212693214417,-0.6377720236778259,2.663991928100586
188,675082,675084,-0.020219359546899796,0.11506886780261993,1.045076847076416,26.919090270996094,-35.457889556884766,-19.532852172851562,-0.577471137046814,1.354432225227356,0.3164841830730438,-0.5619155764579773,-0.5228346586227417,2.1785027980804443
189,675092,675094,-0.008208218961954117,0.03808782249689102,0.9558347463607788,-3.4547812938690186,-39.43374252319336,-15.440927505493164,-0.56997150182724,1.3649317026138306,0.3059847056865692,-0.250104159116745,-0.08183347433805466,2.032175064086914
190,675102,675104,0.006659085862338543,-0.008056854829192162,1.0293546915054321,-38.212406158447266,-29.698612213134766,-13.869736671447754,-0.5654717087745667,1.3574321269989014,0.30748462677001953,-0.009240301325917244,-0.12296240776777267,1.9655983448028564
191,675112,675114,0.008035188540816307,0.04465913027524948,0.9974090456962585,-63.70509719848633,-24.497312545776367,-9.936336517333984,-0.577471137046814,1.3934303522109985,0.3134843111038208,0.5165570974349976,-0.6535483598709106,1.6596163511276245
192,675122,675124,0.07104303687810898,0.06515374779701233,1.0170942544937134,-77.60679626464844,-28.9166202545166,-3.8905556201934814,-0.577471137046814,1.3874305486679077,0.31948402523994446,0.6581259369850159,-1.3684908151626587,1.5982694625854492
193,675132,675134,-0.0018036460969597101,0.06671465933322906,1.0527217388153076,-71.32434844970703,-35.92884063720703,1.049623966217041,-0.577471137046814,1.3934303522109985,0.3164841830730438,0.8060148358345032,-2.1796185970306396,1.628976821899414
194,675142,675144,0.0009217495680786669,0.06556258350610733,0.9877876043319702,-28.536590576171875,-41.9937629699707,8.287873268127441,-0.5654717087745667,1.3904304504394531,0.3224838674068451,1.2835227251052856,-2.9582536220550537,1.573128581047058
195,675152,675154,-0.024952098727226257,-0.000961081706918776,1.0913774967193604,31.520938873291016,-31.82752227783203,16.008342742919922,-0.5564721822738647,1.3634318113327026,0.31948402523994446,1.5658692121505737,-3.14449143409729,1.7438706159591675
196,675162,675164,-0.04896831512451172,0.028127171099185944,1.0464295148849487,71.22430419921875,-5.184996604919434,20.570308685302734,-0.5594720244407654,1.3754311800003052,0.3224838674068451,2.046161413192749,-2.7979395389556885,1.8448973894119263
197,675172,675174,0.005185320507735014,-0.08597493916749954,1.0216425657272339,85.0946273803711,21.61149787902832,19.32037353515625,-0.5654717087745667,1.3634318113327026,0.3224838674068451,1.9516006708145142,-2.090587854385376,2.1360082626342773
198,675182,675184,0.047094281762838364,0.024461284279823303,0.8808404803276062,85.4188003540039,43.0584716796875,16.221813201904297,-0.5669716596603394,1.3799309730529785,0.30898454785346985,1.7671095132827759,-1.124912142753601,2.3156492710113525
199,675192,675194,-0.014350096695125103,-0.07082608342170715,0.8394907116889954,69.64469146728516,50.5800666809082,14.104926109313965,-0.56997150182724,1.3709313869476318,0.3119843900203705,1.3161290884017944,-0.5643318295478821,2.4957375526428223
200,675202,675204,-0.07585472613573074,0.14312735199928284,0.8750288486480713,45.16111755371094,45.91487121582031,11.361570358276367,-0.5594720244407654,1.3484325408935547,0.30748462677001953,0.822666585445404,0.44041773676872253,2.6297736167907715
201,675212,675214,0.05360722914338112,0.20521901547908783,0.9060849547386169,27.44150733947754,33.850528717041016,8.01811695098877,-0.5729713439941406,1.3499324321746826,0.2969851493835449,0.18465763330459595,0.7803309559822083,2.841395139694214
202,675222,675224,0.016161756590008736,0.07531912624835968,0.9015064239501953,12.627518653869629,9.293932914733887,7.141637325286865,-0.5609719157218933,1.3409329652786255,0.3119843900203705,0.046914611011743546,1.0360382795333862,2.8438351154327393
203,675232,675234,-0.002710725413635373,0.06124555692076683,0.9702461361885071,2.354757308959961,-12.256288528442383,10.820271492004395,-0.5564721822738647,1.3424328565597534,0.3014849126338959,0.14018236100673676,1.1132961511611938,2.847520112991333
204,675242,675244,-0.0014901459217071533,0.020807666704058647,0.8768566250801086,-4.332657814025879,-22.037487030029297,12.983846664428711,-0.5714713931083679,1.3364331722259521,0.29848507046699524,0.21345874667167664,1.1690202951431274,2.959397077560425
205,675252,675254,-0.03477555140852928,0.058646705001592636,0.9225918054580688,-5.618072509765625,-25.52669334411621,14.825822830200195,-0.5714713931083679,1.3424328565597534,0.2954852283000946,0.5935551524162292,0.9855056405067444,3.0468907356262207
206,675262,675264,0.0022802636958658695,0.026737401261925697,0.8674815893173218,1.9552675485610962,-20.60335922241211,15.624768257141113,-0.5639718174934387,1.3439327478408813,0.3029848337173462,0.857790470123291,0.9449840188026428,3.186288595199585
207,675272,675274,-0.009585042484104633,0.09189286082983017,0.9728769063949585,12.904094696044922,-10.539759635925293,15.578825950622559,-0.5564721822738647,1.354432225227356,0.3014849126338959,1.1241512298583984,1.0327433347702026,3.3239996433258057
208,675282,675284,-0.02445363998413086,0.009215965867042542,0.8627235889434814,23.140108108520508,6.737417221069336,15.283782005310059,-0.5654717087745667,1.3514324426651,0.3014849126338959,1.0793373584747314,1.2713419198989868,3.4968411922454834
209,675292,675294,-0.022792888805270195,0.07709233462810516,0.9511691927909851,28.98480796813965,24.93158721923828,13.481783866882324,-0.5669716596603394,1.367931604385376,0.30898454785346985,0.8865045309066772,1.662964105606079,3.6539063453674316
210,675302,675304,-0.003056977642700076,0.03256326541304588,0.9000371098518372,22.751787185668945,31.5407772064209,10.062427520751953,-0.5729713439941406,1.3709313869476318,0.3059847056865692,0.6401235461235046,1.990389108657837,3.792921304702759
211,675312,675314,-0.013686484657227993,-0.03420819714665413,0.8934925198554993,2.5250320434570312,25.09600257873535,5.831747055053711,-0.5834708213806152,1.3514324426651,0.31048446893692017,0.4339684545993805,2.06823468208313,3.9155166149139404
212,675322,675324,-0.03169318661093712,0.04319585859775543,0.945084810256958,-13.072149276733398,9.781765937805176,0.9802318811416626,-0.5714713931083679,1.3724313974380493,0.3164841830730438,0.19839374721050262,2.111992835998535,3.9835004806518555
213,675332,675334,-0.092552050948143,0.14398349821567535,0.9122154712677002,-19.05404281616211,-7.149800777435303,-3.0250494480133057,-0.5789710283279419,1.3589320182800293,0.2939853072166443,0.251272976398468,1.9680185317993164,4.006194591522217
214,675342,675344,0.007536226883530617,0.05667289346456528,0.9243927597999573,-19.74498176574707,-16.58463478088379,-4.938311576843262,-0.5654717087745667,1.3664315938949585,0.31048446893692017,0.3682641386985779,1.6666117906570435,3.9919238090515137
215,675352,675354,0.00508629297837615,0.03361168131232262,0.947410523891449,-13.205759048461914,-14.474349021911621,-5.402799129486084,-0.5714713931083679,1.3784310817718506,0.30748462677001953,0.33798733353614807,1.6370034217834473,3.911078691482544
216,675362,675364,-0.0012685877736657858,0.14817488193511963,1.0259501934051514,0.2684561610221863,-8.201949119567871,-5.750731468200684,-0.5714713931083679,1.3724313974380493,0.30748462677001953,0.5757418274879456,1.6379375457763672,3.8515045642852783
217,675372,675374,0.014060131274163723,0.0145816495642066,0.9137217998504639,10.708537101745605,0.21016499400138855,-7.4112749099731445,-0.5789710283279419,1.376931071281433,0.31798410415649414,0.7695806622505188,1.6333869695663452,3.8078525066375732
218,675382,675384,-0.03861980140209198,0.07070820778608322,1.0064167976379395,22.803443908691406,9.09451961517334,-8.275670051574707,-0.5744712948799133,1.3874305486679077,0.3134843111038208,0.8078961372375488,1.7920390367507935,3.7350990772247314
219,675392,675394,0.020473292097449303,0.04904660955071449,0.9806358218193054,30.538522720336914,23.9873104095459,-7.533982276916504,-0.5639718174934387,1.3949302434921265,0.3149842321872711,0.6188933849334717,2.151949882507324,3.6284801959991455
220,675402,675404,0.04144398495554924,0.018444953486323357,0.9481487274169922,31.236417770385742,37.56101608276367,-4.9619340896606445,-0.5924703478813171,1.3964301347732544,0.31048446893692017,0.639931857585907,2.2607500553131104,3.622689962387085
221,675412,675414,0.07006333768367767,0.06726028770208359,0.946327269077301,20.879608154296875,42.26373291015625,-2.449033498764038,-0.5909704566001892,1.3889305591583252,0.29998499155044556,0.22156532108783722,2.6679458618164062,3.566025495529175
222,675422,675424,0.033749647438526154,0.08847936987876892,1.0308725833892822,2.8917853832244873,33.10158157348633,1.4460550546646118,-0.5984700918197632,1.3874305486679077,0.3164841830730438,0.013568062335252762,2.8870551586151123,3.6065433025360107
223,675432,675434,0.032524898648262024,0.12620948255062103,1.053724765777588,-22.041820526123047,21.71450424194336,6.085936069488525,-0.5894705057144165,1.3844307661056519,0.3044847846031189,-0.43232038617134094,2.8808345794677734,3.6141738891601562
224,675442,675444,0.03544480726122856,0.07822484523057938,0.9640318155288696,-45.3501091003418,15.318987846374512,7.4015421867370605,-0.5924703478813171,1.3844307661056519,0.31948402523994446,-0.4699556231498718,2.7476963996887207,3.7253193855285645
225,675452,675454,0.02482709474861622,0.09704994410276413,1.0039944648742676,-68.81095123291016,4.751470565795898,7.1138153076171875,-0.6014699339866638,1.3994300365447998,0.3134843111038208,-0.9607457518577576,2.226313829421997,3.7098066806793213
226,675462,675464,0.02871958166360855,0.052355557680130005,1.0369068384170532,-89.6259536743164,0.6377487778663635,10.547154426574707,-0.5984700918197632,1.405429720878601,0.3044847846031189,-0.6398725509643555,1.5497924089431763,3.9049580097198486
227,675472,675474,0.015876663848757744,0.07390505820512772,1.0986249446868896,-97.27922058105469,2.767805814743042,13.059185028076172,-0.5939702987670898,1.421928882598877,0.3149842321872711,-0.6255645155906677,0.4648039937019348,4.017968654632568
228,675482,675484,0.07314086705446243,0.030675018206238747,1.0314598083496094,-81.65644073486328,8.481121063232422,15.730364799499512,-0.5999699831008911,1.4339282512664795,0.32698363065719604,-0.7123488187789917,-0.28488484025001526,4.124206066131592
229,675492,675494,0.09595343470573425,0.04403075948357582,0.9673968553543091,-51.4171028137207,14.98416519165039,13.806611061096191,-0.5999699831008911,1.4339282512664795,0.32698363065719604,-0.707988440990448,-0.8690599799156189,4.309793949127197
230,675502,675504,0.08230385929346085,-0.010601360350847244,1.2308398485183716,-37.610965728759766,15.894776344299316,11.660198211669922,-0.6014699339866638,1.4324283599853516,0.3134843111038208,-1.0731656551361084,-1.4191205501556396,4.376073360443115
231,675512,675514,0.06518550217151642,-0.027263035997748375,1.2754275798797607,-20.41928482055664,18.796188354492188,13.38972282409668,-0.6014699339866638,1.4324283599853516,0.3134843111038208,-1.0977247953414917,-1.7093359231948853,4.532412528991699
232,675522,675524,0.029142621904611588,0.10869669914245605,1.1203168630599976,-11.405221939086914,5.625517845153809,13.904122352600098,-0.5909704566001892,1.421928882598877,0.32698363065719604,-1.368127703666687,-1.9804552793502808,4.631428241729736
233,675532,675534,0.041669685393571854,0.10986722260713577,1.055895447731018,-6.532386302947998,-12.028765678405762,16.357559204101562,-0.5939702987670898,1.4159291982650757,0.3239837884902954,-1.1510854959487915,-2.1399638652801514,4.825250148773193
234,675542,675544,0.03841014578938484,0.07486695051193237,1.0277128219604492,-5.327523231506348,-21.346351623535156,18.640663146972656,-0.5909704566001892,1.4159291982650757,0.32998350262641907,-1.1738710403442383,-2.0868403911590576,4.981133460998535
235,675552,675554,0.05931488424539566,0.07775836437940598,1.0260045528411865,-0.8884832859039307,-18.556560516357422,21.778297424316406,-0.5894705057144165,1.408429503440857,0.3164841830730438,-1.092321515083313,-2.0894439220428467,5.1605987548828125
236,675562,675564,0.049270059913396835,0.038635581731796265,1.043080449104309,16.942838668823242,-20.404691696166992,23.022035598754883,-0.5849707126617432,1.406929612159729,0.31798410415649414,-0.8365854620933533,-2.155911922454834,5.379619121551514
237,675572,675574,0.06887242197990417,0.0566311813890934,1.0764492750167847,29.583356857299805,-17.673362731933594,23.682819366455078,-0.5819708704948425,1.4189289808273315,0.3209839463233948,-0.908314049243927,-1.9366753101348877,5.608186721801758
238,675582,675584,0.019384518265724182,0.08515514433383942,1.0904228687286377,37.46542739868164,-8.827876091003418,25.89708137512207,-0.6029698252677917,1.4159291982650757,0.3119843900203705,-0.6495624780654907,-1.5828876495361328,5.860006809234619
239,675592,675594,0.048381347209215164,0.22101514041423798,0.9840127229690552,38.51139831542969,5.268300533294678,26.290769577026367,-0.5894705057144165,1.4174290895462036,0.31948402523994446,-0.5357160568237305,-1.1749097108840942,6.120856285095215
240,675602,675604,0.08276566863059998,0.11153411120176315,0.9728992581367493,32.07779312133789,16.046239852905273,25.119834899902344,-0.5864706635475159,1.4144293069839478,0.3224838674068451,-0.6468505263328552,-0.8818739056587219,6.369803428649902
241,675612,675614,0.029016276821494102,0.00828539952635765,1.1779245138168335,20.154743194580078,14.632120132446289,23.123493194580078,-0.577471137046814,1.4264286756515503,0.3164841830730438,-0.7839593887329102,-0.6862695217132568,6.601573467254639
242,675622,675624,0.028864195570349693,0.09370338916778564,1.004400610923767,21.022809982299805,16.370079040527344,22.221731185913086,-0.5864706635475159,1.4114294052124023,0.3164841830730438,-1.045540452003479,-0.3805069327354431,6.8519792556762695
243,675632,675634,0.034106384962797165,0.04845429211854935,0.8662935495376587,24.23570442199707,17.46705436706543,22.960847854614258,-0.5984700918197632,1.4294284582138062,0.3134843111038208,-1.3304072618484497,-0.0709790587425232,7.094884395599365
244,675642,675644,-0.0128666702657938,-0.031751472502946854,1.068300724029541,13.137228965759277,22.4292049407959,21.990062713623047,-0.5909704566001892,1.4159291982650757,0.3149842321872711,-1.5452719926834106,0.2683264911174774,7.341595649719238
245,675652,675654,0.04162517562508583,0.03451301157474518,0.9690279960632324,-8.923809051513672,16.719831466674805,18.370485305786133,-0.5924703478813171,1.4234287738800049,0.31948402523994446,-1.957807183265686,0.280285507440567,7.553983211517334
246,675662,675664,0.053482331335544586,0.12551628053188324,1.0105631351470947,-39.37226104736328,2.9266319274902344,16.981334686279297,-0.5894705057144165,1.420428991317749,0.31048446893692017,-1.9340919256210327,0.17628289759159088,7.719006538391113
247,675672,675674,0.0640348270535469,0.05839434266090393,1.0499885082244873,-63.60209274291992,-9.282487869262695,14.509181022644043,-0.5894705057144165,1.4294284582138062,0.31948402523994446,-1.6875704526901245,-0.06501096487045288,7.900765419006348
248,675682,675684,0.0538012720644474,-0.06206873059272766,1.1402610540390015,-68.13004302978516,-23.650203704833984,11.31826114654541,-0.5849707126617432,1.4339282512664795,0.3329833447933197,-1.909655213356018,-0.8656440377235413,8.018738746643066
249,675692,675694,0.0884631797671318,0.05950259789824486,1.2396953105926514,-52.4996223449707,-24.33987808227539,9.277076721191406,-0.56997150182724,1.4339282512664795,0.32698363065719604,-1.7316219806671143,-1.2871041297912598,8.195965766906738
250,675702,675704,0.06321240216493607,0.054053474217653275,1.3377379179000854,-31.090988159179688,-28.361013412475586,5.55007266998291,-0.5789710283279419,1.4339282512664795,0.3329833447933197,-1.173217535018921,-2.0723276138305664,8.231807708740234
251,675712,675714,0.008648871444165707,-0.001642865827307105,1.2117844820022583,-8.84024715423584,-36.53334426879883,2.4476306438446045,-0.5714713931083679,1.4504274129867554,0.33448326587677,-1.4226924180984497,-2.2139298915863037,8.374629020690918
252,675722,675724,0.03743596374988556,0.03447139263153076,1.1574805974960327,2.995548963546753,-39.98664855957031,-2.395618438720703,-0.5669716596603394,1.4339282512664795,0.32698363065719604,-1.0661969184875488,-2.415802240371704,8.390908241271973
253,675732,675734,0.005187520757317543,0.14437617361545563,0.9970895051956177,11.186639785766602,-32.02863693237305,-5.194179534912109,-0.5759711861610413,1.4279285669326782,0.3329833447933197,-0.6715762615203857,-2.4214534759521484,8.38217830657959
254,675742,675744,0.08775018900632858,0.0767834261059761,0.973745584487915,24.006776809692383,-15.330246925354004,-6.742995262145996,-0.5609719157218933,1.406929612159729,0.31798410415649414,-0.24298585951328278,-2.127488136291504,8.378606796264648
255,675752,675754,0.06667839735746384,0.06638031452894211,1.1089805364608765,28.10841941833496,11.442892074584961,-6.688366413116455,-0.5729713439941406,1.4189289808273315,0.32698363065719604,-0.23619341850280762,-1.8692673444747925,8.352418899536133
256,675762,675764,0.08626788854598999,-0.0038038359489291906,1.2650848627090454,15.936264991760254,27.34950828552246,-3.653053045272827,-0.5759711861610413,1.4129292964935303,0.3059847056865692,-0.3380930721759796,-1.6773619651794434,8.271663665771484
257,675772,675774,-0.05583203583955765,0.08473096787929535,0.9913385510444641,-2.2283551692962646,24.797809600830078,0.7462149858474731,-0.5684715509414673,1.4144293069839478,0.3224838674068451,-1.332653284072876,-1.4653873443603516,8.36701774597168
258,675782,675784,0.01092295441776514,0.1631876677274704,0.9458285570144653,-31.925182342529297,14.013120651245117,4.51515531539917,-0.5834708213806152,1.408429503440857,0.31948402523994446,-1.4928572177886963,-1.5241986513137817,8.328123092651367
259,675792,675794,-0.041698236018419266,-0.014570166356861591,1.0596201419830322,-35.87187957763672,3.619715929031372,4.831233978271484,-0.5639718174934387,1.4129292964935303,0.30898454785346985,-1.4702430963516235,-1.9968663454055786,8.296220779418945
260,675802,675804,0.01570882461965084,0.02423170395195484,1.0052739381790161,-13.227226257324219,-6.279294013977051,1.8597520589828491,-0.5684715509414673,1.4114294052124023,0.3314834237098694,-1.9337280988693237,-2.1756720542907715,8.460395812988281
261,675812,675814,0.01059725508093834,0.018715407699346542,1.1394374370574951,26.865907669067383,-30.34324073791504,0.28552016615867615,-0.577471137046814,1.4144293069839478,0.3254837095737457,-1.6457713842391968,-2.3559799194335938,8.430959701538086
262,675822,675824,0.018261898308992386,0.07806914299726486,1.0645320415496826,71.926513671875,-50.25252914428711,2.092641830444336,-0.5579720735549927,1.4039298295974731,0.3119843900203705,-1.188375473022461,-1.9728063344955444,8.44776725769043
263,675832,675834,0.010803456418216228,0.08580489456653595,0.9571365118026733,108.08169555664062,-63.850284576416016,3.4399900436401367,-0.5744712948799133,1.408429503440857,0.3164841830730438,-0.29854822158813477,-1.1452131271362305,8.418030738830566
264,675842,675844,-0.021062340587377548,0.06474002450704575,0.9494629502296448,128.18336486816406,-65.16431427001953,4.073840141296387,-0.5744712948799133,1.4024298191070557,0.3164841830730438,0.44776493310928345,-0.23297354578971863,8.405467987060547
265,675852,675854,0.014983568340539932,0.11216895282268524,0.7790251970291138,117.70841979980469,-44.5028190612793,4.747146129608154,-0.5594720244407654,1.4024298191070557,0.3164841830730438,0.9293944835662842,0.8222346305847168,8.442643165588379
266,675862,675864,0.027034463360905647,0.07269876450300217,0.9201493263244629,83.90876007080078,-27.52349853515625,1.0460221767425537,-0.5609719157218933,1.3799309730529785,0.3029848337173462,1.2575032711029053,2.1610965728759766,8.537492752075195
267,675872,675874,0.0225311741232872,-0.002285960130393505,0.9132706522941589,45.936004638671875,-21.527109146118164,-6.496144771575928,-0.5444727540016174,1.3754311800003052,0.3044847846031189,1.72500479221344,2.8984036445617676,8.483277320861816
268,675882,675884,-0.010271796025335789,0.10088744014501572,0.8946560621261597,0.362575888633728,-19.055435180664062,-17.271013259887695,-0.5594720244407654,1.3664315938949585,0.30748462677001953,1.8596066236495972,3.6024913787841797,8.445738792419434
269,675892,675894,0.05916284769773483,0.040072325617074966,0.9730901718139648,-35.7813720703125,-8.491681098937988,-29.527841567993164,-0.5489725470542908,1.376931071281433,0.28798559308052063,1.7528115510940552,3.4342868328094482,8.288128852844238
270,675902,675904,0.016650838777422905,0.08647692203521729,0.9846139550209045,-59.20245361328125,12.202274322509766,-39.4940071105957,-0.5474725961685181,1.3664315938949585,0.2924853563308716,2.0197911262512207,2.922985792160034,7.9937286376953125
271,675912,675914,0.06564413756132126,0.03672121465206146,0.9514983296394348,-72.6776351928711,32.21910858154297,-49.24999237060547,-0.554972231388092,1.391930341720581,0.2939853072166443,1.6766083240509033,2.4542415142059326,7.60721492767334
272,675922,675924,0.08291690051555634,-0.019511627033352852,1.0663933753967285,-67.70452880859375,32.91868209838867,-55.488189697265625,-0.5564721822738647,1.3844307661056519,0.31048446893692017,1.1055011749267578,1.633716106414795,7.124106407165527
273,675932,675934,0.014166862703859806,0.02291763573884964,0.9926528334617615,-52.60798263549805,24.489282608032227,-57.751800537109375,-0.5759711861610413,1.3979300260543823,0.3149842321872711,1.0762512683868408,1.0239841938018799,6.619661331176758
274,675942,675944,-0.01583261229097843,0.0543987974524498,0.9694228172302246,-27.239269256591797,5.742439270019531,-60.167903900146484,-0.5639718174934387,1.3859306573867798,0.3059847056865692,0.768105685710907,0.9957992434501648,5.995882987976074
275,675952,675954,0.044433895498514175,-0.03063206933438778,0.9925620555877686,-0.31070393323898315,-15.292401313781738,-58.395774841308594,-0.5669716596603394,1.3709313869476318,0.30898454785346985,0.7548194527626038,0.5781835317611694,5.426514625549316
276,675962,675964,-0.009125687181949615,0.043509770184755325,1.0390124320983887,15.454302787780762,-35.84916687011719,-53.445858001708984,-0.5714713931083679,1.3664315938949585,0.31048446893692017,0.8782366514205933,0.7484815120697021,4.8190999031066895
277,675972,675974,-0.09527776390314102,0.15580056607723236,1.01854407787323,21.675642013549805,-42.209712982177734,-47.74943923950195,-0.5669716596603394,1.3739312887191772,0.3059847056865692,1.3852239847183228,0.9525259733200073,4.304195404052734
278,675982,675984,-0.03237631916999817,0.08834058046340942,0.9680576324462891,18.117313385009766,-39.70561981201172,-42.67500686645508,-0.5594720244407654,1.3724313974380493,0.31948402523994446,1.9192181825637817,1.1799912452697754,3.8360462188720703
279,675992,675994,-0.04801786318421364,0.013207967393100262,0.9849167466163635,0.972000241279602,-30.11479949951172,-36.95735549926758,-0.56997150182724,1.3559322357177734,0.3119843900203705,2.4618630409240723,1.336675763130188,3.431427478790283
280,676002,676004,-0.016556845977902412,0.023569617420434952,0.9711997509002686,-21.12581443786621,-14.771964073181152,-32.505767822265625,-0.5594720244407654,1.3574321269989014,0.31948402523994446,2.5529208183288574,1.4285770654678345,2.99945068359375
281,676012,676014,-0.024338342249393463,0.038337137550115585,0.9757422208786011,-37.46152114868164,4.016824722290039,-28.308277130126953,-0.5654717087745667,1.3664315938949585,0.31048446893692017,2.7501370906829834,1.0888763666152954,2.7160394191741943
282,676022,676024,-0.0027336962521076202,0.0662744790315628,1.0139864683151245,-40.705833435058594,21.067432403564453,-25.415252685546875,-0.5534723401069641,1.3724313974380493,0.30748462677001953,2.5169637203216553,0.8653503656387329,2.357862949371338
283,676032,676034,0.001034451532177627,0.06236821785569191,1.0120729207992554,-41.40664291381836,34.36577224731445,-23.096288681030273,-0.5654717087745667,1.3844307661056519,0.31048446893692017,2.5128183364868164,0.6196771264076233,2.1086976528167725
284,676042,676044,-0.005522073712199926,0.0064712706953287125,0.9751656651496887,-43.876529693603516,34.60359191894531,-25.31934928894043,-0.5789710283279419,1.391930341720581,0.3059847056865692,2.277066230773926,0.07411503046751022,1.9424717426300049
285,676052,676054,0.020369524136185646,0.03289058431982994,1.033983826637268,-55.26652526855469,25.359256744384766,-28.524721145629883,-0.5654717087745667,1.3814308643341064,0.29848507046699524,1.831580638885498,-0.1653042882680893,1.6068367958068848
286,676062,676064,0.01623999886214733,0.03346161171793938,1.0254793167114258,-58.190521240234375,15.694467544555664,-29.939619064331055,-0.5819708704948425,1.3859306573867798,0.3029848337173462,1.66985023021698,-0.8709381818771362,1.3977928161621094
287,676072,676074,0.017368247732520103,0.07339842617511749,1.0390169620513916,-48.50874328613281,8.377230644226074,-34.70219421386719,-0.5804709792137146,1.4024298191070557,0.3164841830730438,1.4637236595153809,-1.1073906421661377,0.9799224734306335
288,676082,676084,0.036754120141267776,0.07958231121301651,1.036255955696106,-29.020503997802734,-4.071821212768555,-38.09340286254883,-0.5789710283279419,1.3949302434921265,0.32698363065719604,1.5159063339233398,-1.975589394569397,0.7865306735038757
289,676092,676094,-0.005789288319647312,-0.05844428762793541,0.9973824620246887,-21.253467559814453,-15.417083740234375,-39.545143127441406,-0.5759711861610413,1.3859306573867798,0.31798410415649414,1.552278757095337,-1.8843308687210083,0.2864378094673157
290,676102,676104,0.0051996707916259766,0.05451517552137375,1.0700204372406006,-10.202510833740234,-12.18505859375,-40.19277572631836,-0.5849707126617432,1.4039298295974731,0.32698363065719604,1.7414268255233765,-2.251831531524658,-0.045708928257226944
291,676112,676114,0.009230469353497028,0.06827256083488464,1.0076154470443726,8.599279403686523,-0.9411229491233826,-41.23418045043945,-0.5639718174934387,1.391930341720581,0.3209839463233948,1.967518925666809,-2.1999495029449463,-0.4803299307823181
292,676122,676124,0.003494294360280037,0.09213261306285858,0.9933525919914246,20.817089080810547,6.044717788696289,-43.0686149597168,-0.5789710283279419,1.3889305591583252,0.3209839463233948,1.8687595129013062,-2.130307674407959,-0.894901692867279
293,676132,676134,0.03637670353055,0.08531006425619125,0.9766334891319275,22.110885620117188,10.723733901977539,-44.85796356201172,-0.5999699831008911,1.3949302434921265,0.3209839463233948,1.8764541149139404,-1.8677153587341309,-1.3362207412719727
294,676142,676144,-0.06469166278839111,0.1163816973567009,0.9690161347389221,25.775314331054688,23.538358688354492,-45.28251647949219,-0.5894705057144165,1.405429720878601,0.33448326587677,1.8649439811706543,-1.447087287902832,-1.8425332307815552
295,676152,676154,0.0072906408458948135,0.09932149946689606,1.0258270502090454,29.18762969970703,46.96572494506836,-45.81782150268555,-0.6074696183204651,1.408429503440857,0.32848358154296875,1.4035059213638306,-1.3922450542449951,-2.2234303951263428
296,676162,676164,-0.022052424028515816,0.04376625642180443,1.0003061294555664,28.97943115234375,60.52385330200195,-45.725624084472656,-0.6134693026542664,1.4264286756515503,0.32848358154296875,1.152984857559204,-0.990451991558075,-2.7283072471618652
297,676172,676174,0.0030101826414465904,0.039548493921756744,0.9875408411026001,19.471935272216797,56.300071716308594,-40.63096237182617,-0.6179690957069397,1.4039298295974731,0.3329833447933197,0.25612738728523254,-0.6673389077186584,-3.1828980445861816
298,676182,676184,-0.05084952712059021,-0.07199446856975555,1.0353946685791016,0.10979872196912766,31.06711769104004,-31.18926239013672,-0.6074696183204651,1.405429720878601,0.3314834237098694,0.22973524034023285,-0.4629894196987152,-3.6285951137542725
299,676192,676194,-0.04732026904821396,0.016484297811985016,1.019868016242981,-18.795324325561523,-6.682255744934082,-20.177295684814453,-0.6044697761535645,1.3844307661056519,0.33748310804367065,-0.18905681371688843,-0.5519381165504456,-3.915055990219116
300,676202,676204,-0.02811991423368454,0.02206900529563427,0.9814962148666382,-34.911739349365234,-38.067195892333984,-14.001895904541016,-0.6029698252677917,1.3889305591583252,0.32698363065719604,-0.0767975002527237,-0.9434198141098022,-4.072317600250244
301,676212,676214,-0.056854765862226486,0.010184535756707191,0.9867733120918274,-50.32471466064453,-54.428462982177734,-8.201809883117676,-0.5999699831008911,1.391930341720581,0.32698363065719604,0.5320904850959778,-1.1607015132904053,-4.253122329711914
302,676222,676224,0.01242113672196865,0.0593777596950531,1.0807663202285767,-60.47340774536133,-53.032081604003906,-2.5786936283111572,-0.5834708213806152,1.408429503440857,0.3254837095737457,1.023221731185913,-1.7688649892807007,-4.295108318328857
303,676232,676234,-0.035020265728235245,0.013116843067109585,0.9927133321762085,-57.014442443847656,-36.232322692871094,1.4073066711425781,-0.5834708213806152,1.4174290895462036,0.3224838674068451,1.500226616859436,-2.174537181854248,-4.346106052398682
304,676242,676244,-0.031105006113648415,0.11104641854763031,1.1107354164123535,-44.043663024902344,-8.19594669342041,3.704766035079956,-0.5669716596603394,1.4039298295974731,0.31798410415649414,1.8986033201217651,-2.9500694274902344,-4.275724411010742
305,676252,676254,-0.008889262564480305,0.05441303923726082,1.0362322330474854,-22.773971557617188,16.932342529296875,6.020733833312988,-0.5819708704948425,1.406929612159729,0.3239837884902954,1.9914544820785522,-3.3543004989624023,-4.244382381439209
306,676262,676264,-0.0010111125884577632,0.08292318880558014,1.0836113691329956,-1.4752980470657349,34.87389373779297,7.073978424072266,-0.5849707126617432,1.406929612159729,0.32998350262641907,1.6751044988632202,-3.4867050647735596,-4.202561378479004
307,676272,676274,-0.0008204005425795913,0.03306014835834503,0.999764621257782,7.116345405578613,38.89533233642578,7.0599260330200195,-0.5969701409339905,1.406929612159729,0.3239837884902954,1.3633124828338623,-3.5823144912719727,-4.144876003265381
308,676282,676284,-0.00466376356780529,0.026326574385166168,0.9742592573165894,5.981350898742676,32.20576095581055,7.886526107788086,-0.5864706635475159,1.3964301347732544,0.31048446893692017,0.9925557971000671,-3.4545750617980957,-4.118824481964111
309,676292,676294,-0.00981556810438633,0.06709908694028854,1.0532515048980713,7.766442775726318,19.912139892578125,6.9041523933410645,-0.5804709792137146,1.3964301347732544,0.3254837095737457,0.5178495645523071,-3.403080701828003,-4.02733850479126
310,676302,676304,0.028186002746224403,0.03900087997317314,0.9989446401596069,17.42081642150879,-1.4427696466445923,5.558452129364014,-0.5864706635475159,1.3814308643341064,0.31948402523994446,0.7401263117790222,-3.460900068283081,-4.0527849197387695
311,676312,676314,-0.011367480270564556,0.023778900504112244,0.9883311986923218,27.385921478271484,-13.785344123840332,6.732961177825928,-0.5924703478813171,1.3844307661056519,0.3224838674068451,0.7134886980056763,-3.2084107398986816,-4.011137962341309
312,676322,676324,-0.007835048250854015,0.029100721701979637,0.967160701751709,36.737457275390625,-16.934316635131836,8.41539478302002,-0.5879706144332886,1.382930874824524,0.3149842321872711,0.877196192741394,-3.0709221363067627,-3.9236464500427246
313,676332,676334,-0.026620129123330116,-0.023916179314255714,0.9773309826850891,36.09705352783203,-10.899565696716309,7.9895758628845215,-0.5849707126617432,1.3859306573867798,0.3209839463233948,1.0886802673339844,-2.563807725906372,-3.879098892211914
314,676342,676344,-0.0424654483795166,0.004494738765060902,0.9665711522102356,24.79876708984375,8.296987533569336,4.554027080535889,-0.5849707126617432,1.3859306573867798,0.3209839463233948,1.2509679794311523,-2.227959632873535,-3.807429790496826
315,676352,676354,-0.01581905595958233,0.07025483250617981,1.0129165649414062,13.733996391296387,28.144197463989258,-0.7909026145935059,-0.5849707126617432,1.3859306573867798,0.3209839463233948,1.104343295097351,-1.9996699094772339,-3.730767250061035
316,676362,676364,-0.013709664344787598,0.05361585319042206,0.9591787457466125,14.620261192321777,44.93379592895508,-4.915348052978516,-0.5849707126617432,1.3859306573867798,0.3209839463233948,0.8495088815689087,-2.0637240409851074,-3.711074113845825
317,676372,676374,-0.026955585926771164,0.0785926952958107,0.996071457862854,13.114002227783203,46.71675109863281,-7.410214424133301,-0.5879706144332886,1.382930874824524,0.3119843900203705,0.20267504453659058,-1.969853162765503,-3.6879007816314697
318,676382,676384,-0.004736033733934164,0.03884291276335716,0.9394498467445374,18.200284957885742,37.03429412841797,-7.076046466827393,-0.5924703478813171,1.3814308643341064,0.3134843111038208,-0.11152882874011993,-1.7474168539047241,-3.842710256576538
319,676392,676394,0.005874886643141508,0.1448550969362259,0.9971739053726196,23.937448501586914,25.689010620117188,-3.700227975845337,-0.6059696674346924,1.3889305591583252,0.31798410415649414,-0.21647299826145172,-1.6593173742294312,-4.009945869445801
320,676402,676404,-0.005433677230030298,0.028350114822387695,0.9467493295669556,26.140260696411133,18.760866165161133,-0.04245012253522873,-0.6044697761535645,1.3754311800003052,0.31048446893692017,-0.7160291075706482,-1.2635129690170288,-3.999830722808838
321,676412,676414,-0.028673002496361732,0.025890370830893517,0.9445669054985046,24.495128631591797,16.206933975219727,1.2790467739105225,-0.5924703478813171,1.3874305486679077,0.3134843111038208,-0.7330825328826904,-1.054755687713623,-4.060122489929199
322,676422,676424,-0.004922439809888601,0.0330992266535759,0.9655216336250305,21.566612243652344,16.082901000976562,2.9253385066986084,-0.6134693026542664,1.3724313974380493,0.3164841830730438,-0.9310121536254883,-0.787503182888031,-4.042911052703857
323,676432,676434,-0.044548723846673965,0.018847687169909477,0.942706286907196,16.09814453125,16.72648811340332,3.122877597808838,-0.5969701409339905,1.3859306573867798,0.3119843900203705,-1.0546683073043823,-0.707107424736023,-4.022146701812744
324,676442,676444,-0.049735747277736664,0.05500013008713722,0.9554884433746338,10.006827354431152,18.905126571655273,3.721050977706909,-0.6029698252677917,1.376931071281433,0.31798410415649414,-1.3340829610824585,-0.2928410470485687,-3.963214874267578
325,676452,676454,-0.018578583374619484,0.12473080307245255,0.9568231701850891,4.309093475341797,18.605331420898438,4.5310845375061035,-0.6074696183204651,1.3784310817718506,0.3224838674068451,-1.3615273237228394,-0.41542524099349976,-3.9724881649017334
326,676462,676464,0.013695482164621353,0.0468374639749527,0.969326376914978,-1.3625507354736328,16.80453109741211,4.985319137573242,-0.6059696674346924,1.391930341720581,0.3209839463233948,-1.7418773174285889,-0.3219422399997711,-3.8832526206970215
327,676472,676474,0.02264825999736786,0.1337459683418274,1.0019606351852417,-2.819443941116333,13.187247276306152,5.690241813659668,-0.6149692535400391,1.391930341720581,0.3209839463233948,-1.6506415605545044,-0.2500050663948059,-3.8837785720825195
328,676482,676484,0.026463840156793594,0.01757933385670185,0.9470412731170654,-2.5475072860717773,7.207019805908203,6.0674638748168945,-0.6014699339866638,1.3814308643341064,0.3224838674068451,-1.790223479270935,-0.3578180968761444,-3.8370182514190674
329,676492,676494,0.09854724258184433,-0.049549974501132965,1.032301664352417,-1.265429973602295,0.033057067543268204,5.37952995300293,-0.6134693026542664,1.3934303522109985,0.3044847846031189,-1.9766141176223755,-0.38255444169044495,-3.759810209274292
330,676502,676504,0.03484554961323738,-0.061986397951841354,1.0932438373565674,-2.0259835720062256,-13.294511795043945,4.413479328155518,-0.6104694604873657,1.3874305486679077,0.32848358154296875,-1.9675110578536987,-0.38378068804740906,-3.7067127227783203
331,676512,676514,0.0028218873776495457,0.0059079318307340145,1.0320640802383423,-7.0494303703308105,-17.960790634155273,4.384943962097168,-0.6089695692062378,1.376931071281433,0.3119843900203705,-1.7473185062408447,-0.3256158232688904,-3.659195899963379
332,676522,676524,-0.00909784808754921,-0.001665309420786798,1.04129958152771,-18.91624641418457,-3.029327630996704,8.032336235046387,-0.5999699831008911,1.382930874824524,0.3239837884902954,-1.5409218072891235,-0.29713112115859985,-3.5985734462738037
333,676532,676534,-0.02329634502530098,-0.08405043929815292,1.0391583442687988,-8.010591506958008,15.804855346679688,11.089203834533691,-0.6134693026542664,1.3994300365447998,0.3164841830730438,-1.6326676607131958,-0.5086198449134827,-3.521911144256592
334,676542,676544,-0.012230255641043186,0.04199254512786865,1.0394315719604492,23.66179656982422,33.8697509765625,12.083359718322754,-0.6104694604873657,1.3904304504394531,0.31948402523994446,-1.9491606950759888,-0.5327154397964478,-3.387199640274048
335,676552,676554,0.021814556792378426,0.136466383934021,1.0173782110214233,47.670494079589844,33.90071105957031,10.58642578125,-0.6089695692062378,1.3889305591583252,0.3209839463233948,-2.2575607299804688,-0.13548485934734344,-3.2195730209350586
336,676562,676564,-0.04731515794992447,0.12093865871429443,1.0547410249710083,47.53635787963867,2.7820098400115967,7.16917085647583,-0.616469144821167,1.3934303522109985,0.3224838674068451,-2.4020161628723145,0.5495499968528748,-3.04931640625
337,676572,676574,-0.06006237864494324,0.07165858894586563,0.9907035231590271,33.617652893066406,-40.475547790527344,11.352225303649902,-0.6299684643745422,1.3739312887191772,0.3209839463233948,-2.4286768436431885,0.8760529160499573,-3.0231406688690186
338,676582,676584,-0.11134989559650421,0.0992937758564949,1.0028222799301147,9.1065034866333,-56.640010833740234,16.577585220336914,-0.616469144821167,1.3814308643341064,0.3254837095737457,-1.997656226158142,1.1950193643569946,-2.940878391265869
339,676592,676594,-0.12558408081531525,0.10539726167917252,1.0411138534545898,-28.97404670715332,-32.90867233276367,22.284875869750977,-0.6029698252677917,1.3709313869476318,0.30898454785346985,-1.4458237886428833,1.2885301113128662,-2.790278434753418
340,676602,676604,-0.05399341136217117,0.006321721710264683,0.9837775826454163,-67.68472290039062,0.11568286269903183,22.079652786254883,-0.6074696183204651,1.3724313974380493,0.3224838674068451,-1.0843536853790283,0.7641360759735107,-2.663313150405884
341,676612,676614,0.021283090114593506,-0.04253764450550079,1.0535132884979248,-97.32379913330078,12.963241577148438,22.631807327270508,-0.6074696183204651,1.408429503440857,0.30748462677001953,-1.3533997535705566,0.34213677048683167,-2.3783695697784424
342,676622,676624,0.009401516988873482,0.08280704915523529,1.0763472318649292,-106.40129852294922,11.205550193786621,25.880537033081055,-0.6149692535400391,1.4099295139312744,0.3209839463233948,-1.3908182382583618,-1.1888595819473267,-2.3522486686706543
343,676632,676634,-0.07367746531963348,-0.0546700656414032,1.1068787574768066,-96.45948791503906,-1.4931284189224243,27.956762313842773,-0.6149692535400391,1.4159291982650757,0.33598318696022034,-1.3860864639282227,-1.8179341554641724,-1.933643102645874
344,676642,676644,-0.12041622400283813,0.20042479038238525,0.914196789264679,-60.504634857177734,-4.534252643585205,27.69192886352539,-0.6044697761535645,1.4144293069839478,0.32848358154296875,-1.4051176309585571,-3.1212668418884277,-1.7857602834701538
345,676652,676654,-0.06338341534137726,0.16200819611549377,1.081773042678833,-23.700119018554688,1.6230568885803223,28.759613037109375,-0.6029698252677917,1.406929612159729,0.3149842321872711,-1.341375708580017,-3.2807421684265137,-1.3427140712738037
346,676662,676664,-0.006354388315230608,0.10183215141296387,0.9183704853057861,20.56867790222168,6.157020568847656,34.557918548583984,-0.6074696183204651,1.4114294052124023,0.31948402523994446,-1.438122034072876,-3.4088330268859863,-1.0218044519424438
347,676672,676674,0.00170469144359231,0.11132634431123734,1.0293225049972534,50.27614974975586,-4.415270805358887,39.034000396728516,-0.6059696674346924,1.3949302434921265,0.3239837884902954,-1.56838858127594,-3.0681002140045166,-0.6336135864257812
348,676682,676684,0.06337682157754898,-0.13016653060913086,1.0359132289886475,79.15958404541016,0.7062093019485474,39.71907424926758,-0.6029698252677917,1.3949302434921265,0.33598318696022034,-1.57308030128479,-2.631504535675049,-0.27026280760765076
349,676692,676694,-0.03095385804772377,0.11434802412986755,0.9006044268608093,70.89108276367188,-9.398920059204102,36.885765075683594,-0.6134693026542664,1.3874305486679077,0.3164841830730438,-1.6038057804107666,-1.6959909200668335,0.17888183891773224
350,676702,676704,-0.013527688570320606,0.061566419899463654,0.9630129337310791,38.04463195800781,-23.252466201782227,31.420547485351562,-0.5939702987670898,1.3859306573867798,0.3209839463233948,-1.4761244058609009,-1.2269859313964844,0.4606016278266907
351,676712,676714,0.03817654401063919,0.0203555840998888,1.02986741065979,6.801127910614014,-34.34805679321289,25.763444900512695,-0.6029698252677917,1.3859306573867798,0.32998350262641907,-1.1976919174194336,-0.7666050791740417,0.7926506400108337
352,676722,676724,-0.004359207581728697,0.10743691027164459,1.0777175426483154,-7.347787380218506,-30.37409019470215,22.501514434814453,-0.5819708704948425,1.3799309730529785,0.32698363065719604,-0.807884693145752,-0.8707703351974487,0.9830743074417114
353,676732,676734,0.0021070903167128563,0.061218105256557465,0.9988201856613159,-11.4674072265625,-17.58435821533203,22.707921981811523,-0.5744712948799133,1.3754311800003052,0.30748462677001953,-0.5025922656059265,-0.9723790884017944,1.200972318649292
354,676742,676744,0.02261977270245552,0.01800779439508915,0.9413087368011475,-12.104209899902344,-12.928160667419434,24.40053939819336,-0.5864706635475159,1.3814308643341064,0.3164841830730438,-0.4019169509410858,-1.140271782875061,1.415611982345581
355,676752,676754,-0.01889139600098133,0.06955892592668533,0.9718531966209412,-0.6626476049423218,-11.280298233032227,28.336807250976562,-0.5879706144332886,1.3799309730529785,0.31798410415649414,-0.2834824323654175,-1.1583285331726074,1.6915055513381958
356,676762,676764,-0.03393126651644707,0.11913163959980011,1.0069574117660522,18.241317749023438,-5.956226348876953,32.54579162597656,-0.5684715509414673,1.3844307661056519,0.31948402523994446,-0.2803693115711212,-1.1962316036224365,1.9715005159378052
357,676772,676774,-0.05422427877783775,0.07695834338665009,0.9042482972145081,37.275291442871094,-6.807589530944824,40.11626434326172,-0.5999699831008911,1.376931071281433,0.3149842321872711,-0.06503354012966156,-1.000982642173767,2.2948250770568848
358,676782,676784,-0.02258399873971939,0.13980518281459808,0.9459271430969238,46.835426330566406,-8.208902359008789,48.42080307006836,-0.5804709792137146,1.3814308643341064,0.3164841830730438,-0.10424286872148514,-0.6371352076530457,2.6992619037628174
359,676792,676794,0.03616003319621086,-0.03327472135424614,1.0027341842651367,53.50252151489258,7.577779769897461,53.2700080871582,-0.5939702987670898,1.3949302434921265,0.31798410415649414,-0.16751715540885925,-0.2649807929992676,3.16420316696167
360,676802,676804,-0.01611810177564621,0.09184136241674423,0.7774553894996643,55.50078582763672,16.051734924316406,56.05085372924805,-0.5834708213806152,1.3904304504394531,0.3044847846031189,-0.1575053334236145,0.3733447790145874,3.713239908218384
361,676812,676814,0.07138469070196152,0.0065268101170659065,0.9687113165855408,35.8996467590332,26.135751724243164,56.14826583862305,-0.5864706635475159,1.4024298191070557,0.31048446893692017,-0.5105039477348328,0.7650083303451538,4.248378276824951
362,676822,676824,0.033899497240781784,0.037095412611961365,0.9411706924438477,23.827308654785156,31.552148818969727,55.004920959472656,-0.5894705057144165,1.3874305486679077,0.3224838674068451,-0.7935101389884949,1.2481982707977295,4.833439826965332
363,676832,676834,0.05625276640057564,0.01273629441857338,0.9654601216316223,15.010139465332031,31.73529624938965,53.27589416503906,-0.6029698252677917,1.4039298295974731,0.3149842321872711,-1.1414414644241333,1.1163709163665771,5.309372425079346
364,676842,676844,0.018458865582942963,0.06035497784614563,0.9466233849525452,4.976199150085449,34.23377990722656,50.33292770385742,-0.5894705057144165,1.420428991317749,0.3134843111038208,-1.4443693161010742,1.4223942756652832,5.876498699188232
365,676852,676854,0.026095833629369736,0.060299355536699295,0.9831171035766602,0.36495354771614075,26.58158302307129,45.51383590698242,-0.5894705057144165,1.4144293069839478,0.33748310804367065,-1.4664493799209595,1.431376338005066,6.39523983001709
366,676862,676864,-0.0026664789766073227,-0.02681206539273262,0.960492730140686,-3.755352020263672,28.850505828857422,38.16178512573242,-0.5954701900482178,1.4144293069839478,0.3164841830730438,-1.702605128288269,1.493910551071167,6.867898464202881
367,676872,676874,-0.0012280363589525223,0.12566107511520386,0.8589601516723633,-5.405195713043213,25.995378494262695,32.287296295166016,-0.6089695692062378,1.4099295139312744,0.3119843900203705,-2.0348117351531982,1.4698853492736816,7.252407073974609
368,676882,676884,0.06562987715005875,-0.0253306832164526,1.124138593673706,-8.609131813049316,21.448118209838867,25.665443420410156,-0.5999699831008911,1.4159291982650757,0.31798410415649414,-2.3750059604644775,1.495790719985962,7.581531047821045
369,676892,676894,0.03607108071446419,0.007141860201954842,1.0578023195266724,2.4297828674316406,9.24554443359375,21.351356506347656,-0.5999699831008911,1.4129292964935303,0.3149842321872711,-2.6881887912750244,1.4363205432891846,7.824023246765137
370,676902,676904,0.03800429776310921,0.10154356807470322,0.8918969631195068,10.30103588104248,-7.576220989227295,16.097728729248047,-0.5999699831008911,1.4159291982650757,0.3059847056865692,-2.737032890319824,1.510271430015564,8.062746047973633
371,676912,676914,0.043529242277145386,-0.05867358297109604,1.0725526809692383,14.12152099609375,-21.660741806030273,9.200718879699707,-0.5864706635475159,1.4024298191070557,0.3224838674068451,-2.5935471057891846,1.7148865461349487,8.26471996307373
372,676922,676924,-0.01892772875726223,0.07152185589075089,0.985199511051178,18.725006103515625,-28.330543518066406,5.255540370941162,-0.5954701900482178,1.3994300365447998,0.31948402523994446,-2.273662567138672,1.7736157178878784,8.351058006286621
373,676932,676934,0.0214015431702137,0.07871150970458984,0.9480651617050171,11.508123397827148,-36.85859680175781,1.8931915760040283,-0.5879706144332886,1.4009299278259277,0.3209839463233948,-1.7726954221725464,1.817447543144226,8.411839485168457
374,676942,676944,-0.00948310550302267,-0.09343220293521881,1.0341486930847168,8.637280464172363,-34.304203033447266,-2.111546754837036,-0.5894705057144165,1.4024298191070557,0.31948402523994446,-1.833554983139038,2.2367501258850098,8.389549255371094
375,676952,676954,0.031127337366342545,0.18204787373542786,0.9531358480453491,6.825275421142578,-25.181564331054688,-5.230801582336426,-0.5819708704948425,1.3889305591583252,0.30898454785346985,-1.3033065795898438,2.1108171939849854,8.348465919494629
376,676962,676964,0.002123472047969699,0.08307968080043793,0.9516844153404236,5.626030445098877,-13.537209510803223,-9.712095260620117,-0.5864706635475159,1.3874305486679077,0.31948402523994446,-0.8775233626365662,2.38448429107666,8.407580375671387
377,676972,676974,-0.009938394650816917,0.02142736129462719,0.9939863085746765,3.889627695083618,-0.028499823063611984,-11.541475296020508,-0.5909704566001892,1.3979300260543823,0.3119843900203705,-0.9347650408744812,2.4077439308166504,8.225468635559082
378,676982,676984,0.0620819553732872,0.09804882109165192,0.9273957014083862,-5.611732482910156,7.562360763549805,-10.402585983276367,-0.5819708704948425,1.406929612159729,0.3239837884902954,-0.9203030467033386,2.4563660621643066,8.11786937713623
379,676992,676994,0.0346081368625164,0.016319815069437027,1.150790810585022,-30.1282958984375,1.319167971611023,-9.713129043579102,-0.5924703478813171,1.3964301347732544,0.3134843111038208,-1.0822467803955078,2.3489606380462646,7.960843086242676
380,677002,677004,-0.053197283297777176,0.1473490297794342,1.003458023071289,-44.81321334838867,-11.88078784942627,-4.433938503265381,-0.5969701409339905,1.4009299278259277,0.3149842321872711,-1.1389096975326538,2.0799872875213623,7.853827476501465
381,677012,677014,-0.0516485869884491,-0.009828228503465652,1.0992708206176758,-66.12212371826172,-31.15311622619629,-4.67161226272583,-0.5984700918197632,1.405429720878601,0.31048446893692017,-1.120596170425415,1.7397620677947998,7.789637565612793
382,677022,677024,0.03827650099992752,0.0192714910954237,1.0913429260253906,-81.74336242675781,-47.676971435546875,-5.0798234939575195,-0.5729713439941406,1.4039298295974731,0.30898454785346985,-0.9282122254371643,1.2876321077346802,7.74281644821167
383,677032,677034,0.049178414046764374,0.05397193506360054,0.9516534209251404,-77.42701721191406,-55.6636962890625,-4.070169925689697,-0.5804709792137146,1.4114294052124023,0.3254837095737457,-0.17480726540088654,0.06866391748189926,7.731640338897705
384,677042,677044,0.019764123484492302,0.07793866842985153,1.079419732093811,-58.68588638305664,-42.453731536865234,-4.596227169036865,-0.5564721822738647,1.4144293069839478,0.31948402523994446,-0.11310891062021255,-0.2064248025417328,7.574757099151611
385,677052,677054,-0.012393365614116192,-0.01631690375506878,1.043400764465332,-31.670278549194336,-30.88817596435547,-8.044278144836426,-0.5714713931083679,1.4294284582138062,0.3224838674068451,0.5017839670181274,-0.9045575261116028,7.5969953536987305
386,677062,677064,0.03237766772508621,0.1323850452899933,0.9956507086753845,-9.105880737304688,-24.6064453125,-14.692995071411133,-0.5654717087745667,1.4114294052124023,0.31948402523994446,1.1478620767593384,-1.3042384386062622,7.6537394523620605
387,677072,677074,-0.015335367061197758,0.12981963157653809,0.8910323977470398,10.600508689880371,-19.10858726501465,-23.29228401184082,-0.5669716596603394,1.4099295139312744,0.3209839463233948,1.5114697217941284,-1.412459135055542,7.566269874572754
388,677082,677084,-0.006981959100812674,0.07967014610767365,0.9836902022361755,26.841655731201172,1.8555512428283691,-30.310869216918945,-0.5669716596603394,1.4309284687042236,0.3329833447933197,1.5525238513946533,-1.2625218629837036,7.2965779304504395
389,677092,677094,0.012612390331923962,-0.10305964946746826,1.0808192491531372,43.40887451171875,18.232707977294922,-32.71480178833008,-0.5759711861610413,1.421928882598877,0.3209839463233948,1.5510149002075195,-0.8424698114395142,7.005436897277832
390,677102,677104,-0.023021385073661804,-0.00873479712754488,0.7753004431724548,44.58458709716797,23.275754928588867,-27.595108032226562,-0.5939702987670898,1.4189289808273315,0.32698363065719604,1.307424545288086,-0.37649405002593994,6.657176494598389
391,677112,677114,-0.01981908641755581,0.07146165519952774,1.072410225868225,-4.435981273651123,15.644387245178223,-20.43523597717285,-0.5819708704948425,1.4249287843704224,0.32698363065719604,1.056441307067871,-0.01849202625453472,6.3734354972839355
392,677122,677124,-0.058475345373153687,0.21659351885318756,0.9319130182266235,-53.52524948120117,9.069257736206055,-12.30956745147705,-0.5939702987670898,1.4129292964935303,0.3149842321872711,0.9743265509605408,-0.19062238931655884,6.192022323608398
393,677132,677134,-0.04577920585870743,0.028652042150497437,1.1113722324371338,-89.07438659667969,-9.926301002502441,-5.1628098487854,-0.577471137046814,1.435428261756897,0.31948402523994446,0.7325186133384705,-0.4569717049598694,6.012418746948242
394,677142,677144,-0.039108190685510635,0.026056963950395584,1.050260066986084,-87.11911010742188,-26.417211532592773,0.7094216346740723,-0.5849707126617432,1.436928153038025,0.32698363065719604,0.9238564372062683,-1.7724565267562866,6.024097442626953
395,677152,677154,-0.0014746531378477812,0.07088184356689453,1.0610134601593018,-67.42093658447266,-44.441810607910156,5.7470011711120605,-0.5924703478813171,1.4384280443191528,0.31948402523994446,1.0540060997009277,-2.345266580581665,5.974785327911377
396,677162,677164,0.025131206959486008,-0.01384318619966507,1.2510610818862915,-28.00402069091797,-48.35243606567383,8.499040603637695,-0.56997150182724,1.421928882598877,0.32698363065719604,1.8072816133499146,-3.0962870121002197,6.103377342224121
397,677172,677174,-0.008390272967517376,0.10893819481134415,1.006982684135437,29.477325439453125,-35.60048294067383,9.723365783691406,-0.5579720735549927,1.4309284687042236,0.3239837884902954,1.953381896018982,-3.391432285308838,6.170389175415039
398,677182,677184,0.035642992705106735,0.2289249151945114,0.9515607953071594,74.70325469970703,-16.54818344116211,11.653008460998535,-0.5654717087745667,1.459426999092102,0.3224838674068451,2.4298489093780518,-2.942382335662842,6.248225212097168
399,677192,677194,0.014451596885919571,0.10882064700126648,1.0252548456192017,99.09252166748047,6.556069850921631,14.899510383605957,-0.5729713439941406,1.436928153038025,0.32998350262641907,2.501258373260498,-2.1934056282043457,6.353457450866699
400,677202,677204,-0.0028468153905123472,-0.11290016770362854,1.0900466442108154,98.37457275390625,35.55137634277344,17.94843101501465,-0.5714713931083679,1.4474276304244995,0.3224838674068451,2.3981263637542725,-1.3269751071929932,6.5227155685424805
401,677212,677214,-0.0786796361207962,0.16166998445987701,0.9241059422492981,82.62940216064453,61.30274963378906,20.914701461791992,-0.5684715509414673,1.4324283599853516,0.3314834237098694,2.0622055530548096,-0.4618460536003113,6.726754665374756
402,677222,677224,-0.009132863953709602,0.0670868530869484,1.0096843242645264,55.533203125,72.39562225341797,20.999530792236328,-0.5684715509414673,1.405429720878601,0.3164841830730438,1.586876630783081,0.295427531003952,6.950171947479248
403,677232,677234,0.06532083451747894,0.17268620431423187,0.9266759753227234,41.480995178222656,73.0550765991211,22.077009201049805,-0.5744712948799133,1.4174290895462036,0.31948402523994446,0.4275553822517395,0.9385439157485962,7.196983814239502
404,677242,677244,0.044422175735235214,0.04365958273410797,0.8907231688499451,14.34705924987793,66.87380981445312,20.487781524658203,-0.5984700918197632,1.4114294052124023,0.3134843111038208,0.13579581677913666,1.1760541200637817,7.4539618492126465
405,677252,677254,-0.0034966778475791216,0.05023162439465523,0.9188246130943298,-27.01572036743164,55.6804084777832,16.09564781188965,-0.5819708704948425,1.421928882598877,0.3239837884902954,-0.7108696103096008,1.3957774639129639,7.6685285568237305
406,677262,677264,0.06412502378225327,0.07845181971788406,0.9920043349266052,-65.36186981201172,37.29975128173828,9.604307174682617,-0.5849707126617432,1.421928882598877,0.32998350262641907,-1.0279017686843872,0.9579776525497437,7.903037071228027
407,677272,677274,0.0801219567656517,0.014603464864194393,1.0375324487686157,-78.64849090576172,3.849000930786133,0.6888453364372253,-0.5909704566001892,1.4339282512664795,0.32998350262641907,-1.321268916130066,0.010017971508204937,8.099946022033691
408,677282,677284,0.06697595119476318,0.0322403647005558,1.0540987253189087,-79.33895111083984,-22.08218765258789,-6.441559791564941,-0.5849707126617432,1.4429278373718262,0.3209839463233948,-1.3994487524032593,-0.5870431065559387,8.075498580932617
409,677292,677294,0.05909106135368347,0.09513047337532043,1.1098779439926147,-69.05449676513672,-43.96184539794922,-13.225517272949219,-0.5909704566001892,1.436928153038025,0.33898305892944336,-1.2395919561386108,-1.203964352607727,7.988017559051514
410,677302,677304,0.0281149223446846,0.008173614740371704,1.1528103351593018,-48.62164306640625,-54.283424377441406,-19.215280532836914,-0.5894705057144165,1.4234287738800049,0.31948402523994446,-0.35316377878189087,-2.138239860534668,7.927623271942139
411,677312,677314,0.05117816850543022,0.07353595644235611,0.9267982244491577,-14.327616691589355,-46.50426483154297,-26.422332763671875,-0.5759711861610413,1.406929612159729,0.3209839463233948,-0.47301772236824036,-2.3670084476470947,7.7060322761535645
412,677322,677324,0.09539202600717545,0.13729576766490936,0.9597072005271912,17.053190231323242,-25.39286231994629,-34.003292083740234,-0.577471137046814,1.4144293069839478,0.31948402523994446,0.08455238491296768,-2.264622926712036,7.426440238952637
413,677332,677334,0.10560820996761322,0.040947020053863525,1.143601655960083,37.59084701538086,-10.626992225646973,-41.12568664550781,-0.5684715509414673,1.4114294052124023,0.3224838674068451,0.1797237992286682,-2.0824227333068848,7.101038455963135
414,677342,677344,0.03299880772829056,0.046329692006111145,1.1189119815826416,47.49760055541992,13.266796112060547,-49.52690505981445,-0.5789710283279419,1.4249287843704224,0.3239837884902954,0.2735029458999634,-1.4525607824325562,6.664154052734375
415,677352,677354,0.002077574608847499,0.027188848704099655,1.0048673152923584,46.785057067871094,29.423046112060547,-58.14554214477539,-0.5849707126617432,1.4189289808273315,0.3239837884902954,0.10468047857284546,-1.1772254705429077,6.199869632720947
416,677362,677364,0.01079110149294138,0.057208459824323654,1.0256364345550537,38.380577087402344,42.34580612182617,-63.372276306152344,-0.6029698252677917,1.4099295139312744,0.341982901096344,-0.3194800019264221,-0.4811282753944397,5.614736080169678
417,677372,677374,0.003909551538527012,0.030678579583764076,1.032683253288269,18.79387092590332,42.30824279785156,-67.15376281738281,-0.5909704566001892,1.4249287843704224,0.33898305892944336,-0.8811929821968079,-0.31017225980758667,5.024650573730469
418,677382,677384,-0.025173163041472435,0.07910744845867157,1.10808527469635,1.5782959461212158,28.181377410888672,-69.32009887695312,-0.6149692535400391,1.4249287843704224,0.34498274326324463,-1.417003870010376,-0.08649175614118576,4.366171360015869
419,677392,677394,-0.008710835129022598,0.11575350165367126,1.147914171218872,-16.983144760131836,3.2830190658569336,-71.47607421875,-0.616469144821167,1.420428991317749,0.3314834237098694,-1.4933007955551147,-0.15628020465373993,3.6589975357055664
420,677402,677404,0.011538472026586533,0.06337537616491318,1.0389149188995361,-31.020597457885742,-22.81198501586914,-70.30797576904297,-0.6134693026542664,1.420428991317749,0.33748310804367065,-1.5343385934829712,-0.3060525357723236,2.9481360912323
421,677412,677414,0.01936057209968567,0.02909911423921585,1.0138715505599976,-31.886106491088867,-49.43208312988281,-67.1822509765625,-0.6014699339866638,1.4024298191070557,0.32848358154296875,-1.1502091884613037,-0.9669418334960938,2.249804735183716
422,677422,677424,0.06852611899375916,0.11635448038578033,1.09929621219635,-18.15557289123535,-71.48844909667969,-64.08381652832031,-0.5969701409339905,1.4249287843704224,0.34498274326324463,-0.6875013113021851,-0.9492855668067932,1.5863299369812012
423,677432,677434,0.06130152940750122,0.09554935991764069,1.0224424600601196,-0.4360140860080719,-78.61250305175781,-61.86113739013672,-0.5984700918197632,1.4144293069839478,0.33748310804367065,0.2575932741165161,-1.1613109111785889,0.9448167085647583
424,677442,677444,0.05710688978433609,0.08732160180807114,1.0309218168258667,14.252680778503418,-65.10919952392578,-62.16139602661133,-0.577471137046814,1.405429720878601,0.34648266434669495,0.880603551864624,-1.1237215995788574,0.3528427481651306
425,677452,677454,-0.03925305977463722,0.04969849810004234,1.0162017345428467,26.392080307006836,-28.825281143188477,-65.56859588623047,-0.5864706635475159,1.3964301347732544,0.3404829800128937,1.6073285341262817,-0.7824869155883789,-0.26657506823539734
426,677462,677464,-0.01683090254664421,0.06138854846358299,0.9982923865318298,34.48092269897461,-0.977810800075531,-69.53836059570312,-0.5864706635475159,1.3874305486679077,0.33448326587677,1.8214600086212158,-0.6661226749420166,-0.8987876176834106
427,677472,677474,0.03794626146554947,-0.01516100112348795,0.9579195380210876,32.501922607421875,18.37316131591797,-70.3960189819336,-0.5939702987670898,1.391930341720581,0.341982901096344,1.6844533681869507,-0.27448487281799316,-1.5745905637741089
428,677482,677484,-0.017542654648423195,0.039877090603113174,1.016015648841858,22.475154876708984,26.21086311340332,-69.5245361328125,-0.5984700918197632,1.3904304504394531,0.3314834237098694,1.3938921689987183,0.2782750427722931,-2.2829012870788574
429,677492,677494,-0.011715746484696865,0.059514764696359634,1.0030502080917358,15.022150039672852,26.702041625976562,-69.18118286132812,-0.5894705057144165,1.3874305486679077,0.3134843111038208,1.158995509147644,0.03489426150918007,-2.9161930084228516
430,677502,677504,0.004906467627733946,0.06751539558172226,0.9919911623001099,4.6172637939453125,25.589262008666992,-67.922119140625,-0.5804709792137146,1.3784310817718506,0.3314834237098694,0.7953487038612366,0.3239595592021942,-3.6155097484588623
431,677512,677514,-0.02542518824338913,-0.04693170264363289,0.991340696811676,-1.1810985803604126,25.360309600830078,-66.38273620605469,-0.5969701409339905,1.3739312887191772,0.33898305892944336,0.4505775272846222,0.4449674189090729,-4.293349742889404
432,677522,677524,0.0020493841730058193,0.04661068692803383,0.9920334815979004,4.900296211242676,12.941123008728027,-62.995391845703125,-0.5894705057144165,1.3844307661056519,0.33748310804367065,0.21147854626178741,0.33041122555732727,-4.931201457977295
433,677532,677534,0.007137415464967489,0.06468173116445541,0.9958598613739014,23.42641830444336,-6.815811634063721,-61.62229537963867,-0.5924703478813171,1.3724313974380493,0.3314834237098694,0.2391941249370575,0.3345954716205597,-5.552268028259277
434,677542,677544,0.016451889649033546,0.04333068057894707,0.9757131934165955,41.072078704833984,-28.874982833862305,-60.37123489379883,-0.5879706144332886,1.3589320182800293,0.3329833447933197,0.29769402742385864,0.7744898796081543,-6.19982385635376
435,677552,677554,-0.003721712389960885,0.013340692035853863,0.9163721203804016,46.26130294799805,-41.31562042236328,-57.69480895996094,-0.5969701409339905,1.3499324321746826,0.3239837884902954,0.6808990836143494,1.3315865993499756,-6.828722953796387
436,677562,677564,0.004070610273629427,0.06577517837285995,1.0103178024291992,37.25461959838867,-38.150211334228516,-54.21821212768555,-0.5879706144332886,1.3649317026138306,0.3209839463233948,1.1452422142028809,1.4754334688186646,-7.357210636138916
437,677572,677574,-0.02398606762290001,0.1049799695611,0.9602452516555786,24.157291412353516,-26.590307235717773,-51.54605484008789,-0.5864706635475159,1.3574321269989014,0.3164841830730438,1.6464793682098389,1.8273311853408813,-7.8922295570373535
438,677582,677584,0.0803726390004158,0.11276981234550476,0.9204345345497131,17.60726547241211,-24.990583419799805,-49.04371643066406,-0.6014699339866638,1.3514324426651,0.3164841830730438,1.9073811769485474,2.13698148727417,-8.427260398864746
439,677592,677594,-0.035910364240407944,-0.02441260777413845,1.009826421737671,6.77388334274292,-4.086578845977783,-48.664737701416016,-0.5819708704948425,1.352932333946228,0.31798410415649414,2.0666592121124268,2.397301435470581,-8.947558403015137
440,677602,677604,-0.0770832970738411,0.007858927361667156,0.9448226094245911,8.16589069366455,4.350409984588623,-42.13629150390625,-0.5999699831008911,1.3469326496124268,0.29998499155044556,2.1275253295898438,2.5572264194488525,-9.43608570098877
441,677612,677614,-0.0013139141956344247,0.06159573420882225,0.9332442283630371,1.3935214281082153,17.828611373901367,-36.25775909423828,-0.5939702987670898,1.3439327478408813,0.3149842321872711,2.0483415126800537,2.7042949199676514,-9.870841979980469
442,677622,677624,0.008444070816040039,0.0770527720451355,0.9612940549850464,-4.645359516143799,16.8950138092041,-31.99213409423828,-0.5954701900482178,1.3454327583312988,0.2954852283000946,1.8582195043563843,2.5368525981903076,-10.180113792419434
443,677632,677634,-0.019011197611689568,-0.04982811585068703,1.0262134075164795,-12.980473518371582,34.19157409667969,-29.781429290771484,-0.5909704566001892,1.3409329652786255,0.3209839463233948,1.5443942546844482,2.4940829277038574,-10.51651382446289
444,677642,677644,0.08125044405460358,0.07636091113090515,0.9068591594696045,-9.853753089904785,34.79379653930664,-25.969446182250977,-0.6074696183204651,1.3514324426651,0.3014849126338959,1.148276448249817,2.520775079727173,-10.851487159729004
445,677652,677654,0.012730537913739681,0.05514855682849884,0.9608144164085388,-0.10154210776090622,25.724803924560547,-20.893905639648438,-0.6074696183204651,1.3574321269989014,0.31948402523994446,0.6254629492759705,2.5948312282562256,-11.197154998779297
446,677662,677664,-0.020144473761320114,0.03064480982720852,0.971667468547821,11.404963493347168,7.735016345977783,-14.580324172973633,-0.6119694113731384,1.3499324321746826,0.3059847056865692,0.3242286443710327,2.475416898727417,-11.370887756347656
447,677672,677674,0.003022820223122835,0.12137795984745026,0.938804030418396,19.455242156982422,-12.106995582580566,-8.635788917541504,-0.6029698252677917,1.3409329652786255,0.3149842321872711,0.3281288146972656,2.665539503097534,-11.500943183898926
448,677682,677684,-0.052664197981357574,0.0006292903563007712,0.9399329423904419,20.45526695251465,-30.675249099731445,-5.9616851806640625,-0.6074696183204651,1.3364331722259521,0.3134843111038208,0.5786332488059998,2.9734742641448975,-11.577008247375488
449,677692,677694,-0.06098924204707146,-0.01244471687823534,0.9974472522735596,13.130766868591309,-29.64820671081543,-2.1933021545410156,-0.5969701409339905,1.3499324321746826,0.32698363065719604,0.9422475099563599,3.1408894062042236,-11.607571601867676
450,677702,677704,0.026754561811685562,0.15707895159721375,0.891871452331543,-3.4389448165893555,-32.380714416503906,2.6164188385009766,-0.5984700918197632,1.339432954788208,0.30748462677001953,1.4741795063018799,3.1552700996398926,-11.52599811553955
451,677712,677714,-0.11845282465219498,-0.10664474219083786,0.936494767665863,-19.82234001159668,-14.005922317504883,0.9613618850708008,-0.6089695692062378,1.3499324321746826,0.2969851493835449,1.9490017890930176,2.855700731277466,-11.381091117858887
452,677722,677724,0.007673376705497503,-0.04562540352344513,0.8918037414550781,-26.863706588745117,12.346444129943848,2.5189127922058105,-0.5894705057144165,1.354432225227356,0.3134843111038208,1.9212591648101807,2.9591164588928223,-11.522979736328125
453,677732,677734,-0.007876144722104073,0.09077232331037521,0.931097149848938,-37.85801315307617,33.32215118408203,5.553338527679443,-0.6074696183204651,1.3664315938949585,0.3164841830730438,1.7700443267822266,2.6101326942443848,-11.490094184875488
454,677742,677744,-0.0004301811568439007,0.10330315679311752,1.0347660779953003,-43.85562515258789,47.8029899597168,7.440208911895752,-0.6104694604873657,1.3574321269989014,0.31048446893692017,1.5603793859481812,1.9637928009033203,-11.294591903686523
455,677752,677754,-0.0047346604987978935,0.0194456297904253,1.0587505102157593,-46.24280548095703,50.0743408203125,9.038661003112793,-0.6119694113731384,1.3709313869476318,0.30898454785346985,0.7741159796714783,1.8809516429901123,-11.461472511291504
456,677762,677764,-0.007207133341580629,-0.11085720360279083,1.0092835426330566,-43.175533294677734,40.80816650390625,9.812589645385742,-0.6194689869880676,1.3844307661056519,0.3164841830730438,0.39378347992897034,1.1683554649353027,-11.23367691040039
457,677772,677774,0.012970677576959133,-0.1503618061542511,0.9614725112915039,-36.62734603881836,25.558687210083008,9.038006782531738,-0.6299684643745422,1.367931604385376,0.3149842321872711,-0.18493099510669708,0.7399560809135437,-11.216114044189453
458,677782,677784,0.027591966092586517,0.0012369764735922217,0.9858458042144775,-30.721609115600586,7.460918426513672,9.586848258972168,-0.6149692535400391,1.3799309730529785,0.32998350262641907,-0.3501282036304474,0.4710998833179474,-11.102371215820312
459,677792,677794,-0.03381744772195816,0.026586100459098816,1.0404306650161743,-19.897907257080078,-5.265837669372559,9.148808479309082,-0.5999699831008911,1.3709313869476318,0.32698363065719604,-0.3774685263633728,0.37517374753952026,-11.027585983276367
460,677802,677804,0.005739183165132999,0.06587996333837509,1.06172776222229,-8.572015762329102,-15.234199523925781,12.454683303833008,-0.6149692535400391,1.367931604385376,0.31798410415649414,-0.27069300413131714,0.1610335111618042,-10.905790328979492
461,677812,677814,-0.0027560621965676546,0.07078704237937927,1.0211251974105835,-2.207087755203247,-17.03657341003418,15.940648078918457,-0.6074696183204651,1.3604319095611572,0.3164841830730438,0.05083734169602394,0.11887604743242264,-10.71780014038086
462,677822,677824,-0.014671732671558857,0.015166370198130608,0.9208433032035828,0.5606357455253601,-8.391265869140625,18.48464012145996,-0.6104694604873657,1.3754311800003052,0.3164841830730438,0.16488519310951233,0.10967922955751419,-10.584024429321289
463,677832,677834,0.029787221923470497,0.0422801598906517,1.0225608348846436,1.7308615446090698,6.907494068145752,21.081737518310547,-0.6104694604873657,1.3664315938949585,0.3044847846031189,0.21376167237758636,0.2160128355026245,-10.429483413696289
464,677842,677844,0.01211098674684763,0.014386319555342197,0.906507134437561,0.3856382369995117,15.183516502380371,26.46565055847168,-0.6044697761535645,1.369431495666504,0.3254837095737457,0.1667032092809677,0.25802847743034363,-10.216395378112793
465,677852,677854,0.025198450312018394,0.044869452714920044,1.0109176635742188,-5.082388401031494,21.18198585510254,30.925722122192383,-0.6044697761535645,1.369431495666504,0.3254837095737457,-0.023812750354409218,0.3401852250099182,-9.977787971496582
466,677862,677864,0.025527173653244972,-0.021273847669363022,0.9605353474617004,-10.774474143981934,24.2117977142334,34.341800689697266,-0.6044697761535645,1.369431495666504,0.3254837095737457,-0.3001768887042999,0.18963569402694702,-9.682899475097656
467,677872,677874,0.044981736689805984,-0.04431283846497536,0.980992317199707,-11.745890617370605,19.268754959106445,39.048458099365234,-0.6044697761535645,1.369431495666504,0.3254837095737457,-0.5427681803703308,0.16931842267513275,-9.346847534179688
468,677882,677884,-0.030028486624360085,-0.06656792014837265,0.9313527345657349,-14.104351997375488,2.4710628986358643,43.0289306640625,-0.6044697761535645,1.3814308643341064,0.32848358154296875,-0.8255438804626465,-0.01464870385825634,-8.979734420776367
469,677892,677894,-0.020203586667776108,0.016238268464803696,0.964954674243927,-12.57841968536377,-18.415977478027344,47.012271881103516,-0.6134693026542664,1.3814308643341064,0.3164841830730438,-0.759982168674469,-0.08812514692544937,-8.531288146972656
470,677902,677904,-0.02413424663245678,0.03623419627547264,0.9957159757614136,-4.097743034362793,-30.41986083984375,48.71202087402344,-0.6179690957069397,1.3709313869476318,0.3149842321872711,-0.45527610182762146,-0.27434074878692627,-8.034611701965332
471,677912,677914,0.005584936589002609,0.01779290661215782,0.9688087105751038,7.065646648406982,-33.43819046020508,51.419490814208984,-0.6089695692062378,1.3889305591583252,0.3149842321872711,0.02476314827799797,-0.3891637921333313,-7.5119404792785645
472,677922,677924,0.015493243932723999,0.11625843495130539,1.0077227354049683,20.76543617248535,-32.31758499145508,52.260921478271484,-0.5969701409339905,1.3949302434921265,0.3239837884902954,0.46871787309646606,-0.17514948546886444,-6.982715129852295
473,677932,677934,0.006457263138145208,0.10310396552085876,1.0229575634002686,25.790056228637695,-24.273239135742188,48.891075134277344,-0.6044697761535645,1.3904304504394531,0.3134843111038208,0.7376507520675659,0.09637858718633652,-6.4736480712890625
474,677942,677944,0.015019286423921585,0.03883805125951767,1.0015661716461182,22.852840423583984,-15.217244148254395,47.366416931152344,-0.6089695692062378,1.4129292964935303,0.3329833447933197,0.9544058442115784,0.1585497409105301,-5.989743232727051
475,677952,677954,-0.022233540192246437,0.003430474316701293,0.981169581413269,13.496512413024902,-1.4024372100830078,46.57781219482422,-0.6119694113731384,1.3979300260543823,0.3209839463233948,1.2293705940246582,0.46511462330818176,-5.5081000328063965
476,677962,677964,-0.0100001972168684,0.1326194554567337,0.9865589737892151,-1.233324646949768,11.10245132446289,46.78065872192383,-0.6089695692062378,1.3889305591583252,0.3209839463233948,1.2863866090774536,0.5377411246299744,-5.040145397186279
477,677972,677974,0.0004902058863081038,0.03445810079574585,0.9774908423423767,-15.345536231994629,24.260345458984375,46.43436813354492,-0.5984700918197632,1.4024298191070557,0.30748462677001953,1.059077501296997,0.447313517332077,-4.584839820861816
478,677982,677984,0.01129579171538353,0.09692487865686417,0.9542790651321411,-17.319074630737305,33.709598541259766,46.91495895385742,-0.5969701409339905,1.3979300260543823,0.3239837884902954,0.6204304695129395,0.1356143355369568,-4.133401393890381
