,timestamp_start,timestamp_end,acc.x,acc.y,acc.z,gyro.x,gyro.y,gyro.z,mag.x,mag.y,mag.z,stabilizer.pitch,stabilizer.roll,stabilizer.yaw
0,199314,199316,-0.036390844732522964,0.00363577576354146,1.0058839321136475,41.45933532714844,-5.3715691566467285,-4.334902286529541,0.8954551815986633,-0.11549422144889832,-0.1814909279346466,0.9097936153411865,0.06296118348836899,-1.2647511959075928
1,199324,199326,-0.02392324060201645,-0.026908360421657562,0.9777664542198181,36.869224548339844,4.092895030975342,-0.8875740766525269,0.9134542942047119,-0.11549422144889832,-0.1514924168586731,0.8764011859893799,0.33683475852012634,-1.2834116220474243
2,199334,199336,-0.034152451902627945,-0.00787725392729044,0.8410808444023132,29.302095413208008,11.996252059936523,1.8631025552749634,0.9089545607566833,-0.1229938492178917,-0.1619918942451477,0.8453983664512634,0.683015763759613,-1.2924851179122925
3,199344,199346,-0.029533421620726585,-0.04435937479138374,0.8717492818832397,17.444181442260742,14.078420639038086,4.672351837158203,0.9134542942047119,-0.11849407106637955,-0.15749211609363556,0.7085530757904053,1.0896635055541992,-1.2922561168670654
4,199354,199356,-0.027460090816020966,0.00018403938156552613,0.9923532605171204,6.345973968505859,12.033196449279785,7.564380645751953,0.90445476770401,-0.12749361991882324,-0.16649167239665985,0.5542792081832886,1.3651010990142822,-1.2638030052185059
5,199364,199366,-0.06837314367294312,-0.031372781842947006,0.9920710325241089,-5.530506134033203,9.788814544677734,10.10238265991211,0.9089545607566833,-0.12599369883537292,-0.1529923528432846,0.568177342414856,1.447115421295166,-1.1902793645858765
6,199374,199376,-0.020687490701675415,0.021677078679203987,1.0063188076019287,-14.432145118713379,5.747138977050781,11.082036018371582,0.9179540872573853,-0.12899354100227356,-0.16499175131320953,0.4134206175804138,1.3589489459991455,-1.0837749242782593
7,199384,199386,-0.04861827567219734,0.007520758546888828,1.0136979818344116,-20.8231143951416,0.30413442850112915,11.802908897399902,0.9134542942047119,-0.1334933191537857,-0.17549122869968414,0.531144380569458,1.2090845108032227,-0.9584543704986572
8,199394,199396,-0.0833006203174591,-0.002069333102554083,1.0059491395950317,-26.125364303588867,-3.6531527042388916,12.450760841369629,0.9089545607566833,-0.13499325513839722,-0.16499175131320953,0.5698438882827759,1.0252516269683838,-0.8412290215492249
9,199404,199406,-0.0544363334774971,-0.017875174060463905,0.9638577699661255,-29.593650817871094,-5.346319675445557,11.89712905883789,0.9269536137580872,-0.14399279654026031,-0.18299084901809692,0.5912539958953857,0.9614094495773315,-0.7546598315238953
10,199414,199416,-0.0001637931854929775,0.037758197635412216,1.001637578010559,-29.096582412719727,-4.104395389556885,10.378043174743652,0.9239537715911865,-0.13499325513839722,-0.16799159348011017,0.5625775456428528,0.04439039155840874,-0.5291165113449097
11,199424,199426,0.012788030318915844,0.02381099946796894,0.960927426815033,-25.817543029785156,-3.6647424697875977,8.217314720153809,0.9179540872573853,-0.14399279654026031,-0.17699114978313446,0.5243253707885742,0.20081177353858948,-0.5173028707504272
12,199434,199436,-0.004647737834602594,0.018631193786859512,0.9888430237770081,-16.692707061767578,-5.357791423797607,5.414584636688232,0.9209539294242859,-0.12599369883537292,-0.18299084901809692,0.6950702667236328,-0.13561148941516876,-0.4035019874572754
13,199444,199446,-0.0647774264216423,-0.0057752495631575584,0.9792242050170898,-8.233603477478027,-8.308687210083008,5.043264865875244,0.9134542942047119,-0.12749361991882324,-0.16949152946472168,0.818209171295166,-0.33784642815589905,-0.3368631899356842
14,199454,199456,-0.06584567576646805,0.03272388502955437,1.037833571434021,3.486445665359497,-7.354238033294678,5.111781120300293,0.9164541363716125,-0.11549422144889832,-0.16649167239665985,0.9585987329483032,-0.5784561038017273,-0.2532457709312439
15,199464,199466,0.028556931763887405,0.06453897804021835,1.0290617942810059,16.591033935546875,2.188689708709717,5.463413715362549,0.919454038143158,-0.12749361991882324,-0.16949152946472168,0.7715428471565247,-0.5504773855209351,-0.2247971147298813
16,199474,199476,-0.035066165030002594,-0.0007117624627426267,0.9818665981292725,26.64251708984375,14.26432991027832,7.0404276847839355,0.911954402923584,-0.1319933980703354,-0.17399129271507263,0.7191333174705505,-0.33086875081062317,-0.1926618367433548
17,199484,199486,-0.04822741076350212,0.02339431643486023,0.9970251321792603,26.69170570373535,20.61921501159668,7.944999694824219,0.8999549746513367,-0.11699414998292923,-0.16799159348011017,0.5792158842086792,-0.011189794167876244,-0.14326409995555878
18,199494,199496,0.00021943422325421125,-0.0022533314768224955,0.9859848618507385,16.885318756103516,16.61509132385254,9.46335506439209,0.911954402923584,-0.13499325513839722,-0.15599219501018524,0.6531416773796082,0.9983944296836853,-0.20305553078651428
19,199504,199506,-0.05921988561749458,0.0180350411683321,1.0119454860687256,4.796387195587158,8.084613800048828,11.030829429626465,0.9014549255371094,-0.11849407106637955,-0.16949152946472168,0.05226792395114899,-0.03026890568435192,0.10613690316677094
20,199514,199516,-0.04158199205994606,0.029925884678959846,0.9958034753799438,-11.315315246582031,3.3621304035186768,11.520732879638672,0.911954402923584,-0.13499325513839722,-0.170991450548172,-0.008501367643475533,0.04490340128540993,0.21230214834213257
21,199524,199526,-0.004322467837482691,0.027313504368066788,0.9666097164154053,-23.865278244018555,-2.0068254470825195,12.393446922302246,0.9104544520378113,-0.12749361991882324,-0.17549122869968414,-0.05409814417362213,0.09255295246839523,0.3056584894657135
22,199534,199536,0.0009235229226760566,0.054887253791093826,1.001900315284729,-30.004623413085938,-11.513906478881836,10.874722480773926,0.9209539294242859,-0.11699414998292923,-0.16799159348011017,0.006155176553875208,-0.18064436316490173,0.4365699589252472
23,199544,199546,-0.028687994927167892,0.0026174746453762054,0.9618666172027588,-26.859357833862305,-17.764907836914062,9.21948528289795,0.9104544520378113,-0.12449377030134201,-0.16349181532859802,0.25180578231811523,-0.5013749003410339,0.5580492615699768
24,199554,199556,-0.1334257423877716,0.029898110777139664,1.0200937986373901,-16.797847747802734,-18.62156105041504,8.975801467895508,0.9149542450904846,-0.12899354100227356,-0.16499175131320953,0.36100703477859497,-0.814663290977478,0.6597918272018433
25,199564,199566,0.00579841947183013,0.04776298999786377,1.0321602821350098,-0.981661319732666,-15.23568344116211,6.641088485717773,0.9134542942047119,-0.12149392068386078,-0.17249137163162231,0.6020491123199463,-0.8710458874702454,0.7348474264144897
26,199574,199576,-0.05869537219405174,0.03665545955300331,1.0443378686904907,16.39308738708496,-5.935727119445801,4.059053421020508,0.9209539294242859,-0.1049947515130043,-0.17699114978313446,0.7587025761604309,-0.8122811913490295,0.7943479418754578
27,199584,199586,-0.03482593968510628,0.036054711788892746,1.0022554397583008,25.73787498474121,1.5120943784713745,1.6818537712097168,0.9164541363716125,-0.11849407106637955,-0.16649167239665985,0.720081627368927,-0.46903833746910095,0.8113512992858887
28,199594,199596,-0.05910152569413185,0.024628590792417526,0.9937818050384521,29.940523147583008,6.027965068817139,-1.2122857570648193,0.9104544520378113,-0.10049497336149216,-0.16649167239665985,0.781673789024353,-0.07494273036718369,0.8066889643669128
29,199604,199606,-0.04104576259851456,-0.010855077765882015,0.9581091403961182,31.34613800048828,6.5382819175720215,-0.7209526300430298,0.9089545607566833,-0.10799460113048553,-0.16499175131320953,0.6462244987487793,-0.1044878214597702,0.850695013999939
30,199614,199616,0.024709366261959076,0.04384847357869148,0.999054491519928,27.736621856689453,3.466782331466675,-0.5017738342285156,0.8999549746513367,-0.1049947515130043,-0.16499175131320953,0.6562974452972412,0.29225271940231323,0.8271712064743042
31,199624,199626,-0.03817882016301155,0.029575858265161514,1.0099563598632812,17.344057083129883,1.9361757040023804,0.3996250629425049,0.9074546098709106,-0.12449377030134201,-0.16949152946472168,0.6261434555053711,0.5234448313713074,0.8305395245552063
32,199634,199636,-0.02353721857070923,0.02445117011666298,0.9869709610939026,4.116652488708496,8.622292518615723,2.8966286182403564,0.8984550833702087,-0.10949452221393585,-0.17849107086658478,0.5112824440002441,0.3151828944683075,0.8934867978096008
33,199644,199646,-0.025585252791643143,0.0037549943663179874,0.9796046614646912,-8.880352973937988,12.735064506530762,3.8833656311035156,0.8984550833702087,-0.10049497336149216,-0.16649167239665985,0.45658159255981445,0.4704381227493286,0.9062533378601074
34,199654,199656,-0.09389936178922653,-0.011759685352444649,0.9751970171928406,-16.225818634033203,13.944459915161133,4.671958923339844,0.9104544520378113,-0.10949452221393585,-0.17249137163162231,0.27310019731521606,0.3076988458633423,0.9608129858970642
35,199664,199666,0.010240104049444199,0.05580604448914528,0.9867240190505981,-16.646724700927734,11.642074584960938,5.0291643142700195,0.9059546589851379,-0.113994300365448,-0.1799909919500351,0.2282126396894455,0.13457843661308289,1.0107532739639282
36,199674,199676,-0.02986406348645687,0.03236981853842735,0.9623463749885559,-9.935002326965332,4.075083255767822,3.4983115196228027,0.90445476770401,-0.11849407106637955,-0.1814909279346466,0.10328001528978348,0.05481821298599243,1.0485748052597046
37,199684,199686,0.016786061227321625,0.02867417223751545,0.9661305546760559,1.2083427906036377,0.02366894856095314,1.9016515016555786,0.8984550833702087,-0.10949452221393585,-0.16949152946472168,0.1430647075176239,-0.04560859501361847,1.0863301753997803
38,199694,199696,-0.05127175152301788,0.010943281464278698,0.9943365454673767,11.885503768920898,-1.4719356298446655,1.027308702468872,0.8999549746513367,-0.10799460113048553,-0.16499175131320953,0.1686028391122818,0.08842003345489502,1.090583086013794
39,199704,199706,-0.00047822456690482795,0.027159102261066437,0.9925605654716492,22.51156234741211,-1.5731536149978638,0.7143771648406982,0.8909554481506348,-0.113994300365448,-0.1799909919500351,0.07687225937843323,0.24980972707271576,1.0948032140731812
40,199714,199716,-0.062223512679338455,0.07843836396932602,1.0749233961105347,30.4335994720459,0.033436745405197144,0.3468996584415436,0.9014549255371094,-0.11549422144889832,-0.16649167239665985,0.11547158658504486,0.5631325244903564,1.0932228565216064
41,199724,199726,-0.0429268404841423,-0.010551497340202332,0.9777597784996033,33.25984191894531,0.0005382077069953084,-0.6099410653114319,0.8894554972648621,-0.11549422144889832,-0.17249137163162231,-0.06549899280071259,0.9701291918754578,1.0818992853164673
42,199734,199736,-0.04295080900192261,-0.007846791297197342,0.9539190530776978,29.45205307006836,-1.3568183183670044,-0.8894630074501038,0.9059546589851379,-0.1229938492178917,-0.170991450548172,0.3128664493560791,1.2448046207427979,1.0917725563049316
43,199744,199746,0.01150162797421217,0.00623576482757926,0.9144680500030518,18.471357345581055,-5.474135875701904,-1.3082098960876465,0.9059546589851379,-0.12599369883537292,-0.16799159348011017,0.21918626129627228,1.3603038787841797,1.0933417081832886
44,199754,199756,-0.027414241805672646,-0.0019293641671538353,0.9191612005233765,3.9712929725646973,-7.530760288238525,-0.4374581277370453,0.8894554972648621,-0.12149392068386078,-0.17249137163162231,0.3158250153064728,1.5067707300186157,1.0893609523773193
45,199764,199766,-0.09418821334838867,-0.03270503133535385,0.9161754250526428,-6.952601432800293,-3.139112710952759,-0.6680085062980652,0.9059546589851379,-0.1319933980703354,-0.18599069118499756,0.34115070104599,1.5881258249282837,1.0748332738876343
46,199774,199776,-0.08470531553030014,0.01903773657977581,0.97484290599823,-14.762914657592773,5.650494575500488,-1.6230597496032715,0.9074546098709106,-0.11549422144889832,-0.16349181532859802,0.3506072759628296,1.5033681392669678,1.0681740045547485
47,199784,199786,-0.024442153051495552,0.032344456762075424,0.9606992602348328,-18.385499954223633,12.706326484680176,-3.27659273147583,0.9029548168182373,-0.11699414998292923,-0.17399129271507263,0.036182474344968796,1.3083806037902832,1.0287730693817139
48,199794,199796,-0.012707124464213848,0.030709611251950264,0.9344298839569092,-20.15493392944336,18.442062377929688,-3.4950015544891357,0.9074546098709106,-0.12449377030134201,-0.1814909279346466,0.17632809281349182,1.1985610723495483,1.0281298160552979
49,199804,199806,0.019423875957727432,0.024255620315670967,0.9468872547149658,-15.211814880371094,21.613506317138672,-5.589770793914795,0.9029548168182373,-0.1049947515130043,-0.17699114978313446,-0.12109116464853287,1.1559815406799316,0.9691727161407471
50,199814,199816,-0.020008021965622902,-0.011195824481546879,0.9208299517631531,-6.946191787719727,21.348609924316406,-5.342127799987793,0.8939552903175354,-0.113994300365448,-0.170991450548172,-0.23357591032981873,0.9831844568252563,0.933181881904602
51,199824,199826,0.006710847374051809,0.025631528347730637,0.952538788318634,0.9671255946159363,18.416622161865234,-4.045470714569092,0.8954551815986633,-0.11249437183141708,-0.17249137163162231,-0.5418480634689331,1.0018335580825806,0.8651980757713318
52,199834,199836,-0.025808921083807945,0.037240222096443176,0.9370099306106567,3.0683846473693848,11.032731056213379,-5.110159873962402,0.8984550833702087,-0.12149392068386078,-0.17249137163162231,-0.769723117351532,1.0379490852355957,0.8182876110076904
53,199844,199846,-0.006890584249049425,0.03480507805943489,0.9414135813713074,-0.41896799206733704,1.987251877784729,-2.762367010116577,0.9014549255371094,-0.11249437183141708,-0.1814909279346466,-0.8082658052444458,1.0098994970321655,0.787168025970459
54,199854,199856,-0.07069249451160431,0.029126975685358047,0.9636903405189514,-3.79978084564209,-6.6956868171691895,-2.6932780742645264,0.8999549746513367,-0.1049947515130043,-0.18599069118499756,-0.8475878238677979,1.0763615369796753,0.755977213382721
55,199864,199866,-0.049840398132801056,0.04978257045149803,0.9736092686653137,-6.195160388946533,-14.483461380004883,-2.87673282623291,0.90445476770401,-0.11849407106637955,-0.16949152946472168,-0.8180263638496399,1.01749587059021,0.7247122526168823
56,199874,199876,-0.023655278608202934,0.039739638566970825,0.9662231206893921,-7.915373802185059,-19.91157341003418,-3.5029306411743164,0.8984550833702087,-0.11849407106637955,-0.17549122869968414,-0.40218761563301086,0.8567031621932983,0.7339518070220947
57,199884,199886,-0.12119469791650772,-0.003897956106811762,0.9141164422035217,-9.809266090393066,-19.585525512695312,-1.9346944093704224,0.9059546589851379,-0.113994300365448,-0.17699114978313446,-0.5004031658172607,0.8075944185256958,0.6587384343147278
58,199894,199896,0.030929500237107277,0.03593993932008743,0.8859689235687256,-11.169791221618652,-13.93968391418457,-0.9592363238334656,0.8984550833702087,-0.12749361991882324,-0.1814909279346466,-0.12804445624351501,0.6598576307296753,0.6610837578773499
59,199904,199906,0.10427175462245941,0.2007134109735489,0.8450442552566528,-7.7497453689575195,-6.218194007873535,-0.13787439465522766,0.90445476770401,-0.12149392068386078,-0.1814909279346466,-0.000770214363001287,0.5254212617874146,0.6448804140090942
60,199914,199916,0.030297068879008293,0.10194255411624908,0.9481531381607056,-2.2579007148742676,1.1040945053100586,-0.06973059475421906,0.896955132484436,-0.1319933980703354,-0.19799008965492249,-0.05583745613694191,0.4465402066707611,0.6259897947311401
61,199924,199926,-0.061073653399944305,-0.0210804995149374,0.9190608859062195,3.2106590270996094,8.37195873260498,-0.4099118411540985,0.9014549255371094,-0.12149392068386078,-0.1904904693365097,-0.146470844745636,0.4565909802913666,0.6131716370582581
62,199934,199936,-0.05783582478761673,0.032909613102674484,0.9761029481887817,4.904760360717773,9.39665699005127,-0.25022339820861816,0.911954402923584,-0.12599369883537292,-0.19499024748802185,-0.10687615722417831,0.5256829261779785,0.6242772340774536
63,199944,199946,-0.027346771210432053,0.06672142446041107,1.0129603147506714,2.5394110679626465,4.295078277587891,0.5516200065612793,0.8984550833702087,-0.12149392068386078,-0.1904904693365097,-0.26890915632247925,0.6021793484687805,0.614379346370697
64,199954,199956,0.049945052713155746,0.06562613695859909,0.9614573121070862,-2.2059638500213623,-3.03460431098938,-0.07659851014614105,0.9149542450904846,-0.13799309730529785,-0.17399129271507263,-0.3375808000564575,0.6306920647621155,0.6152284741401672
65,199964,199966,0.07080487161874771,-0.010395224206149578,0.8809147477149963,-5.565986156463623,-12.44854736328125,-0.06641066819429398,0.896955132484436,-0.1319933980703354,-0.18299084901809692,-0.21270588040351868,0.5908423066139221,0.6253889203071594
66,199974,199976,-0.018767494708299637,0.007139753550291061,0.9446342587471008,-7.975083827972412,-23.387348175048828,-0.33521199226379395,0.9209539294242859,-0.1319933980703354,-0.18599069118499756,-0.1433466523885727,0.500103235244751,0.6193845868110657
67,199984,199986,-0.03357471898198128,0.013528839685022831,0.9592168927192688,-9.667959213256836,-31.171903610229492,-0.3848058879375458,0.9134542942047119,-0.14549271762371063,-0.1814909279346466,-0.3292354941368103,0.3770536184310913,0.5735285878181458
68,199994,199996,-0.036724988371133804,0.02992747351527214,0.9837590456008911,-9.671002388000488,-33.189876556396484,-0.11820467561483383,0.9209539294242859,-0.14999249577522278,-0.18599069118499756,0.231069877743721,0.17062416672706604,0.5890283584594727
69,200004,200006,0.002028064802289009,0.06589508801698685,1.0242470502853394,-4.136391639709473,-31.52467155456543,-1.4218751192092896,0.9224538803100586,-0.14249287545681,-0.19349032640457153,0.4412546157836914,0.2789311408996582,0.5822589993476868
70,200014,200016,-0.02237687259912491,0.03751016780734062,1.0129631757736206,2.7508492469787598,-21.665241241455078,-2.6241161823272705,0.9329533576965332,-0.13499325513839722,-0.19499024748802185,0.7995305061340332,0.18369582295417786,0.5717230439186096
71,200024,200026,-0.013368085026741028,0.015279091894626617,0.9680611491203308,6.4515485763549805,-6.183504581451416,-4.73370885848999,0.9239537715911865,-0.14699265360832214,-0.19199039041996002,0.9787123799324036,0.1833425909280777,0.5424726605415344
72,200034,200036,-0.04101448133587837,0.015236721374094486,1.0010250806808472,7.590920448303223,12.201556205749512,-6.3333892822265625,0.919454038143158,-0.13949301838874817,-0.1814909279346466,0.9702630043029785,0.23662489652633667,0.4910729229450226
73,200044,200046,-0.05181499943137169,0.010302023962140083,1.0322519540786743,6.475072383880615,26.30892562866211,-7.3789191246032715,0.9239537715911865,-0.1319933980703354,-0.19199039041996002,0.8351154327392578,0.36715707182884216,0.4264376759529114
74,200054,200056,-0.0018943162867799401,0.044010620564222336,1.0370146036148071,4.340090751647949,30.72797203063965,-9.718982696533203,0.9074546098709106,-0.13649317622184753,-0.19349032640457153,0.734725832939148,0.3354002833366394,0.3669550120830536
75,200064,200066,0.013233824633061886,0.009690399281680584,1.0030120611190796,3.7030463218688965,26.546201705932617,-10.975385665893555,0.9179540872573853,-0.12599369883537292,-0.20098994672298431,0.3112139105796814,0.4260141849517822,0.26575741171836853
76,200074,200076,-0.08072724938392639,0.009495469741523266,1.0295392274856567,3.945236921310425,16.448755264282227,-11.041255950927734,0.9104544520378113,-0.12449377030134201,-0.18449077010154724,0.19218721985816956,0.4323868751525879,0.1729348599910736
77,200084,200086,-0.023645831272006035,0.0350947380065918,1.046237826347351,2.776090621948242,0.47521549463272095,-11.422486305236816,0.9104544520378113,-0.12449377030134201,-0.18449077010154724,0.04435643553733826,0.43509846925735474,0.06963527202606201
78,200094,200096,-0.06928142160177231,-0.021360943093895912,1.080704927444458,1.0891973972320557,-14.036537170410156,-11.144206047058105,0.9104544520378113,-0.12449377030134201,-0.18449077010154724,-0.00035570230102166533,0.49077141284942627,-0.04312141612172127
79,200104,200106,-0.03150996193289757,-0.01036403700709343,1.0231648683547974,-0.8025352954864502,-21.632526397705078,-11.488042831420898,0.9104544520378113,-0.12449377030134201,-0.18449077010154724,0.15395767986774445,0.513787567615509,-0.15494567155838013
80,200114,200116,-0.006715438794344664,-0.0022473877761512995,0.9823930859565735,-3.1345813274383545,-24.006851196289062,-10.994673728942871,0.9254537224769592,-0.14849257469177246,-0.18449077010154724,0.4041202664375305,0.502196729183197,-0.26858699321746826
81,200124,200126,-0.0682666227221489,0.021719805896282196,1.0585520267486572,-7.010628700256348,-23.339183807373047,-12.919450759887695,0.9014549255371094,-0.12449377030134201,-0.19349032640457153,0.7442739009857178,0.4446306526660919,-0.3740537762641907
82,200134,200136,-0.016404174268245697,0.03819630295038223,1.0611974000930786,-10.294843673706055,-19.380043029785156,-14.24119758605957,0.9179540872573853,-0.12899354100227356,-0.1799909919500351,0.8368330001831055,0.3364141583442688,-0.5021165013313293
83,200144,200146,0.029617205262184143,0.02888311818242073,1.0270709991455078,-11.131326675415039,-10.027005195617676,-15.148872375488281,0.9254537224769592,-0.13049347698688507,-0.1814909279346466,1.053330659866333,0.257313072681427,-0.6430425047874451
84,200154,200156,-0.09544344991445541,-0.04152610898017883,1.1333141326904297,-9.238444328308105,-0.23734845221042633,-16.872709274291992,0.9059546589851379,-0.13499325513839722,-0.18299084901809692,1.1290651559829712,0.17347896099090576,-0.7967559695243835
85,200164,200166,-0.10295997560024261,0.006532358005642891,1.1013150215148926,-1.7881017923355103,9.805768013000488,-17.672882080078125,0.9149542450904846,-0.11999399960041046,-0.1889905482530594,1.116795301437378,0.08329519629478455,-0.9638283252716064
86,200174,200176,0.08104654401540756,0.020399508997797966,0.9993855357170105,4.8387603759765625,16.866561889648438,-17.834308624267578,0.9299534559249878,-0.11099445074796677,-0.17699114978313446,0.9590575695037842,0.031452469527721405,-1.1370400190353394
87,200184,200186,0.027936043217778206,0.02559467777609825,1.0117840766906738,12.261972427368164,14.418669700622559,-18.341325759887695,0.8999549746513367,-0.10799460113048553,-0.17399129271507263,0.7433629035949707,0.16217637062072754,-1.3250738382339478
88,200194,200196,-0.06272728741168976,-0.04776803404092789,1.0741506814956665,16.097152709960938,10.263915061950684,-18.549997329711914,0.9089545607566833,-0.10799460113048553,-0.1799909919500351,0.5679706931114197,0.24741964042186737,-1.503029465675354
89,200204,200206,-0.0685398206114769,-0.018251843750476837,1.0449163913726807,15.196175575256348,-0.16872787475585938,-18.888578414916992,0.8954551815986633,-0.10349482297897339,-0.16649167239665985,0.5032348036766052,0.36578673124313354,-1.6849563121795654
90,200214,200216,-0.042969923466444016,-0.028805697336792946,0.981611967086792,13.39841365814209,-10.651362419128418,-18.920534133911133,0.9179540872573853,-0.11099445074796677,-0.17699114978313446,0.5920494794845581,0.6157611012458801,-1.8791258335113525
91,200224,200226,0.037250109016895294,0.18397699296474457,1.096622109413147,11.168768882751465,-17.886674880981445,-18.008007049560547,0.9074546098709106,-0.11549422144889832,-0.16349181532859802,0.8129870891571045,0.6935868263244629,-2.0608835220336914
92,200234,200236,-0.042893607169389725,0.03227850794792175,1.0070370435714722,8.045012474060059,-19.84779930114746,-16.75330924987793,0.896955132484436,-0.10799460113048553,-0.17699114978313446,0.9072973132133484,0.5934569239616394,-2.2215139865875244
93,200244,200246,-0.03610004484653473,-0.0039511872455477715,1.0022739171981812,4.28313684463501,-16.651262283325195,-16.239830017089844,0.896955132484436,-0.11999399960041046,-0.16799159348011017,1.2186596393585205,0.6627002954483032,-2.387125253677368
94,200254,200256,-0.08167216926813126,0.05310110002756119,0.9479736089706421,5.017300128936768,-10.349043846130371,-15.3196382522583,0.9014549255371094,-0.11549422144889832,-0.17249137163162231,1.1896560192108154,0.7038940787315369,-2.553601026535034
95,200264,200266,-0.1506599485874176,-0.07516761869192123,1.0483194589614868,8.059534072875977,3.588613986968994,-14.156550407409668,0.9224538803100586,-0.10649467259645462,-0.17549122869968414,1.295832633972168,0.8359730839729309,-2.717512607574463
96,200274,200276,-0.05726117640733719,-0.015689633786678314,1.0018101930618286,11.559144973754883,16.12917137145996,-12.165488243103027,0.9089545607566833,-0.09599519520998001,-0.170991450548172,1.4076335430145264,0.8616917729377747,-2.848832130432129
97,200284,200286,-0.00392958102747798,0.06300975382328033,0.8842505812644958,17.828163146972656,23.914506912231445,-9.113605499267578,0.9029548168182373,-0.10199490189552307,-0.16799159348011017,1.1303701400756836,1.0440409183502197,-2.982835292816162
98,200294,200296,-0.023101143538951874,0.02324720285832882,0.9646256566047668,17.83070182800293,22.95541763305664,-7.822896957397461,0.896955132484436,-0.09899504482746124,-0.16799159348011017,0.9066001772880554,1.2785418033599854,-3.07987380027771
99,200304,200306,-0.035764455795288086,-0.005057239904999733,0.9714123010635376,15.800148963928223,18.78134536743164,-6.243193626403809,0.9014549255371094,-0.10949452221393585,-0.17849107086658478,0.6426516771316528,1.5667108297348022,-3.1700682640075684
100,200314,200316,-0.04842434450984001,-0.01007281057536602,0.9348224997520447,7.1178669929504395,13.028548240661621,-4.337129592895508,0.8954551815986633,-0.11549422144889832,-0.18449077010154724,0.3802424669265747,1.7782498598098755,-3.2388391494750977
101,200324,200326,-0.04721877723932266,-0.01841617375612259,0.9171128273010254,-2.877614736557007,6.175084114074707,-2.5347938537597656,0.9089545607566833,-0.11699414998292923,-0.1799909919500351,0.21579749882221222,1.8470240831375122,-3.2777421474456787
102,200334,200336,-0.04027530550956726,-0.01222349051386118,0.9240174293518066,-14.09610652923584,-2.128561496734619,-1.6558960676193237,0.9149542450904846,-0.11699414998292923,-0.17399129271507263,0.17026497423648834,1.7455613613128662,-3.2903501987457275
103,200344,200346,-0.056364189833402634,-0.01326753944158554,0.9350138902664185,-21.201425552368164,-9.970191955566406,-1.8721729516983032,0.8954551815986633,-0.12149392068386078,-0.17549122869968414,0.25565361976623535,1.4935451745986938,-3.286411762237549
104,200354,200356,-0.08368915319442749,-0.06455745548009872,0.8836280107498169,-23.873291015625,-13.813884735107422,-1.2834750413894653,0.9059546589851379,-0.1049947515130043,-0.17699114978313446,0.4361165165901184,1.2275358438491821,-3.2883827686309814
105,200364,200366,-0.04643585905432701,0.02544095739722252,0.9633339643478394,-22.779455184936523,-14.282384872436523,-0.7609521746635437,0.9014549255371094,-0.11549422144889832,-0.1814909279346466,0.6603559851646423,1.002463936805725,-3.297927141189575
106,200374,200376,-0.016602491959929466,0.01646268181502819,0.9544684886932373,-17.743743896484375,-13.127982139587402,-1.3382112979888916,0.911954402923584,-0.13499325513839722,-0.1799909919500351,0.665759265422821,0.8789583444595337,-3.3336288928985596
107,200384,200386,-0.02683779038488865,0.022122729569673538,0.9567914009094238,-8.581387519836426,-10.073628425598145,-1.752989649772644,0.9104544520378113,-0.12449377030134201,-0.1904904693365097,0.8820018768310547,0.7048320174217224,-3.3422393798828125
108,200394,200396,-0.07001455128192902,-0.0013731607468798757,0.9617490768432617,0.7575324773788452,-3.045422077178955,-1.8589578866958618,0.9089545607566833,-0.11999399960041046,-0.18299084901809692,0.9461933374404907,0.743462085723877,-3.3799197673797607
109,200404,200406,-0.04640629142522812,-0.0060211350210011005,0.9537525773048401,4.805242538452148,4.792205333709717,-0.9091905951499939,0.9134542942047119,-0.12149392068386078,-0.1814909279346466,0.9682961106300354,0.7487218379974365,-3.4036903381347656
110,200414,200416,-0.04817052558064461,0.09062144160270691,1.0214542150497437,3.851451873779297,8.341734886169434,-0.003469254123046994,0.896955132484436,-0.11099445074796677,-0.18299084901809692,0.8889012932777405,0.798490583896637,-3.419416666030884
111,200424,200426,0.001655286643654108,0.0845719501376152,0.9881983995437622,-0.11767984181642532,8.67393970489502,0.30451706051826477,0.919454038143158,-0.12449377030134201,-0.17249137163162231,0.7706184387207031,0.817903459072113,-3.422840118408203
112,200434,200436,-0.039238035678863525,-0.006778815761208534,0.9583730697631836,-2.156184196472168,8.540759086608887,0.6943513751029968,0.9164541363716125,-0.12449377030134201,-0.17849107086658478,0.6487405896186829,0.8691504597663879,-3.425459384918213
113,200444,200446,-0.018644485622644424,0.025568760931491852,0.994598925113678,-6.623953819274902,6.86307430267334,1.4017794132232666,0.9134542942047119,-0.11249437183141708,-0.1814909279346466,0.6597257852554321,0.8596458435058594,-3.408817768096924
114,200454,200456,-0.03456372022628784,0.03210391849279404,0.9881157279014587,-11.902998924255371,1.0792371034622192,1.4872512817382812,0.8924553394317627,-0.11849407106637955,-0.1814909279346466,0.5788471102714539,0.7062206268310547,-3.3855631351470947
115,200464,200466,-0.02057836763560772,0.03532464802265167,0.9929880499839783,-14.466717720031738,-6.05658483505249,1.5091571807861328,0.9074546098709106,-0.11849407106637955,-0.18449077010154724,0.5906074643135071,0.4942152202129364,-3.3552417755126953
116,200474,200476,0.005256636533886194,-0.00868165586143732,0.9398473501205444,-15.455915451049805,-12.390941619873047,0.6815290451049805,0.9104544520378113,-0.11849407106637955,-0.17549122869968414,0.5675095319747925,0.6655756831169128,-3.3749911785125732
117,200484,200486,-0.10626151412725449,-0.09316575527191162,0.9339325428009033,-13.99293327331543,-12.685135841369629,-0.9940411448478699,0.9224538803100586,-0.11549422144889832,-0.1904904693365097,0.7595116496086121,0.3215263783931732,-3.344740152359009
118,200494,200496,-0.053011972457170486,-0.02164134941995144,0.9694080352783203,-12.004438400268555,-11.888668060302734,-2.168086051940918,0.9029548168182373,-0.1229938492178917,-0.1799909919500351,0.8043038249015808,0.3643013536930084,-3.3750505447387695
119,200504,200506,-0.03098795749247074,-0.020286066457629204,0.9680152535438538,-8.273427963256836,-6.896602153778076,-3.4976072311401367,0.9074546098709106,-0.11249437183141708,-0.17849107086658478,1.0390092134475708,0.22610001266002655,-3.3846237659454346
120,200514,200516,-0.06712456047534943,0.032603248953819275,1.0592466592788696,-4.689039707183838,0.8289126753807068,-3.355243444442749,0.9149542450904846,-0.11699414998292923,-0.17699114978313446,1.099345088005066,0.28141677379608154,-3.4300038814544678
121,200524,200526,-0.036726877093315125,0.011288853362202644,0.9864217638969421,-0.08013756573200226,7.493681907653809,-5.154799461364746,0.9104544520378113,-0.10349482297897339,-0.18449077010154724,1.0522019863128662,0.18150164186954498,-3.459357738494873
122,200534,200536,-0.08731585741043091,-0.12830521166324615,1.0103886127471924,2.0749785900115967,15.918611526489258,-5.7942214012146,0.9134542942047119,-0.10349482297897339,-0.1814909279346466,0.8887549042701721,0.2139231115579605,-3.518632650375366
123,200544,200546,-0.11815157532691956,-0.05320776253938675,1.0087398290634155,0.7986173629760742,23.639202117919922,-6.74827766418457,0.9179540872573853,-0.09599519520998001,-0.19199039041996002,0.5916918516159058,0.1892375648021698,-3.5723259449005127
124,200554,200556,-0.04448818042874336,0.0013841079780831933,0.9641600251197815,-2.5313329696655273,28.466758728027344,-7.210958957672119,0.9104544520378113,-0.10349482297897339,-0.19349032640457153,0.34246528148651123,0.21209999918937683,-3.6381072998046875
125,200564,200566,-0.006264984607696533,0.01810271479189396,0.9976623058319092,-7.962793350219727,26.902538299560547,-7.667855739593506,0.9029548168182373,-0.09899504482746124,-0.18599069118499756,0.11858832836151123,0.378562867641449,-3.7211854457855225
126,200574,200576,-0.026766175404191017,-0.008470108732581139,0.9714816808700562,-14.04168701171875,20.872936248779297,-8.664717674255371,0.9239537715911865,-0.10199490189552307,-0.18299084901809692,-0.20273394882678986,0.16874709725379944,-3.7836172580718994
127,200584,200586,0.014624495059251785,0.11992447823286057,1.0861644744873047,-17.95901870727539,9.481744766235352,-8.775148391723633,0.9164541363716125,-0.08849557489156723,-0.17549122869968414,-0.3313543498516083,-0.050794567912817,-3.860598564147949
128,200594,200596,-0.002410977380350232,0.0183268953114748,0.9972720742225647,-16.778100967407227,-3.1995959281921387,-9.18700122833252,0.911954402923584,-0.09899504482746124,-0.18599069118499756,-0.289053350687027,-0.08985264599323273,-3.953371286392212
129,200604,200606,-0.03677456080913544,0.01068910676985979,1.0134336948394775,-13.864733695983887,-13.791922569274902,-9.702977180480957,0.911954402923584,-0.08999549597501755,-0.19199039041996002,-0.2777646481990814,-0.3278019428253174,-4.0419440269470215
130,200614,200616,-0.09502632170915604,-0.10523353517055511,1.0275163650512695,-10.424320220947266,-17.906017303466797,-10.42497730255127,0.90445476770401,-0.10649467259645462,-0.20248986780643463,-0.05860019847750664,-0.3027428090572357,-4.141088008880615
131,200624,200626,-0.013094927184283733,-0.00828126072883606,0.9823853373527527,-7.7571635246276855,-14.369489669799805,-8.904840469360352,0.9029548168182373,-0.10799460113048553,-0.18299084901809692,0.04676703363656998,-0.5269711017608643,-4.239274978637695
132,200634,200636,-0.06644053757190704,-0.0035382017958909273,1.013424277305603,-3.8165385723114014,-7.0487260818481445,-7.6493353843688965,0.8954551815986633,-0.10349482297897339,-0.1904904693365097,0.16439378261566162,-0.6073642373085022,-4.330333232879639
133,200644,200646,-0.07837184518575668,-0.050324875861406326,0.9673944115638733,-1.6329646110534668,3.7399652004241943,-6.514638900756836,0.9074546098709106,-0.09749512374401093,-0.18449077010154724,0.1589495837688446,-0.7132880091667175,-4.404117107391357
134,200654,200656,-0.007993746548891068,0.018809465691447258,0.9977444410324097,1.745080828666687,11.262492179870605,-6.538075923919678,0.9164541363716125,-0.0944952741265297,-0.18749062716960907,0.08450064808130264,-0.6293448805809021,-4.465694427490234
135,200664,200666,0.012004890479147434,0.03891277685761452,1.0003677606582642,2.847179412841797,15.59335994720459,-6.033374786376953,0.8999549746513367,-0.09299534559249878,-0.18299084901809692,-0.10213804244995117,-0.6468424201011658,-4.524317741394043
136,200674,200676,-0.08255553990602493,-0.0035463732201606035,0.9776034951210022,3.432750940322876,15.292677879333496,-5.56765604019165,0.9089545607566833,-0.10199490189552307,-0.18299084901809692,-0.334779292345047,-0.6445258855819702,-4.580199241638184
137,200684,200686,-0.14117279648780823,-0.014495898969471455,1.0040217638015747,6.076189994812012,8.819207191467285,-5.974848747253418,0.8984550833702087,-0.09149542450904846,-0.18449077010154724,-0.38916900753974915,-0.5460720062255859,-4.646512985229492
138,200694,200696,-0.1528637707233429,-0.12355390191078186,1.0687106847763062,3.9482133388519287,2.7542288303375244,-3.258579730987549,0.9029548168182373,-0.10199490189552307,-0.18599069118499756,-0.491698294878006,-0.5823432803153992,-4.708040237426758
139,200704,200706,0.0034634587354958057,-0.07853540778160095,1.0705894231796265,-0.8032159805297852,-5.199793338775635,-2.2783827781677246,0.9014549255371094,-0.10649467259645462,-0.17249137163162231,-0.4244614243507385,-0.5067479014396667,-4.758695602416992
140,200714,200716,0.08192466199398041,0.15132877230644226,0.9526486992835999,-5.664753437042236,-15.243474960327148,-2.023183822631836,0.90445476770401,-0.09749512374401093,-0.1814909279346466,-0.3586914539337158,-0.44217538833618164,-4.78584623336792
141,200724,200726,-0.01650695875287056,0.09916441142559052,0.9449814558029175,-8.502161026000977,-20.156517028808594,-2.345101833343506,0.9074546098709106,-0.11549422144889832,-0.17849107086658478,-0.23589855432510376,-0.5853108763694763,-4.807455539703369
142,200734,200736,-0.02201005630195141,0.04295586422085762,1.0069135427474976,-8.28621768951416,-18.227046966552734,-2.1506173610687256,0.919454038143158,-0.10649467259645462,-0.19349032640457153,0.07679831236600876,-0.5519488453865051,-4.835516452789307
143,200744,200746,-0.10381127148866653,-0.04187683388590813,0.9780213832855225,-3.530759572982788,-9.173727989196777,-1.503736972808838,0.9269536137580872,-0.09899504482746124,-0.18299084901809692,0.30767589807510376,-0.7056106925010681,-4.86448860168457
144,200754,200756,0.043598417192697525,0.0783054530620575,0.8300930857658386,2.5181162357330322,3.9770402908325195,-0.1321866810321808,0.919454038143158,-0.10949452221393585,-0.17549122869968414,0.3822314143180847,-0.6276453137397766,-4.867462635040283
145,200764,200766,-0.023013195022940636,0.015165220946073532,0.985201358795166,8.115457534790039,13.96090316772461,3.1718053817749023,0.9029548168182373,-0.1049947515130043,-0.20098994672298431,0.2737814486026764,-0.6160251498222351,-4.859369277954102
146,200774,200776,0.02214205265045166,0.0012354050995782018,0.9847263097763062,11.667682647705078,20.86239242553711,5.5035576820373535,0.9029548168182373,-0.1049947515130043,-0.17699114978313446,0.024910438805818558,-0.5193291306495667,-4.8167877197265625
147,200784,200786,-0.12577325105667114,0.02777913771569729,0.9042345881462097,7.9571614265441895,21.570606231689453,6.991589069366455,0.911954402923584,-0.1229938492178917,-0.1889905482530594,-0.3051624894142151,-0.40205976366996765,-4.753410816192627
148,200794,200796,-0.10360769182443619,-0.017896832898259163,0.979049563407898,3.6244120597839355,15.326169967651367,8.153179168701172,0.9014549255371094,-0.10649467259645462,-0.18749062716960907,-0.46012020111083984,-0.19228704273700714,-4.689603328704834
149,200804,200806,-0.018415406346321106,-0.0027061495929956436,1.0251961946487427,-4.417672634124756,1.7811146974563599,9.822708129882812,0.9149542450904846,-0.1049947515130043,-0.1889905482530594,-0.4812682867050171,-0.30498939752578735,-4.641699314117432
150,200814,200816,-0.07351116091012955,-0.044619958847761154,0.9714407324790955,-13.995573997497559,-16.38633918762207,9.301774024963379,0.9074546098709106,-0.13049347698688507,-0.19349032640457153,-0.41065528988838196,-0.46713897585868835,-4.571786880493164
151,200824,200826,-0.057105209678411484,-0.11449350416660309,1.0790170431137085,-21.285432815551758,-29.46012306213379,9.346805572509766,0.9089545607566833,-0.12599369883537292,-0.18599069118499756,-0.31388387084007263,-0.5427978038787842,-4.4693922996521
152,200834,200836,-0.25437694787979126,-0.019169826060533524,1.075836181640625,-21.546127319335938,-34.37548828125,10.424784660339355,0.9254537224769592,-0.1334933191537857,-0.19649016857147217,0.10614106059074402,-0.9186809062957764,-4.408193588256836
153,200844,200846,-0.09577006846666336,0.020364902913570404,1.0088672637939453,-16.482240676879883,-30.514610290527344,11.373705863952637,0.9239537715911865,-0.11699414998292923,-0.19499024748802185,0.3270638585090637,-1.117448091506958,-4.2848334312438965
154,200854,200856,-0.092800073325634,-0.014893773943185806,1.0487370491027832,-4.117456912994385,-18.08611297607422,12.896568298339844,0.9269536137580872,-0.13799309730529785,-0.19499024748802185,0.6789628267288208,-1.0662345886230469,-4.159727573394775
155,200864,200866,-0.07070954144001007,-0.13565823435783386,0.9950010776519775,7.375048637390137,3.4642422199249268,15.243558883666992,0.919454038143158,-0.12749361991882324,-0.18749062716960907,0.7890137434005737,-1.1351388692855835,-4.017557144165039
156,200874,200876,-0.05164922773838043,-0.033052463084459305,0.9349531531333923,14.11405086517334,22.292457580566406,15.287506103515625,0.9209539294242859,-0.1229938492178917,-0.19499024748802185,0.6575806140899658,-1.0427151918411255,-3.848437547683716
157,200884,200886,-0.15979385375976562,-0.20977644622325897,1.0638870000839233,17.693864822387695,33.15345001220703,14.703984260559082,0.9074546098709106,-0.11249437183141708,-0.18449077010154724,0.2777090072631836,-0.9783454537391663,-3.6666324138641357
158,200894,200896,-0.04274542257189751,-0.05624694377183914,1.0638067722320557,15.054177284240723,32.00296401977539,14.355788230895996,0.896955132484436,-0.10799460113048553,-0.18599069118499756,-0.01381528191268444,-0.7494179606437683,-3.525754451751709
159,200904,200906,-0.022037817165255547,-0.027992339804768562,0.9948017597198486,4.905773639678955,21.610515594482422,13.883604049682617,0.90445476770401,-0.10349482297897339,-0.18449077010154724,-0.04415462166070938,-0.5957494378089905,-3.440962076187134
160,200914,200916,-0.04861097410321236,-0.02045024000108242,1.0033349990844727,-9.094342231750488,6.992836952209473,14.044295310974121,0.90445476770401,-0.10349482297897339,-0.18449077010154724,-0.5413936972618103,-0.34126681089401245,-3.2519824504852295
161,200924,200926,-0.10828310996294022,-0.011713574640452862,0.9946673512458801,-19.925395965576172,-8.443699836730957,11.919322967529297,0.90445476770401,-0.10349482297897339,-0.18449077010154724,-0.5675106644630432,-0.2998497784137726,-3.120676279067993
162,200934,200936,-0.07276250422000885,-0.012934748083353043,0.9842062592506409,-28.343149185180664,-17.879993438720703,10.43083667755127,0.9059546589851379,-0.11999399960041046,-0.18299084901809692,-0.38645344972610474,-0.6415053606033325,-3.028003215789795
163,200944,200946,0.0805053785443306,0.10723448544740677,0.9911333918571472,-32.02468490600586,-20.4777774810791,9.077496528625488,0.9029548168182373,-0.12599369883537292,-0.20398980379104614,-0.36541932821273804,-0.9445655941963196,-2.8985443115234375
164,200954,200956,0.049626223742961884,0.12297434359788895,1.0019539594650269,-27.456369400024414,-20.310104370117188,6.577065944671631,0.9179540872573853,-0.113994300365448,-0.1799909919500351,-0.16546645760536194,-1.1900558471679688,-2.7966060638427734
165,200964,200966,0.05625887215137482,0.14350225031375885,0.9657411575317383,-18.108928680419922,-19.103116989135742,4.3514533042907715,0.9134542942047119,-0.10949452221393585,-0.1904904693365097,0.1669473797082901,-1.6385953426361084,-2.7549240589141846
166,200974,200976,0.07681387662887573,0.12464947998523712,0.9064798355102539,-5.4393415451049805,-16.348087310791016,1.8091009855270386,0.919454038143158,-0.10349482297897339,-0.18749062716960907,0.25591030716896057,-1.5613210201263428,-2.664412021636963
167,200984,200986,-0.03835493326187134,-0.047559767961502075,1.069502830505371,10.896513938903809,-13.035923957824707,-0.7550080418586731,0.8999549746513367,-0.09599519520998001,-0.18599069118499756,0.5127280950546265,-1.7016527652740479,-2.656324625015259
168,200994,200996,-0.1029159352183342,-0.09657353162765503,1.0229705572128296,25.453699111938477,-7.321250915527344,-1.8453174829483032,0.9074546098709106,-0.09149542450904846,-0.17549122869968414,0.6363807916641235,-1.5904288291931152,-2.648815870285034
169,201004,201006,-0.11308836936950684,-0.20164012908935547,1.0853657722473145,28.660400390625,-2.069822072982788,-1.172903060913086,0.9104544520378113,-0.10049497336149216,-0.1904904693365097,0.7375590205192566,-1.4384163618087769,-2.667616367340088
170,201014,201016,-0.13824239373207092,-0.08732399344444275,0.9190555810928345,25.713171005249023,1.6086039543151855,-0.2324231117963791,0.9104544520378113,-0.11549422144889832,-0.18449077010154724,0.7628176808357239,-1.0372340679168701,-2.678112506866455
171,201024,201026,-0.036456044763326645,-0.01420618500560522,0.9698628187179565,15.674578666687012,3.059236526489258,1.5415486097335815,0.9164541363716125,-0.10649467259645462,-0.1904904693365097,0.7325977087020874,-0.7800803780555725,-2.675732135772705
172,201034,201036,-0.03862493485212326,0.03420977294445038,1.0297741889953613,1.6163969039916992,2.8000195026397705,2.519167423248291,0.9224538803100586,-0.10649467259645462,-0.18449077010154724,0.7583750486373901,-0.7758470773696899,-2.6774959564208984
173,201044,201046,-0.11608677357435226,-0.059239841997623444,0.9511396884918213,-14.561202049255371,1.8279318809509277,2.030482530593872,0.9254537224769592,-0.10949452221393585,-0.17549122869968414,0.7158231139183044,-0.7816776037216187,-2.64980411529541
174,201054,201056,-0.046012040227651596,-0.010049761272966862,0.981488049030304,-26.59987449645996,3.4913949966430664,2.5444416999816895,0.9089545607566833,-0.11999399960041046,-0.18599069118499756,0.6743987798690796,-1.0058437585830688,-2.626682996749878
175,201064,201066,-0.018636997789144516,0.03374795243144035,1.0101873874664307,-29.345539093017578,5.269044876098633,2.1045916080474854,0.9104544520378113,-0.10049497336149216,-0.17549122869968414,0.6075118184089661,-1.2433193922042847,-2.596545934677124
176,201074,201076,0.007155293133109808,0.016497226431965828,1.0122562646865845,-23.80506706237793,9.146583557128906,2.913217067718506,0.9104544520378113,-0.09749512374401093,-0.1814909279346466,0.4989742636680603,-1.5594481229782104,-2.563506603240967
177,201084,201086,-0.07536252588033676,-0.03637291118502617,1.01629638671875,-12.446276664733887,11.438457489013672,3.8365111351013184,0.9164541363716125,-0.08849557489156723,-0.1814909279346466,0.3413598835468292,-1.7624975442886353,-2.525038957595825
178,201094,201096,-0.04234367609024048,0.03777221590280533,1.0772095918655396,1.7507498264312744,11.493782043457031,4.505370140075684,0.90445476770401,-0.10349482297897339,-0.1904904693365097,0.450830340385437,-1.9135531187057495,-2.5378055572509766
179,201104,201106,-0.05581604316830635,-0.048023585230112076,0.9781748652458191,16.340272903442383,8.72669506072998,3.0068325996398926,0.9029548168182373,-0.09599519520998001,-0.1799909919500351,0.2737751305103302,-1.8356068134307861,-2.4856598377227783
180,201114,201116,-0.08276472240686417,-0.00184697809163481,1.0391573905944824,25.97663116455078,6.432373046875,3.005737543106079,0.9029548168182373,-0.10199490189552307,-0.18599069118499756,0.12774761021137238,-1.7650153636932373,-2.4433555603027344
181,201124,201126,0.0027197222225368023,0.011157271452248096,1.0032668113708496,30.281776428222656,4.261876106262207,2.0295732021331787,0.9014549255371094,-0.10049497336149216,-0.17849107086658478,-0.04404044523835182,-1.477508306503296,-2.393380641937256
182,201134,201136,-0.09893842786550522,-0.1808556616306305,1.000988245010376,30.331579208374023,0.5844082236289978,1.547537922859192,0.8909554481506348,-0.09599519520998001,-0.18599069118499756,-0.022640176117420197,-1.0774749517440796,-2.391444444656372
183,201144,201146,0.04177049174904823,0.008004231378436089,0.8828787207603455,18.90415382385254,-5.074789047241211,1.4772635698318481,0.8909554481506348,-0.09299534559249878,-0.18299084901809692,-0.01407328899949789,-0.7429060339927673,-2.384474039077759
184,201154,201156,-0.037707410752773285,-0.008473747409880161,0.9458348751068115,2.8609049320220947,-10.090418815612793,1.4984437227249146,0.8999549746513367,-0.09899504482746124,-0.18299084901809692,0.1490597128868103,-0.5902473330497742,-2.3994665145874023
185,201164,201166,-0.02906809188425541,0.0015801459085196257,0.9890081882476807,-11.61851978302002,-7.292318344116211,2.5284485816955566,0.919454038143158,-0.11849407106637955,-0.18449077010154724,0.289238303899765,-0.6177202463150024,-2.392918109893799
186,201174,201176,0.09736179560422897,0.1498863697052002,1.0193614959716797,-21.641820907592773,-0.526823878288269,2.80285906791687,0.9089545607566833,-0.10799460113048553,-0.1799909919500351,0.3691593110561371,-0.7765985131263733,-2.368426561355591
187,201184,201186,-0.03940189629793167,0.03391999378800392,1.0308873653411865,-23.12366485595703,7.80770206451416,2.447042226791382,0.9209539294242859,-0.09899504482746124,-0.17699114978313446,0.33475813269615173,-1.1167280673980713,-2.327603816986084
188,201194,201196,-0.025631042197346687,0.14615046977996826,0.9788118600845337,-15.748851776123047,14.467061042785645,2.6784603595733643,0.9014549255371094,-0.09149542450904846,-0.1814909279346466,0.17338460683822632,-1.3674076795578003,-2.2862062454223633
189,201204,201206,-0.04397740587592125,0.046106960624456406,1.0308841466903687,-4.181817054748535,16.52996063232422,3.42861008644104,0.9059546589851379,-0.08399579674005508,-0.1799909919500351,0.01269925944507122,-1.4120749235153198,-2.25570011138916
190,201214,201216,-0.007298976182937622,0.04078936576843262,1.0352216958999634,9.429084777832031,11.965974807739258,2.277902603149414,0.9074546098709106,-0.0944952741265297,-0.1904904693365097,-0.2268703728914261,-1.4096415042877197,-2.214656114578247
191,201224,201226,-0.028516458347439766,-0.004906556103378534,1.0157455205917358,19.906166076660156,7.700818061828613,1.8127765655517578,0.9029548168182373,-0.08099594712257385,-0.1799909919500351,-0.11385918408632278,-1.3553717136383057,-2.233281135559082
192,201234,201236,0.013867925852537155,0.023306161165237427,1.0656404495239258,21.889272689819336,3.1899280548095703,2.268223762512207,0.8909554481506348,-0.09899504482746124,-0.17699114978313446,-0.028833609074354172,-1.100058674812317,-2.2496449947357178
193,201244,201246,-0.04514623060822487,-0.07175375521183014,0.9867413640022278,19.943063735961914,-1.132413625717163,2.4852068424224854,0.8999549746513367,-0.09299534559249878,-0.1799909919500351,-0.017099149525165558,-1.0348403453826904,-2.2413330078125
194,201254,201256,-0.1300157755613327,-0.03154551610350609,0.9696800708770752,14.357159614562988,-2.305067300796509,1.5732648372650146,0.8864556550979614,-0.10049497336149216,-0.18449077010154724,-0.02428301051259041,-0.7313389778137207,-2.2153000831604004
195,201264,201266,-0.07208143919706345,-0.003698830958455801,0.994961678981781,8.003503799438477,2.762346029281616,1.9477280378341675,0.896955132484436,-0.08999549597501755,-0.18299084901809692,-0.04223990440368652,-0.7852078676223755,-2.1926043033599854
196,201274,201276,-0.06650979816913605,-0.00465788459405303,0.9954417943954468,5.259163856506348,8.355215072631836,2.538604259490967,0.896955132484436,-0.08999549597501755,-0.1799909919500351,-0.006163759157061577,-0.6377794146537781,-2.18160080909729
197,201284,201286,-0.05112161114811897,-0.024087071418762207,0.9812957644462585,8.697098731994629,14.856895446777344,2.368896484375,0.8939552903175354,-0.08699564635753632,-0.18599069118499756,-0.19896434247493744,-0.5752100348472595,-2.138486862182617
198,201294,201296,0.08192052692174911,0.12562653422355652,0.9473186135292053,14.62773323059082,19.70581817626953,1.4637730121612549,0.8984550833702087,-0.08249587565660477,-0.17249137163162231,-0.3993338346481323,-0.38669952750205994,-2.100083827972412
199,201304,201306,0.13982027769088745,0.14940638840198517,1.0805332660675049,18.75420570373535,20.464435577392578,2.72637939453125,0.8879556059837341,-0.08399579674005508,-0.18599069118499756,-0.5186951756477356,-0.1958591789007187,-2.091158866882324
200,201314,201316,0.01613718271255493,0.15007969737052917,1.071075439453125,21.727291107177734,17.26512336730957,4.178349494934082,0.8804559707641602,-0.0944952741265297,-0.17849107086658478,-0.7003768682479858,-0.15359853208065033,-2.078721761703491
201,201324,201326,-0.07417172938585281,-0.019781069830060005,0.9861499667167664,18.518327713012695,13.216436386108398,4.368768692016602,0.8834558129310608,-0.10649467259645462,-0.19649016857147217,-0.97177654504776,0.19426050782203674,-2.018771171569824
202,201334,201336,-0.09996134787797928,-0.09530126303434372,0.8551876544952393,11.417176246643066,10.724919319152832,3.810056209564209,0.8834558129310608,-0.08849557489156723,-0.18449077010154724,-1.0583417415618896,0.12743648886680603,-2.0006213188171387
203,201344,201346,-0.0015473751118406653,0.003924722317606211,0.9617541432380676,1.8215450048446655,8.650741577148438,3.4022955894470215,0.8939552903175354,-0.08399579674005508,-0.18299084901809692,-0.9676846265792847,0.2350887507200241,-1.9811880588531494
204,201354,201356,-0.07266625761985779,-0.03509381785988808,0.9777390956878662,-4.910170078277588,6.08616828918457,3.6359312534332275,0.8909554481506348,-0.08699564635753632,-0.170991450548172,-1.1081064939498901,0.19587275385856628,-1.9496159553527832
205,201364,201366,-0.07780671864748001,-0.03345881402492523,1.0423232316970825,-7.3010430335998535,4.882837295532227,2.8653488159179688,0.8774561285972595,-0.0944952741265297,-0.17549122869968414,-1.2271053791046143,0.22297215461730957,-1.9065213203430176
206,201374,201376,-0.2011924386024475,-0.21368755400180817,1.051740288734436,-5.048541069030762,7.890028953552246,3.8048324584960938,0.8789560198783875,-0.07799609750509262,-0.18599069118499756,-1.5392825603485107,0.21848635375499725,-1.8585889339447021
207,201384,201386,-0.016468362882733345,-0.041643958538770676,0.9563711285591125,-4.086994171142578,10.106456756591797,5.897982120513916,0.8804559707641602,-0.09149542450904846,-0.17249137163162231,-1.4685498476028442,0.10069300979375839,-1.8378456830978394
208,201394,201396,-0.04651908203959465,-0.023655341938138008,0.9503572583198547,-1.3169459104537964,5.468519687652588,7.147126197814941,0.8774561285972595,-0.07349632680416107,-0.18749062716960907,-1.610642433166504,0.08803196996450424,-1.7768536806106567
209,201404,201406,-0.01507161557674408,0.03535934165120125,0.9944067001342773,1.7599560022354126,-0.007855677045881748,7.300173759460449,0.8789560198783875,-0.08999549597501755,-0.17699114978313446,-1.6727396249771118,0.1781996190547943,-1.6901562213897705
210,201414,201416,-0.017932115122675896,-0.019449742510914803,0.9460614323616028,4.677988529205322,-5.231671333312988,7.364475250244141,0.8774561285972595,-0.0944952741265297,-0.17549122869968414,-1.6515226364135742,0.24233168363571167,-1.6075339317321777
211,201424,201426,-0.01773994415998459,0.003014621092006564,1.0043575763702393,8.205469131469727,-13.401954650878906,6.710630893707275,0.8879556059837341,-0.08699564635753632,-0.18599069118499756,-1.529905080795288,0.2850542366504669,-1.5356439352035522
212,201434,201436,-0.006854393053799868,0.006050074007362127,1.0037583112716675,10.274209022521973,-21.63345718383789,6.789979457855225,0.8819558620452881,-0.08399579674005508,-0.18599069118499756,-1.4893802404403687,0.2999995946884155,-1.4824044704437256
213,201444,201446,-0.10413386672735214,-0.002886607777327299,0.91795414686203,11.767598152160645,-25.47195816040039,6.624488830566406,0.8774561285972595,-0.0944952741265297,-0.18749062716960907,-1.122856616973877,0.4238433539867401,-1.4067683219909668
214,201454,201456,-0.11594580858945847,0.002667319495230913,0.89500492811203,10.74590015411377,-21.16086769104004,7.5189433097839355,0.8894554972648621,-0.0944952741265297,-0.18749062716960907,-0.9650807976722717,0.625008225440979,-1.3284945487976074
215,201464,201466,0.02235133945941925,0.037272676825523376,0.9698479771614075,6.769772052764893,-12.34936809539795,8.140800476074219,0.8789560198783875,-0.09599519520998001,-0.1799909919500351,-0.7378981113433838,0.7215850353240967,-1.2622193098068237
216,201474,201476,-0.010096633806824684,0.09420506656169891,1.023362636566162,0.006645134184509516,-1.7767088413238525,9.089170455932617,0.8954551815986633,-0.10949452221393585,-0.1904904693365097,-0.5775226354598999,0.8114868402481079,-1.1818894147872925
217,201484,201486,-0.05470707267522812,0.0476423017680645,0.9901567101478577,-6.526895523071289,9.269266128540039,9.917386054992676,0.896955132484436,-0.11099445074796677,-0.17699114978313446,-0.5864108800888062,0.7987629175186157,-1.1033490896224976
218,201494,201496,-0.08701569586992264,-0.07631658017635345,0.8738157153129578,-11.80322265625,14.06171989440918,10.732463836669922,0.8879556059837341,-0.09299534559249878,-0.1799909919500351,-0.7435333728790283,0.6894119381904602,-1.0275368690490723
219,201504,201506,-0.06608401238918304,0.013678698800504208,0.9740410447120667,-14.555755615234375,15.363184928894043,12.71422004699707,0.8909554481506348,-0.08999549597501755,-0.18299084901809692,-0.8882744312286377,0.510258674621582,-0.9402016401290894
220,201514,201516,-0.08312437683343887,-0.01075147744268179,0.9556904435157776,-13.997671127319336,7.4828715324401855,15.010570526123047,0.9014549255371094,-0.0944952741265297,-0.18449077010154724,-1.0796401500701904,0.4467226564884186,-0.8060204386711121
221,201524,201526,-0.04270565137267113,0.03260278329253197,1.0527185201644897,-12.703461647033691,-7.96846866607666,15.382097244262695,0.8819558620452881,-0.10799460113048553,-0.19199039041996002,-1.0999994277954102,0.31247714161872864,-0.6523470282554626
222,201534,201536,-0.0035633959341794252,0.049621328711509705,0.991653323173523,-10.636955261230469,-23.749874114990234,15.337085723876953,0.8924553394317627,-0.12149392068386078,-0.1814909279346466,-1.0974119901657104,0.20320728421211243,-0.5015976428985596
223,201544,201546,-0.06378848850727081,0.01004429068416357,0.9770130515098572,-9.00139045715332,-33.45750427246094,14.556038856506348,0.9059546589851379,-0.11999399960041046,-0.19499024748802185,-0.6661028861999512,0.05615614354610443,-0.33168458938598633
224,201554,201556,-0.11191665381193161,-0.009111941792070866,0.9848395586013794,-6.811151504516602,-33.646305084228516,13.144375801086426,0.90445476770401,-0.11549422144889832,-0.19649016857147217,-0.20670780539512634,0.14764006435871124,-0.13426810503005981
225,201564,201566,-0.18497154116630554,-0.13237793743610382,1.0245215892791748,-4.304018020629883,-25.838144302368164,11.484796524047852,0.919454038143158,-0.11849407106637955,-0.18749062716960907,0.29168927669525146,0.0489531047642231,0.011139389127492905
226,201574,201576,-0.05868649482727051,0.011960430070757866,0.9894341826438904,-3.73931622505188,-9.884846687316895,9.276571273803711,0.9224538803100586,-0.11849407106637955,-0.199490025639534,-0.01544291153550148,-0.09349142760038376,0.04868094623088837
227,201584,201586,-0.005538614001125097,0.04369892552495003,0.9636156558990479,-2.542949676513672,9.413321495056152,8.190085411071777,0.8954551815986633,-0.10949452221393585,-0.19349032640457153,0.07488971948623657,-0.13666504621505737,0.1389821171760559
228,201594,201596,-0.05664917454123497,-0.015995437279343605,0.9144394993782043,0.26288652420043945,18.871458053588867,6.354283809661865,0.9029548168182373,-0.11099445074796677,-0.19199039041996002,0.13655789196491241,-0.08342577517032623,0.24558648467063904
229,201604,201606,-0.0534113384783268,-0.011175384745001793,0.9276303052902222,-1.6029772758483887,18.745450973510742,5.21308708190918,0.9059546589851379,-0.1049947515130043,-0.1799909919500351,-0.1321006715297699,-0.09176952391862869,0.3009861707687378
230,201614,201616,0.02251278981566429,0.041072964668273926,0.9523143768310547,-1.7364740371704102,9.50578498840332,3.4754531383514404,0.8909554481506348,-0.10799460113048553,-0.18599069118499756,-0.3628658652305603,-0.17732910811901093,0.3435552716255188
231,201624,201626,-0.027885977178812027,0.03485589474439621,0.989465594291687,-2.7171244621276855,-3.2352895736694336,3.4185190200805664,0.9014549255371094,-0.10949452221393585,-0.19349032640457153,-0.43435558676719666,-0.19628673791885376,0.3823886513710022
232,201634,201636,-0.015386661514639854,0.026562070474028587,0.971520185470581,-3.352943181991577,-16.527311325073242,2.410684823989868,0.90445476770401,-0.10649467259645462,-0.18449077010154724,-0.3062957525253296,-0.23114879429340363,0.42640411853790283
233,201644,201646,-0.05910882353782654,-0.004497544839978218,0.9619607329368591,-1.9899202585220337,-26.790433883666992,-0.25099852681159973,0.9104544520378113,-0.11549422144889832,-0.18749062716960907,-0.12533040344715118,-0.3339887857437134,0.44816482067108154
234,201654,201656,-0.06444835662841797,-0.0037336114328354597,0.9532244801521301,-0.3889661729335785,-32.0272102355957,-1.6743764877319336,0.9029548168182373,-0.11699414998292923,-0.1889905482530594,0.12481886893510818,-0.3434840142726898,0.4543769359588623
235,201664,201666,-0.010923014022409916,0.06644413620233536,0.9591593146324158,1.9844530820846558,-31.22182273864746,-2.86706805229187,0.919454038143158,-0.11849407106637955,-0.19349032640457153,0.5117210149765015,-0.3224673867225647,0.44968852400779724
236,201674,201676,-0.047690391540527344,0.002392673399299383,0.9610853791236877,6.615001201629639,-25.8812198638916,-3.64962100982666,0.911954402923584,-0.1229938492178917,-0.18299084901809692,0.864585816860199,-0.32069534063339233,0.42642742395401
237,201684,201686,-0.09479356557130814,0.022335393354296684,1.0978600978851318,11.725483894348145,-16.31241226196289,-3.8552563190460205,0.9209539294242859,-0.12599369883537292,-0.1799909919500351,1.2424920797348022,-0.3145010471343994,0.39747849106788635
238,201694,201696,0.03133971989154816,0.1593128889799118,0.9543576836585999,14.25416374206543,-4.663670539855957,-3.8171486854553223,0.9074546098709106,-0.12749361991882324,-0.19349032640457153,1.3891830444335938,-0.17117904126644135,0.35642462968826294
239,201704,201706,0.021755028516054153,0.10894665867090225,0.9271437525749207,14.052778244018555,4.693502426147461,-6.102220058441162,0.9134542942047119,-0.11849407106637955,-0.18449077010154724,1.4254748821258545,0.0776570737361908,0.31703782081604004
240,201714,201716,0.03603905439376831,0.06579024344682693,0.9115696549415588,11.46140193939209,13.187212944030762,-8.252519607543945,0.9089545607566833,-0.11099445074796677,-0.18599069118499756,1.3180651664733887,0.22489210963249207,0.25583767890930176
241,201724,201726,-0.030825823545455933,-0.10037924349308014,1.0231261253356934,4.329559803009033,19.191781997680664,-10.92842960357666,0.8954551815986633,-0.11549422144889832,-0.18449077010154724,1.1542719602584839,0.24598810076713562,0.18255136907100677
242,201734,201736,-0.0180476326495409,-0.01594659872353077,0.9739978313446045,-0.24892599880695343,22.52527618408203,-13.197460174560547,0.9014549255371094,-0.11849407106637955,-0.17549122869968414,0.9733996391296387,0.3939036428928375,0.0760684385895729
243,201744,201746,0.02199605293571949,-0.06278835982084274,0.906155526638031,-5.319742679595947,20.443803787231445,-15.464329719543457,0.9014549255371094,-0.11849407106637955,-0.17549122869968414,0.7001097202301025,0.0928325206041336,-0.0306251123547554
244,201754,201756,-0.015964284539222717,0.009113005362451077,0.9704721570014954,-12.028234481811523,15.490531921386719,-17.040334701538086,0.9014549255371094,-0.11849407106637955,-0.17549122869968414,0.4655938446521759,0.07478025555610657,-0.1836267113685608
245,201764,201766,-0.07447284460067749,-0.03411286696791649,0.9801868200302124,-14.95190143585205,6.003332138061523,-19.88498878479004,0.9014549255371094,-0.11849407106637955,-0.17549122869968414,0.346212774515152,0.11826951801776886,-0.3600591719150543
246,201774,201776,-0.04330700263381004,0.028102487325668335,1.0212289094924927,-14.86606502532959,-0.7986276745796204,-21.48838996887207,0.9104544520378113,-0.11849407106637955,-0.1814909279346466,0.2757375240325928,-0.10160726308822632,-0.5459969639778137
247,201784,201786,0.02877831645309925,0.05337585136294365,0.9819356799125671,-10.62247085571289,-1.40785813331604,-22.863849639892578,0.9104544520378113,-0.11849407106637955,-0.1814909279346466,0.291101336479187,-0.2245447039604187,-0.7579285502433777
248,201794,201796,0.08753636479377747,0.15818580985069275,1.0106680393218994,-2.847794532775879,1.058641791343689,-23.40930938720703,0.9104544520378113,-0.13049347698688507,-0.1814909279346466,0.3034672141075134,-0.34270697832107544,-0.9834623336791992
249,201804,201806,0.03391832113265991,0.01393622811883688,1.0914770364761353,4.911475658416748,5.273429870605469,-23.236804962158203,0.90445476770401,-0.12149392068386078,-0.1814909279346466,0.33913981914520264,-0.33701208233833313,-1.2143099308013916
250,201814,201816,0.06404364109039307,0.15322187542915344,0.9171112775802612,17.442617416381836,12.518074989318848,-23.10427474975586,0.90445476770401,-0.10649467259645462,-0.17849107086658478,0.22324664890766144,-0.18499918282032013,-1.4596872329711914
251,201824,201826,-0.05558568611741066,0.018838511779904366,1.0108249187469482,24.844520568847656,14.934735298156738,-23.277856826782227,0.911954402923584,-0.11099445074796677,-0.1889905482530594,0.08470650017261505,-0.4948192834854126,-1.6510297060012817
252,201834,201836,-0.045176126062870026,0.12719525396823883,1.074109673500061,26.797603607177734,16.38804817199707,-24.775245666503906,0.9059546589851379,-0.1319933980703354,-0.19499024748802185,-0.007620718330144882,-0.04125338792800903,-1.8995612859725952
253,201844,201846,-0.0326242558658123,0.013021261431276798,0.9996546506881714,26.670989990234375,14.231165885925293,-24.924551010131836,0.9059546589851379,-0.1319933980703354,-0.19499024748802185,-0.1789698302745819,-0.0005277586169540882,-2.124840259552002
254,201854,201856,-0.00277961534447968,-0.008569897152483463,1.0081125497817993,25.03666114807129,12.01711654663086,-24.675891876220703,0.8999549746513367,-0.1319933980703354,-0.18599069118499756,-0.3300029933452606,0.3244282305240631,-2.37613844871521
255,201864,201866,0.0029678724240511656,0.03596900403499603,0.9872746467590332,21.544097900390625,6.673356056213379,-25.11967658996582,0.9074546098709106,-0.12149392068386078,-0.19649016857147217,-0.4276994466781616,0.6825863122940063,-2.6241579055786133
256,201874,201876,-0.012499206699430943,0.019627312198281288,1.015380620956421,14.707442283630371,-1.6643973588943481,-25.842342376708984,0.896955132484436,-0.1319933980703354,-0.1889905482530594,-0.500670850276947,0.8202859163284302,-2.8660924434661865
257,201884,201886,-0.027589255943894386,-0.08939801901578903,1.0328437089920044,9.84331226348877,-9.278267860412598,-26.131189346313477,0.9029548168182373,-0.13499325513839722,-0.18299084901809692,-0.4450322091579437,1.0105817317962646,-3.119602680206299
258,201894,201896,-0.053057193756103516,-0.02613530121743679,0.8776912093162537,9.156319618225098,-12.627946853637695,-25.542787551879883,0.9104544520378113,-0.13049347698688507,-0.1904904693365097,-0.29425033926963806,0.9940589666366577,-3.3731472492218018
259,201904,201906,-0.07086925953626633,-0.05320664122700691,0.9792079329490662,8.459625244140625,-18.229738235473633,-24.876821517944336,0.9014549255371094,-0.12749361991882324,-0.1814909279346466,-0.06992550939321518,1.187985897064209,-3.6238701343536377
260,201914,201916,-0.011981828138232231,-0.026159068569540977,1.0894105434417725,8.850335121154785,-23.386377334594727,-24.894067764282227,0.90445476770401,-0.1334933191537857,-0.1814909279346466,-0.04873578995466232,1.2931218147277832,-3.892991542816162
261,201924,201926,-0.13292717933654785,-0.1385262906551361,1.1171602010726929,12.919342041015625,-24.7519474029541,-25.224782943725586,0.919454038143158,-0.13049347698688507,-0.1904904693365097,0.3222307562828064,1.4094420671463013,-4.131221771240234
262,201934,201936,-0.07767327129840851,-0.012529321014881134,1.0706243515014648,11.795347213745117,-19.03867530822754,-21.946687698364258,0.9149542450904846,-0.13499325513839722,-0.19499024748802185,0.5221906900405884,1.562965750694275,-4.3934454917907715
263,201944,201946,0.02922998182475567,0.07945511490106583,1.094517469406128,7.288557529449463,-12.121275901794434,-18.948734283447266,0.9134542942047119,-0.13049347698688507,-0.18449077010154724,0.7801820039749146,1.6178075075149536,-4.615413188934326
264,201954,201956,-0.0014890728052705526,0.03072557970881462,1.0445829629898071,4.239516258239746,-2.798231840133667,-18.36886215209961,0.9059546589851379,-0.11999399960041046,-0.17699114978313446,0.9167200922966003,1.897403359413147,-4.824716091156006
265,201964,201966,-0.0767194852232933,-0.029124239459633827,1.0010737180709839,0.3359045684337616,7.693387031555176,-15.877245903015137,0.9089545607566833,-0.11999399960041046,-0.17699114978313446,0.8707987666130066,1.8155375719070435,-5.010672569274902
266,201974,201976,-0.00509112561121583,0.06656550616025925,0.9739524126052856,-4.409211158752441,18.53094482421875,-13.839964866638184,0.9059546589851379,-0.11099445074796677,-0.18599069118499756,0.68024080991745,1.8090213537216187,-5.19421911239624
267,201984,201986,-0.03935550898313522,0.008382470346987247,1.017072319984436,-9.692375183105469,22.172882080078125,-10.747020721435547,0.911954402923584,-0.11699414998292923,-0.17399129271507263,0.3613164722919464,1.8765380382537842,-5.364096164703369
268,201994,201996,-0.02512543275952339,-0.007069075014442205,1.001782774925232,-12.592217445373535,19.829587936401367,-8.935234069824219,0.9014549255371094,-0.10349482297897339,-0.17849107086658478,0.14817120134830475,1.6490380764007568,-5.455069065093994
269,202004,202006,0.0005974164232611656,0.011207936331629753,1.0057392120361328,-18.69068717956543,10.757476806640625,-7.875004768371582,0.9074546098709106,-0.10349482297897339,-0.18749062716960907,0.08541607856750488,1.4193662405014038,-5.500886917114258
270,202014,202016,0.005440401844680309,-0.013909682631492615,1.069273591041565,-17.90015983581543,-2.169077157974243,-8.342568397521973,0.9089545607566833,-0.1049947515130043,-0.18599069118499756,-0.033935144543647766,1.4343830347061157,-5.588140487670898
271,202024,202026,-0.020475229248404503,-0.02612697333097458,0.991757333278656,-12.296018600463867,-6.65008544921875,-9.577630996704102,0.8954551815986633,-0.11249437183141708,-0.18749062716960907,-0.0037753847427666187,1.1770858764648438,-5.659563064575195
272,202034,202036,0.022273175418376923,0.10844255238771439,0.9363610744476318,-8.303365707397461,-9.49799633026123,-10.658818244934082,0.8984550833702087,-0.10949452221393585,-0.19349032640457153,0.032229259610176086,1.281806230545044,-5.769822120666504
273,202044,202046,-0.0206882506608963,0.0028078779578208923,0.9608807563781738,-7.3660383224487305,-7.1224846839904785,-11.02666187286377,0.8924553394317627,-0.10949452221393585,-0.19649016857147217,0.1503092497587204,1.1416964530944824,-5.8631391525268555
274,202054,202056,-0.05769633501768112,-0.07592377066612244,0.9721637964248657,-11.094063758850098,-0.06858239322900772,-12.756232261657715,0.8999549746513367,-0.10799460113048553,-0.18599069118499756,0.14114107191562653,0.9934529662132263,-5.988463401794434
275,202064,202066,-0.04000415652990341,-0.16703832149505615,1.0420666933059692,-12.240912437438965,14.411849975585938,-12.478837966918945,0.8984550833702087,-0.08849557489156723,-0.17549122869968414,0.06049656867980957,0.8779016137123108,-6.134546756744385
276,202074,202076,-0.08095614612102509,-0.052021805197000504,0.9810637831687927,-16.816904067993164,23.76926040649414,-10.847478866577148,0.8984550833702087,-0.10349482297897339,-0.17549122869968414,-0.21324484050273895,0.6530308723449707,-6.288849353790283
277,202084,202086,-0.011563573963940144,0.11113205552101135,0.959587812423706,-17.7363224029541,23.402746200561523,-11.885787010192871,0.9089545607566833,-0.10199490189552307,-0.1889905482530594,-0.14731720089912415,0.38089320063591003,-6.330944061279297
278,202094,202096,-0.08150523900985718,0.04125703498721123,0.9156970977783203,-15.247581481933594,24.275897979736328,-12.60865592956543,0.9029548168182373,-0.10799460113048553,-0.18299084901809692,-0.3918837308883667,0.6834662556648254,-6.461601257324219
279,202104,202106,-0.050032924860715866,-0.05111655592918396,1.115492820739746,-9.89380168914795,20.430553436279297,-12.331422805786133,0.9134542942047119,-0.0944952741265297,-0.17249137163162231,-0.7103773951530457,0.43689069151878357,-6.594564437866211
280,202114,202116,0.029325151816010475,0.07242990285158157,1.0710372924804688,-7.193500518798828,10.068188667297363,-11.138956069946289,0.8954551815986633,-0.10649467259645462,-0.1814909279346466,-0.9909939169883728,0.531059741973877,-6.732095718383789
281,202124,202126,0.0035403878428041935,0.034373942762613297,0.9882928729057312,-6.004505634307861,-0.9131719470024109,-8.74056625366211,0.896955132484436,-0.10799460113048553,-0.19499024748802185,-1.0263999700546265,0.44786688685417175,-6.826755523681641
282,202134,202136,-0.0800662487745285,-0.046063005924224854,1.064329981803894,-4.985111713409424,-8.17542839050293,-6.075042724609375,0.90445476770401,-0.09749512374401093,-0.19349032640457153,-1.0630649328231812,0.3876165449619293,-6.921732425689697
283,202144,202146,-0.08897474408149719,-0.02870563417673111,0.9941116571426392,-5.633572578430176,-18.840591430664062,-3.641493558883667,0.9029548168182373,-0.10799460113048553,-0.19499024748802185,-0.8772792816162109,0.2585257291793823,-6.970427513122559
284,202154,202156,-0.14773216843605042,-0.02401651069521904,0.9837558269500732,-7.321485996246338,-21.094409942626953,-1.6400790214538574,0.9014549255371094,-0.11249437183141708,-0.18749062716960907,-0.7287287712097168,0.12611262500286102,-7.01731538772583
285,202164,202166,-0.03721333667635918,0.11418580263853073,0.9579314589500427,-7.219776630401611,-15.320682525634766,-0.9183735251426697,0.9089545607566833,-0.10799460113048553,-0.19499024748802185,-0.4903651773929596,-0.005952640436589718,-7.039758205413818
286,202174,202176,0.029736682772636414,0.1328098177909851,1.0499049425125122,-9.582746505737305,-7.651845455169678,1.7704784870147705,0.9074546098709106,-0.09749512374401093,-0.17849107086658478,-0.4287794232368469,0.05821823328733444,-7.053914546966553
287,202184,202186,0.009023587219417095,0.010900110937654972,1.0000821352005005,-7.448701858520508,4.980327129364014,2.568347930908203,0.9134542942047119,-0.09749512374401093,-0.18449077010154724,-0.4345204830169678,-0.11694884300231934,-7.054953098297119
288,202194,202196,0.014598396606743336,0.020775729790329933,0.9860640168190002,-9.207723617553711,12.407158851623535,3.6346728801727295,0.90445476770401,-0.0944952741265297,-0.1904904693365097,-0.5347127318382263,-0.2770155370235443,-7.044703483581543
289,202204,202206,-0.030497798696160316,0.043037980794906616,0.9467664957046509,-11.472589492797852,15.471517562866211,4.134917259216309,0.90445476770401,-0.0944952741265297,-0.18749062716960907,-0.6551893949508667,-0.03184201568365097,-6.985921382904053
290,202214,202216,-0.035936370491981506,-0.008538899943232536,0.9885079860687256,-18.25636100769043,12.815093994140625,4.693769454956055,0.90445476770401,-0.09149542450904846,-0.19349032640457153,-0.8732517957687378,-0.2880931496620178,-6.96072244644165
291,202224,202226,-0.12122177332639694,-0.104017473757267,1.0518587827682495,-22.468154907226562,8.059473037719727,4.2991204261779785,0.9104544520378113,-0.09749512374401093,-0.19349032640457153,-1.0369911193847656,-0.2753778398036957,-6.901806354522705
292,202234,202236,-0.008893731981515884,-0.0187852643430233,0.99945467710495,-25.353038787841797,-0.5986694693565369,3.8194081783294678,0.9074546098709106,-0.0944952741265297,-0.18449077010154724,-1.0993481874465942,-0.7006356120109558,-6.877951622009277
293,202244,202246,0.13274607062339783,0.14403657615184784,0.9606266617774963,-26.799657821655273,-9.562634468078613,4.320647716522217,0.9254537224769592,-0.09749512374401093,-0.18749062716960907,-1.0890026092529297,-0.9377375245094299,-6.836143970489502
294,202254,202256,0.06138746812939644,0.10303793847560883,1.0171502828598022,-23.685808181762695,-19.640581130981445,3.915360689163208,0.9179540872573853,-0.11099445074796677,-0.1889905482530594,-1.0026482343673706,-1.1650978326797485,-6.787866115570068
295,202264,202266,-0.07006670534610748,-0.019289974123239517,1.050653100013733,-14.951610565185547,-24.51296615600586,4.360766410827637,0.9179540872573853,-0.09899504482746124,-0.19199039041996002,-0.7816279530525208,-1.332627773284912,-6.7308549880981445
296,202274,202276,-0.10692800581455231,-0.0834699273109436,1.01947021484375,-2.730515241622925,-23.82737922668457,4.578026294708252,0.9284535646438599,-0.10349482297897339,-0.17549122869968414,-0.7207677364349365,-1.4849522113800049,-6.6802215576171875
297,202284,202286,-0.08468790352344513,-0.006092569790780544,1.056466817855835,7.161722660064697,-18.878332138061523,5.719274997711182,0.9149542450904846,-0.1049947515130043,-0.1799909919500351,-0.3244417607784271,-1.589034080505371,-6.641833305358887
298,202294,202296,-0.04836812615394592,-0.007032115012407303,0.9838905930519104,12.548357963562012,-13.0516996383667,5.748906135559082,0.90445476770401,-0.09749512374401093,-0.19649016857147217,-0.29851850867271423,-1.4802660942077637,-6.562700271606445
299,202304,202306,0.07651988416910172,0.12309055775403976,0.9488179087638855,15.048110008239746,-6.1921281814575195,6.980950832366943,0.9104544520378113,-0.10649467259645462,-0.1814909279346466,-0.1462266892194748,-1.1560416221618652,-6.480669975280762
300,202314,202316,0.06423350423574448,0.20533880591392517,1.0087372064590454,13.712858200073242,-3.6988070011138916,8.124770164489746,0.911954402923584,-0.10199490189552307,-0.19199039041996002,-0.07716108858585358,-1.0346100330352783,-6.411828517913818
301,202324,202326,-0.03037569299340248,-0.015542196109890938,1.1312751770019531,9.225796699523926,-2.818711996078491,8.209173202514648,0.9179540872573853,-0.09899504482746124,-0.19499024748802185,0.09539982676506042,-1.157456636428833,-6.373398303985596
302,202334,202336,0.003781005972996354,0.006758838891983032,1.0282974243164062,2.0895402431488037,-0.7509375214576721,8.8504056930542,0.9179540872573853,-0.10799460113048553,-0.18299084901809692,0.09510783851146698,-1.0671800374984741,-6.287802696228027
303,202344,202346,-0.03550843521952629,-0.01811596006155014,0.9759961366653442,-6.794283390045166,-0.97310471534729,9.776418685913086,0.9164541363716125,-0.10349482297897339,-0.17249137163162231,-0.14207077026367188,-1.0940403938293457,-6.172329425811768
304,202354,202356,-0.14485366642475128,0.0009588460088707507,1.0277432203292847,-11.585216522216797,-2.112555503845215,10.769807815551758,0.9074546098709106,-0.085495725274086,-0.1814909279346466,-0.14124388992786407,-1.0931854248046875,-6.070619583129883
305,202364,202366,-0.05395829677581787,-0.03302915766835213,1.0587538480758667,-11.087620735168457,-3.1146469116210938,11.680654525756836,0.919454038143158,-0.09749512374401093,-0.18749062716960907,-0.04812413081526756,-1.3598098754882812,-5.987983226776123
306,202374,202376,-0.017318280413746834,0.024114256724715233,1.0727694034576416,-7.942615985870361,-8.936159133911133,12.080825805664062,0.9254537224769592,-0.10949452221393585,-0.19349032640457153,-0.13407433032989502,-1.3920743465423584,-5.850152969360352
307,202384,202386,-0.011453884653747082,0.014051073230803013,1.0196563005447388,0.39249494671821594,-15.500129699707031,12.562638282775879,0.919454038143158,-0.10949452221393585,-0.199490025639534,0.034820783883333206,-1.4826933145523071,-5.74199104309082
308,202394,202396,-0.07864712178707123,-0.01898639090359211,1.044782280921936,10.239173889160156,-20.531187057495117,12.10753059387207,0.911954402923584,-0.113994300365448,-0.18599069118499756,0.144460067152977,-1.2889695167541504,-5.5993218421936035
309,202404,202406,-0.016543909907341003,-0.0460161529481411,0.9919548630714417,18.044761657714844,-22.840545654296875,12.300063133239746,0.9239537715911865,-0.11699414998292923,-0.18299084901809692,0.3948216140270233,-1.176614761352539,-5.486185073852539
310,202414,202416,0.025384655222296715,0.028997961431741714,1.0236884355545044,19.813745498657227,-21.56294822692871,13.651711463928223,0.9299534559249878,-0.113994300365448,-0.1889905482530594,0.4502876102924347,-1.1861319541931152,-5.331778526306152
311,202424,202426,-0.030502766370773315,-0.028148196637630463,1.004040241241455,20.332658767700195,-15.833314895629883,13.95327377319336,0.9239537715911865,-0.10799460113048553,-0.1889905482530594,0.7486396431922913,-1.1433184146881104,-5.216083526611328
312,202434,202436,-0.06290650367736816,-0.016094811260700226,1.052391529083252,14.48210620880127,-8.108396530151367,16.201143264770508,0.9179540872573853,-0.113994300365448,-0.18299084901809692,0.7297290563583374,-0.7799146175384521,-5.038165092468262
313,202444,202446,-0.024005496874451637,0.01798168383538723,1.0688984394073486,15.767420768737793,-4.754380226135254,15.384401321411133,0.9269536137580872,-0.1049947515130043,-0.19199039041996002,0.9151535034179688,-0.5332610011100769,-4.9032816886901855
314,202454,202456,-0.041766099631786346,-0.028138937428593636,1.0169293880462646,15.143856048583984,-2.575098752975464,15.982808113098145,0.919454038143158,-0.11549422144889832,-0.1904904693365097,1.0345516204833984,-0.3688235878944397,-4.7635178565979
315,202464,202466,-0.08599955588579178,-0.16950933635234833,1.1087725162506104,10.38701343536377,-2.175227403640747,18.127269744873047,0.9299534559249878,-0.11699414998292923,-0.1889905482530594,0.903052568435669,-0.16481073200702667,-4.578125476837158
316,202474,202476,-0.24494923651218414,-0.23695169389247894,1.2141753435134888,0.8957719206809998,-1.810605525970459,18.489269256591797,0.9164541363716125,-0.12449377030134201,-0.18449077010154724,0.9226549863815308,-0.13182181119918823,-4.39997673034668
317,202484,202486,-0.07264500111341476,-0.06185470521450043,1.0453351736068726,-4.619307994842529,-1.9798563718795776,19.246564865112305,0.9254537224769592,-0.12749361991882324,-0.18749062716960907,1.0921432971954346,-0.15261046588420868,-4.239279270172119
318,202494,202496,-0.034286919981241226,-0.04078293591737747,1.0301098823547363,-5.831132411956787,-8.636650085449219,20.837614059448242,0.9329533576965332,-0.11999399960041046,-0.1889905482530594,1.148949384689331,-0.23887018859386444,-4.049314498901367
319,202504,202506,-0.049900855869054794,-0.030978979542851448,1.0015382766723633,-3.2483792304992676,-14.65112018585205,20.744979858398438,0.919454038143158,-0.10949452221393585,-0.1904904693365097,1.3619149923324585,-0.3183918595314026,-3.8633179664611816
320,202514,202516,0.03596591204404831,0.03827008605003357,1.0025054216384888,3.076653480529785,-16.215620040893555,21.93474769592285,0.9374530911445618,-0.11849407106637955,-0.19649016857147217,1.35110342502594,-0.3383390009403229,-3.636418104171753
321,202524,202526,-0.02907237783074379,-0.018531961366534233,0.9817941188812256,10.531387329101562,-11.928467750549316,23.49380874633789,0.9284535646438599,-0.13049347698688507,-0.18749062716960907,1.413508653640747,-0.3302507996559143,-3.405488967895508
322,202534,202536,-0.04876802861690521,-0.010612663812935352,1.0203710794448853,15.44587516784668,-4.828854084014893,24.232839584350586,0.9164541363716125,-0.11249437183141708,-0.1904904693365097,1.6145801544189453,-0.2164199948310852,-3.1865806579589844
323,202544,202546,0.025968708097934723,0.02895950712263584,1.003551959991455,19.092580795288086,3.0368051528930664,25.556861877441406,0.9224538803100586,-0.12149392068386078,-0.18449077010154724,1.6979281902313232,-0.029012177139520645,-2.9557607173919678
324,202554,202556,-0.07318533957004547,-0.03766293078660965,0.9789322018623352,18.555156707763672,8.05185604095459,27.052534103393555,0.9149542450904846,-0.1319933980703354,-0.19799008965492249,1.5993051528930664,0.11568305641412735,-2.686716318130493
325,202564,202566,-0.07409969717264175,0.02355784922838211,1.0577609539031982,12.48574161529541,11.963953018188477,27.943578720092773,0.9269536137580872,-0.12899354100227356,-0.17699114978313446,1.4953267574310303,0.30077409744262695,-2.416836977005005
326,202574,202576,-0.04034343361854553,-0.013761292211711407,0.9853937029838562,3.3470325469970703,12.811700820922852,28.778404235839844,0.9269536137580872,-0.12899354100227356,-0.17699114978313446,1.4169774055480957,0.37505677342414856,-2.1293492317199707
327,202584,202586,-0.024205101653933525,0.014243419282138348,1.0119667053222656,-7.228649139404297,8.11327838897705,28.320785522460938,0.9269536137580872,-0.12899354100227356,-0.17699114978313446,1.2781505584716797,0.3691004812717438,-1.834267020225525
328,202594,202596,-0.04335814341902733,0.00919849518686533,1.0223031044006348,-18.200708389282227,1.7544158697128296,26.965051651000977,0.9209539294242859,-0.1229938492178917,-0.18599069118499756,1.2195566892623901,0.2664044201374054,-1.543696641921997
329,202604,202606,-0.03166902810335159,-0.001088166143745184,1.0088486671447754,-23.982234954833984,-3.2297332286834717,25.296964645385742,0.9209539294242859,-0.11699414998292923,-0.17699114978313446,1.2460765838623047,0.09186119586229324,-1.276639461517334
330,202614,202616,-0.015907082706689835,0.0070321462117135525,1.0060784816741943,-22.49590492248535,-9.037849426269531,24.455097198486328,0.9374530911445618,-0.13049347698688507,-0.19349032640457153,1.0757720470428467,-0.148356094956398,-1.012571930885315
331,202624,202626,-0.04637531563639641,0.02867926098406315,1.0648521184921265,-15.55775260925293,-13.329316139221191,23.83677864074707,0.9314534068107605,-0.13649317622184753,-0.1904904693365097,1.279518485069275,-0.47443580627441406,-0.7511281967163086
332,202634,202636,-0.05359305441379547,0.006658176425844431,1.0388158559799194,-7.066993713378906,-13.714601516723633,22.56676483154297,0.9359531998634338,-0.13799309730529785,-0.1799909919500351,1.511950135231018,-0.4644736349582672,-0.5586304664611816
333,202644,202646,-0.08087114244699478,-0.022066526114940643,1.0277714729309082,5.3682098388671875,-11.57420825958252,21.73885154724121,0.9314534068107605,-0.14249287545681,-0.1904904693365097,1.6631085872650146,-0.5176435112953186,-0.3413377106189728
334,202654,202656,-0.03316128998994827,0.009847533889114857,1.033467173576355,13.79501724243164,-5.73742151260376,21.685043334960938,0.9314534068107605,-0.1334933191537857,-0.199490025639534,1.8262003660202026,-0.4075615108013153,-0.14622454345226288
335,202664,202666,-0.0385652594268322,0.02322852425277233,1.0318801403045654,18.502042770385742,-4.645021915435791,20.555992126464844,0.919454038143158,-0.1334933191537857,-0.19349032640457153,1.9306108951568604,-0.3211829364299774,0.07568929344415665
336,202674,202676,0.02068636752665043,0.03563890978693962,1.03280770778656,17.497438430786133,-5.228081226348877,20.36210060119629,0.9374530911445618,-0.14249287545681,-0.19349032640457153,2.009164810180664,-0.047954533249139786,0.2522448003292084
337,202684,202686,-0.04442921280860901,-0.023709340021014214,0.9962201714515686,9.620565414428711,-4.242020130157471,20.780410766601562,0.9344532489776611,-0.13949301838874817,-0.18449077010154724,2.0195727348327637,-0.18711528182029724,0.5421599745750427
338,202694,202696,-0.05055268853902817,-0.003603666089475155,1.0338518619537354,0.12338214367628098,3.410923719406128,19.07771873474121,0.9284535646438599,-0.14849257469177246,-0.19649016857147217,2.0418925285339355,-0.07450281083583832,0.7463319897651672
339,202704,202706,-0.03838695213198662,0.04639154672622681,1.0535857677459717,-13.461682319641113,14.195343971252441,15.171737670898438,0.9239537715911865,-0.1319933980703354,-0.19199039041996002,1.930737018585205,-0.0037246011197566986,0.92342209815979
340,202714,202716,-0.018323004245758057,0.024868125095963478,1.0161824226379395,-23.313980102539062,20.439292907714844,12.059725761413574,0.9284535646438599,-0.13649317622184753,-0.1904904693365097,1.6817795038223267,-0.12519821524620056,1.0839688777923584
341,202724,202726,-0.051400575786828995,-0.0070347171276807785,1.0085194110870361,-30.19515609741211,23.284587860107422,10.370316505432129,0.9404529333114624,-0.13649317622184753,-0.2084895670413971,1.4214102029800415,-0.3983895182609558,1.2227126359939575
342,202734,202736,-0.038011886179447174,-0.00041039532516151667,1.0052344799041748,-30.387081146240234,19.035032272338867,8.84296989440918,0.9314534068107605,-0.12149392068386078,-0.18449077010154724,1.0866492986679077,-0.5292872786521912,1.2786505222320557
343,202744,202746,-0.060010045766830444,0.03416190296411514,1.050405740737915,-27.698732376098633,8.994699478149414,7.948502063751221,0.9209539294242859,-0.11699414998292923,-0.18299084901809692,0.998135507106781,-1.0145634412765503,1.4129793643951416
344,202754,202756,-0.014288127422332764,0.016277533024549484,1.0013768672943115,-20.7099552154541,-6.029379367828369,6.445376396179199,0.9404529333114624,-0.1334933191537857,-0.17849107086658478,1.3612422943115234,-1.1260846853256226,1.4194262027740479
345,202764,202766,-0.057205989956855774,0.0371803417801857,1.0484950542449951,-10.470968246459961,-19.629194259643555,6.719367504119873,0.9299534559249878,-0.1319933980703354,-0.18299084901809692,1.0086188316345215,-1.3495444059371948,1.5100270509719849
346,202774,202776,-0.02937704138457775,0.028236672282218933,1.0111395120620728,1.2673975229263306,-23.500879287719727,7.378442764282227,0.9374530911445618,-0.14249287545681,-0.18749062716960907,1.3400185108184814,-1.5324087142944336,1.5840675830841064
347,202784,202786,0.00626656087115407,-0.0634063333272934,1.0240023136138916,12.214755058288574,-17.090829849243164,8.582006454467773,0.9329533576965332,-0.1319933980703354,-0.18599069118499756,1.667512059211731,-1.5994646549224854,1.6701772212982178
348,202794,202796,-0.040892094373703,0.006314640399068594,1.031945824623108,22.223447799682617,-3.6486544609069824,8.549663543701172,0.9209539294242859,-0.12899354100227356,-0.170991450548172,1.850246548652649,-1.3523937463760376,1.713713526725769
349,202804,202806,-0.04954865947365761,-0.0380285270512104,0.9938313961029053,27.004047393798828,15.535253524780273,7.741650581359863,0.9149542450904846,-0.1319933980703354,-0.1799909919500351,1.9326785802841187,-1.187390923500061,1.8081153631210327
350,202814,202816,-0.10522141307592392,-0.024234268814325333,0.9860975742340088,24.926416397094727,32.23956298828125,7.032716751098633,0.9254537224769592,-0.1334933191537857,-0.17549122869968414,1.5867475271224976,-0.7697576880455017,1.8644466400146484
351,202824,202826,0.026610907167196274,0.0991157665848732,0.8850125670433044,17.474964141845703,42.68458557128906,4.376341342926025,0.9299534559249878,-0.11099445074796677,-0.1799909919500351,1.4470207691192627,-0.7592903971672058,1.980928659439087
352,202834,202836,0.13873016834259033,0.1484559327363968,0.9253485202789307,7.778495788574219,41.203426361083984,1.5077602863311768,0.9074546098709106,-0.11549422144889832,-0.17549122869968414,0.7580257654190063,-0.7878409624099731,2.1233925819396973
353,202844,202846,0.1155538335442543,0.024169551208615303,0.8997564911842346,-2.8322272300720215,30.918514251708984,-0.6405283808708191,0.9329533576965332,-0.12899354100227356,-0.18299084901809692,0.14414262771606445,-0.6728013157844543,2.162292957305908
354,202854,202856,-0.00860234722495079,-0.014462343417108059,0.949152410030365,-11.34870719909668,14.984663009643555,-2.529207944869995,0.9239537715911865,-0.14099295437335968,-0.18599069118499756,0.14892323315143585,-0.2332146316766739,2.009012460708618
355,202864,202866,0.0017753347055986524,0.017028022557497025,0.9822892546653748,-13.52303695678711,-2.9644129276275635,-4.279295444488525,0.9344532489776611,-0.13949301838874817,-0.18449077010154724,-0.08638909459114075,-0.4194459617137909,2.0101521015167236
356,202874,202876,0.11172833293676376,0.16042505204677582,0.957394540309906,-9.445554733276367,-14.11064338684082,-5.5426459312438965,0.9344532489776611,-0.13949301838874817,-0.1904904693365097,-0.00933776330202818,-0.6085077524185181,1.9677562713623047
357,202884,202886,0.0797550156712532,0.051580023020505905,0.9344673752784729,-4.634956359863281,-21.014175415039062,-6.775794982910156,0.9389530420303345,-0.14999249577522278,-0.18599069118499756,0.08788704127073288,-0.7304241061210632,1.9237852096557617
358,202894,202896,0.07199737429618835,0.0540890209376812,0.941240131855011,-1.519736647605896,-21.418834686279297,-7.270610332489014,0.9209539294242859,-0.14399279654026031,-0.1889905482530594,0.2631243169307709,-0.8596887588500977,1.8681460618972778
359,202904,202906,-0.008349252864718437,0.06479010730981827,1.0767302513122559,-1.6596359014511108,-14.374868392944336,-7.286768913269043,0.9419528841972351,-0.14999249577522278,-0.20398980379104614,0.773825466632843,-0.7998483777046204,1.7592638731002808
360,202914,202916,0.011665995232760906,0.026159893721342087,1.036036729812622,0.3348383605480194,-6.555846214294434,-9.11377239227295,0.9374530911445618,-0.13049347698688507,-0.1904904693365097,0.7439357042312622,-0.8751801252365112,1.7195357084274292
361,202924,202926,-0.006092572119086981,0.028645342215895653,1.01619291305542,2.437061309814453,6.298706531524658,-9.956010818481445,0.9224538803100586,-0.1334933191537857,-0.1814909279346466,0.7654494643211365,-1.3268247842788696,1.6904271841049194
362,202934,202936,-0.09610576182603836,0.0539153553545475,0.9727805256843567,5.687172889709473,20.04275131225586,-10.777557373046875,0.9299534559249878,-0.13499325513839722,-0.19499024748802185,0.5841538906097412,-1.2201651334762573,1.6003457307815552
363,202944,202946,-0.006599960383027792,0.09564316272735596,0.9019575715065002,10.762121200561523,33.574005126953125,-10.0528564453125,0.9314534068107605,-0.11849407106637955,-0.1904904693365097,1.1772633790969849,-1.1142314672470093,1.3900834321975708
364,202954,202956,0.032461829483509064,-0.037239547818899155,0.9829091429710388,19.79549217224121,39.62300109863281,-9.331392288208008,0.9179540872573853,-0.13499325513839722,-0.1889905482530594,0.5407058596611023,-1.048753023147583,1.3274906873703003
365,202964,202966,-0.08168108761310577,0.009121552109718323,1.0555883646011353,23.082534790039062,44.22837448120117,-8.227669715881348,0.9164541363716125,-0.13949301838874817,-0.18749062716960907,0.12397782504558563,-0.8189253211021423,1.226199746131897
366,202974,202976,-0.04926125705242157,0.09075161814689636,1.1544355154037476,20.52730369567871,41.895652770996094,-8.554296493530273,0.8999549746513367,-0.12599369883537292,-0.19199039041996002,-0.1183573380112648,-0.6932219862937927,1.1197099685668945
367,202984,202986,0.015518122352659702,0.10354653000831604,1.020809292793274,13.434060096740723,30.134225845336914,-7.985838890075684,0.9134542942047119,-0.1334933191537857,-0.19649016857147217,-0.6452955007553101,-0.6247864961624146,1.0504308938980103
368,202994,202996,-0.015371196903288364,-0.03659077733755112,1.0240639448165894,3.788020372390747,14.045071601867676,-7.424607753753662,0.9179540872573853,-0.11999399960041046,-0.19499024748802185,-0.8991309404373169,-0.3099440634250641,0.9533659815788269
369,203004,203006,-0.0569959357380867,-0.07970603555440903,0.9696292877197266,-1.9068212509155273,-1.9305076599121094,-7.189438819885254,0.90445476770401,-0.13049347698688507,-0.20248986780643463,-1.1192771196365356,-0.3494533896446228,0.8814886212348938
370,203014,203016,-0.06238856539130211,-0.08623909205198288,1.0015403032302856,-6.809733867645264,-14.46807861328125,-9.163309097290039,0.9179540872573853,-0.12599369883537292,-0.19499024748802185,-1.0841386318206787,-0.3334050178527832,0.8045378923416138
371,203024,203026,-0.0021086595952510834,0.04501169174909592,1.0373635292053223,-4.178738117218018,-20.909286499023438,-10.648695945739746,0.9134542942047119,-0.13949301838874817,-0.1814909279346466,-0.8749573826789856,-0.3567418158054352,0.7138626575469971
372,203034,203036,-0.03329509124159813,0.01946704275906086,1.0477981567382812,0.16862010955810547,-21.020475387573242,-11.850329399108887,0.919454038143158,-0.13049347698688507,-0.199490025639534,-0.8124800324440002,-0.41502174735069275,0.6255863904953003
373,203044,203046,-0.08265062421560287,-0.09233758598566055,1.0654197931289673,2.2771048545837402,-12.844306945800781,-12.236296653747559,0.9209539294242859,-0.14699265360832214,-0.18299084901809692,-0.5693436861038208,-0.3506684899330139,0.5163211822509766
374,203054,203056,-0.058407239615917206,0.0667831152677536,0.9615400433540344,1.7889927625656128,-2.5553181171417236,-12.884503364562988,0.9224538803100586,-0.11549422144889832,-0.1814909279346466,-0.4522303640842438,-0.2695166766643524,0.40482771396636963
375,203064,203066,-0.03501037135720253,0.13900335133075714,1.0959779024124146,-0.5507148504257202,5.341328144073486,-12.637603759765625,0.9089545607566833,-0.11699414998292923,-0.1889905482530594,-0.550004780292511,-0.20032063126564026,0.29923027753829956
376,203074,203076,0.01972326636314392,0.06253325194120407,1.0325325727462769,-3.70818829536438,9.671197891235352,-11.914515495300293,0.9089545607566833,-0.1229938492178917,-0.20398980379104614,-0.6093491911888123,-0.18738660216331482,0.17701540887355804
377,203084,203086,-0.04029883071780205,0.013502509333193302,1.028473138809204,-5.994981288909912,9.075963973999023,-11.901192665100098,0.9059546589851379,-0.1049947515130043,-0.19199039041996002,-0.5830227136611938,-0.6288679242134094,-0.006832374259829521
378,203094,203096,-0.03647249937057495,0.008247366175055504,1.0138931274414062,-5.6080708503723145,6.357599258422852,-11.667621612548828,0.9104544520378113,-0.10049497336149216,-0.1904904693365097,-0.7488452792167664,-0.6438010931015015,-0.1146797388792038
379,203104,203106,0.03333631902933121,0.16758181154727936,1.020855188369751,3.002145767211914,2.57369065284729,-14.4437255859375,0.8894554972648621,-0.11549422144889832,-0.17249137163162231,-0.8589667081832886,-0.6106625199317932,-0.21372702717781067
380,203114,203116,-0.023774879053235054,-0.03512481227517128,1.1163452863693237,16.58371353149414,3.3335654735565186,-14.94930362701416,0.8894554972648621,-0.10649467259645462,-0.1814909279346466,-0.9462124109268188,-0.5632171034812927,-0.3427733778953552
381,203124,203126,-0.026899829506874084,-0.01865243725478649,1.016133189201355,28.624746322631836,8.646912574768066,-14.426603317260742,0.8984550833702087,-0.0944952741265297,-0.1814909279346466,-0.9813241958618164,-0.31773290038108826,-0.47027787566185
382,203134,203136,-0.054093338549137115,0.03308602422475815,1.0427889823913574,33.7303352355957,12.768814086914062,-14.536994934082031,0.8984550833702087,-0.10949452221393585,-0.17549122869968414,-1.1464295387268066,-0.002833068370819092,-0.5975327491760254
383,203144,203146,-2.9716691187786637e-06,0.1401553601026535,1.0096598863601685,33.06671142578125,14.667447090148926,-13.729645729064941,0.8864556550979614,-0.10949452221393585,-0.17849107086658478,-1.1618648767471313,0.09591159969568253,-0.7970302700996399
384,203154,203156,-0.031160425394773483,0.047382157295942307,1.023463249206543,26.0426082611084,14.818236351013184,-13.743757247924805,0.8909554481506348,-0.11999399960041046,-0.1799909919500351,-1.2817902565002441,0.4569318890571594,-0.9262677431106567
385,203164,203166,0.052490539848804474,0.21034228801727295,0.9908170104026794,18.310319900512695,15.186431884765625,-13.62381362915039,0.8774561285972595,-0.09749512374401093,-0.18749062716960907,-1.5396614074707031,0.5603777170181274,-1.099133014678955
386,203174,203176,-0.020139725878834724,0.06775814294815063,1.0125255584716797,13.290048599243164,10.234590530395508,-12.696626663208008,0.8909554481506348,-0.113994300365448,-0.1799909919500351,-1.7581110000610352,0.9153573513031006,-1.1869155168533325
387,203184,203186,-0.02804897539317608,0.01839970424771309,0.9822605848312378,6.897769451141357,0.7249547243118286,-13.264209747314453,0.8894554972648621,-0.11549422144889832,-0.18749062716960907,-1.8749960660934448,1.0930944681167603,-1.302656650543213
388,203194,203196,-0.02903585694730282,0.033251043409109116,1.0039647817611694,0.5618572235107422,-6.785684108734131,-12.62783145904541,0.8864556550979614,-0.11249437183141708,-0.1814909279346466,-1.791081428527832,1.0939182043075562,-1.4538543224334717
389,203204,203206,-0.026586255058646202,-0.003587276441976428,0.9463450312614441,-5.935563087463379,-11.761052131652832,-11.856821060180664,0.8774561285972595,-0.10949452221393585,-0.19649016857147217,-1.6673593521118164,1.1360539197921753,-1.5716111660003662
390,203214,203216,-0.060116250067949295,-0.04592166095972061,1.053151249885559,-8.410384178161621,-16.387310028076172,-12.885242462158203,0.8954551815986633,-0.11249437183141708,-0.17249137163162231,-1.6009258031845093,0.9553323984146118,-1.7393977642059326
391,203224,203226,-0.04966701939702034,0.0011421890230849385,1.0041141510009766,-6.11603307723999,-19.429927825927734,-13.486250877380371,0.8999549746513367,-0.11999399960041046,-0.19499024748802185,-1.3150585889816284,0.8280143141746521,-1.8696702718734741
392,203234,203236,0.009546744637191296,0.0342012383043766,0.977364718914032,-0.0944419577717781,-17.9322566986084,-13.139901161193848,0.8999549746513367,-0.113994300365448,-0.1889905482530594,-1.1614362001419067,0.8252107501029968,-1.9851537942886353
393,203244,203246,-0.09467697888612747,-0.001001440454274416,0.9464631080627441,8.4035005569458,-9.365489959716797,-12.72874927520752,0.911954402923584,-0.113994300365448,-0.1799909919500351,-0.9961096048355103,0.719485342502594,-2.1495988368988037
394,203254,203256,-0.07803607732057571,-0.06469160318374634,0.9527028203010559,16.921846389770508,2.462101936340332,-12.611678123474121,0.8924553394317627,-0.10349482297897339,-0.18449077010154724,-0.8924314975738525,0.9005175828933716,-2.2473087310791016
395,203264,203266,-0.14091631770133972,-0.022609064355492592,1.02825129032135,25.00106430053711,13.326807022094727,-11.619296073913574,0.9059546589851379,-0.113994300365448,-0.18599069118499756,-0.9682592749595642,0.9185329675674438,-2.426903247833252
396,203274,203276,-0.09876832365989685,-0.10200295597314835,0.9497864842414856,27.5507869720459,20.601058959960938,-12.576156616210938,0.8894554972648621,-0.11549422144889832,-0.17849107086658478,-1.1231178045272827,1.3297054767608643,-2.4945595264434814
397,203284,203286,-0.06392765790224075,-0.09344997256994247,0.9776197075843811,27.710790634155273,21.30733871459961,-13.880143165588379,0.90445476770401,-0.11549422144889832,-0.18449077010154724,-1.171669363975525,1.3426573276519775,-2.673917770385742
398,203294,203296,-0.01708165369927883,-0.003142775734886527,0.9435569047927856,26.585079193115234,16.994115829467773,-13.871941566467285,0.8984550833702087,-0.11849407106637955,-0.19349032640457153,-1.5019969940185547,1.7978057861328125,-2.764598846435547
399,203304,203306,0.06660366803407669,0.10735683888196945,0.9731000065803528,23.32207489013672,9.970471382141113,-12.859268188476562,0.8924553394317627,-0.11249437183141708,-0.18449077010154724,-1.7673598527908325,1.9980157613754272,-2.929473638534546
400,203314,203316,0.023672502487897873,0.0010367289651185274,0.8703650832176208,17.938434600830078,-3.3015408515930176,-10.612401962280273,0.8894554972648621,-0.11849407106637955,-0.17849107086658478,-1.773063063621521,2.121670961380005,-3.0714328289031982
401,203324,203326,-0.0167478546500206,0.03647179156541824,0.9763849377632141,11.990324020385742,-15.563460350036621,-8.270977020263672,0.8984550833702087,-0.12749361991882324,-0.19349032640457153,-1.64028799533844,2.450815439224243,-3.1080641746520996
402,203334,203336,-0.04691080376505852,0.024183455854654312,0.992875337600708,5.219327926635742,-23.442455291748047,-5.994096279144287,0.9014549255371094,-0.14549271762371063,-0.18749062716960907,-1.447846531867981,2.2497947216033936,-3.296644926071167
403,203344,203346,-0.047526296228170395,0.007364131510257721,0.9640445113182068,-4.128726005554199,-30.04863929748535,-3.6799700260162354,0.9074546098709106,-0.14549271762371063,-0.19649016857147217,-1.1825815439224243,2.220167875289917,-3.387559413909912
404,203354,203356,-0.010357944294810295,0.03272213041782379,1.0057076215744019,-11.869202613830566,-30.234756469726562,-1.5261715650558472,0.9209539294242859,-0.14999249577522278,-0.19499024748802185,-0.9149981141090393,2.273043394088745,-3.419667959213257
405,203364,203366,-0.04235685244202614,0.03977829962968826,1.0324774980545044,-14.627551078796387,-24.385881423950195,-0.6492798328399658,0.9284535646438599,-0.13649317622184753,-0.1904904693365097,-0.7413182258605957,2.156060218811035,-3.498453378677368
406,203374,203376,-0.033319830894470215,0.0252542607486248,1.0056557655334473,-9.710013389587402,-17.534404754638672,0.8762481212615967,0.9179540872573853,-0.13799309730529785,-0.19499024748802185,-0.36837273836135864,2.021703004837036,-3.4729456901550293
407,203384,203386,-0.0420362651348114,0.028004322201013565,1.030436396598816,1.98886239528656,-10.009984016418457,2.431978225708008,0.9074546098709106,-0.14249287545681,-0.1904904693365097,-0.2617058753967285,1.9252769947052002,-3.4944939613342285
408,203394,203396,0.013027030974626541,0.05407922342419624,1.0195400714874268,12.312098503112793,-1.9061836004257202,4.2097859382629395,0.9104544520378113,-0.14249287545681,-0.1904904693365097,-0.40536707639694214,2.131197214126587,-3.503659725189209
409,203404,203406,0.008250512182712555,0.1460888385772705,1.1692748069763184,21.43633460998535,6.988653659820557,5.922310829162598,0.9104544520378113,-0.14249287545681,-0.1904904693365097,-0.3815457224845886,2.205045223236084,-3.479426622390747
410,203414,203416,-0.011261685751378536,0.03512560576200485,1.0346908569335938,24.474021911621094,14.097442626953125,7.500796318054199,0.9104544520378113,-0.14249287545681,-0.1904904693365097,-0.4802347421646118,2.455521821975708,-3.4274115562438965
411,203424,203426,-0.1072317585349083,-0.07955868542194366,1.0871331691741943,26.264606475830078,11.737127304077148,7.850288391113281,0.8954551815986633,-0.1334933191537857,-0.17849107086658478,-0.6316404342651367,2.8346548080444336,-3.3337104320526123
412,203434,203436,-0.13394823670387268,-0.06099141761660576,0.9935732483863831,17.31415367126465,8.897751808166504,9.577266693115234,0.9104544520378113,-0.13649317622184753,-0.1814909279346466,-0.6865599155426025,2.949850082397461,-3.266556978225708
413,203444,203446,-0.05614735186100006,-0.015798019245266914,0.9571712613105774,5.814120769500732,5.724151134490967,10.684086799621582,0.9029548168182373,-0.1229938492178917,-0.19199039041996002,-0.78462153673172,2.8870689868927,-3.2356338500976562
414,203454,203456,0.05539966747164726,0.056875795125961304,1.0721815824508667,-7.725028991699219,2.2085657119750977,13.435227394104004,0.9014549255371094,-0.13949301838874817,-0.17849107086658478,-0.8392928242683411,2.9784982204437256,-3.117481231689453
415,203464,203466,0.038334742188453674,0.05073940381407738,0.9924109578132629,-16.98399543762207,-1.5801995992660522,16.449398040771484,0.9059546589851379,-0.12599369883537292,-0.1799909919500351,-0.8082032203674316,2.855422258377075,-2.980905294418335
416,203474,203476,-0.07628831267356873,-0.003516254248097539,1.011439323425293,-17.33437728881836,-6.344154357910156,17.733854293823242,0.9134542942047119,-0.12749361991882324,-0.18449077010154724,-0.7655457854270935,2.7169008255004883,-2.8232250213623047
417,203484,203486,-0.0003440032887738198,0.1218632161617279,0.9618312120437622,-10.640495300292969,-11.932260513305664,19.33482551574707,0.8954551815986633,-0.13049347698688507,-0.1904904693365097,-0.605301558971405,2.6627073287963867,-2.5790164470672607
418,203494,203496,0.10796129703521729,0.1309749186038971,0.9829427599906921,-1.7430607080459595,-18.10453987121582,20.66022491455078,0.8999549746513367,-0.1319933980703354,-0.17399129271507263,-0.4592810571193695,2.635735511779785,-2.3383233547210693
419,203504,203506,0.0022445041686296463,0.09021997451782227,0.966296374797821,6.421077251434326,-21.872684478759766,22.29888343811035,0.9089545607566833,-0.1529923528432846,-0.19499024748802185,-0.3254353106021881,2.655156135559082,-2.158759117126465
420,203514,203516,-0.11694056540727615,-0.024027777835726738,1.0955486297607422,11.250469207763672,-19.36684799194336,24.612869262695312,0.9104544520378113,-0.14849257469177246,-0.1904904693365097,0.07082221657037735,2.645084857940674,-1.8932000398635864
421,203524,203526,-0.17530904710292816,-0.11445877701044083,0.9255508184432983,12.024596214294434,-16.451772689819336,24.212139129638672,0.8999549746513367,-0.13799309730529785,-0.1889905482530594,0.14178623259067535,2.631547212600708,-1.7569129467010498
422,203534,203536,-0.09060044586658478,-0.0811469778418541,0.8720181584358215,7.947268486022949,-13.398003578186035,24.985706329345703,0.9104544520378113,-0.14849257469177246,-0.17849107086658478,0.6289898157119751,2.7604570388793945,-1.373374104499817
423,203544,203546,-0.04954245686531067,-0.0031433894764631987,0.977300763130188,-4.411479473114014,-7.438253879547119,23.678909301757812,0.9029548168182373,-0.14999249577522278,-0.170991450548172,0.8221949338912964,2.8438475131988525,-1.1156755685806274
424,203554,203556,-0.05316796526312828,0.015411064960062504,1.003043532371521,-16.548622131347656,2.9896256923675537,21.970508575439453,0.9179540872573853,-0.13499325513839722,-0.19799008965492249,0.3415127396583557,2.865567922592163,-1.1497507095336914
425,203564,203566,0.04172341898083687,0.034638576209545135,0.9996721744537354,-27.549991607666016,12.274548530578613,20.38705062866211,0.90445476770401,-0.13649317622184753,-0.1904904693365097,0.3104128837585449,2.626431941986084,-0.9484817385673523
426,203574,203576,0.0818658098578453,0.13367411494255066,0.9814985394477844,-32.60686492919922,12.933552742004395,20.048992156982422,0.9179540872573853,-0.13799309730529785,-0.19199039041996002,0.17388315498828888,2.455155849456787,-0.7528770565986633
427,203584,203586,-0.058704763650894165,0.12792102992534637,1.0237846374511719,-34.11875915527344,7.98477840423584,19.59572410583496,0.9074546098709106,-0.13049347698688507,-0.17549122869968414,0.11454465240240097,2.0048887729644775,-0.5177898406982422
428,203594,203596,-0.024410920217633247,0.08406183123588562,1.0384708642959595,-29.299678802490234,-0.36607685685157776,18.97630500793457,0.919454038143158,-0.1334933191537857,-0.17849107086658478,0.06851288676261902,1.7008271217346191,-0.29962044954299927
429,203604,203606,-0.05939942225813866,0.15317825973033905,1.0480921268463135,-17.81173324584961,-9.425933837890625,17.921985626220703,0.919454038143158,-0.12449377030134201,-0.1904904693365097,0.16192249953746796,1.492170810699463,-0.06474346667528152
430,203614,203616,0.0069311754778027534,0.1762182116508484,1.107248306274414,-1.3467304706573486,-17.307233810424805,16.67292594909668,0.9134542942047119,-0.13649317622184753,-0.19349032640457153,0.39445218443870544,1.3334113359451294,0.17284592986106873
431,203624,203626,0.020994849503040314,0.07787224650382996,1.0805788040161133,15.077618598937988,-19.47165870666504,15.1632719039917,0.911954402923584,-0.1319933980703354,-0.19199039041996002,0.5727580189704895,1.497084379196167,0.3343231976032257
432,203634,203636,-0.010618243366479874,0.03386325016617775,0.984453558921814,23.773160934448242,-16.152027130126953,13.038434028625488,0.9089545607566833,-0.14099295437335968,-0.17399129271507263,0.67988520860672,1.6618176698684692,0.44791311025619507
433,203644,203646,0.008000774309039116,0.10301218181848526,0.9322840571403503,22.98061180114746,-9.770057678222656,11.582324981689453,0.911954402923584,-0.13499325513839722,-0.17699114978313446,0.9263352751731873,1.7201225757598877,0.620614230632782
434,203654,203656,0.003032994456589222,0.04966171085834503,0.9612517356872559,14.627533912658691,-7.988464832305908,9.151222229003906,0.9104544520378113,-0.1334933191537857,-0.17549122869968414,1.094926118850708,2.025899648666382,0.7528342604637146
435,203664,203666,0.10478655993938446,0.22115959227085114,0.9323363304138184,0.7553651928901672,-3.0067179203033447,7.536010265350342,0.9149542450904846,-0.12599369883537292,-0.1799909919500351,1.210934042930603,2.090953826904297,0.864705502986908
436,203674,203676,-0.02583618089556694,0.0010628481395542622,0.902075469493866,-16.114179611206055,2.3680078983306885,5.741769313812256,0.9134542942047119,-0.12149392068386078,-0.17849107086658478,1.2420026063919067,1.9997498989105225,0.9510629177093506
437,203684,203686,0.07746391743421555,0.06824114918708801,0.9124127626419067,-32.28916549682617,9.221197128295898,5.7391180992126465,0.9089545607566833,-0.12599369883537292,-0.17699114978313446,1.1160860061645508,1.7915171384811401,0.9805206656455994
438,203694,203696,0.025720441713929176,0.05522570759057999,1.0282206535339355,-43.09928512573242,12.897473335266113,4.485909938812256,0.9029548168182373,-0.12899354100227356,-0.17699114978313446,0.9726465344429016,1.6347861289978027,1.0014638900756836
439,203704,203706,-0.034163348376750946,0.005614684894680977,0.9421162605285645,-43.762351989746094,13.966909408569336,3.961894989013672,0.9089545607566833,-0.1319933980703354,-0.170991450548172,0.7894113063812256,1.2670886516571045,1.022080898284912
440,203714,203716,0.06357220560312271,0.12096701562404633,0.9086621403694153,-34.232704162597656,13.077705383300781,3.498155355453491,0.9164541363716125,-0.11849407106637955,-0.18749062716960907,0.7963094711303711,0.6542566418647766,1.1359859704971313
441,203724,203726,-0.07051585614681244,0.016922729089856148,0.9673251509666443,-19.156736373901367,10.221071243286133,2.159959077835083,0.9104544520378113,-0.11249437183141708,-0.17549122869968414,0.5885313153266907,0.5694610476493835,1.1131422519683838
442,203734,203736,0.003294658847153187,0.04986809194087982,0.9966344833374023,0.323155015707016,6.798235893249512,1.5401567220687866,0.9014549255371094,-0.11249437183141708,-0.17849107086658478,0.4499833583831787,0.3050568699836731,1.1404777765274048
443,203744,203746,0.0007857223972678185,0.0325339175760746,1.029608130455017,19.336578369140625,-2.847774028778076,2.9442098140716553,0.9074546098709106,-0.11549422144889832,-0.1814909279346466,0.4065633714199066,0.34949472546577454,1.153365135192871
444,203754,203756,-0.04824983328580856,0.037714697420597076,1.0043336153030396,29.909616470336914,-13.854850769042969,5.713770866394043,0.8999549746513367,-0.14099295437335968,-0.17399129271507263,0.502964437007904,0.6435290575027466,1.1750831604003906
445,203764,203766,0.047159720212221146,0.08118615299463272,0.9873471856117249,32.47085189819336,-21.19873809814453,8.846641540527344,0.9029548168182373,-0.1529923528432846,-0.18599069118499756,0.7483571767807007,1.0017790794372559,1.2367161512374878
446,203774,203776,0.19614949822425842,0.1431870311498642,0.8506487607955933,29.569581985473633,-22.27838897705078,11.546969413757324,0.9239537715911865,-0.13799309730529785,-0.170991450548172,0.9166998863220215,1.1695947647094727,1.3411948680877686
447,203784,203786,-0.1372402012348175,-0.0033731143921613693,0.9870374202728271,18.223529815673828,-18.769329071044922,12.509307861328125,0.9149542450904846,-0.14099295437335968,-0.18599069118499756,1.1669365167617798,1.5347199440002441,1.443548321723938
448,203794,203796,-0.47048625349998474,0.14949984848499298,1.0510655641555786,8.46981430053711,-8.502111434936523,13.978827476501465,0.919454038143158,-0.14249287545681,-0.18449077010154724,1.2841075658798218,1.5872013568878174,1.5741654634475708
449,203804,203806,-0.14059358835220337,-0.008500106632709503,0.9448063373565674,-3.535029411315918,6.141079902648926,14.442225456237793,0.9344532489776611,-0.13949301838874817,-0.18749062716960907,1.3726706504821777,1.605718970298767,1.7176867723464966
450,203814,203816,-0.03707694262266159,-0.007113929837942123,0.9319712519645691,-19.270610809326172,21.06212615966797,14.167099952697754,0.9059546589851379,-0.14099295437335968,-0.18299084901809692,1.3648229837417603,1.561866044998169,1.869009256362915
451,203824,203826,-0.29364463686943054,-0.1132747232913971,1.0614845752716064,-28.63472557067871,30.802358627319336,14.834722518920898,0.9254537224769592,-0.1334933191537857,-0.17849107086658478,1.0953168869018555,1.383205533027649,2.003600835800171
452,203834,203836,-0.25835320353507996,-0.055895887315273285,0.9825568795204163,-35.18547821044922,36.963253021240234,17.041179656982422,0.9209539294242859,-0.1319933980703354,-0.18599069118499756,0.7525826096534729,0.9804948568344116,2.167665958404541
453,203844,203846,-0.2458696961402893,-0.11187462508678436,1.0599985122680664,-34.129669189453125,35.493324279785156,19.90532112121582,0.9104544520378113,-0.13049347698688507,-0.17849107086658478,0.4675097167491913,0.7376313805580139,2.321268081665039
454,203854,203856,0.002930709160864353,0.03571217879652977,1.0459535121917725,-29.73032569885254,26.83175277709961,22.082828521728516,0.9149542450904846,-0.113994300365448,-0.18599069118499756,0.03574976325035095,0.29628583788871765,2.523787498474121
455,203864,203866,-0.20524856448173523,-0.09613797068595886,1.0357046127319336,-24.128643035888672,12.025047302246094,23.32309913635254,0.911954402923584,-0.11699414998292923,-0.1799909919500351,-0.25272470712661743,0.2184574156999588,2.696767807006836
456,203874,203876,-0.15981797873973846,-0.10888222604990005,1.094558835029602,-9.512120246887207,-3.829111099243164,23.18856430053711,0.9014549255371094,-0.11849407106637955,-0.17549122869968414,-0.3581044375896454,-0.011159214191138744,2.927152156829834
457,203884,203886,-0.14275909960269928,-0.1371033936738968,1.0091878175735474,5.573004245758057,-14.253339767456055,24.36627960205078,0.9134542942047119,-0.13049347698688507,-0.17249137163162231,-0.2371082752943039,-0.09885571151971817,3.1533801555633545
458,203894,203896,0.0008331946446560323,-0.03313080221414566,0.9728330969810486,19.31439208984375,-18.31587028503418,23.851058959960938,0.9059546589851379,-0.1319933980703354,-0.1799909919500351,-0.05365664139389992,-0.014892936684191227,3.385669708251953
459,203904,203906,-0.06414652615785599,-0.005658579990267754,1.0042051076889038,21.986690521240234,-15.163689613342285,24.370058059692383,0.919454038143158,-0.12149392068386078,-0.1814909279346466,0.005969130899757147,0.15350748598575592,3.6226160526275635
460,203914,203916,-0.02159922756254673,0.052948661148548126,1.027377963066101,16.135334014892578,-7.8870768547058105,23.527299880981445,0.9179540872573853,-0.12899354100227356,-0.1799909919500351,0.36409828066825867,0.4130988121032715,3.8551676273345947
461,203924,203926,-0.05916190147399902,0.17004381120204926,1.0793930292129517,2.9975881576538086,3.6643080711364746,22.327499389648438,0.8999549746513367,-0.12599369883537292,-0.17399129271507263,0.36767899990081787,0.5365861058235168,4.100059509277344
462,203934,203936,0.0762733668088913,0.22239580750465393,0.956105649471283,-11.937519073486328,12.752765655517578,20.433223724365234,0.9089545607566833,-0.11999399960041046,-0.170991450548172,0.35689976811408997,0.7286955118179321,4.306046485900879
463,203944,203946,0.1132718175649643,0.25344449281692505,0.958456814289093,-32.96089553833008,21.063232421875,19.564109802246094,0.8999549746513367,-0.11999399960041046,-0.18599069118499756,0.25830402970314026,0.3622688949108124,4.549607276916504
464,203954,203956,-0.048210304230451584,-0.09297851473093033,0.8725489377975464,-52.2878303527832,26.51819610595703,17.632360458374023,0.9164541363716125,-0.11549422144889832,-0.17849107086658478,-0.10230457782745361,-0.16772815585136414,4.7825188636779785
465,203964,203966,-0.00394884217530489,-0.040711574256420135,0.9590635299682617,-61.27046203613281,27.624116897583008,16.217205047607422,0.911954402923584,-0.11099445074796677,-0.1889905482530594,-0.392094224691391,-0.44005757570266724,4.9404683113098145
466,203974,203976,0.019083157181739807,0.04553486406803131,0.980617880821228,-57.4748649597168,23.852561950683594,15.439864158630371,0.9074546098709106,-0.10949452221393585,-0.17549122869968414,-0.6715517640113831,-1.1688766479492188,5.112910270690918
467,203984,203986,0.015263830311596394,0.0427260622382164,0.9685272574424744,-44.3485221862793,14.566108703613281,13.31779670715332,0.9074546098709106,-0.09749512374401093,-0.1814909279346466,-0.7269123196601868,-1.5795565843582153,5.231314182281494
468,203994,203996,0.044971246272325516,-0.06528837978839874,0.9821339249610901,-22.43568992614746,5.113968849182129,11.832427024841309,0.919454038143158,-0.10649467259645462,-0.18449077010154724,-0.9303476214408875,-2.1071574687957764,5.3684563636779785
