,gyro.x,gyro.y,gyro.z,stabilizer.pitch,stabilizer.roll,stabilizer.yaw,label
0,0.055645931512117386,-0.08364498615264893,0.03022908605635166,-0.0005351847503334284,0.8430747985839844,0.02794342301785946,2
1,-0.007014727219939232,-0.03749806433916092,-0.057934440672397614,-0.01239405944943428,0.9555281400680542,0.028597939759492874,2
2,0.13274599611759186,0.004714575596153736,-0.04585491865873337,-0.021818295121192932,0.851227879524231,0.02813810296356678,2
3,-0.03753749653697014,0.020822595804929733,-0.0491892509162426,-0.029580503702163696,0.8357205390930176,0.02738146297633648,2
4,0.00045450832112692297,-0.001659497618675232,-0.033118464052677155,-0.0342695377767086,0.8221126794815063,0.027330465614795685,2
5,0.03698469325900078,-0.05655931308865547,0.0828571543097496,-0.03784338757395744,0.6858311295509338,0.02777099423110485,2
6,-0.06407664716243744,-0.024898549541831017,-0.0011531950440257788,-0.04030157998204231,0.7724198698997498,0.0274867694824934,2
7,-0.041242241859436035,0.0349285788834095,0.10220704227685928,-0.1684536337852478,0.5853098034858704,0.03063805215060711,2
8,0.02927607297897339,-0.026890939101576805,0.0386791005730629,-0.013175242580473423,0.6971811056137085,0.026572316884994507,2
9,0.022644033655524254,-0.0030472087673842907,-0.028504053130745888,-0.020273631438612938,0.8459191918373108,0.027580222114920616,2
10,0.011865171603858471,-0.01187815610319376,-0.044144317507743835,-0.026562318205833435,0.8945105075836182,0.027553992345929146,2
11,-0.013820263557136059,-0.023571906611323357,0.014240357093513012,-0.22113022208213806,0.6146553158760071,0.03167879581451416,2
12,-0.09546319395303726,-0.0595727264881134,0.08106911182403564,-0.0521208830177784,0.8449822664260864,0.029541773721575737,2
13,0.015075256116688251,-0.10267949104309082,0.01695128157734871,0.014076320454478264,0.8292707204818726,0.028612667694687843,2
14,-0.058365724980831146,0.0250583253800869,-0.03753224015235901,-0.00016035289445426315,0.8169792294502258,0.028703371062874794,2
15,-0.15458647906780243,-0.009146110154688358,-0.050112996250391006,-0.011328628286719322,0.8070322275161743,0.028453582897782326,2
16,0.025438597425818443,-0.008734370581805706,0.039718952029943466,-0.01948898658156395,0.7995955348014832,0.02807469479739666,2
17,0.02675015479326248,-0.10737420618534088,-0.04230770468711853,-0.025428788736462593,0.7951527833938599,0.028436560183763504,2
18,0.0524158775806427,-0.05306210368871689,0.040969349443912506,-0.15530019998550415,0.6022310853004456,0.03182445839047432,2
19,0.025429848581552505,-0.02225494757294655,-0.11813155561685562,-0.0647982731461525,0.7726117968559265,0.029687605798244476,2
20,0.02148798294365406,0.04240558296442032,-0.002545319264754653,-0.12257424741983414,0.6494700908660889,0.030528321862220764,2
21,-0.00019786418124567717,0.018224380910396576,-0.012542237527668476,0.022982580587267876,0.8089433312416077,0.02604541927576065,2
22,0.008166849613189697,0.03764106333255768,-0.00026020940276794136,0.0065802522003650665,0.8033855557441711,0.02643078938126564,2
23,-0.04662039875984192,-0.06137273460626602,-0.018144575878977776,-0.005804131273180246,0.7984184622764587,0.026515867561101913,2
24,-0.050936050713062286,-0.0051659527234733105,0.02992590144276619,-0.14145712554454803,0.6686577200889587,0.030764847993850708,2
25,0.006835294887423515,0.059305790811777115,0.05007120594382286,-0.18124574422836304,0.6344783902168274,0.032263197004795074,2
26,-0.023266950622200966,-0.04702306166291237,0.001761299790814519,-0.02141353115439415,0.924604058265686,0.029965626075863838,2
27,-0.004060979466885328,-0.022874386981129646,-0.045004185289144516,-0.02617606893181801,0.8919643759727478,0.029413077980279922,2
28,-0.1241692379117012,-0.11218956857919693,-0.019481118768453598,0.03336578607559204,0.8662063479423523,0.028277015313506126,2
29,0.061405230313539505,0.1030023843050003,0.08311209082603455,-0.11200322210788727,0.657906711101532,0.030189627781510353,2
30,-0.024174390360713005,-0.07599513232707977,-0.097684346139431,-0.03301546350121498,0.8792020082473755,0.029330534860491753,2
31,0.06149233505129814,-0.06251618266105652,-0.031048288568854332,0.02856515347957611,0.9198348522186279,0.02778846211731434,2
32,-0.06741505861282349,-0.021435847505927086,0.035009756684303284,0.011467182077467442,0.7599285840988159,0.029322344809770584,2
33,-0.06582383811473846,-0.019280990585684776,0.05874021723866463,-0.0022433686535805464,0.8275869488716125,0.028437554836273193,2
34,0.10192431509494781,-0.0053465524688363075,0.11188851296901703,-0.012991786003112793,0.8157511949539185,0.02922656387090683,2
35,-0.0014911488397046924,0.01493092905730009,-0.07073356956243515,-0.02200903743505478,0.8086827993392944,0.030451223254203796,2
36,0.05546052008867264,-0.033613648265600204,0.026360731571912766,-0.028689637780189514,0.8021692037582397,0.030298300087451935,2
37,-0.026315251365303993,0.06677529960870743,-0.00391748221591115,-0.028436698019504547,0.8017520904541016,0.030225366353988647,2
38,-0.061929043382406235,-0.023830778896808624,0.06494142860174179,-0.028909483924508095,0.800703763961792,0.03044225461781025,2
39,-0.06358601897954941,0.026682788506150246,-0.02287225052714348,-0.028455941006541252,0.7992141842842102,0.030731504783034325,2
40,-0.1413654237985611,0.14823614060878754,-0.04884827136993408,-0.0323464497923851,0.8591216206550598,0.029858384281396866,2
41,-0.00978945940732956,-0.0021819795947521925,-0.06194673106074333,-0.03503505513072014,0.7789406180381775,0.02996036596596241,2
42,-0.08486295491456985,0.005089682061225176,0.053960297256708145,-0.03518860787153244,0.7778424024581909,0.029485251754522324,2
43,-0.008379235863685608,0.04217145964503288,0.06423316895961761,-0.03541245311498642,0.7761262059211731,0.02969118021428585,2
44,0.048301536589860916,0.09716840088367462,-0.028065985068678856,-0.037656888365745544,0.7151942253112793,0.030519234016537666,2
45,0.01722019352018833,0.023028137162327766,0.009861670434474945,-0.039432987570762634,0.733571469783783,0.030302463099360466,2
46,-0.034985095262527466,0.021729031577706337,-0.04422684386372566,-0.04012628272175789,0.747522234916687,0.029715683311223984,2
47,0.059750061482191086,-0.08761774748563766,-0.012678963132202625,-0.04045197367668152,0.75794917345047,0.02940133400261402,2
48,0.03579939901828766,-0.029048152267932892,0.008858876302838326,-0.22925227880477905,0.6405938863754272,0.035407789051532745,2
49,-0.01547528151422739,-0.024606352671980858,-0.0031586834229528904,-0.056788232177495956,0.7409701347351074,0.029669608920812607,2
50,0.0061599272303283215,0.019574832171201706,-0.057415541261434555,-0.05238651484251022,0.8807626366615295,0.03125515580177307,2
51,-0.0092204874381423,0.02145032025873661,0.06046842411160469,0.013154733926057816,0.8604236841201782,0.028624150902032852,2
52,-0.02134505845606327,0.09091778844594955,0.03610015660524368,-0.001085899886675179,0.8445915579795837,0.02885414846241474,2
53,-0.01624412275850773,-0.00992258545011282,-0.005959951318800449,-0.012408213689923286,0.769047737121582,0.02965024672448635,2
54,0.032554298639297485,0.07876413315534592,0.0364367701113224,-0.08469131588935852,0.5855635404586792,0.031771328300237656,2
55,0.02122562751173973,0.0012337993830442429,-0.052028100937604904,-0.07631899416446686,0.7633125185966492,0.03109857626259327,2
56,0.05571131780743599,0.07564771175384521,0.03035733662545681,-0.006590099539607763,0.8987045884132385,0.028369389474391937,2
57,-0.004475985188037157,0.004053337499499321,0.02025340124964714,-0.017611337825655937,0.9379976987838745,0.028789572417736053,2
58,0.013358904048800468,0.08819185942411423,-0.0028553190641105175,-0.026624770835042,0.8411228656768799,0.02963072992861271,2
59,0.055713165551424026,0.03751933202147484,0.00040611514123156667,-0.03345350921154022,0.8940580487251282,0.029445990920066833,2
60,-0.09128010272979736,0.027410276234149933,0.02765015698969364,-0.03780801221728325,0.8700433373451233,0.02935386635363102,2
61,0.05631071329116821,0.020687846466898918,-0.15196046233177185,-0.04095621779561043,0.7888190150260925,0.02982039377093315,2
62,0.02555110491812229,0.17787855863571167,0.0737767145037651,-0.04419003799557686,0.8544753193855286,0.028282711282372475,2
63,0.007763802073895931,0.055890776216983795,-0.014487853273749352,-0.047382790595293045,0.8408616185188293,0.028660345822572708,2
64,0.05868978798389435,0.03399045020341873,-0.10239895433187485,-0.049148090183734894,0.8305444717407227,0.02856503613293171,2
65,-0.023292990401387215,-0.003357155481353402,0.07384704053401947,-0.05041392520070076,0.8230727910995483,0.027854109182953835,2
66,-0.0064722513779997826,0.0038858705665916204,0.11753500252962112,-0.05153922364115715,0.7536827325820923,0.028762346133589745,2
67,0.10989341139793396,0.0002609163639135659,0.1070832833647728,-0.05247458815574646,0.7018702626228333,0.029545921832323074,2
68,-0.07897484302520752,-0.013248751871287823,-0.053431011736392975,-0.053942885249853134,0.7258567810058594,0.030295105651021004,2
69,0.07843205332756042,-0.0014715377474203706,-0.06480706483125687,-0.05443601310253143,0.7437112331390381,0.029794957488775253,2
70,-0.011772522702813148,-0.019817020744085312,-0.07215436547994614,-0.05562594532966614,0.8213655352592468,0.029323173686861992,2
71,0.018108632415533066,-0.045743025839328766,-0.030541080981492996,-0.0553407147526741,0.820452868938446,0.02911009080708027,2
72,-0.008294638246297836,0.04912867397069931,0.0952937975525856,-0.05486251041293144,0.8198575973510742,0.028953226283192635,2
73,-0.11347591131925583,-0.03726870194077492,0.02334207482635975,-0.05506356805562973,0.8191696405410767,0.029854275286197662,2
74,0.060926780104637146,-0.016772709786891937,0.030711129307746887,-0.05436760187149048,0.8173246383666992,0.030026456341147423,2
75,0.015424080193042755,-0.029199931770563126,-0.0018998922314494848,-0.05444204807281494,0.8169258832931519,0.03034183569252491,2
76,-0.12899388372898102,0.06191631406545639,0.030772380530834198,-0.18149881064891815,0.6241592764854431,0.031029891222715378,2
77,0.07960908114910126,0.024662937968969345,0.058726321905851364,-0.02542993798851967,0.7953062653541565,0.029894426465034485,2
78,-0.02928313799202442,0.04904675483703613,0.013211751356720924,-0.03304040804505348,0.7997531294822693,0.0307100098580122,2
79,-0.05066473409533501,-0.04984041675925255,0.0458274781703949,-0.03883609175682068,0.9276858568191528,0.031861815601587296,2
80,0.00129676703363657,0.03918081149458885,0.04778211563825607,-0.04297276586294174,0.898227334022522,0.03215058892965317,2
81,-0.04976663365960121,0.0048795463517308235,-0.07102111726999283,-0.04656156152486801,0.8750237822532654,0.032016877084970474,2
82,-0.05618457868695259,-0.017662420868873596,-0.03375772386789322,-0.04891907796263695,0.8571460247039795,0.031560275703668594,2
83,0.0936848446726799,0.04775319620966911,-0.04214901849627495,-0.051311735063791275,0.7802087664604187,0.030886387452483177,2
84,-0.03422831743955612,0.11152282357215881,0.081510029733181,-0.051748137921094894,0.7799504995346069,0.030680254101753235,2
85,0.031730230897665024,0.004425290040671825,-0.0077739255502820015,-0.18054471909999847,0.5939614176750183,0.03140664100646973,2
86,-0.024950681254267693,0.02314765751361847,0.038111429661512375,-0.025018298998475075,0.8334904313087463,0.02991396188735962,2
87,0.04190229997038841,-0.039071906358003616,-0.03666830062866211,-0.03279058262705803,0.825856626033783,0.030472256243228912,2
88,0.0006039133295416832,0.05818682163953781,-0.032137997448444366,-0.03850756585597992,0.882117748260498,0.030499674379825592,2
89,-0.021165527403354645,-0.09526903182268143,0.0016928251134231687,-0.04318753629922867,0.8615258932113647,0.030049297958612442,2
90,-0.034143660217523575,0.03266029432415962,0.016165167093276978,-0.04659751430153847,0.8461115956306458,0.030024779960513115,2
91,-0.08204323053359985,-0.04818465933203697,-0.00035564537392929196,-0.17534443736076355,0.5180951356887817,0.03009197488427162,2
92,0.014592735096812248,0.021956387907266617,0.004695848096162081,-0.1459079533815384,0.5872789025306702,0.030087655410170555,2
93,0.04438966512680054,0.013711435720324516,0.03795164078474045,0.0016787877539172769,0.8304619193077087,0.027226975187659264,2
94,-0.044300101697444916,0.09414440393447876,-0.032793719321489334,-0.012657112441956997,0.8254410028457642,0.02795805037021637,2
95,-0.012755056843161583,-0.02441970631480217,-0.01188209094107151,-0.024075761437416077,0.8836881518363953,0.027873393148183823,2
96,0.048098694533109665,-0.025117065757513046,-0.02089964598417282,-0.1585170030593872,0.6757832169532776,0.03033502958714962,2
97,0.05025632306933403,-0.04985850304365158,0.0019691400229930878,-0.07005105912685394,0.8983306288719177,0.029885081574320793,2
98,0.12987402081489563,0.059645503759384155,0.09333746880292892,-0.1296587586402893,0.687472403049469,0.02862982079386711,2
99,0.05588515102863312,-0.017767418175935745,-0.014029514975845814,-0.048963263630867004,0.8448824286460876,0.029257094487547874,2
100,-0.04122091829776764,-0.06644103676080704,-0.09335380792617798,0.013348108157515526,0.8996941447257996,0.028412917628884315,2
101,0.03453197330236435,0.027156271040439606,0.0009312827023677528,-0.13010580837726593,0.6879647970199585,0.02852914109826088,2
102,-0.05451015755534172,-0.04915471374988556,-0.05905688926577568,-0.11101669818162918,0.9063671231269836,0.030055008828639984,2
103,0.03954104706645012,-0.017978796735405922,-0.05587097629904747,-0.03344474732875824,0.8824585676193237,0.028541307896375656,2
104,0.07809790223836899,0.05737145617604256,0.024911943823099136,0.005640052724629641,0.8022335767745972,0.027324551716446877,2
105,0.019610054790973663,0.051141418516635895,-0.09742844104766846,-0.010760894045233727,0.8677384257316589,0.02689695544540882,2
106,0.008277847431600094,-0.05457471311092377,0.026120223104953766,-0.021791651844978333,0.8533265590667725,0.02673196792602539,2
107,-0.0795794203877449,0.0296053197234869,0.01929321698844433,-0.030142666772007942,0.9041873216629028,0.026080617681145668,2
108,0.024492206051945686,-0.013925467617809772,-0.009724065661430359,-0.03744303807616234,0.815519392490387,0.027466347441077232,2
109,-0.1335250437259674,0.07842124998569489,-0.03268864005804062,0.0,0.0,0.0,2
110,0.048130348324775696,-0.00024081909214146435,-0.053877994418144226,-0.0014074400532990694,-0.09799245744943619,-0.00025360911968164146,2
111,-0.03115716390311718,-0.03858673945069313,0.08827542513608932,0.00017526013834867626,0.10006148368120193,-0.00020266165665816516,2
112,-0.07150784134864807,-0.0913599506020546,-0.00873354822397232,-0.0006832082872278988,0.2865540385246277,9.081869211513549e-05,2
113,0.02828701213002205,-0.013890564441680908,0.025110960006713867,-0.4850728511810303,2.381479263305664,0.00952673889696598,2
114,0.041412875056266785,0.04350248724222183,0.11435481905937195,0.2296065390110016,0.1358761340379715,0.0026690377853810787,2
115,-0.044549766927957535,-0.06974339485168457,-0.050674766302108765,0.1748366355895996,-0.8487924933433533,0.003575226990506053,2
116,0.02310327999293804,0.06846429407596588,-0.03134846314787865,0.12331437319517136,-0.347235769033432,0.0021488030906766653,2
117,0.0737302377820015,-0.06124361604452133,0.029706714674830437,0.0917067900300026,0.5338695049285889,0.00034728203900158405,2
118,0.02232995256781578,0.029201790690422058,0.01963830180466175,0.06617743521928787,0.6128613948822021,0.0007497741025872529,2
119,0.03538627550005913,-0.005709972232580185,0.10940777510404587,0.0461554154753685,0.6661806702613831,0.0013347298372536898,2
120,-0.06233515590429306,-0.10094334185123444,0.06565020978450775,0.03572734072804451,0.7043619155883789,0.001953308004885912,2
121,0.09199390560388565,0.025594716891646385,0.046608857810497284,0.026889441534876823,0.3561737835407257,0.0035669340286403894,2
122,0.13307955861091614,0.03901856392621994,-0.08441527187824249,0.016884038224816322,0.8503057360649109,0.0027893136721104383,2
123,-0.07585874199867249,0.009488101117312908,0.04822239652276039,0.006935503333806992,0.8367777466773987,0.0023597762919962406,2
124,0.02389676496386528,-0.07698315382003784,0.03312596306204796,0.0007331130909733474,0.8265674114227295,0.002898645820096135,2
125,0.013188367709517479,0.0065586501732468605,-0.08383681625127792,-0.004198057577013969,0.8191660046577454,0.0032645929604768753,2
126,-0.001048058271408081,0.04623406380414963,0.039659105241298676,-0.011483951471745968,0.8115645051002502,0.002900965278968215,2
127,0.06110171973705292,0.07908882945775986,-0.007565472740679979,-0.01493331603705883,0.5665926933288574,0.0028949445113539696,2
128,0.008441883139312267,0.031687214970588684,0.00023723910271655768,-0.020235193893313408,0.8621832728385925,0.0032829518895596266,2
129,0.06283953785896301,0.1182669922709465,-0.057199060916900635,-0.025650732219219208,0.8473109602928162,0.0020656054839491844,2
130,0.03418014198541641,-0.021544354036450386,-0.13815702497959137,-0.029145538806915283,0.8361085653305054,0.0014335658634081483,2
131,0.025505444034934044,-0.05052303895354271,0.07458897680044174,-0.6081979870796204,0.25049981474876404,-0.008684893138706684,2
132,0.06600670516490936,-0.05006406083703041,0.012324856594204903,0.09716492146253586,0.7705507874488831,0.002099628560245037,2
133,0.1286626011133194,0.017893750220537186,-0.004085770342499018,-0.46512556076049805,0.4350908696651459,-0.004687979817390442,2
134,-0.02180609479546547,-0.04172764718532562,0.029627690091729164,0.1509537398815155,1.0380220413208008,0.003923761658370495,2
135,-0.07041066884994507,-0.0026514180935919285,0.07130176573991776,0.10059034079313278,0.817588210105896,0.0033648372627794743,2
136,0.03316463530063629,0.04671191796660423,-0.033050671219825745,-0.24582503736019135,0.5086846351623535,-0.0010327083291485906,2
137,0.03183358162641525,0.05339252948760986,-0.0410630889236927,0.10253435373306274,0.7403815984725952,0.0021087699569761753,2
138,0.13197407126426697,-0.054618243128061295,-0.08223479241132736,0.06392866373062134,0.906201183795929,0.002182433381676674,2
139,-0.14803782105445862,0.04348215088248253,0.013747131451964378,0.03374119848012924,0.8835404515266418,0.0008258694433607161,2
140,-0.01893177255988121,0.10170793533325195,-0.062375422567129135,0.008119607344269753,0.8660627007484436,0.0006767802988179028,2
141,-0.02308276668190956,0.0011049284366890788,-0.010155950672924519,-0.00862845778465271,1.113824725151062,-0.0001887598045868799,2
142,0.028949541971087456,0.09092259407043457,-0.04544282332062721,-0.022525161504745483,0.912441074848175,-0.0006733793998137116,2
143,0.09694182127714157,0.035348717123270035,0.056909363716840744,-0.0318874791264534,0.8901665210723877,-0.0007110186852514744,2
144,0.03887619823217392,-0.0189431831240654,0.042162295430898666,-0.04098573327064514,0.7530642151832581,-0.0003019456926267594,2
145,0.02690812759101391,0.06426998227834702,-0.02307228371500969,-0.0468115508556366,0.8855105638504028,-0.0005801314255222678,2
146,-0.11889038980007172,0.021161196753382683,-0.08824920654296875,-0.05188646540045738,0.8651226758956909,-0.0006567616364918649,2
147,-0.0012648688862100244,-0.010753978043794632,-0.045976411551237106,-0.055289819836616516,0.8507460355758667,-0.0015794729115441442,2
148,-0.046131741255521774,-0.12440811842679977,-0.06305624544620514,-0.2718904912471771,0.5161027312278748,-0.006587265525013208,2
149,0.037098243832588196,-0.02253321371972561,0.006901055108755827,-0.11207752674818039,0.9072651863098145,-0.0020701903849840164,2
150,-0.052495043724775314,0.07766982167959213,-0.04127231612801552,0.00351270311512053,0.8806321024894714,-0.0011242449982091784,2
151,0.04234425723552704,0.011772722005844116,-0.09583432972431183,-0.013004573993384838,0.7617431282997131,-0.0021587428636848927,2
152,0.06108900532126427,0.04851454868912697,0.04176151752471924,-0.026007188484072685,0.8737476468086243,-0.002580026164650917,2
153,-0.02971099689602852,-0.0697031244635582,-0.00870762299746275,-0.03410438075661659,0.7599181532859802,-0.002374017843976617,2
154,0.10278154909610748,0.06905019283294678,-0.04029536619782448,-0.04091650992631912,0.7721861004829407,-0.00227167340926826,2
155,-0.10130608826875687,0.008790362626314163,0.03759612888097763,-0.047430165112018585,0.7797339558601379,-0.0027712108567357063,2
156,-0.0650402382016182,-0.09104425460100174,0.05568280071020126,-0.04838330298662186,0.7848264575004578,-0.002553895814344287,2
157,0.10986661911010742,0.07321109622716904,-0.0456220768392086,-0.04979103058576584,0.8819878101348877,-0.0023773941211402416,2
158,0.12238551676273346,0.06044550612568855,-0.010063246823847294,-0.053142886608839035,0.8643056154251099,-0.0025920653715729713,2
159,-0.08573660254478455,0.0693332850933075,0.007506093475967646,-0.05594239383935928,0.8500827550888062,-0.0021256955806165934,2
160,-0.11206371337175369,0.010761690326035023,-0.09793175011873245,-0.05766162648797035,0.7465999126434326,-0.0026188110932707787,2
161,0.01262228935956955,-0.06870196759700775,-0.033382490277290344,-0.23083537817001343,0.5850382447242737,-0.005508045200258493,2
162,-0.06466729938983917,0.034044161438941956,0.00898726936429739,-0.016271507367491722,0.8952487707138062,-0.0027945092879235744,2
163,-0.012623216956853867,-0.0798637643456459,0.06292811781167984,-0.025577599182724953,0.7862066626548767,-0.0030941481236368418,2
164,0.037229668349027634,-0.10069436579942703,0.1075398400425911,-0.03182815760374069,0.8726658225059509,-0.0022453779820352793,2
165,0.04590393230319023,0.014866707846522331,-0.004533620085567236,-0.03759041801095009,0.8557955622673035,-0.0018699713982641697,2
166,0.07203035056591034,-0.027284150943160057,0.0933644026517868,-0.04173462837934494,0.760879635810852,-0.002122906967997551,2
167,0.00046128238318488,-0.013880349695682526,-0.03405299037694931,-0.044469431042671204,0.8531712889671326,-0.0015996911097317934,2
168,-0.03550601005554199,-0.00909652840346098,-0.03241126611828804,-0.2880633771419525,0.599290668964386,-0.00506569305434823,2
169,0.04419666528701782,-0.06781992316246033,-0.052725620567798615,-0.15046526491641998,0.5694986581802368,-0.005483183544129133,2
170,-0.027104534208774567,-0.06005439907312393,0.045243531465530396,-0.046994682401418686,0.9431296586990356,-0.001096526044420898,2
171,0.19229181110858917,-0.064377062022686,0.024595269933342934,0.031057942658662796,0.9103837013244629,-0.0009391726343892515,2
172,-0.01585596241056919,-0.006607328075915575,-0.07822933793067932,0.010476620867848396,0.8854910731315613,-0.001700236345641315,2
173,-0.0031189678702503443,-0.02789348177611828,-0.0524584986269474,-0.15873482823371887,0.6341867446899414,-0.003910920582711697,2
174,0.051923416554927826,-0.016384148970246315,-0.015129106119275093,-0.13080045580863953,0.6010885834693909,-0.005262406077235937,2
175,-0.12043633311986923,-0.012066860683262348,-0.008459804579615593,0.04042179882526398,0.9536855816841125,-0.003873000852763653,2
176,0.052927445620298386,0.03972092643380165,-0.05471154302358627,0.01790681481361389,0.8417484164237976,-0.003956889268010855,2
177,0.07156626135110855,0.03728805109858513,-0.08610380440950394,-0.00019554528989829123,0.9082825779914856,-0.005049397237598896,2
178,0.10917087644338608,0.04689786210656166,-0.05436214432120323,-0.01386889349669218,0.8829562067985535,-0.00483299233019352,2
179,0.020431164652109146,0.022996358573436737,0.018242573365569115,-0.032334260642528534,0.7754987478256226,-0.005566868465393782,2
180,-0.020364830270409584,0.0036436631344258785,0.046821869909763336,-0.1833067387342453,0.6369044184684753,-0.00605951389297843,2
181,-0.03582657873630524,0.026021670550107956,-0.014379585161805153,-0.007021427620202303,0.7501245737075806,-0.005273029208183289,2
182,-0.03348226100206375,0.017219819128513336,0.07430727779865265,-0.16311149299144745,0.6186904907226562,-0.005451039411127567,2
183,0.058234803378582,0.13015340268611908,0.02392815612256527,0.005734446458518505,0.8802028894424438,-0.004553434904664755,2
184,0.056650225073099136,0.023396313190460205,0.0592460036277771,-0.15293776988983154,0.7200663685798645,-0.00418409937992692,2
185,0.04870202764868736,0.0189500842243433,0.08132705837488174,-0.05846761539578438,0.8854169845581055,-0.0026856751646846533,2
186,-0.06328275054693222,-0.09238103032112122,0.07184431701898575,-0.05665667727589607,0.6548243761062622,-0.0032478945795446634,2
187,-0.0051034181378781796,-0.0061413319781422615,-0.030642027035355568,0.01438718382269144,0.8344194889068604,-0.002579085063189268,2
188,-0.10485861450433731,-0.10903686285018921,0.005180704407393932,-0.0011403081007301807,0.8988252878189087,-0.0024143655318766832,2
189,-0.05580875650048256,0.03653871640563011,-0.008447011932730675,-0.013086160644888878,0.8775691390037537,-0.00245175720192492,2
190,0.07791972905397415,0.00494900718331337,0.07801427692174911,-0.024046774953603745,0.9313854575157166,-0.002480094088241458,2
191,0.07049454003572464,0.02332550287246704,-0.09463746845722198,-0.03186315298080444,0.903361439704895,-0.002275726990774274,2
192,-0.030413873493671417,-0.04619539529085159,0.024760225787758827,-0.1058521717786789,0.6737643480300903,-0.0032783234491944313,2
193,-0.03957994282245636,-0.03594387322664261,-0.003394913859665394,-0.09322568029165268,1.050783395767212,-0.0030978277791291475,2
194,0.003986205905675888,-0.11976762861013412,-0.0002076868258882314,-0.01419153157621622,0.7867090702056885,-0.00255110627040267,2
195,-0.0630841851234436,-0.013438927941024303,0.06254087388515472,-0.024020632728934288,0.8599381446838379,-0.0029000872746109962,2
196,0.02593395672738552,0.1330023854970932,-0.03308727964758873,-0.032899416983127594,0.7802558541297913,-0.0025536150205880404,2
197,-0.07987227290868759,-0.052757587283849716,0.03152896463871002,-0.03875210881233215,0.8553985357284546,-0.002942725084722042,2
198,0.021025903522968292,-0.01709122769534588,0.020768657326698303,-0.042558103799819946,0.8438839316368103,-0.0028074420988559723,2
199,0.010553069412708282,-0.05497042089700699,0.08804178237915039,-0.04465864971280098,0.7671745419502258,-0.0020911924075335264,2
200,-0.07401332259178162,-0.046283505856990814,0.027539899572730064,-0.04699734225869179,0.844620943069458,-0.0013358215801417828,2
201,-0.07116620242595673,-0.005457921419292688,0.023608636111021042,-0.049116916954517365,0.767109215259552,-0.00088993099052459,2
202,0.07012833654880524,0.008724620565772057,-0.0835551768541336,-0.05099761486053467,0.8440419435501099,-0.0010997059289366007,2
203,0.010268617421388626,-0.0032265200279653072,-0.06743095815181732,-0.052329231053590775,0.8348233699798584,-0.0013827333459630609,2
204,0.006475597154349089,-0.031964484602212906,0.04740626737475395,-0.052839089184999466,0.7606669068336487,-0.0018821025732904673,2
205,-0.014901160262525082,-0.05196725204586983,0.05897444859147072,-0.05202806740999222,0.7716221809387207,-0.001147555303759873,2
206,-0.0925680547952652,0.12836940586566925,0.1468544900417328,-0.05236057564616203,0.8424637913703918,-0.0006206390680745244,2
207,-0.5773183107376099,0.5481454730033875,-0.03625481203198433,-0.05072283372282982,0.7615960836410522,0.0026288966182619333,2
208,1.1508445739746094,-1.6531801223754883,0.1102360263466835,-0.04339398816227913,0.9661673307418823,-0.0001022482683765702,2
209,-0.6816355586051941,0.8066848516464233,0.48112350702285767,-0.04660993814468384,0.7177779078483582,0.0027203087229281664,2
210,-0.05923650041222572,1.6257158517837524,3.983505964279175,-0.05932791903614998,0.8454585671424866,-0.008860924281179905,2
211,-0.6111088991165161,0.080750972032547,-2.8694660663604736,-0.06590956449508667,0.7948571443557739,-0.015692412853240967,2
212,-1.5422608852386475,1.0212351083755493,1.9434583187103271,-0.07559294253587723,0.7455844283103943,-0.014828646555542946,2
213,-4.036131381988525,1.458132028579712,-1.567771315574646,-0.103298619389534,0.6969588398933411,-0.022044433280825615,2
214,-2.7317192554473877,3.981567144393921,-1.0158993005752563,-0.3438848555088043,0.6471477150917053,-0.010905846953392029,2
215,-6.49598503112793,6.133527755737305,2.814758539199829,-0.2536291778087616,0.5476939678192139,-0.019373951479792595,2
216,-0.6573317050933838,0.40659770369529724,2.7733712196350098,-0.29630234837532043,0.670560896396637,0.013358304277062416,2
217,5.746984481811523,-5.842016220092773,0.9834650158882141,-0.2811029851436615,0.6749752163887024,0.03261585533618927,2
218,-2.9202840328216553,3.0730438232421875,-1.3504952192306519,-0.3717949390411377,0.6445780396461487,0.03486363962292671,2
219,-6.729833602905273,6.401066780090332,-7.384496212005615,-0.5022301077842712,0.49705439805984497,-0.01447931956499815,2
220,8.256390571594238,-2.526412010192871,-5.51684045791626,-0.40527796745300293,0.5335994362831116,-0.0792827233672142,2
221,-4.99692440032959,4.625277996063232,-4.803586959838867,-0.3460516929626465,0.49809104204177856,-0.13473457098007202,2
222,-9.000798225402832,4.151886463165283,-5.191169261932373,-0.41110166907310486,0.4791310727596283,-0.18733398616313934,2
223,9.726551055908203,-10.752809524536133,0.10178502649068832,-0.483411580324173,0.6586852073669434,-0.2053147405385971,2
224,6.319826126098633,-20.174440383911133,8.68439769744873,-0.2558080852031708,0.6999825239181519,-0.1846487820148468,2
225,6.30176305770874,10.206791877746582,11.459070205688477,-0.2896372675895691,0.7263813018798828,-0.07552175223827362,2
226,-37.67007064819336,8.257712364196777,7.018718719482422,-0.34910815954208374,0.5314736366271973,0.013167343102395535,2
227,22.23600196838379,18.49345588684082,2.0347442626953125,-0.5910549163818359,0.8161748051643372,0.09671732038259506,2
228,12.4345121383667,8.388521194458008,1.193073034286499,-0.8024294972419739,0.7640063762664795,0.0946374386548996,2
229,-22.682655334472656,-16.340023040771484,3.055762529373169,-0.8826611638069153,0.4516577124595642,0.10029448568820953,2
230,-42.64067840576172,-20.44324493408203,0.00029250356601551175,-0.6401727795600891,-0.15687920153141022,0.09283339232206345,2
231,8.306220054626465,26.262226104736328,1.2593337297439575,-1.4045865535736084,-0.12641063332557678,0.15207752585411072,2
232,1.116776704788208,14.56076717376709,2.289013385772705,-1.3579204082489014,-0.29387664794921875,0.12088784575462341,2
233,-7.002368450164795,-15.893319129943848,2.72007417678833,-1.1730575561523438,-0.8955875635147095,0.03803175687789917,2
234,-10.41606330871582,-37.28009796142578,2.2575440406799316,-0.8684924244880676,-1.0495635271072388,0.052959877997636795,2
235,-5.7704901695251465,-53.362178802490234,2.586949110031128,-1.2847590446472168,-1.4665591716766357,0.1894010752439499,2
236,-6.634567737579346,-49.74055862426758,0.9376784563064575,-0.737384557723999,-1.6510688066482544,0.20032840967178345,2
237,6.7557291984558105,-48.352195739746094,1.6782405376434326,-0.7268562316894531,-1.8914713859558105,0.3326966464519501,2
238,23.638914108276367,-34.22761154174805,2.4370110034942627,-0.1763237863779068,-1.7126061916351318,0.32451245188713074,2
239,37.84212875366211,-11.32674503326416,1.2637736797332764,0.015115170739591122,-2.143608331680298,0.303188294172287,2
240,48.294532775878906,0.6697483658790588,-0.28173932433128357,0.20153066515922546,-1.6186145544052124,0.2557404041290283,2
241,57.78167724609375,2.896886110305786,0.6204506754875183,0.252880334854126,-1.8869184255599976,0.23796547949314117,2
242,62.023746490478516,-14.352469444274902,2.847571611404419,0.4741674065589905,-1.308361530303955,0.15783937275409698,2
243,64.74840545654297,-40.46486282348633,6.007607460021973,0.7381654977798462,-1.4216934442520142,0.28025519847869873,2
244,57.4158935546875,-66.98468017578125,5.421329975128174,1.0105781555175781,-1.6820566654205322,0.44306427240371704,2
245,52.27763366699219,-80.66575622558594,3.442807197570801,0.8321139812469482,-1.7670764923095703,0.8501777648925781,2
246,42.914241790771484,-73.17745208740234,2.3922998905181885,1.467676043510437,-1.001960039138794,0.9267086982727051,2
247,27.841062545776367,-42.01316452026367,1.1825213432312012,1.9115997552871704,-0.4109399616718292,0.9726569056510925,2
248,16.616003036499023,-22.862218856811523,-0.2003817856311798,2.4217069149017334,-0.5439359545707703,1.0183359384536743,2
249,-1.1924309730529785,-7.436727046966553,0.4935794770717621,3.129262685775757,-0.14447061717510223,0.7991995215415955,2
250,-16.563447952270508,-1.5336155891418457,2.999870777130127,4.56257963180542,-0.21153730154037476,0.566805899143219,2
251,-24.14573097229004,-0.4737311899662018,5.930200099945068,3.459601879119873,0.8433825969696045,0.12193122506141663,2
252,-25.163333892822266,7.4228057861328125,7.748114585876465,3.926185369491577,0.6467638611793518,0.12063264846801758,2
253,-13.691466331481934,17.63265609741211,8.674206733703613,2.824481248855591,-0.049103446304798126,0.4856499135494232,2
254,5.138503551483154,27.88539695739746,8.618450164794922,2.9947948455810547,0.2898865342140198,0.3219881057739258,2
255,22.647077560424805,29.210002899169922,8.3621187210083,2.606279134750366,0.5866618156433105,0.3397237956523895,2
256,30.610549926757812,29.658424377441406,8.073110580444336,2.063718557357788,0.19978486001491547,0.7580198645591736,2
257,36.26023864746094,29.170368194580078,5.053225994110107,0.9605483412742615,1.7241865396499634,0.2566382884979248,2
258,40.21664047241211,20.90190315246582,6.55191707611084,2.364025354385376,1.9014216661453247,0.5027471780776978,2
259,25.367406845092773,9.342545509338379,5.526359558105469,3.6872382164001465,2.5207736492156982,0.6627964973449707,2
260,3.3342831134796143,-0.6912370920181274,5.369847774505615,3.6641409397125244,2.859649896621704,0.6523571014404297,2
261,-18.306472778320312,1.7135356664657593,7.641541004180908,4.093616962432861,2.7582640647888184,0.8314123153686523,2
262,-39.896942138671875,13.819120407104492,7.647493362426758,3.879516124725342,2.3683149814605713,0.9250122308731079,2
263,-54.64423751831055,27.333660125732422,7.393282413482666,4.583319187164307,3.1445000171661377,0.5686423778533936,2
264,-66.4120864868164,43.792606353759766,8.742425918579102,4.262478828430176,2.2921910285949707,0.813721239566803,2
265,-72.07430267333984,63.86362838745117,7.591156482696533,4.231184959411621,2.0016608238220215,0.8177162408828735,2
266,-78.84960174560547,79.26766204833984,5.695919990539551,3.3098764419555664,1.1760298013687134,0.8848989009857178,2
267,-80.33372497558594,92.17433166503906,5.400744915008545,3.0313918590545654,1.204679012298584,0.5846582651138306,2
268,-73.1589584350586,104.31834411621094,3.9912917613983154,2.0712974071502686,0.27702227234840393,0.7416869401931763,2
269,-58.66639709472656,105.29563903808594,2.7751615047454834,1.7030436992645264,0.2643775939941406,0.5457311272621155,2
270,-47.26648712158203,101.14191436767578,4.171643257141113,0.19947528839111328,-0.6929509043693542,0.7253153324127197,2
271,-32.67245864868164,97.42681884765625,4.673181533813477,-0.35470327734947205,-0.701529324054718,0.6751172542572021,2
272,-23.67108917236328,91.57179260253906,4.2640790939331055,-1.5606212615966797,-1.5410425662994385,0.7941215634346008,2
273,-13.463726997375488,83.19501495361328,5.518725395202637,-3.0132896900177,-1.8618134260177612,0.8679614067077637,2
274,-10.803685188293457,68.803466796875,6.3295416831970215,-3.48667573928833,-1.8184139728546143,0.8826658129692078,2
275,-13.862900733947754,47.39189910888672,6.539680004119873,-4.511317729949951,-2.4066269397735596,0.8449943661689758,2
276,-24.554075241088867,33.374813079833984,6.172817707061768,-5.060819625854492,-2.830416440963745,0.8031501770019531,2
277,-39.93851852416992,18.452167510986328,6.475518703460693,-5.993869304656982,-3.6397764682769775,0.7519757151603699,2
278,-44.390682220458984,4.861279487609863,5.6813836097717285,-5.969030857086182,-4.2308735847473145,0.6147614121437073,2
279,-32.244224548339844,-6.039600849151611,4.349492073059082,-6.422504901885986,-4.9850568771362305,0.5722001194953918,2
280,-10.924150466918945,-10.925436019897461,4.735652446746826,-6.3975114822387695,-4.9454779624938965,0.9166613817214966,2
281,21.4016170501709,-9.14093017578125,3.0391550064086914,-6.752926349639893,-5.369793891906738,0.8128102421760559,2
282,52.167266845703125,-1.7899391651153564,3.882066011428833,-6.008702754974365,-4.432654857635498,1.0383923053741455,2
283,69.36125946044922,6.394592761993408,3.583465814590454,-6.3492584228515625,-3.801480770111084,1.3551980257034302,2
284,64.28893280029297,10.631598472595215,1.8999676704406738,-6.922281742095947,-3.1261489391326904,1.69513738155365,2
285,47.57040786743164,8.927546501159668,-1.2385749816894531,-8.364477157592773,-2.103571653366089,3.0288848876953125,2
286,26.03057861328125,-2.226518392562866,-5.318630218505859,-10.0818452835083,-1.6969164609909058,3.933412551879883,2
287,2.9168360233306885,-23.940231323242188,-9.143879890441895,-9.689743041992188,-1.4320571422576904,3.8351752758026123,2
288,-16.872203826904297,-54.567649841308594,-9.690103530883789,-8.76108169555664,-0.1033591702580452,5.4517741203308105,2
289,-31.263578414916992,-87.97657775878906,-16.339645385742188,-7.805539131164551,-1.3150848150253296,3.862034559249878,2
290,-43.424442291259766,-115.66605377197266,-13.717827796936035,-5.92761754989624,-2.0737218856811523,2.968641519546509,2
291,-53.26173782348633,-131.02867126464844,-12.449745178222656,-3.6505823135375977,-3.1204850673675537,1.9062122106552124,2
292,-50.774356842041016,-131.88294982910156,-12.45628547668457,-1.4183307886123657,-3.9672303199768066,1.23377525806427,2
293,-37.644752502441406,-115.56888580322266,-13.119848251342773,-0.0008836663328111172,-3.6727294921875,1.8408339023590088,2
294,-17.44997787475586,-83.21517944335938,-16.71987533569336,0.4635685980319977,-4.259778022766113,1.8909589052200317,2
295,5.0270609855651855,-37.60778045654297,-16.492841720581055,0.6822261810302734,-4.513909339904785,1.932589054107666,2
296,21.48116111755371,10.793122291564941,-15.085123062133789,0.6648287773132324,-4.916046142578125,1.7888352870941162,2
297,35.16439437866211,46.51422882080078,-14.174559593200684,-0.6513361930847168,-4.943029880523682,2.160125494003296,2
298,49.32904052734375,66.07295989990234,-16.941879272460938,-1.509198784828186,-4.593203544616699,2.1095337867736816,2
299,59.86098098754883,68.00597381591797,-19.814931869506836,-2.358503818511963,-4.119607448577881,1.9509304761886597,2
300,68.43445587158203,53.243003845214844,-21.466487884521484,-2.805696487426758,-3.581700563430786,1.5953768491744995,2
301,74.22869110107422,21.108022689819336,-21.276872634887695,-3.190225839614868,-2.5718271732330322,1.4086114168167114,2
302,72.95005798339844,-17.38302993774414,-19.913896560668945,-3.0976250171661377,-2.0300168991088867,1.091321587562561,2
303,62.85456085205078,-51.74626541137695,-17.21944236755371,-2.4838333129882812,-1.1965720653533936,0.830806314945221,2
304,44.99431228637695,-78.81275177001953,-14.350354194641113,-2.061185121536255,-0.7122803926467896,0.6928390860557556,2
305,19.587596893310547,-91.80818176269531,-12.972371101379395,-0.9145501255989075,-0.07325957715511322,0.5709757804870605,2
306,-4.179337501525879,-89.60327911376953,-14.002838134765625,0.4795275330543518,0.14654332399368286,0.3878563642501831,2
307,-20.62516212463379,-78.51712799072266,-14.717338562011719,1.1120859384536743,-0.11742157489061356,0.26416850090026855,2
308,-29.308557510375977,-57.78696060180664,-14.188676834106445,1.8021516799926758,-0.3640395700931549,0.08290152251720428,2
309,-28.745302200317383,-32.908164978027344,-14.026749610900879,1.8290330171585083,-0.618371844291687,-0.0767388790845871,2
310,-13.093789100646973,-6.848893642425537,-11.992613792419434,2.1723508834838867,-0.7332006096839905,-0.2250066101551056,2
311,4.686714172363281,8.647136688232422,-10.294008255004883,2.385063886642456,-0.9005765914916992,-0.3032541573047638,2
312,27.95233154296875,19.554821014404297,-9.002378463745117,3.1018848419189453,-1.1151974201202393,-0.2033502608537674,2
313,42.70786666870117,22.300708770751953,-10.161924362182617,2.8415541648864746,-0.6393176913261414,-0.36334818601608276,2
314,49.021915435791016,17.94111442565918,-10.251921653747559,2.492591381072998,-0.019045758992433548,-0.5736657381057739,2
315,49.973052978515625,18.7835693359375,-8.455535888671875,2.057197332382202,0.3012532591819763,-0.5767546892166138,2
316,39.491397857666016,14.331796646118164,-8.341042518615723,1.8445042371749878,1.0257080793380737,-0.8058185577392578,2
317,22.123565673828125,6.364259719848633,-7.346596717834473,1.7243609428405762,1.6231380701065063,-1.033509612083435,2
318,3.5144009590148926,-3.1244006156921387,-5.431058883666992,1.6086000204086304,1.4690542221069336,-0.9455923438072205,2
319,-14.002787590026855,-11.896900177001953,-5.408525466918945,1.7027649879455566,1.544812560081482,-1.0369551181793213,2
320,-26.58983612060547,-17.882600784301758,-5.292283535003662,2.094548463821411,1.406572699546814,-1.0411009788513184,2
321,-29.92867088317871,-18.814504623413086,-4.924013137817383,2.6263554096221924,1.6711605787277222,-1.2703046798706055,2
322,-24.900758743286133,-13.386585235595703,-2.596895456314087,2.8487510681152344,1.293293833732605,-1.2507542371749878,2
323,-15.720174789428711,-2.496208429336548,-0.08871468901634216,2.9803555011749268,1.0613889694213867,-1.242539405822754,2
324,-3.90910005569458,9.69282341003418,1.4124550819396973,2.903730869293213,0.4030325710773468,-0.9295452833175659,2
325,8.655092239379883,25.06438446044922,1.9460047483444214,2.5819482803344727,1.1427247524261475,-1.4020733833312988,2
326,17.717111587524414,33.7095947265625,4.844859600067139,2.6387579441070557,0.7459465265274048,-0.9488601684570312,2
327,18.729076385498047,35.3564567565918,4.255215644836426,2.0274899005889893,1.360630989074707,-1.2377341985702515,2
328,18.556447982788086,31.759937286376953,5.892271995544434,1.5507934093475342,1.6376303434371948,-1.2854233980178833,2
329,13.131393432617188,26.356292724609375,8.51837158203125,1.404262661933899,2.370300531387329,-1.4460169076919556,2
330,2.676234722137451,14.69534683227539,11.217145919799805,1.181361436843872,2.5335044860839844,-1.378074288368225,2
331,-11.928675651550293,4.081581115722656,12.320928573608398,0.9965351223945618,2.4158971309661865,-1.2432271242141724,2
332,-27.10932731628418,-4.05441427230835,11.961827278137207,0.5827370285987854,1.9973537921905518,-1.2066372632980347,2
333,-36.525047302246094,-11.869760513305664,11.80809497833252,0.7516978979110718,1.9993054866790771,-1.1490427255630493,2
334,-28.43587875366211,-15.917203903198242,10.848258018493652,0.9758825302124023,0.9848731756210327,-0.8732821941375732,2
335,-15.449445724487305,-12.123791694641113,9.815070152282715,1.098496913909912,0.5470559597015381,-0.7259230613708496,2
336,-3.587716817855835,-2.0592737197875977,9.038597106933594,1.5710338354110718,0.34049558639526367,-0.4648398756980896,2
337,6.109943866729736,5.1676344871521,6.789647579193115,1.5007672309875488,0.45470118522644043,-0.43498456478118896,2
338,8.076563835144043,13.799874305725098,6.532055377960205,1.5034929513931274,0.582289457321167,-0.3602966070175171,2
339,6.835055828094482,20.20199203491211,7.640878677368164,1.1764795780181885,0.7547565698623657,-0.359468013048172,2
340,4.589266777038574,23.780672073364258,8.927446365356445,0.93468177318573,1.1478934288024902,-0.3679649531841278,2
341,-4.335387229919434,21.419923782348633,8.544710159301758,0.5441024303436279,1.0058832168579102,-0.27504733204841614,2
342,-14.089642524719238,15.119495391845703,8.436280250549316,0.2602735757827759,0.6710900664329529,-0.1547606736421585,2
343,-22.72407341003418,5.966095924377441,7.474538803100586,-0.15293215215206146,0.4145490825176239,-0.12394294142723083,2
344,-24.954872131347656,-3.4072372913360596,7.863916873931885,-0.10525215417146683,-0.0950133353471756,0.004908440168946981,2
345,-17.07362174987793,-14.394524574279785,7.264123916625977,1.1771737337112427,0.012647366151213646,0.2616663873195648,2
346,-5.581512928009033,-18.944284439086914,6.536456108093262,1.233521580696106,-0.23788192868232727,0.325423002243042,2
347,5.129931926727295,-12.391858100891113,6.977240085601807,1.1064999103546143,-0.03875354677438736,0.32490235567092896,2
348,9.951367378234863,2.342000722885132,7.368162631988525,1.0914053916931152,-0.0007593792397528887,0.39413949847221375,2
349,9.96881103515625,14.450052261352539,6.38773250579834,1.051728367805481,0.27155202627182007,0.44353312253952026,2
350,4.980133056640625,24.302967071533203,4.773568153381348,0.9635171294212341,0.20737844705581665,0.5306693911552429,2
351,-2.1072685718536377,27.366127014160156,3.0278236865997314,0.7710645794868469,0.152267187833786,0.5901951789855957,2
352,-7.355528831481934,25.180315017700195,2.6074070930480957,0.23204101622104645,0.1972646415233612,0.5893259048461914,2
353,-11.072760581970215,19.621538162231445,2.3273847103118896,-0.20931734144687653,0.1545422226190567,0.5958198308944702,2
354,-10.147176742553711,9.886041641235352,1.991908311843872,-0.43560269474983215,0.0903250053524971,0.6115788817405701,2
355,-8.70875072479248,-0.8318566083908081,1.450631022453308,-0.5502669811248779,0.030718063935637474,0.6248600482940674,2
356,-5.965490341186523,-7.236804962158203,0.7498568892478943,-0.7187272310256958,-0.19230662286281586,0.6261394619941711,2
357,-4.094667911529541,-12.974698066711426,0.33073288202285767,-0.5427892208099365,-0.283839613199234,0.6360563635826111,2
358,-3.853191375732422,-14.918843269348145,-1.1964519023895264,-0.32287758588790894,-0.3533799648284912,0.6368771195411682,2
359,-4.594496250152588,-11.279732704162598,-2.859987497329712,-0.14972977340221405,-0.4279800355434418,0.6174535751342773,2
360,-3.1321985721588135,-9.716476440429688,-3.607304573059082,-0.0087279062718153,-0.28080374002456665,0.5988451838493347,2
361,-2.314771890640259,-4.734865665435791,-3.917285442352295,0.08049122244119644,-0.018200786784291267,0.5770223140716553,2
362,-3.750253200531006,1.1818866729736328,-3.5086100101470947,-0.10104162991046906,-0.1832786649465561,0.5309464335441589,2
363,-8.947820663452148,7.09910774230957,-3.265584707260132,-0.15049651265144348,-0.2578563690185547,0.49409595131874084,2
364,-13.137990951538086,10.656793594360352,-1.9529341459274292,-0.5301371216773987,-0.3955329656600952,0.4640613794326782,2
365,-15.204075813293457,10.003064155578613,-1.546711802482605,0.07224033027887344,-1.2923613786697388,0.3857877254486084,2
366,-13.336371421813965,5.04145622253418,-0.12014280259609222,-0.08455154299736023,-1.4409680366516113,0.37475407123565674,2
367,-4.079809188842773,-0.44725242257118225,0.11725031584501266,-0.1468501091003418,-1.6353939771652222,0.37018343806266785,2
368,10.583512306213379,-3.7468419075012207,0.8925702571868896,-0.5793689489364624,-1.814389944076538,0.40238991379737854,2
369,22.251663208007812,-4.301551342010498,0.40789252519607544,-0.34192922711372375,-2.0084385871887207,0.3616791069507599,2
370,29.857248306274414,-3.679572105407715,0.829352617263794,-0.2663175165653229,-1.6669684648513794,0.37122011184692383,2
371,33.59945297241211,-3.3692080974578857,0.4060908854007721,-0.32235056161880493,-1.0617973804473877,0.4201311469078064,2
372,33.71510314941406,-0.5369802713394165,-0.1972014307975769,-0.3897973895072937,-0.5783141255378723,0.45095542073249817,2
373,26.744543075561523,2.814775228500366,-1.2543667554855347,-0.5066626071929932,-0.04388723149895668,0.48165756464004517,2
374,14.14808177947998,4.31766414642334,-1.563305139541626,-0.4667229652404785,-0.33988142013549805,0.4086381793022156,2
375,2.820892810821533,1.9273786544799805,-1.0432636737823486,-0.4910179376602173,-0.31473928689956665,0.38409343361854553,2
376,-4.610325336456299,-2.0731918811798096,-1.0172128677368164,-0.6472175717353821,-0.03971679136157036,0.420499712228775,2
377,-1.9240576028823853,-5.721929550170898,-1.1906490325927734,-0.5923399329185486,-0.23837268352508545,0.39232581853866577,2
378,3.0146946907043457,-8.265057563781738,-1.2679466009140015,-0.4220908284187317,-0.01496389601379633,0.3964895009994507,2
379,8.371500968933105,-9.765538215637207,-1.5451502799987793,-0.10499317198991776,-0.06179820001125336,0.3565934896469116,2
380,13.334394454956055,-10.198966979980469,-1.0229065418243408,0.009043542668223381,0.19643725454807281,0.357741117477417,2
381,11.626916885375977,-6.964839458465576,-0.8504447937011719,0.2258533239364624,-0.20039843022823334,0.29767563939094543,2
382,6.874614715576172,-2.036952257156372,0.22844435274600983,0.09799244999885559,0.06956695020198822,0.30846190452575684,2
383,4.863675594329834,1.0500056743621826,0.1581091284751892,-0.013437802903354168,0.2475830614566803,0.32132673263549805,2
384,5.127200126647949,1.931807041168213,0.5075186491012573,-0.02043548785150051,0.3976423740386963,0.3283618688583374,2
385,6.011496543884277,0.3278683125972748,1.0044633150100708,-0.023279760032892227,0.539875864982605,0.33684009313583374,2
386,6.981191635131836,-3.564584493637085,1.2442706823349,0.022891702130436897,0.4299304783344269,0.34040042757987976,2
387,5.752457141876221,-6.059746742248535,1.6414915323257446,0.11912358552217484,0.5382499694824219,0.3571905791759491,2
388,4.913482189178467,-6.64612340927124,1.1007722616195679,0.3099365830421448,0.6200520396232605,0.3785270154476166,2
389,3.8669073581695557,-4.724675178527832,0.8519243597984314,0.4141920506954193,0.7437235116958618,0.39034348726272583,2
390,3.07039737701416,-1.3606611490249634,1.7823737859725952,0.4034178555011749,0.8514241576194763,0.3996901214122772,2
391,1.4551844596862793,2.552539587020874,2.598449468612671,0.40325143933296204,1.12053382396698,0.4197555184364319,2
392,-2.008307456970215,7.821356296539307,2.9289298057556152,0.9151283502578735,0.9938096404075623,0.5031696557998657,2
393,-4.858785152435303,8.958248138427734,2.5451323986053467,0.7943832874298096,1.0880430936813354,0.5248534083366394,2
394,-7.32217264175415,9.465222358703613,2.2022321224212646,0.6137475967407227,0.9333654642105103,0.5406664609909058,2
395,-9.048290252685547,12.610840797424316,2.8159730434417725,0.4078802466392517,1.1458008289337158,0.5412046909332275,2
396,-9.004165649414062,11.507840156555176,3.4238343238830566,0.19748201966285706,0.9174634218215942,0.5661329627037048,2
397,-9.873863220214844,9.058040618896484,3.759904384613037,0.023306719958782196,0.5073175430297852,0.6057451367378235,2
398,-8.722811698913574,5.03594970703125,4.420742988586426,-0.11400382965803146,0.9204123616218567,0.6246525049209595,2
399,-7.740350723266602,-1.5385853052139282,4.473412990570068,-0.17705507576465607,0.8346889019012451,0.6663392186164856,2
400,-6.489974021911621,-8.188544273376465,4.20913553237915,0.5288086533546448,0.38055989146232605,0.8194848299026489,2
401,-8.14974594116211,-11.066308975219727,2.977614641189575,0.40397629141807556,0.34842339158058167,0.8248300552368164,2
402,-8.613380432128906,-7.206895351409912,2.8074355125427246,0.37755849957466125,0.22862032055854797,0.8347852230072021,2
403,-7.087710857391357,1.3313794136047363,2.9851834774017334,0.19331637024879456,0.23601992428302765,0.8286038041114807,2
404,-5.2265801429748535,12.248497009277344,3.381216287612915,0.06515999883413315,0.2581169307231903,0.8478026390075684,2
405,-0.387474924325943,17.401554107666016,2.718579053878784,-0.2491675764322281,0.2008703351020813,0.8597286939620972,2
406,2.510891914367676,18.11039924621582,3.2684755325317383,-0.2610529363155365,0.20792116224765778,0.9071258902549744,2
407,5.083785533905029,17.91788673400879,3.3137993812561035,-0.5413733124732971,0.25241634249687195,0.9293675422668457,2
408,4.413691520690918,23.701030731201172,3.4889068603515625,-0.20477302372455597,0.3138000965118408,1.0158659219741821,2
409,1.4310669898986816,31.135549545288086,2.9863901138305664,-0.6881958842277527,0.34588560461997986,1.0310850143432617,2
410,-1.9283660650253296,37.68074417114258,2.692493200302124,-1.2532269954681396,0.2604826092720032,1.038150429725647,2
411,-4.883457183837891,37.908416748046875,2.7951717376708984,-1.1474395990371704,-0.716192364692688,1.0600147247314453,2
412,-5.135632514953613,26.478134155273438,3.7446181774139404,-1.668929100036621,-0.5238358974456787,1.0954540967941284,2
413,-1.692179560661316,18.81977653503418,3.347134828567505,-2.0429463386535645,-0.5178561806678772,1.124419927597046,2
414,9.006429672241211,2.7081263065338135,2.9097518920898438,-2.2178497314453125,-0.39263811707496643,1.164421558380127,2
415,18.240474700927734,-13.25047492980957,2.8362021446228027,-2.3800570964813232,-0.1215410903096199,1.21159827709198,2
416,22.787250518798828,-25.83966064453125,2.9782795906066895,-2.0206592082977295,0.25486403703689575,1.276850938796997,2
417,23.698806762695312,-27.147998809814453,4.2259745597839355,-1.72329843044281,0.5288956761360168,1.3203283548355103,2
418,18.351219177246094,-15.021295547485352,5.090781211853027,-1.3761764764785767,0.8921647667884827,1.3956177234649658,2
419,8.883810997009277,-5.4707746505737305,4.1131181716918945,-0.9677451252937317,1.255715250968933,1.495741605758667,2
420,-3.1469905376434326,0.4561740756034851,2.7575228214263916,-1.2365549802780151,1.2862919569015503,1.5168237686157227,2
421,-14.176871299743652,11.69307804107666,1.9391154050827026,-1.3230611085891724,1.143628716468811,1.5235182046890259,2
422,-23.402034759521484,21.092342376708984,1.5485506057739258,-0.8948090672492981,-1.5023702383041382,1.0675934553146362,2
423,-25.053224563598633,28.782346725463867,2.9848320484161377,-1.343644142150879,-1.6415579319000244,1.0869710445404053,2
424,-15.58360767364502,35.53113555908203,3.261969804763794,-1.7658905982971191,-1.5910762548446655,1.1651276350021362,2
425,10.33163070678711,35.18416213989258,3.7265777587890625,-2.368136167526245,-1.4791306257247925,1.2296035289764404,2
426,40.9880485534668,20.256221771240234,3.963391065597534,-2.826106309890747,-0.9190961122512817,1.3531925678253174,2
427,65.21343994140625,0.9864720106124878,2.7257487773895264,-3.0235533714294434,0.05222903937101364,1.520713210105896,2
428,77.79888916015625,-17.225454330444336,1.9336427450180054,-3.3471083641052246,0.9083576798439026,1.6030219793319702,2
429,74.81919860839844,-30.09554100036621,3.8867380619049072,-2.9611480236053467,1.9620347023010254,1.7045291662216187,2
430,54.98808288574219,-36.47339630126953,4.218557834625244,-2.2917184829711914,3.0733582973480225,1.8675620555877686,2
431,24.314167022705078,-31.005895614624023,3.7704501152038574,-2.659059524536133,3.19352650642395,1.7591807842254639,2
432,-10.297450065612793,-19.983625411987305,4.023585796356201,-2.2793259620666504,3.339716911315918,1.7953181266784668,2
433,-38.29499816894531,-12.082825660705566,3.4123475551605225,-2.2940144538879395,3.3174941539764404,1.8661255836486816,2
434,-55.72526931762695,-9.441740989685059,2.480811357498169,-2.3715622425079346,2.822549819946289,1.847970724105835,2
435,-57.69055938720703,-15.599485397338867,1.2837544679641724,-2.315174102783203,2.3858654499053955,1.9015685319900513,2
436,-46.677406311035156,-30.342866897583008,0.40286073088645935,-1.935259461402893,1.868546962738037,1.9542526006698608,2
437,-29.139413833618164,-41.55896759033203,-0.2244182825088501,-1.7085400819778442,1.716343879699707,2.0163846015930176,2
438,-10.067875862121582,-37.19508361816406,0.2842269241809845,-1.0863198041915894,1.4977388381958008,2.0594284534454346,2
439,4.332915782928467,-25.526914596557617,1.0838384628295898,-1.0136713981628418,1.5563609600067139,2.031696319580078,2
440,10.404415130615234,-16.776058197021484,0.6155385971069336,-0.8120118975639343,1.7679252624511719,2.0675466060638428,2
441,7.776290416717529,-10.21360969543457,0.8918569087982178,-0.5816072821617126,1.8557618856430054,2.079782724380493,2
442,-4.197443008422852,-2.0462770462036133,-0.050658077001571655,-0.48253726959228516,2.0304300785064697,2.1163430213928223,2
443,-18.41082000732422,-0.15407006442546844,-1.153823733329773,-0.4668866693973541,1.8463302850723267,2.087259292602539,2
444,-30.885391235351562,-3.2387070655822754,-0.6688346266746521,-0.46751701831817627,1.458293080329895,2.0303869247436523,2
445,-37.61557388305664,-7.98325252532959,-1.0457110404968262,-0.39782577753067017,1.3970527648925781,2.0660223960876465,2
446,-39.833580017089844,-9.614838600158691,-2.2703466415405273,-0.4379039406776428,1.208724021911621,2.0482475757598877,2
447,-38.75646209716797,-6.507650375366211,-2.781172275543213,-0.21932430565357208,0.5991475582122803,2.0192484855651855,2
448,-33.549625396728516,-10.263214111328125,-2.3937864303588867,-0.23584209382534027,0.6219986081123352,2.0279629230499268,2
449,-25.564664840698242,-18.507123947143555,-2.0045502185821533,-0.009721266105771065,0.11092322319746017,2.004321813583374,2
450,-11.246182441711426,-34.67521286010742,-0.8705625534057617,0.6888734698295593,0.09941943734884262,2.030681610107422,2
451,-7.638522624969482,-38.21500778198242,0.09925577044487,1.1726635694503784,-0.17173387110233307,2.0324361324310303,2
452,-10.33581256866455,-28.199520111083984,0.8630558848381042,1.146073818206787,-0.085598424077034,1.9920142889022827,2
453,-15.792617797851562,-11.374161720275879,0.8204955458641052,1.4867453575134277,-0.16329090297222137,2.0171303749084473,2
454,-22.029218673706055,-1.9353731870651245,0.7512553334236145,1.4478809833526611,-0.38937246799468994,2.0170319080352783,2
455,-27.315298080444336,2.6539344787597656,0.7253894209861755,1.4679152965545654,-0.5909069776535034,2.0213449001312256,2
456,-31.571491241455078,0.14477302134037018,0.7313097715377808,1.5065773725509644,-0.8069962859153748,2.023197650909424,2
457,-33.21211624145508,1.8673584461212158,0.47236204147338867,1.4557757377624512,-1.470950722694397,2.0676488876342773,2
458,-30.677148818969727,10.154824256896973,-0.507432222366333,1.3886240720748901,-1.3248932361602783,1.9969433546066284,2
459,-21.96031951904297,13.594659805297852,-0.7279499173164368,1.2517186403274536,-1.6131623983383179,1.98698091506958,2
460,-13.893752098083496,8.91746711730957,-0.7220836877822876,1.200538158416748,-2.0275886058807373,2.0151865482330322,2
461,-11.487823486328125,12.818357467651367,-1.2245765924453735,1.0493031740188599,-2.000748634338379,1.9771430492401123,2
462,-8.806904792785645,10.240511894226074,-1.1771140098571777,0.9551107883453369,-2.2178640365600586,1.9798088073730469,2
463,-11.53954029083252,-0.03135281801223755,-1.1999764442443848,0.9721205234527588,-1.990979790687561,1.8913168907165527,2
464,-8.655436515808105,-5.595088005065918,0.7009690999984741,1.0147041082382202,-2.1299867630004883,1.890442967414856,2
465,-10.120326042175293,-13.499670028686523,0.8271064758300781,1.1351031064987183,-2.209822654724121,1.8917667865753174,2
466,-10.04526424407959,-20.17837142944336,1.564193606376648,1.4136086702346802,-2.5112144947052,1.9235222339630127,2
467,-14.212636947631836,-16.183189392089844,1.5912067890167236,1.7328261137008667,-2.4138412475585938,1.8623013496398926,2
468,-13.797689437866211,-13.000001907348633,1.7409194707870483,1.9228107929229736,-2.6330976486206055,1.88681960105896,2
469,-12.439258575439453,-5.598790168762207,2.4118618965148926,2.107710599899292,-2.759824275970459,1.8818683624267578,2
470,-11.221528053283691,3.3893790245056152,3.1032543182373047,1.9960007667541504,-3.0049655437469482,1.9667855501174927,2
471,-9.782103538513184,10.03056812286377,2.3873417377471924,1.8481628894805908,-3.0143535137176514,1.9746664762496948,2
472,-7.138973712921143,12.690374374389648,1.5830756425857544,1.6621793508529663,-3.1972267627716064,2.034186363220215,2
473,-3.4215595722198486,14.649020195007324,1.5712485313415527,1.5521368980407715,-3.3782808780670166,2.0788402557373047,2
474,0.599033534526825,20.511573791503906,1.2217398881912231,1.3828520774841309,-3.2002832889556885,2.0348353385925293,2
475,3.7380943298339844,25.346065521240234,1.1642942428588867,1.1204146146774292,-3.18538761138916,2.0597290992736816,2
476,5.783179759979248,20.874374389648438,1.0236825942993164,0.8134689927101135,-3.1310524940490723,2.0780556201934814,2
477,5.66840934753418,7.412291526794434,0.6272271275520325,0.6901712417602539,-3.1304187774658203,2.064997434616089,2
478,4.018411159515381,-0.8035299181938171,1.254934310913086,0.6012853384017944,-2.9937753677368164,2.0525569915771484,2
479,2.65444016456604,-2.8662984371185303,1.3075318336486816,0.6687122583389282,-3.0218303203582764,2.049783945083618,2
480,2.158045768737793,-6.447704315185547,0.9543946385383606,0.6809309124946594,-2.9840173721313477,2.080408811569214,2
481,0.1913910210132599,-2.4629220962524414,-0.004977901931852102,0.798997163772583,-3.0373239517211914,2.0728349685668945,2
482,-1.1189672946929932,3.4324986934661865,-0.254508912563324,0.7304370999336243,-3.0318398475646973,2.1115500926971436,2
483,0.611059308052063,6.874059677124023,-0.4553472697734833,0.6492516994476318,-3.0879135131835938,2.140436887741089,2
484,3.3732187747955322,4.37798547744751,-0.3249777853488922,0.652003288269043,-3.100867509841919,2.1229515075683594,2
485,6.220240592956543,6.1194844245910645,-0.05599438399076462,0.6859421133995056,-2.9984989166259766,2.084462881088257,2
486,9.93007755279541,9.859621047973633,-0.10952470451593399,0.5192590355873108,-2.9227027893066406,2.128143787384033,2
487,12.004667282104492,16.19647216796875,-0.907820999622345,0.3935951292514801,-2.7971231937408447,2.1145734786987305,2
488,11.54438591003418,22.167844772338867,-1.9901647567749023,0.14159555733203888,-2.6525719165802,2.108705759048462,2
489,11.11921501159668,28.066452026367188,-2.101099729537964,-0.12959842383861542,-2.5834202766418457,2.0920660495758057,2
490,8.645096778869629,29.77635383605957,-2.4912703037261963,-0.44913139939308167,-2.448896646499634,2.0673885345458984,2
491,8.558257102966309,25.211912155151367,-3.5405728816986084,-0.6672590374946594,-2.4077131748199463,2.0072219371795654,2
492,7.383074760437012,18.00010871887207,-4.267722129821777,-0.9225849509239197,-2.3100976943969727,1.973447322845459,2
493,6.796515941619873,12.151612281799316,-4.49134635925293,-0.908820629119873,-2.355311155319214,1.872322678565979,2
494,6.308670997619629,2.2226388454437256,-4.152276515960693,-1.1549829244613647,-2.3311190605163574,1.8966318368911743,2
495,8.813178062438965,-6.108578681945801,-4.577525615692139,-1.0615113973617554,-2.356325149536133,1.8218252658843994,2
496,11.74863338470459,-11.876949310302734,-4.328873634338379,-0.9094443321228027,-2.186401605606079,1.7520774602890015,2
497,15.480240821838379,-8.718001365661621,-4.041569709777832,-0.7449113726615906,-1.9713950157165527,1.6920058727264404,2
498,17.100292205810547,4.251056671142578,-4.105994701385498,-0.606555700302124,-1.8408148288726807,1.6255128383636475,2
499,18.09941864013672,14.433964729309082,-4.0027618408203125,-0.6607277393341064,-1.6186212301254272,1.578123927116394,2
500,16.228683471679688,22.73735809326172,-4.121129512786865,-1.011186957359314,-1.4228519201278687,1.594878911972046,2
501,13.963433265686035,23.78980255126953,-4.42597770690918,-1.2359966039657593,-1.2468174695968628,1.545707106590271,2
502,11.092667579650879,14.20650863647461,-4.822865962982178,-1.4626710414886475,-1.2627311944961548,1.4915320873260498,2
503,10.04434585571289,0.7093698978424072,-4.458715438842773,-1.4075056314468384,-1.079785704612732,1.4092636108398438,2
504,8.618873596191406,-6.7851691246032715,-5.059966564178467,-1.2801835536956787,-1.1273117065429688,1.324906349182129,2
505,7.470627307891846,-6.501583576202393,-5.073365211486816,-1.1085397005081177,-0.9751514196395874,1.2592417001724243,2
506,6.519244194030762,-6.21608829498291,-4.930349826812744,-1.5842468738555908,-1.0401493310928345,1.317783236503601,2
507,6.228139877319336,-5.1533894538879395,-5.427076816558838,-1.464456558227539,-0.9694018363952637,1.2592209577560425,2
508,9.058783531188965,-6.250573635101318,-5.414431571960449,-1.3006837368011475,-0.823395848274231,1.1943639516830444,2
509,9.952594757080078,-7.150084495544434,-5.095157146453857,-1.31790030002594,-0.6420473456382751,1.1686809062957764,2
510,11.387922286987305,-2.249086856842041,-5.066219806671143,-1.2302974462509155,-0.5225338935852051,1.1128989458084106,2
511,10.219208717346191,4.251250743865967,-4.552923202514648,-1.1710799932479858,-0.5361338257789612,1.0310686826705933,2
512,7.644560813903809,5.8229265213012695,-3.4132556915283203,-1.1956254243850708,-0.36670824885368347,0.9919107556343079,2
513,5.315248489379883,5.12763786315918,-4.466130256652832,-1.1891056299209595,-0.3016490936279297,0.9469113349914551,2
514,4.901957035064697,-0.8919574022293091,-3.361048460006714,-1.2158502340316772,-0.1986943930387497,0.9107526540756226,2
515,5.569306373596191,-12.234476089477539,-3.1295063495635986,-1.0095949172973633,-0.3059964179992676,0.8399607539176941,2
516,8.554922103881836,-21.52262306213379,-2.626176118850708,-0.6318471431732178,-0.24495874345302582,0.800139844417572,2
517,8.41538143157959,-23.472612380981445,-2.3629989624023438,-0.2058350294828415,0.12720675766468048,0.8149280548095703,2
518,9.326099395751953,-19.461626052856445,-1.324806809425354,-0.4215099513530731,-0.06106456741690636,0.7641722559928894,2
519,6.194127559661865,-3.100578784942627,-2.0681636333465576,-0.34764334559440613,-0.040957290679216385,0.7428195476531982,2
520,3.349888324737549,14.91193675994873,-2.3764660358428955,-0.4061581492424011,0.07313235104084015,0.7324205636978149,2
521,3.3068687915802,26.145360946655273,-1.9083666801452637,-0.6358095407485962,0.16564182937145233,0.719208836555481,2
522,4.746609210968018,27.402889251708984,-0.9736838936805725,-0.8623321652412415,0.05984638258814812,0.6871019601821899,2
523,4.024425983428955,25.450542449951172,0.6519901752471924,-1.1301887035369873,0.1759454607963562,0.6926820874214172,2
524,5.2930779457092285,20.536964416503906,1.628430724143982,-1.3326420783996582,0.221451073884964,0.7056129574775696,2
525,8.119885444641113,13.190135955810547,2.040358781814575,-1.5725634098052979,0.36821383237838745,0.7327970266342163,2
526,9.902549743652344,2.8293097019195557,2.220895767211914,-1.6053184270858765,0.5436276197433472,0.7767983078956604,2
527,10.219661712646484,-9.700511932373047,2.09578537940979,-1.463834524154663,0.651773989200592,0.8115196228027344,2
528,7.180543422698975,-21.933574676513672,1.1893174648284912,-1.3660471439361572,0.6073421239852905,0.7952554821968079,2
529,4.0584235191345215,-35.62284469604492,1.5423438549041748,-0.748234748840332,0.7261208295822144,0.8536266088485718,2
530,-0.9557016491889954,-42.046566009521484,2.4440040588378906,-0.7915696501731873,0.6975424885749817,0.8043393492698669,2
531,-4.732341289520264,-39.94319152832031,3.208474636077881,-0.14343933761119843,0.6723807454109192,0.8571341037750244,2
532,-8.01478099822998,-28.709325790405273,4.107729434967041,0.3898702561855316,0.5880783200263977,0.9112784266471863,2
533,-8.73742961883545,-15.84078311920166,4.701066970825195,0.5199680924415588,0.47747737169265747,0.93194979429245,2
534,-7.016489505767822,6.550954818725586,4.73539924621582,0.6974360942840576,0.5078237652778625,1.007962703704834,2
535,-2.0899362564086914,28.805797576904297,3.2655317783355713,0.38625389337539673,0.5228890776634216,1.029171109199524,2
536,2.8204312324523926,42.631431579589844,2.5448358058929443,-0.05475010350346565,0.4808167517185211,1.0410864353179932,2
537,4.369231700897217,42.45786666870117,2.2521584033966064,-0.6673089861869812,0.49517619609832764,1.0355584621429443,2
538,3.7345054149627686,22.899850845336914,2.7115750312805176,-1.030775785446167,0.4317553639411926,1.055651307106018,2
539,3.082545042037964,-2.468362808227539,2.706050157546997,-1.0822362899780273,0.5115137100219727,1.104663610458374,2
540,3.6185803413391113,-14.23267650604248,3.001451015472412,-0.8203991055488586,0.5136566162109375,1.168592929840088,2
541,7.276547431945801,-26.31292724609375,1.4368113279342651,-0.5258757472038269,0.41050097346305847,1.2059547901153564,2
542,6.688415050506592,-30.884628295898438,0.7228469252586365,-0.49116671085357666,0.6917870044708252,1.1814992427825928,2
543,7.568347930908203,-30.749950408935547,-0.0217138659209013,0.04547227546572685,0.7537959218025208,1.2259976863861084,2
544,7.382443904876709,-22.73519515991211,-2.008265733718872,0.2503315508365631,0.8320074677467346,1.1974204778671265,2
545,5.290928840637207,-11.233695983886719,-3.2909369468688965,0.6646122932434082,0.957407534122467,1.2184475660324097,2
546,4.3266401290893555,1.8263309001922607,-4.517017364501953,0.7687767744064331,1.0482020378112793,1.1887246370315552,2
547,3.5604703426361084,15.391338348388672,-5.45228910446167,0.4013553261756897,1.0507222414016724,1.078665018081665,2
548,-0.9349237680435181,29.50229263305664,-6.941806793212891,0.16821850836277008,1.0821505784988403,1.0209060907363892,2
549,-4.307688236236572,36.334068298339844,-8.187994956970215,-0.22201082110404968,0.9731453657150269,0.9402270317077637,2
550,-4.564741134643555,30.453283309936523,-8.611724853515625,-0.4878958463668823,0.9720734357833862,0.8869850039482117,2
551,-0.38536107540130615,10.093236923217773,-8.956562042236328,-0.7511506080627441,1.0124369859695435,0.8001413345336914,2
552,4.59419584274292,-9.002239227294922,-9.280115127563477,-0.6638028621673584,1.0503586530685425,0.7366225123405457,2
553,7.013624668121338,-23.351089477539062,-10.5255765914917,-0.30425378680229187,1.1451220512390137,0.6887319087982178,2
554,4.110548973083496,-26.783039093017578,-11.142512321472168,-0.2727782428264618,1.0964381694793701,0.5145723223686218,2
555,-3.109100341796875,-15.697911262512207,-10.31990909576416,-0.15122899413108826,1.244028091430664,0.3673388659954071,2
556,-12.126245498657227,1.1583091020584106,-8.37558364868164,0.011884958483278751,1.027878761291504,0.28372013568878174,2
557,-18.155860900878906,12.407307624816895,-6.994604587554932,-0.14924544095993042,0.9875763654708862,0.1776922196149826,2
558,-19.311565399169922,16.734519958496094,-6.577123165130615,-0.3052932620048523,0.5389935970306396,0.11111488938331604,2
559,-12.409430503845215,15.956197738647461,-6.45061731338501,-0.5096535086631775,0.5120365023612976,0.0455252043902874,2
560,-1.5434670448303223,2.340890645980835,-7.534595012664795,-0.5592176914215088,0.4088851511478424,-0.000516613305080682,2
561,7.35801362991333,-13.683428764343262,-9.305848121643066,-0.425447940826416,0.474444180727005,-0.0555557906627655,2
562,11.845457077026367,-22.237058639526367,-10.716773986816406,-0.05629707872867584,0.7057722210884094,-0.10506118834018707,2
563,11.410602569580078,-26.460447311401367,-10.207234382629395,-0.018396804109215736,0.8919187188148499,-0.2596557140350342,2
564,2.9544613361358643,-23.622907638549805,-10.614460945129395,0.17717787623405457,0.8565248250961304,-0.3794791102409363,2
565,-10.121262550354004,-17.939876556396484,-9.567831039428711,0.33112943172454834,0.792274534702301,-0.5016643404960632,2
566,-23.05210304260254,-7.745336532592773,-8.606042861938477,0.5417349934577942,0.6367321610450745,-0.5773780941963196,2
567,-34.511627197265625,-0.8068856000900269,-6.777066230773926,0.6787207722663879,0.27279573678970337,-0.6336542963981628,2
568,-37.7602424621582,7.539605617523193,-5.652022838592529,0.6334760785102844,-0.18911443650722504,-0.6967269778251648,2
569,-33.97797393798828,13.057257652282715,-4.135110378265381,0.5259929299354553,-0.6275889277458191,-0.7436885237693787,2
570,-21.669326782226562,12.013460159301758,-2.8139867782592773,0.3751043677330017,-0.7625824213027954,-0.7904490232467651,2
571,-1.8438286781311035,7.205348491668701,-2.562796115875244,0.2974608838558197,-0.7140847444534302,-0.8279680013656616,2
572,13.863977432250977,0.8334462642669678,-1.6774842739105225,0.1641313135623932,-0.6046228408813477,-0.8680114150047302,2
573,26.429792404174805,-3.0617525577545166,0.2848202884197235,0.27191364765167236,-0.2760537266731262,-0.8748407959938049,2
574,29.666507720947266,-2.745008707046509,0.5993748307228088,0.40183916687965393,-0.17078736424446106,-0.8469273447990417,2
575,25.132413864135742,-2.9072654247283936,-1.2511812448501587,0.4042777419090271,0.24337893724441528,-0.8623695969581604,2
576,16.997102737426758,-10.427628517150879,-3.474254608154297,0.5245401263237,0.4808426797389984,-0.8807896375656128,2
577,3.5332882404327393,-21.333219528198242,-5.302376747131348,0.7551978826522827,0.6228958964347839,-0.9146695137023926,2
578,-8.869848251342773,-26.878103256225586,-6.487419605255127,1.1599141359329224,0.5433977246284485,-0.954945981502533,2
579,-19.73288345336914,-19.488855361938477,-8.571427345275879,0.9560475945472717,0.2793903350830078,-1.0627647638320923,2
580,-26.073963165283203,-3.2311437129974365,-10.985432624816895,1.0052070617675781,0.029301149770617485,-1.1662588119506836,2
581,-24.182159423828125,11.242006301879883,-11.826120376586914,1.0065431594848633,-0.23852339386940002,-1.2716162204742432,2
582,-17.036529541015625,19.18170166015625,-12.395506858825684,0.7337643504142761,-0.5729967951774597,-1.3891607522964478,2
583,-9.334354400634766,21.559350967407227,-13.998522758483887,0.5778369307518005,-0.7803084850311279,-1.5131654739379883,2
584,-4.197502136230469,14.733718872070312,-15.133820533752441,0.3663346469402313,-0.5827503800392151,-1.6989048719406128,2
585,-1.1126840114593506,7.965626239776611,-14.590553283691406,0.2551627457141876,-0.6279146075248718,-1.850144863128662,2
586,-2.050144910812378,3.556588888168335,-14.134321212768555,0.2505961060523987,-0.6635931730270386,-1.989079236984253,2
587,-7.467177867889404,1.6359672546386719,-14.071958541870117,0.24700750410556793,-0.6192947030067444,-2.142514228820801,2
588,-9.091987609863281,5.009978294372559,-13.244404792785645,0.25436556339263916,-0.7524263262748718,-2.2701821327209473,2
589,-12.31537914276123,2.234797239303589,-13.350356101989746,0.23854002356529236,-0.9336226582527161,-2.3951385021209717,2
590,-11.64163589477539,-5.525834560394287,-12.250293731689453,0.34842589497566223,-0.9811250567436218,-2.5325381755828857,2
591,-11.510215759277344,-7.857401371002197,-11.022855758666992,0.3912723660469055,-1.1789361238479614,-2.6395905017852783,2
592,-11.177253723144531,-2.097975015640259,-10.7759370803833,0.4717809855937958,-1.2254066467285156,-2.751943588256836,2
593,-9.636773109436035,7.154216289520264,-10.762913703918457,0.4699799120426178,-1.3883132934570312,-2.8496029376983643,2
594,-3.103149175643921,18.427324295043945,-10.22138786315918,0.31661754846572876,-1.4171603918075562,-2.962930679321289,2
595,4.318753719329834,26.921512603759766,-9.461734771728516,0.017679521813988686,-1.3886833190917969,-3.066895008087158,2
596,9.148131370544434,27.129167556762695,-8.87761402130127,-0.3726675510406494,-1.3990589380264282,-3.150944471359253,2
597,13.758228302001953,23.269947052001953,-8.701454162597656,-0.579308032989502,-1.1809049844741821,-3.2606353759765625,2
598,15.446183204650879,14.014622688293457,-8.551424026489258,-0.8123190999031067,-1.0869189500808716,-3.3469650745391846,2
599,13.11485481262207,-3.755746364593506,-8.114962577819824,-0.7985554337501526,-0.9893125295639038,-3.441256523132324,2
600,6.171772003173828,-18.46263885498047,-6.130535125732422,-0.4982993006706238,-0.8846231698989868,-3.530898094177246,2
601,-5.146480083465576,-22.783058166503906,-5.2235107421875,-0.3777781128883362,-0.8622165322303772,-3.577580451965332,2
602,-13.20385456085205,-14.946228981018066,-4.659041881561279,0.004404697101563215,-0.9940160512924194,-3.642699718475342,2
603,-14.20416259765625,1.4934390783309937,-3.8165698051452637,0.018644263967871666,-1.2122068405151367,-3.6793155670166016,2
604,-8.453428268432617,24.41815948486328,-3.0746147632598877,-0.14334136247634888,-1.3815274238586426,-3.708745241165161,2
605,2.3385660648345947,47.24402618408203,-1.4844478368759155,-0.6321097016334534,-1.3921656608581543,-3.720876455307007,2
606,14.933093070983887,59.56689453125,-1.2489120960235596,-1.3194801807403564,-1.2229377031326294,-3.7283174991607666,2
607,27.99544334411621,53.38488006591797,-0.8422171473503113,-1.942145824432373,-0.9262790679931641,-3.7410049438476562,2
608,36.96028137207031,41.58934020996094,0.5101157426834106,-2.457791328430176,-0.7902522087097168,-3.75178599357605,2
609,37.586421966552734,30.840896606445312,1.1118909120559692,-2.9625160694122314,-0.6882930994033813,-3.7586653232574463,2
610,33.56012725830078,18.898563385009766,1.561153531074524,-3.114223003387451,-0.1248992457985878,-3.7378711700439453,2
611,28.7863712310791,0.773322343826294,1.1421055793762207,-3.0593061447143555,0.4083908796310425,-3.706638813018799,2
612,19.310306549072266,-17.51626968383789,-0.4090803265571594,-2.9342572689056396,0.3954242467880249,-3.7617931365966797,2
613,1.214816927909851,-28.919429779052734,-0.9062281250953674,-2.4393274784088135,0.5725107192993164,-3.7827327251434326,2
614,-14.959869384765625,-36.480167388916016,1.1084718704223633,-2.157414197921753,0.37856122851371765,-3.810828685760498,2
615,-23.94219970703125,-37.48889923095703,1.8912506103515625,-1.58836030960083,-0.13282939791679382,-3.885464668273926,2
616,-23.533967971801758,-26.658342361450195,3.7932376861572266,-1.4226160049438477,-0.44921666383743286,-3.869466781616211,2
617,-15.477337837219238,-19.325305938720703,5.099364280700684,-0.9762176275253296,-0.5363019704818726,-3.806600332260132,2
618,-0.3088749945163727,-16.206296920776367,4.764292240142822,-1.2345776557922363,-0.6428540945053101,-3.74184250831604,2
619,15.070630073547363,-11.049043655395508,3.2510485649108887,-0.9749918580055237,-0.4014984965324402,-3.6681272983551025,2
620,22.47731590270996,-9.691198348999023,1.9091476202011108,-1.002379059791565,-0.2246168702840805,-3.6378238201141357,2
621,20.714405059814453,-11.569826126098633,-0.0017964642029255629,-0.7193242311477661,0.1314070075750351,-3.611006498336792,2
622,10.556790351867676,-15.804732322692871,-0.025400051847100258,-0.535496711730957,0.12541325390338898,-3.648913860321045,2
623,0.9239029884338379,-16.087804794311523,-0.4268345236778259,-0.1721145063638687,0.10346601903438568,-3.673173189163208,2
624,-7.465681076049805,-7.28896951675415,-1.587977647781372,-0.04866296425461769,0.014886424876749516,-3.692648410797119,2
625,-8.98332691192627,0.5938397645950317,-3.4721386432647705,-0.48064565658569336,0.002622694941237569,-3.7004950046539307,2
626,-4.492435455322266,-0.3288683593273163,-4.287952899932861,-0.42695724964141846,-0.04199516400694847,-3.735323905944824,2
627,0.05939521640539169,-3.192276954650879,-6.182827949523926,-0.40976643562316895,0.004305902868509293,-3.777165174484253,2
628,4.439038276672363,-0.7410351037979126,-6.454355716705322,-0.262814462184906,0.10367706418037415,-3.8244242668151855,2
629,7.870242118835449,6.7696332931518555,-6.369419097900391,-0.29337024688720703,0.1767367720603943,-3.8835928440093994,2
630,12.891605377197266,14.235422134399414,-5.9123125076293945,-0.34129568934440613,0.2536452114582062,-3.946779251098633,2
631,17.08601188659668,16.040233612060547,-5.811333656311035,-0.47749924659729004,0.3269481062889099,-4.008139133453369,2
632,20.13074493408203,14.315299987792969,-4.257974624633789,-0.6275151371955872,0.63280189037323,-4.049245357513428,2
633,24.37519645690918,8.965657234191895,-2.6351892948150635,-0.7454816102981567,0.7137857675552368,-4.096949577331543,2
634,24.375383377075195,0.5608901977539062,-1.4716967344284058,-1.0422887802124023,0.9621708393096924,-4.125581741333008,2
635,22.93442726135254,-5.195283889770508,-1.033611536026001,-0.9073510766029358,1.324759602546692,-4.120708465576172,2
636,17.465322494506836,-11.387601852416992,-0.5288332104682922,-0.7878348231315613,1.4213616847991943,-4.137825965881348,2
637,10.72763442993164,-16.703201293945312,-0.6098318696022034,-0.7364994287490845,1.5589042901992798,-4.155405044555664,2
638,3.151970386505127,-22.806808471679688,0.3186887800693512,-0.4424874186515808,1.5942482948303223,-4.157296657562256,2
639,-6.582168102264404,-22.20065689086914,1.9357830286026,-0.03246062994003296,1.6879152059555054,-4.122574329376221,2
640,-16.676063537597656,-11.348332405090332,3.811539649963379,-0.09703916311264038,1.5455325841903687,-4.138792514801025,2
641,-23.69833755493164,-2.88814115524292,3.9172732830047607,-0.1286962628364563,1.1903811693191528,-4.1243977546691895,2
642,-27.062313079833984,4.134076118469238,4.093358039855957,-0.12702664732933044,0.968079686164856,-4.078163146972656,2
643,-27.950693130493164,11.113693237304688,4.957150459289551,-0.1385297030210495,0.5492746829986572,-4.029580593109131,2
644,-25.196882247924805,13.926947593688965,6.30750036239624,-0.28149786591529846,0.23186756670475006,-3.9791855812072754,2
645,-15.55202865600586,12.158452987670898,6.3814496994018555,-0.37778279185295105,0.0491507314145565,-3.9071929454803467,2
646,4.101515769958496,1.9214651584625244,6.958042621612549,-0.4497309923171997,0.09754276275634766,-3.834930419921875,2
647,20.764785766601562,-9.59746265411377,7.753043174743652,-0.2639155983924866,0.20884527266025543,-3.739551067352295,2
648,35.071529388427734,-24.033971786499023,7.402879238128662,-0.06710749864578247,0.646624743938446,-3.6482882499694824,2
649,37.967254638671875,-34.181949615478516,9.477020263671875,0.5609895586967468,1.0051497220993042,-3.5190112590789795,2
650,33.82545471191406,-36.096736907958984,9.932123184204102,0.6500803232192993,1.4272798299789429,-3.4684977531433105,2
651,17.519420623779297,-21.953601837158203,12.603575706481934,0.861417829990387,1.6650606393814087,-3.382580280303955,2
652,-1.4027891159057617,-6.087996006011963,12.894455909729004,1.087357521057129,1.6784268617630005,-3.2409377098083496,2
653,-18.92753791809082,8.511941909790039,12.451138496398926,1.1328970193862915,1.6020748615264893,-3.10528564453125,2
654,-27.097501754760742,19.929283142089844,13.07435417175293,0.8078490495681763,1.1698123216629028,-2.991701126098633,2
655,-29.022674560546875,17.070205688476562,14.122350692749023,0.6657788753509521,0.9532591700553894,-2.8499369621276855,2
656,-23.325050354003906,12.47076416015625,14.347887992858887,0.5457908511161804,0.6488475799560547,-2.6964519023895264,2
657,-12.861719131469727,6.627058506011963,14.449373245239258,0.4911805987358093,0.4841584265232086,-2.5438456535339355,2
658,2.5476670265197754,-6.060628890991211,14.970422744750977,0.5804869532585144,0.385245144367218,-2.3740313053131104,2
659,13.122560501098633,-16.213275909423828,16.684120178222656,0.8867524266242981,0.6459557414054871,-2.210031509399414,2
660,17.515024185180664,-15.013426780700684,16.74973487854004,1.1992429494857788,0.9269142746925354,-2.0373947620391846,2
661,17.467729568481445,-7.233297348022461,17.95958709716797,0.7884984016418457,0.8762373328208923,-1.9171650409698486,2
662,12.4315185546875,-2.83301043510437,17.839221954345703,0.7680582404136658,0.8601574897766113,-1.7214347124099731,2
663,8.580334663391113,-3.2568864822387695,18.01333999633789,0.8984156250953674,1.0640497207641602,-1.5434393882751465,2
664,7.230023384094238,-10.365015029907227,18.02061653137207,0.9340665340423584,1.1450550556182861,-1.3662852048873901,2
665,5.918308258056641,-16.7174072265625,19.308801651000977,1.261752963066101,1.2803455591201782,-1.1661747694015503,2
666,4.2658820152282715,-13.831888198852539,20.307918548583984,1.4447277784347534,1.165838360786438,-0.9348258376121521,2
667,0.706466555595398,-4.349883079528809,20.16187858581543,1.6701686382293701,1.2322027683258057,-0.7250599265098572,2
668,-0.35371896624565125,1.433032512664795,20.51708221435547,1.5919291973114014,1.3157267570495605,-0.5590768456459045,2
669,-1.4850401878356934,4.872849941253662,21.16223907470703,1.6102745532989502,1.2422147989273071,-0.3295792043209076,2
670,0.30204448103904724,2.8107693195343018,20.9645938873291,1.5889116525650024,1.3229470252990723,-0.13533106446266174,2
671,7.457359313964844,0.8097980618476868,21.649961471557617,1.4828003644943237,1.2551250457763672,0.08652763068675995,2
672,10.784297943115234,1.9181599617004395,21.326688766479492,1.5102510452270508,1.0641288757324219,0.3867659866809845,2
673,11.872922897338867,0.6200563311576843,20.434484481811523,1.4740450382232666,1.0709452629089355,0.6233187913894653,2
674,13.199440956115723,3.0616776943206787,20.488147735595703,1.4240418672561646,1.3210904598236084,0.7861316800117493,2
675,13.227518081665039,9.763120651245117,21.401275634765625,1.4508558511734009,1.4280575513839722,1.0145899057388306,2
676,12.526712417602539,19.09461784362793,21.548019409179688,1.2633453607559204,1.6694406270980835,1.19122314453125,2
677,13.538360595703125,20.060087203979492,22.581876754760742,0.9650673866271973,1.826103925704956,1.393105149269104,2
678,14.702990531921387,14.816085815429688,22.382593154907227,0.8175171613693237,2.0677130222320557,1.602658987045288,2
679,16.790821075439453,12.329689025878906,20.703054428100586,0.7263249158859253,2.2593390941619873,1.8239916563034058,2
680,15.111023902893066,5.7339186668396,18.948528289794922,0.6356907486915588,2.5270936489105225,2.006072521209717,2
681,8.391316413879395,-0.061732396483421326,17.78778076171875,0.7993033528327942,2.1559677124023438,2.3689045906066895,2
682,-1.1467621326446533,-2.701500415802002,15.361297607421875,0.7925766706466675,2.164642810821533,2.5453109741210938,2
683,-7.323300838470459,1.1528385877609253,12.92646598815918,0.8623688220977783,2.111628532409668,2.7038381099700928,2
684,-6.145917892456055,4.990135192871094,10.417134284973145,0.840537428855896,2.0174169540405273,2.8332324028015137,2
685,-1.2124872207641602,7.589698791503906,7.815775394439697,0.7633349895477295,2.0436289310455322,2.9098470211029053,2
686,5.280762672424316,14.121827125549316,5.65543270111084,0.6775639057159424,2.091262102127075,2.9783999919891357,2
687,7.845926284790039,20.873376846313477,4.74793004989624,0.4129577577114105,2.215925931930542,3.00115966796875,2
688,5.133782386779785,20.73041343688965,3.566358804702759,0.18152379989624023,2.1914186477661133,3.0675058364868164,2
689,0.029312927275896072,16.3206844329834,2.0408174991607666,-0.01608741655945778,2.2424685955047607,3.1028847694396973,2
690,-3.9252185821533203,6.54440975189209,0.4597721993923187,-0.05353628844022751,2.2778000831604004,3.144343852996826,2
691,-9.362556457519531,-10.560644149780273,-1.7654683589935303,0.017374509945511818,2.099663496017456,3.176729679107666,2
692,-14.597078323364258,-14.805158615112305,-3.08184814453125,0.2593545913696289,1.9691513776779175,3.1801598072052,2
693,-14.165804862976074,-1.7298401594161987,-3.658111572265625,0.4272584021091461,2.0002329349517822,3.1334447860717773,2
694,-8.565559387207031,14.485860824584961,-4.068353652954102,0.24048975110054016,1.7975268363952637,3.071500539779663,2
695,-3.453892707824707,23.38434410095215,-4.372783184051514,-0.07264159619808197,1.769518256187439,2.999466896057129,2
696,-0.48382019996643066,33.22719192504883,-4.988429546356201,-0.35748371481895447,1.7344138622283936,2.957860231399536,2
697,-0.34744536876678467,40.07929992675781,-6.27021598815918,-0.8677514791488647,1.782749891281128,2.8727364540100098,2
698,-4.2544145584106445,36.73643112182617,-7.215972900390625,-1.4864078760147095,1.7203797101974487,2.768873691558838,2
699,-12.280572891235352,26.839073181152344,-6.842036247253418,-1.7616214752197266,1.8305602073669434,2.7207155227661133,2
700,-17.42783546447754,12.871715545654297,-6.225555896759033,-1.828169822692871,1.8966102600097656,2.7017934322357178,2
701,-17.999465942382812,-1.2545619010925293,-5.405442237854004,-1.8928732872009277,1.8277467489242554,2.655597448348999,2
702,-17.212059020996094,-15.213737487792969,-4.318793296813965,-1.7169736623764038,1.4750587940216064,2.6168081760406494,2
703,-14.044910430908203,-18.402671813964844,-3.0416152477264404,-1.384591817855835,1.3002691268920898,2.6089296340942383,2
704,-5.433394432067871,-16.222925186157227,-2.37679123878479,-1.2102822065353394,1.0771737098693848,2.5646982192993164,2
705,6.6357598304748535,-13.574342727661133,-2.775416135787964,-1.0160349607467651,1.177790880203247,2.5597779750823975,2
706,15.870667457580566,-3.9730429649353027,-3.9258248805999756,-0.9938399791717529,1.3023515939712524,2.5173540115356445,2
707,16.142667770385742,10.966596603393555,-6.744543075561523,-1.0303477048873901,1.518261194229126,2.4704396724700928,2
708,6.494562149047852,19.54638671875,-12.29178237915039,-1.2361876964569092,1.5741915702819824,2.3653571605682373,2
709,-0.23518794775009155,21.301729202270508,-16.18181610107422,-1.5324904918670654,1.6299875974655151,2.2231826782226562,2
710,-11.553118705749512,18.82711410522461,-18.075599670410156,-1.7409861087799072,1.5243998765945435,2.049659013748169,2
711,-22.558486938476562,12.35538387298584,-19.59710693359375,-1.9702268838882446,1.2562477588653564,1.8366395235061646,2
712,-32.37161636352539,-4.57219123840332,-19.535686492919922,-1.908240556716919,1.0823312997817993,1.6800135374069214,2
713,-35.08639144897461,-17.382095336914062,-20.785964965820312,-1.6865034103393555,0.6100323796272278,1.4690059423446655,2
714,-37.61316680908203,-22.498451232910156,-23.111188888549805,-1.586002230644226,0.4460422992706299,1.2868118286132812,2
715,-39.19756317138672,-20.89547348022461,-26.583236694335938,-1.1792151927947998,0.02792193740606308,1.0555100440979004,2
716,-37.47820281982422,-15.233113288879395,-26.235631942749023,-0.983221173286438,-0.46358758211135864,0.7636427879333496,2
717,-33.376346588134766,-12.664254188537598,-24.921207427978516,-0.8429577946662903,-0.7703019976615906,0.5209755897521973,2
718,-27.378673553466797,-4.437347888946533,-23.46442413330078,-0.6403824687004089,-1.2582573890686035,0.2393227219581604,2
719,-24.305248260498047,3.812105417251587,-22.324867248535156,-0.7936000227928162,-1.4476656913757324,0.022788170725107193,2
720,-27.272058486938477,11.11755084991455,-20.157024383544922,-0.9023085236549377,-1.5026274919509888,-0.15411607921123505,2
721,-29.4351749420166,9.336275100708008,-16.532955169677734,-1.01132071018219,-1.7788447141647339,-0.3422468304634094,2
722,-23.81186866760254,8.765127182006836,-12.863737106323242,-1.0982805490493774,-2.1357421875,-0.518726646900177,2
723,-22.541889190673828,5.473691463470459,-9.201424598693848,-1.22247314453125,-2.2324063777923584,-0.6009731292724609,2
724,-17.543956756591797,-1.3882853984832764,-6.2167792320251465,-1.3970355987548828,-2.560044765472412,-0.6833627223968506,2
725,-13.672708511352539,-10.007542610168457,-3.981135845184326,-1.1887164115905762,-2.537167549133301,-0.7294378280639648,2
726,-8.90461254119873,-21.313676834106445,-1.7172222137451172,-0.9211723804473877,-2.5775349140167236,-0.765868604183197,2
727,-7.438319206237793,-27.410078048706055,-0.03745720162987709,-0.524874210357666,-2.775808811187744,-0.8323501944541931,2
728,-8.687847137451172,-33.8492317199707,0.6181719899177551,-0.3316238820552826,-2.9565062522888184,-0.8050541877746582,2
729,-9.527619361877441,-32.02908706665039,1.6468764543533325,0.13254331052303314,-3.1633477210998535,-0.8386123180389404,2
730,-7.516029357910156,-22.200220108032227,2.3871216773986816,0.2260349839925766,-3.1900827884674072,-0.7213060855865479,2
731,-0.8795180320739746,-5.142002582550049,3.186631917953491,0.45876771211624146,-3.290997266769409,-0.7149587273597717,2
732,6.645981311798096,9.649712562561035,3.335393190383911,0.3752986788749695,-3.1999118328094482,-0.6448366045951843,2
733,12.100443840026855,26.991405487060547,3.0985002517700195,0.07870804518461227,-3.068368673324585,-0.5670410394668579,2
734,15.761567115783691,31.248044967651367,3.0123214721679688,-0.18431580066680908,-2.8805370330810547,-0.5577576756477356,2
735,20.919801712036133,27.78821563720703,4.383814334869385,-0.522384762763977,-2.6792991161346436,-0.5148192644119263,2
736,21.558578491210938,21.88509750366211,6.532172679901123,-0.7981595396995544,-2.589359760284424,-0.4783725440502167,2
737,20.04732322692871,9.03386402130127,8.000960350036621,-0.9979190826416016,-2.341221570968628,-0.4091479182243347,2
738,15.423742294311523,-6.400307655334473,9.287210464477539,-0.842837929725647,-2.1368465423583984,-0.4229516088962555,2
739,-0.671799898147583,-33.25952911376953,12.098258018493652,-0.26962748169898987,-1.9193308353424072,-0.30614200234413147,2
740,-6.699398517608643,-43.540794372558594,13.19223403930664,0.130715474486351,-2.0684876441955566,-0.19268348813056946,2
741,-8.26341438293457,-40.97534942626953,13.098873138427734,0.7701636552810669,-2.194016218185425,-0.15974946320056915,2
742,-9.048011779785156,-30.024003982543945,13.486384391784668,0.8801001310348511,-2.3393139839172363,0.12315575778484344,2
743,-6.966501712799072,-2.8092377185821533,12.406926155090332,0.8910645842552185,-2.4828784465789795,0.3656516373157501,2
744,-0.21463239192962646,19.085634231567383,11.237432479858398,0.7988530397415161,-2.546710252761841,0.5033581256866455,2
745,8.387362480163574,34.73063278198242,11.171096801757812,0.4291006624698639,-2.5460357666015625,0.6717926263809204,2
746,21.440176010131836,38.734737396240234,11.461935043334961,0.10280734300613403,-2.362844944000244,0.740242600440979,2
747,32.770904541015625,24.82472038269043,12.155501365661621,-0.19764365255832672,-2.038797378540039,0.8159663081169128,2
748,38.328163146972656,7.269863605499268,14.237281799316406,-0.3910253345966339,-1.6475636959075928,0.9370659589767456,2
749,38.12513732910156,-9.318251609802246,15.827119827270508,-0.33562564849853516,-1.2935500144958496,1.0387682914733887,2
750,31.5091552734375,-20.20714569091797,17.682024002075195,-0.040442224591970444,-0.9065340161323547,1.1235010623931885,2
751,22.881290435791016,-26.814634323120117,17.67047691345215,0.23857884109020233,-0.8005318641662598,1.2816873788833618,2
752,14.769660949707031,-27.947839736938477,17.342052459716797,0.5163733959197998,-0.6098331809043884,1.459431529045105,2
753,10.960881233215332,-21.393508911132812,16.915258407592773,0.8941131830215454,-0.440870076417923,1.5839080810546875,2
754,7.018616676330566,-3.769524097442627,15.591064453125,0.9967305064201355,-0.4151933789253235,1.7765570878982544,2
755,7.485788822174072,9.536789894104004,14.552457809448242,0.8905616998672485,-0.3455173075199127,1.9649571180343628,2
756,8.848196983337402,20.535423278808594,13.345096588134766,0.6788064241409302,-0.4665434658527374,2.1530683040618896,2
757,13.196763038635254,33.9759521484375,12.155301094055176,0.39318639039993286,-0.3156183362007141,2.2877249717712402,2
758,19.816753387451172,36.42095184326172,11.083344459533691,-0.02953912317752838,-0.14540380239486694,2.421252727508545,2
759,26.791093826293945,34.55965805053711,11.117470741271973,-0.47794321179389954,-0.1401430070400238,2.581040143966675,2
760,32.222679138183594,26.868947982788086,10.273431777954102,-0.8092020750045776,0.34763383865356445,2.683286190032959,2
761,36.6080322265625,16.481706619262695,10.404117584228516,-0.8880817890167236,0.5944954752922058,2.7500362396240234,2
762,41.68380355834961,4.138579845428467,10.020835876464844,-0.9125799536705017,1.0099656581878662,2.834864377975464,2
763,39.437408447265625,-7.872437477111816,8.913728713989258,-0.835065484046936,1.5743414163589478,2.913984775543213,2
764,37.60824203491211,-11.642117500305176,6.965435028076172,-0.7564877271652222,1.818043828010559,2.998323917388916,2
765,33.37541580200195,-9.851075172424316,4.160521030426025,-0.5718710422515869,2.230111598968506,3.0457210540771484,2
766,24.668912887573242,-13.1644868850708,-0.3976466953754425,-0.5143969655036926,2.4529383182525635,3.0722930431365967,2
767,18.308828353881836,-13.880746841430664,-4.886538982391357,-0.37305736541748047,2.8494839668273926,3.046161651611328,2
768,11.710378646850586,-10.627655029296875,-7.150460243225098,-0.1649361401796341,3.044642925262451,2.983145236968994,2
769,-0.9893234372138977,0.47954508662223816,-10.122974395751953,-0.10548289120197296,3.1432931423187256,2.8964030742645264,2
770,-18.331539154052734,22.363550186157227,-15.555866241455078,-0.2698923349380493,2.9895405769348145,2.7742063999176025,2
771,-31.300905227661133,41.500732421875,-21.075176239013672,-0.7404348254203796,2.6731364727020264,2.5840859413146973,2
772,-34.77714538574219,52.02923583984375,-23.732667922973633,-1.236872911453247,2.425145387649536,2.3822717666625977,2
773,-28.47587013244629,54.36119079589844,-25.641998291015625,-1.90819251537323,1.9653240442276,2.124044179916382,2
774,-12.050541877746582,41.958065032958984,-26.953523635864258,-2.5040831565856934,1.842259407043457,1.8708469867706299,2
775,11.305449485778809,19.702213287353516,-27.720558166503906,-2.775756359100342,1.908006191253662,1.6434588432312012,2
776,26.94046401977539,-0.808831512928009,-29.94507598876953,-2.8036320209503174,2.200106382369995,1.4198873043060303,2
777,30.93402862548828,-23.637378692626953,-31.207359313964844,-2.5561747550964355,2.4580845832824707,1.1605679988861084,2
778,16.175777435302734,-39.367576599121094,-31.60446548461914,-2.2740678787231445,2.765542507171631,0.8419203162193298,2
779,-11.343086242675781,-42.77084732055664,-32.868099212646484,-1.8958253860473633,2.861480712890625,0.5013048052787781,2
780,-51.54323959350586,-27.70551109313965,-33.64519119262695,-1.2518017292022705,2.3719587326049805,0.18930253386497498,2
781,-84.0073013305664,-6.812020778656006,-32.58771514892578,-1.6115972995758057,1.9834123849868774,-0.3008643388748169,2
782,-90.43147277832031,2.3095901012420654,-31.240449905395508,-1.618909478187561,0.904880702495575,-0.6916158199310303,2
783,-75.3731460571289,5.294541835784912,-29.85163116455078,-1.582189917564392,0.27315014600753784,-0.9174421429634094,2
784,-43.558040618896484,1.9383792877197266,-29.60768699645996,-1.6198270320892334,-0.47839081287384033,-1.2346421480178833,2
785,18.39577293395996,-3.686272144317627,-29.348779678344727,-1.857774019241333,-0.626812756061554,-1.8506710529327393,2
786,27.657699584960938,-11.809183120727539,-28.154844284057617,-1.794029712677002,-0.3088282346725464,-2.115419387817383,2
787,23.68891716003418,-21.08480453491211,-24.315027236938477,-1.447880744934082,-0.02483277954161167,-2.33718204498291,2
788,11.492364883422852,-28.62873077392578,-23.648557662963867,-1.2866156101226807,0.21817529201507568,-2.578510046005249,2
789,-1.3556201457977295,-26.102619171142578,-23.07181739807129,-1.1556657552719116,0.2529594600200653,-2.848464012145996,2
790,-23.245670318603516,-28.631046295166016,-22.086519241333008,-0.7669575214385986,-0.017744336277246475,-3.1079578399658203,2
791,-44.25614929199219,-37.969120025634766,-20.88809585571289,-0.23268496990203857,-0.4052542746067047,-3.3152832984924316,2
792,-53.31089401245117,-40.572242736816406,-20.840778350830078,-0.056274719536304474,-1.030635952949524,-3.5759267807006836,2
793,-54.74922180175781,-40.39122772216797,-22.19756507873535,0.3377423584461212,-1.467435359954834,-3.7635910511016846,2
794,-52.19608688354492,-36.043663024902344,-23.802595138549805,0.9005182385444641,-2.0947794914245605,-3.9804766178131104,2
795,-39.29880142211914,-20.160322189331055,-22.622657775878906,1.0000886917114258,-2.2958297729492188,-4.177917003631592,2
796,-19.452472686767578,-6.695537567138672,-21.21653938293457,1.1730457544326782,-2.7363412380218506,-4.405860900878906,2
797,8.908073425292969,0.8613452911376953,-18.76782989501953,1.2517342567443848,-2.7581896781921387,-4.607742786407471,2
798,25.535621643066406,-0.5020185112953186,-17.316917419433594,1.312363624572754,-2.5095443725585938,-4.794516563415527,2
799,35.11741256713867,-5.366846084594727,-14.533418655395508,1.4912006855010986,-2.093787908554077,-4.98012638092041,2
800,34.41285705566406,-11.040083885192871,-11.536070823669434,1.5359442234039307,-1.6910438537597656,-5.110548973083496,2
801,29.694942474365234,-3.172089099884033,-7.69543981552124,1.3413339853286743,-1.326367974281311,-5.158274173736572,2
802,20.013134002685547,-0.6655508279800415,-6.483749866485596,1.4489080905914307,-1.0987052917480469,-5.241155624389648,2
803,5.671339511871338,-8.17518138885498,-5.466609477996826,1.482149362564087,-1.056666374206543,-5.2865681648254395,2
804,1.106858491897583,-3.179072856903076,-3.192884922027588,1.5975979566574097,-1.0333728790283203,-5.340902328491211,2
805,-8.313223838806152,-1.814810872077942,-1.157949686050415,1.6343921422958374,-1.1220290660858154,-5.3534016609191895,2
806,-11.7970609664917,-7.977470874786377,1.578113079071045,1.8074082136154175,-1.2329195737838745,-5.386889457702637,2
807,-4.422205448150635,-16.81393814086914,2.774944305419922,1.8334864377975464,-1.3795537948608398,-5.3371992111206055,2
808,4.899245262145996,-26.669322967529297,4.85468053817749,2.2934517860412598,-1.329726219177246,-5.369446754455566,2
809,15.758146286010742,-35.650306701660156,8.237542152404785,2.4609436988830566,-1.1662458181381226,-5.2927751541137695,2
810,25.6189022064209,-30.2537841796875,11.009662628173828,2.8731515407562256,-0.8332799077033997,-5.251621723175049,2
811,24.141897201538086,-18.901208877563477,13.312556266784668,3.14040470123291,-0.8003944158554077,-5.054981708526611,2
812,20.456745147705078,11.700828552246094,16.292749404907227,3.0894391536712646,-0.5214077234268188,-4.895427703857422,2
813,11.170645713806152,24.061391830444336,15.74346923828125,2.869544744491577,-0.4939667880535126,-4.666422367095947,2
814,1.2013932466506958,35.54612731933594,15.053378105163574,2.5807809829711914,-0.3752453923225403,-4.524317264556885,2
815,-3.2056353092193604,51.66946029663086,15.415959358215332,2.04626727104187,-0.3964053690433502,-4.346799373626709,2
816,-7.371479034423828,56.98689651489258,15.213987350463867,1.4482029676437378,-0.3630012273788452,-4.222247123718262,2
817,-10.428023338317871,41.52928924560547,15.407247543334961,1.0215957164764404,-0.5968883633613586,-4.02353572845459,2
818,-10.872169494628906,18.394529342651367,15.579527854919434,0.6823381185531616,-0.7578935027122498,-3.844254732131958,2
819,-5.340684413909912,4.716233253479004,15.102368354797363,0.5252596735954285,-0.871635377407074,-3.6821377277374268,2
820,6.429258823394775,3.5830979347229004,14.86269474029541,0.48249831795692444,-0.7738741636276245,-3.573888063430786,2
821,14.245155334472656,5.984868049621582,14.522943496704102,0.43090498447418213,-0.6162900924682617,-3.452493667602539,2
822,14.934144973754883,8.035345077514648,14.046701431274414,0.37140583992004395,-0.3895002007484436,-3.3379642963409424,2
823,12.880205154418945,17.195878982543945,13.967893600463867,0.34872162342071533,-0.37633708119392395,-3.169905662536621,2
824,8.279525756835938,16.25232696533203,14.110899925231934,0.08359497785568237,-0.5472500324249268,-2.9320735931396484,2
825,2.6102452278137207,5.250555038452148,14.97819995880127,-0.14403259754180908,-0.5112937092781067,-2.7713582515716553,2
826,0.2950955629348755,-2.76491641998291,16.805831909179688,-0.162152960896492,-0.466006875038147,-2.6305501461029053,2
827,0.003596157766878605,-4.678761005401611,17.785606384277344,-0.0691291019320488,-0.5249823927879333,-2.459681749343872,2
828,2.802150011062622,-0.37776151299476624,17.641489028930664,-0.045811284333467484,-0.49289992451667786,-2.293562889099121,2
829,7.687001705169678,1.7858015298843384,17.553579330444336,-0.021291613578796387,-0.4576224386692047,-2.1177523136138916,2
830,11.098264694213867,0.8191812634468079,15.2512788772583,-0.11134754866361618,-0.4358556270599365,-1.928104281425476,2
831,17.123973846435547,-1.1454126834869385,13.721535682678223,-0.011509845033288002,-0.19134661555290222,-1.8091322183609009,2
832,24.010486602783203,-1.6112103462219238,12.688492774963379,0.10810790956020355,0.17338316142559052,-1.7081352472305298,2
833,34.464332580566406,4.651113510131836,10.969322204589844,0.08037737011909485,0.389269083738327,-1.5766665935516357,2
834,31.010379791259766,14.4290132522583,9.701935768127441,0.016385545954108238,0.7380695343017578,-1.4664801359176636,2
835,17.75693130493164,24.14727020263672,7.906581401824951,-0.2861475348472595,0.9371398687362671,-1.354436993598938,2
836,4.954540252685547,32.84052658081055,6.849037170410156,-0.5913615822792053,1.1320918798446655,-1.2761112451553345,2
837,-9.519412994384766,35.63490295410156,7.07053804397583,-1.0120275020599365,1.1097404956817627,-1.1951632499694824,2
838,-17.957406997680664,25.389144897460938,5.049695014953613,-1.320046305656433,0.8132945895195007,-1.1166377067565918,2
839,-16.119596481323242,11.382268905639648,3.2507431507110596,-1.5761616230010986,0.6197417974472046,-1.06938636302948,2
840,-8.481329917907715,-2.1102852821350098,2.6041903495788574,-1.5895133018493652,0.5916242599487305,-1.0352319478988647,2
841,-1.3755848407745361,-16.02703094482422,2.8888378143310547,-1.380996584892273,0.5277882814407349,-1.0013381242752075,2
842,5.772714138031006,-28.609113693237305,2.8288235664367676,-1.0680372714996338,0.5891158580780029,-0.9651820659637451,2
843,11.160614967346191,-26.535789489746094,2.2335023880004883,-0.7467629313468933,0.7466272711753845,-0.9337309002876282,2
844,11.857803344726562,-22.402053833007812,0.2869563102722168,-0.5783480405807495,0.8614929914474487,-0.9264416694641113,2
845,6.9572672843933105,-18.854413986206055,-0.46521854400634766,-0.15882445871829987,1.0347570180892944,-0.908420979976654,2
846,-7.998286247253418,-16.912565231323242,-0.2638109624385834,-0.030847346410155296,1.0171339511871338,-0.9245849251747131,2
847,-19.216230392456055,-19.447542190551758,-0.03620300441980362,0.11540587246417999,0.7895841002464294,-0.942876935005188,2
848,-26.4604434967041,-20.84682846069336,-0.2785361707210541,0.15393184125423431,0.5538668632507324,-0.9680631756782532,2
849,-26.009082794189453,-26.344743728637695,0.34109023213386536,0.45020195841789246,0.18218904733657837,-0.9698724150657654,2
850,-18.283761978149414,-26.19745635986328,1.7804629802703857,0.6680445075035095,0.04691068455576897,-0.963619589805603,2
851,-8.905526161193848,-15.434264183044434,3.207709312438965,1.074585199356079,-0.10963497310876846,-0.9212126135826111,2
852,0.2622782289981842,-0.2373470962047577,5.80419397354126,0.9669309258460999,-0.182300865650177,-0.9036338925361633,2
853,6.153228282928467,7.35429573059082,8.660479545593262,0.7475382089614868,-0.050549983978271484,-0.8553063869476318,2
854,6.163610935211182,7.092187404632568,11.234251022338867,0.6824167966842651,0.05043627694249153,-0.756328284740448,2
855,4.818356513977051,-0.6548479795455933,13.237784385681152,0.6873536109924316,0.1364813596010208,-0.6319151520729065,2
856,2.8725571632385254,-10.379908561706543,15.374920845031738,0.8393250703811646,0.26042303442955017,-0.4855540692806244,2
857,1.4898322820663452,-16.101102828979492,17.87165069580078,0.8582615852355957,0.27328234910964966,-0.33399900794029236,2
858,0.28633078932762146,-7.69256067276001,19.430564880371094,1.0661897659301758,0.26187193393707275,-0.142699733376503,2
859,1.1851134300231934,4.603728294372559,19.600048065185547,1.1629256010055542,0.17934663593769073,0.0659901574254036,2
860,6.055325508117676,25.091875076293945,17.532690048217773,0.9087275862693787,0.226958766579628,0.24388355016708374,2
861,10.447595596313477,40.131404876708984,16.028945922851562,0.4400879144668579,0.42070475220680237,0.39164966344833374,2
862,10.950739860534668,49.576080322265625,15.309983253479004,-0.15311464667320251,0.5729858875274658,0.5348427891731262,2
863,8.552895545959473,49.15845489501953,14.82081127166748,-0.6739556789398193,0.698520839214325,0.688300371170044,2
864,5.005459308624268,42.898681640625,14.869085311889648,-1.1796177625656128,0.7745190858840942,0.8372399806976318,2
865,-1.7435238361358643,34.045631408691406,14.55207347869873,-1.5931727886199951,0.702119767665863,0.9932845830917358,2
866,-7.427450180053711,27.597288131713867,11.921157836914062,-1.9931957721710205,0.5954033732414246,1.1217913627624512,2
867,-9.63747787475586,11.167437553405762,8.30126667022705,-2.008322238922119,0.5001629590988159,1.2483536005020142,2
868,-6.802038192749023,-13.583806991577148,2.6486880779266357,-1.847833275794983,0.4144001305103302,1.328298568725586,2
869,-4.920405864715576,-33.16287612915039,-1.5360137224197388,-1.346127986907959,0.44306033849716187,1.3737304210662842,2
870,0.043906815350055695,-42.038673400878906,-6.784113883972168,-1.1960747241973877,0.5466607213020325,1.3208093643188477,2
871,6.7459869384765625,-46.632667541503906,-10.55584716796875,-0.43724367022514343,0.5856627821922302,1.2610360383987427,2
872,8.733830451965332,-50.41552734375,-13.519399642944336,-0.2088693529367447,0.6784527897834778,1.112485408782959,2
873,8.016565322875977,-46.81728744506836,-14.098819732666016,0.39021721482276917,0.7865369319915771,0.9802846908569336,2
874,-2.4282422065734863,-32.15567398071289,-15.048742294311523,0.6672549247741699,0.773851752281189,0.8103433847427368,2
875,-16.857006072998047,-12.624678611755371,-20.30827522277832,1.0227046012878418,0.4428529441356659,0.45489269495010376,2
876,-21.295780181884766,-12.786970138549805,-22.863603591918945,1.1621272563934326,0.23830443620681763,0.23743216693401337,2
877,-21.04155731201172,-18.167659759521484,-24.283536911010742,1.4990578889846802,0.14092959463596344,0.025676734745502472,2
878,-14.560807228088379,-16.98658561706543,-24.888700485229492,1.5805935859680176,-0.10790075361728668,-0.23201724886894226,2
879,-6.927016735076904,-17.787822723388672,-26.663850784301758,1.5798128843307495,-0.08517086505889893,-0.5099459886550903,2
880,-7.586944103240967,-18.141563415527344,-28.012189865112305,1.615431547164917,-0.09075473994016647,-0.7996611595153809,2
881,-13.48686695098877,-21.303869247436523,-27.72014808654785,2.025529623031616,-0.3009854853153229,-1.0506561994552612,2
882,-24.134153366088867,-18.030031204223633,-26.922443389892578,2.15675950050354,-0.3633562922477722,-1.3432161808013916,2
883,-40.76193618774414,-7.463366508483887,-26.55389404296875,2.0179500579833984,-0.811939537525177,-1.6039828062057495,2
884,-54.0404167175293,5.55776309967041,-25.16351318359375,2.1214816570281982,-1.2103371620178223,-1.8737447261810303,2
885,-57.876373291015625,19.465930938720703,-22.415597915649414,1.9173197746276855,-1.945094108581543,-2.0887610912323,2
886,-52.51187515258789,27.62941551208496,-20.737445831298828,1.6367031335830688,-2.421096086502075,-2.3294129371643066,2
887,-39.97918701171875,28.411888122558594,-19.86496925354004,1.26580810546875,-2.912952423095703,-2.5399856567382812,2
888,-15.689464569091797,18.24870491027832,-16.596607208251953,0.9597259163856506,-3.370222806930542,-2.7084388732910156,2
889,10.469874382019043,8.83626937866211,-15.856289863586426,0.8699516654014587,-3.120271921157837,-2.9487671852111816,2
890,34.791805267333984,10.226458549499512,-16.273759841918945,0.9372426867485046,-2.9117724895477295,-3.1393518447875977,2
891,53.04093933105469,1.5231353044509888,-17.66255760192871,0.9156678318977356,-2.274247646331787,-3.3680009841918945,2
892,59.830631256103516,-4.162138938903809,-18.731365203857422,0.8123349547386169,-1.6506785154342651,-3.5372328758239746,2
893,48.122901916503906,-7.694999694824219,-19.272268295288086,0.9958574175834656,-1.199859619140625,-3.7315621376037598,2
894,25.473831176757812,-6.4165215492248535,-18.583148956298828,1.0634572505950928,-0.6872196793556213,-3.9404256343841553,2
895,-6.321709632873535,-2.8323819637298584,-16.741138458251953,1.0557671785354614,-0.7667803168296814,-4.059727668762207,2
896,-34.92879867553711,-3.463214159011841,-14.937494277954102,1.174280047416687,-1.058922529220581,-4.213850498199463,2
897,-54.98090744018555,-8.253178596496582,-13.947504997253418,1.2652935981750488,-1.3866995573043823,-4.389841079711914,2
898,-60.622589111328125,-12.251042366027832,-12.792221069335938,1.4932445287704468,-2.2814223766326904,-4.484009742736816,2
899,-55.25259780883789,-13.28309154510498,-10.835160255432129,1.2739025354385376,-2.8535828590393066,-4.524007797241211,2
900,-41.227821350097656,-12.724207878112793,-7.592898368835449,1.4439198970794678,-3.3299803733825684,-4.628017425537109,2
901,-17.992700576782227,-10.4627046585083,-1.7620408535003662,1.5955218076705933,-3.655146598815918,-4.683416843414307,2
902,5.402755260467529,-9.862837791442871,4.2936530113220215,1.6353967189788818,-3.713557481765747,-4.663280010223389,2
903,25.574764251708984,-5.324569225311279,11.36942195892334,1.7868510484695435,-3.414952516555786,-4.667797088623047,2
904,42.49584197998047,1.5607059001922607,16.342544555664062,1.7934207916259766,-2.9057741165161133,-4.576719284057617,2
905,49.22008514404297,8.01691722869873,20.80218505859375,1.793385624885559,-2.6332952976226807,-4.363397121429443,2
906,44.76730728149414,11.624676704406738,24.74300765991211,1.6990466117858887,-2.1871707439422607,-4.130185604095459,2
907,30.523027420043945,16.52498435974121,26.890758514404297,1.4639461040496826,-1.9986824989318848,-3.803006410598755,2
908,14.699044227600098,11.617742538452148,26.31031608581543,1.3575716018676758,-1.779573678970337,-3.560105562210083,2
909,-0.2708875238895416,5.712600231170654,25.770296096801758,1.2825876474380493,-1.804869532585144,-3.286637306213379,2
910,-7.701042652130127,-0.12149898707866669,25.274917602539062,1.2206581830978394,-1.8973323106765747,-3.012146234512329,2
911,-4.328049659729004,-10.63146686553955,23.10763168334961,1.3156872987747192,-1.9374395608901978,-2.795274257659912,2
912,4.380623817443848,-20.22085189819336,21.81186866760254,1.565346121788025,-1.9582480192184448,-2.6067826747894287,2
913,17.73261070251465,-23.207101821899414,22.87900161743164,1.819832682609558,-1.9172440767288208,-2.3792126178741455,2
914,32.608604431152344,-16.43633460998535,22.91504669189453,2.1228017807006836,-1.6169408559799194,-2.1871724128723145,2
915,40.61800765991211,-1.2803738117218018,24.28449821472168,2.299034357070923,-1.295120358467102,-1.9623401165008545,2
916,33.95912551879883,23.8205623626709,25.579896926879883,2.0795745849609375,-0.9062740802764893,-1.6640198230743408,2
917,23.980064392089844,40.20166015625,25.900997161865234,1.5520509481430054,-0.6693150401115417,-1.3210253715515137,2
918,10.294716835021973,43.390472412109375,25.739978790283203,1.0803278684616089,-0.6279299855232239,-1.0262055397033691,2
919,0.047282494604587555,30.25826072692871,25.822389602661133,0.8107216358184814,-0.7694048881530762,-0.7583832144737244,2
920,-4.647400379180908,14.93224811553955,28.304889678955078,0.47988954186439514,-0.719781756401062,-0.48509788513183594,2
921,-0.2342185378074646,1.4210548400878906,30.617815017700195,0.5584325790405273,-0.8139735460281372,-0.2240682989358902,2
922,13.76902961730957,-14.595884323120117,34.225128173828125,0.6698290109634399,-0.6113117337226868,0.05684325098991394,2
923,31.679567337036133,-24.69237518310547,37.111473083496094,0.9572857618331909,-0.55715411901474,0.4226258397102356,2
924,48.41349792480469,-29.76801872253418,39.33937072753906,1.2787762880325317,-0.07061696797609329,0.7768286466598511,2
925,53.904876708984375,-27.832469940185547,40.21516799926758,1.5595898628234863,0.4419037699699402,1.175670862197876,2
926,48.18401336669922,-19.84803581237793,41.607025146484375,1.8072103261947632,0.9212670922279358,1.5919886827468872,2
927,37.338157653808594,-13.957137107849121,42.56771469116211,2.02671480178833,1.4853012561798096,1.9837534427642822,2
928,25.054664611816406,-0.423414409160614,44.22164535522461,2.11102032661438,1.619154453277588,2.4543933868408203,2
929,14.79206657409668,21.88749885559082,44.48746871948242,1.9433964490890503,1.7199029922485352,2.927663803100586,2
930,9.350303649902344,33.54117202758789,45.784061431884766,1.5395581722259521,1.7589665651321411,3.403507947921753,2
931,12.665003776550293,36.56251907348633,45.91569900512695,1.1351642608642578,1.9523464441299438,3.851104974746704,2
932,22.391286849975586,31.782852172851562,45.79100799560547,0.7940611839294434,2.1165452003479004,4.323716163635254,2
933,35.01079177856445,21.08123779296875,44.23531723022461,0.4254688322544098,2.4029104709625244,4.770646572113037,2
934,44.83964538574219,7.926955699920654,43.66917037963867,0.5501399636268616,2.7331244945526123,5.273290634155273,2
935,51.057586669921875,-7.0453338623046875,41.919105529785156,0.5420624017715454,3.3197214603424072,5.681493759155273,2
936,53.90635681152344,-11.902107238769531,40.27992630004883,0.7508154511451721,3.613539218902588,6.145854473114014,2
937,54.211795806884766,-11.616454124450684,37.57661819458008,0.870013415813446,4.237637042999268,6.5025129318237305,2
938,47.402828216552734,-2.7909393310546875,32.594879150390625,0.9484882354736328,5.033788681030273,6.807370662689209,2
939,35.53998947143555,7.153158187866211,27.923145294189453,0.9227413535118103,5.226530075073242,7.130979061126709,2
940,17.26798439025879,18.803457260131836,23.343454360961914,0.7306511998176575,5.690652847290039,7.336310863494873,2
941,2.0956132411956787,27.962270736694336,19.611059188842773,0.3338489532470703,5.719778060913086,7.474571228027344,2
942,-10.89753532409668,30.871000289916992,13.492049217224121,0.08143792301416397,5.672311305999756,7.684168815612793,2
943,-22.979442596435547,28.47289276123047,5.873036861419678,-0.15482039749622345,5.401546001434326,7.872132301330566,2
944,-32.760597229003906,19.662704467773438,0.6109235882759094,-0.514988899230957,5.09227991104126,7.867611885070801,2
945,-38.21615982055664,12.871309280395508,-4.939108848571777,-0.6843739151954651,4.755605697631836,7.8475847244262695,2
946,-39.56197738647461,7.197607517242432,-9.1704740524292,-0.8003844618797302,4.313938140869141,7.789511203765869,2
947,-35.716575622558594,0.8613039255142212,-12.39688491821289,-0.8398199677467346,3.9153966903686523,7.713710308074951,2
948,-26.281307220458984,-5.337236404418945,-15.183087348937988,-0.707127571105957,3.6471381187438965,7.691470623016357,2
949,-17.08179473876953,-18.75301742553711,-15.463268280029297,-0.6176899075508118,3.514760732650757,7.538913726806641,2
950,-16.000411987304688,-23.42609977722168,-15.0668306350708,-0.3744569718837738,3.5298516750335693,7.424797058105469,2
951,-18.326736450195312,-28.86166000366211,-14.289522171020508,0.055325668305158615,3.309213399887085,7.386860370635986,2
952,-23.98581314086914,-29.591447830200195,-12.870004653930664,0.2610419988632202,3.133870840072632,7.180077075958252,2
953,-31.235239028930664,-26.868623733520508,-11.929006576538086,0.5701953768730164,2.858429193496704,7.069465637207031,2
954,-35.271541595458984,-21.560678482055664,-10.023933410644531,0.535711944103241,2.8373682498931885,6.761964797973633,2
955,-34.784366607666016,-1.9351638555526733,-4.814368724822998,0.6494656205177307,2.2695772647857666,6.614284515380859,2
956,-27.760648727416992,19.6918888092041,-1.7685153484344482,0.5544102787971497,2.070948600769043,6.552276611328125,2
957,-16.0518741607666,36.679046630859375,1.758928894996643,0.12102175503969193,1.8129056692123413,6.439629077911377,2
958,-6.078571319580078,41.42450714111328,3.5871567726135254,-0.2892274558544159,1.8011231422424316,6.488195896148682,2
959,0.9290870428085327,32.59041976928711,2.159214735031128,-0.834462583065033,1.7737088203430176,6.428317070007324,2
960,1.014824390411377,11.929584503173828,0.05692921578884125,-1.0128370523452759,1.863918423652649,6.491964817047119,2
961,-4.8082594871521,-9.329400062561035,-4.252309799194336,-0.9557377696037292,1.8820525407791138,6.541481018066406,2
962,-15.406105995178223,-24.041276931762695,-9.104639053344727,-0.6799941062927246,1.7685257196426392,6.541940689086914,2
963,-31.016599655151367,-29.30331802368164,-12.758509635925293,-0.39514467120170593,1.548215389251709,6.442431926727295,2
964,-44.800514221191406,-24.09729766845703,-16.22616958618164,-0.057512637227773666,1.0409348011016846,6.30100154876709,2
965,-54.49235153198242,-19.91806983947754,-19.6785831451416,0.07409713417291641,0.6187148094177246,6.080134391784668,2
966,-56.41706848144531,-16.095550537109375,-20.891958236694336,0.15928767621517181,0.020358452573418617,5.843801021575928,2
967,-51.4634895324707,-11.051966667175293,-21.96189308166504,0.07131804525852203,-0.31238532066345215,5.57043981552124,2
968,-41.40983200073242,-4.150398254394531,-21.49086570739746,0.2552187144756317,-0.9446209669113159,5.371302127838135,2
969,-24.53792953491211,3.170520782470703,-21.586061477661133,0.24329447746276855,-1.1827564239501953,5.1666693687438965,2
970,-4.8629069328308105,-0.4549470543861389,-20.978515625,0.24265462160110474,-1.3320266008377075,4.95850944519043,2
971,8.361710548400879,-5.306052207946777,-20.961477279663086,0.16733244061470032,-1.1619386672973633,4.751702308654785,2
972,17.069908142089844,-17.514373779296875,-21.488344192504883,0.36046260595321655,-0.9505724310874939,4.563372611999512,2
973,17.359134674072266,-18.939905166625977,-21.598316192626953,0.6828736066818237,-0.766146719455719,4.3673930168151855,2
974,9.838418960571289,-12.410842895507812,-22.393705368041992,0.575444221496582,-0.5107290744781494,4.1396379470825195,2
975,-0.2637075185775757,-7.840238571166992,-21.76833152770996,0.6765555739402771,-0.4038172960281372,3.9187819957733154,2
