,gyro.x,gyro.y,gyro.z,stabilizer.pitch,stabilizer.roll,stabilizer.yaw,label
0,0.010947775095701218,-0.11254875361919403,-0.006314227823168039,-0.1160743236541748,0.4446258842945099,-3.066467523574829,2
1,-0.07516659796237946,-0.072304867208004,0.009269511327147484,-0.1920028030872345,0.4513760209083557,-3.061866044998169,2
2,-0.027248963713645935,-0.031464144587516785,0.04618667811155319,-0.17915040254592896,0.389328271150589,-3.0584566593170166,2
3,-0.01593199372291565,-0.14768311381340027,-0.08047184348106384,-0.16873054206371307,0.47923994064331055,-3.055605173110962,2
4,0.047131218016147614,-0.05560458451509476,-0.006730843801051378,-0.16131199896335602,0.7511573433876038,-3.0530521869659424,2
5,0.06401719897985458,-0.038760166615247726,-0.05858315899968147,-0.16070076823234558,0.7508007884025574,-3.050086498260498,2
6,-0.09118827432394028,-0.04961361363530159,-0.05472570285201073,-0.2250695526599884,0.47111228108406067,-3.048398494720459,2
7,-0.11223235726356506,-0.07849615067243576,0.02476334013044834,-0.1330261528491974,0.32993200421333313,-3.0460894107818604,2
8,-0.0991785004734993,-0.1749953031539917,-0.12475652247667313,-0.13463494181632996,0.6449085474014282,-3.0426855087280273,2
9,-0.0014140948187559843,-0.2379140406847,-0.07803790271282196,-0.13489104807376862,0.5960620045661926,-3.040083408355713,2
10,0.0318504273891449,-0.09962251782417297,-0.017862243577837944,-0.1345943659543991,0.5610615015029907,-3.037964344024658,2
11,0.06387273222208023,-0.045353371649980545,-0.010523351840674877,-0.06535116583108902,0.46387237310409546,-3.0340428352355957,2
12,-0.031918928027153015,-0.12320389598608017,-0.11998607963323593,-0.3008691370487213,0.3198270797729492,-3.0330188274383545,2
13,0.038932472467422485,-0.05957255885004997,0.04374157637357712,-0.1117589920759201,0.5040745735168457,-3.03118896484375,2
14,-0.00448211096227169,-0.029608257114887238,-0.08846387267112732,-0.11976327747106552,0.42072609066963196,-3.0286102294921875,2
15,0.002951482543721795,-0.1140836700797081,0.007137352600693703,-0.12606050074100494,0.3592461943626404,-3.025899648666382,2
16,0.004600805230438709,-0.050582099705934525,-0.058500248938798904,-0.12969720363616943,0.3859284818172455,-3.0227558612823486,2
17,-0.04401952400803566,-0.13576176762580872,0.005426972638815641,-0.1331147849559784,0.2616095244884491,-3.018861770629883,2
18,0.06187472864985466,-0.08968257158994675,0.014145667664706707,0.009593406692147255,0.31364983320236206,-3.0209174156188965,2
19,-0.06933129578828812,-0.08934736996889114,0.05582209676504135,-0.030503742396831512,0.6438228487968445,-3.0225908756256104,2
20,0.06155543029308319,-0.02541327476501465,0.010791602544486523,-0.06071701645851135,0.5282953381538391,-3.0156161785125732,2
21,0.012045011855661869,-0.0727841705083847,-0.10713919252157211,-0.15656395256519318,0.5151405930519104,-3.0109543800354004,2
22,0.0018335924251005054,-0.11757329851388931,-0.059258416295051575,-0.15491630136966705,0.5776974558830261,-3.009500026702881,2
23,0.030787164345383644,-0.13988234102725983,0.019875643774867058,-0.15305042266845703,0.4788380265235901,-3.005272388458252,2
24,-0.023273052647709846,-0.10265734046697617,0.04887387901544571,-0.15187306702136993,0.47820019721984863,-3.001819610595703,2
25,0.008940326049923897,-0.1248086467385292,0.013401704840362072,-0.1510257124900818,0.4776459336280823,-2.998565435409546,2
26,-0.0007787287468090653,-0.034338269382715225,-0.05281524360179901,-0.1498972773551941,0.4772563874721527,-2.995345115661621,2
27,-0.06853232532739639,-0.08851820230484009,0.0122276796028018,-0.14948709309101105,0.6862122416496277,-2.9927659034729004,2
28,-0.005113749764859676,-0.09963908046483994,-0.018621202558279037,-0.28821253776550293,0.2826846241950989,-2.991971015930176,2
29,-0.01970316283404827,-0.015249093063175678,0.004781997296959162,-0.18241460621356964,0.4714674949645996,-2.986743688583374,2
30,-0.033055588603019714,-0.17418672144412994,-0.14228889346122742,-0.17219023406505585,0.4726020097732544,-2.984368085861206,2
31,0.04357551038265228,-0.1486084908246994,0.03575902804732323,-0.09480717033147812,0.3343062698841095,-2.9840338230133057,2
32,0.04454375058412552,-0.008946270681917667,0.12156663089990616,-0.10854381322860718,0.37188276648521423,-2.9802169799804688,2
33,-0.04937005788087845,-0.03523816913366318,0.04816708341240883,-0.1186160072684288,0.4685024917125702,-2.976152181625366,2
34,0.07651351392269135,-0.057537633925676346,-0.0032952192705124617,-0.1259041130542755,0.4712834060192108,-2.972510576248169,2
35,-0.009054909460246563,-0.04249948635697365,0.003241555066779256,-0.13100703060626984,0.6115700006484985,-2.9701082706451416,2
36,-0.05674539506435394,-0.018528927117586136,-0.030153663828969002,-0.13692906498908997,0.507450520992279,-2.9667842388153076,2
37,0.0668935552239418,-0.04054282605648041,0.034917060285806656,-0.20993714034557343,0.3637227714061737,-2.9636287689208984,2
38,0.008845681324601173,-0.02544143795967102,-0.10949729382991791,-0.19546642899513245,0.4629850387573242,-2.960848331451416,2
39,0.004739405587315559,-0.08977704495191574,-0.025415172800421715,-0.11589448153972626,0.46732401847839355,-2.9596023559570312,2
40,-0.005999008659273386,-0.045433223247528076,-0.01852296106517315,-0.12640981376171112,0.47083356976509094,-2.957144260406494,2
41,0.025780735537409782,-0.061258260160684586,0.005380556918680668,-0.13425470888614655,0.4732826054096222,-2.9541893005371094,2
42,-0.05642292648553848,-0.11862801015377045,0.03449304774403572,-0.07194440066814423,0.47499310970306396,-2.951228380203247,2
43,-0.04472663253545761,-0.012733337469398975,0.034520238637924194,-0.16226205229759216,0.40822502970695496,-2.9470279216766357,2
44,-0.05885491892695427,-0.08051896840333939,0.020913446322083473,-0.16113534569740295,0.49440625309944153,-2.943333625793457,2
45,0.02007296308875084,-0.06777705997228622,-0.08209846913814545,-0.16009022295475006,0.4236645996570587,-2.9411981105804443,2
46,-0.07065718621015549,0.011040565557777882,0.018916768953204155,-0.15973784029483795,0.6408653855323792,-2.9380154609680176,2
47,-0.01572677493095398,-0.08352704346179962,0.012544638477265835,-0.36175647377967834,0.3954482078552246,-2.936354398727417,2
48,0.03209209069609642,-0.08351360261440277,-0.05555061623454094,-0.10417896509170532,0.8248166441917419,-2.9261136054992676,2
49,0.030307495966553688,-0.13957570493221283,0.0934985801577568,-0.11672542989253998,0.2617349624633789,-2.929734468460083,2
50,0.08828163892030716,-0.19757403433322906,-0.007654054090380669,-0.1245122104883194,0.3867190480232239,-2.925485372543335,2
51,0.01052389107644558,-0.045550569891929626,0.06520206481218338,-0.13166505098342896,0.4111822545528412,-2.922243118286133,2
52,0.06072366237640381,-0.09751984477043152,0.006457809824496508,-0.13665671646595,0.49622929096221924,-2.918959617614746,2
53,0.0629996731877327,-0.09597796201705933,0.066879041492939,-0.13625596463680267,0.49611011147499084,-2.9155590534210205,2
54,0.04758864641189575,-0.018185708671808243,0.07506617903709412,-0.13950015604496002,0.5589475035667419,-2.912294387817383,2
55,0.04398823156952858,-0.06982757151126862,0.08130775392055511,-0.3406396210193634,0.4064551293849945,-2.908735752105713,2
56,-0.002070387126877904,-0.07527927309274673,0.11135896295309067,-0.15648089349269867,0.4932805001735687,-2.9048655033111572,2
57,-0.06176869198679924,-0.11937397718429565,0.008388755843043327,-0.1529829502105713,0.2929840683937073,-2.903414011001587,2
58,0.026208627969026566,-0.05327383428812027,0.011216530576348305,-0.15187540650367737,0.4104887545108795,-2.899714231491089,2
59,-0.03108682669699192,-0.10347098112106323,-0.04360099881887436,-0.15064074099063873,0.49602219462394714,-2.896029472351074,2
60,0.021080562844872475,-0.08257345855236053,-0.015487570315599442,-0.1499244123697281,0.6226785182952881,-2.892961025238037,2
61,0.06304150819778442,-0.08204798400402069,-0.004668056964874268,-0.1492842584848404,0.3873540759086609,-2.890862464904785,2
62,-0.017187729477882385,-0.016667157411575317,0.10942777246236801,-0.21543245017528534,0.4135679006576538,-2.886786699295044,2
63,-0.02348252944648266,-0.08692876249551773,0.0596446767449379,-0.13165752589702606,0.7617831826210022,-2.882188081741333,2
64,-0.10705630481243134,-0.13603021204471588,-0.09977035969495773,-0.20080679655075073,0.4242173731327057,-2.8816609382629395,2
65,0.03976484015583992,-0.10069224238395691,0.04198414832353592,0.011917972937226295,0.5096232295036316,-2.877310276031494,2
66,-0.04825947433710098,-0.05853940173983574,-0.03990015760064125,-0.09842359274625778,0.6393335461616516,-2.876647710800171,2
67,-0.04967615008354187,0.03787954896688461,0.03617745265364647,-0.11478951573371887,0.531745970249176,-2.8721044063568115,2
68,-0.034086842089891434,-0.05181257426738739,-0.03368520364165306,-0.1275155395269394,0.38241153955459595,-2.867218255996704,2
69,-0.03199674189090729,-0.03888009116053581,-0.04370938241481781,-0.12638956308364868,0.38140925765037537,-2.864967107772827,2
70,0.06201162189245224,-0.010912650264799595,0.04413150995969772,-0.2741503119468689,0.3409610092639923,-2.862265110015869,2
71,-0.05877486988902092,-0.015138683840632439,0.006754588335752487,-0.03524616360664368,0.3815346658229828,-2.8621857166290283,2
72,0.05759747698903084,-0.07953198999166489,0.07518231868743896,-0.14015395939350128,0.5541526079177856,-2.8586549758911133,2
73,0.1079452633857727,-0.07017146050930023,0.027213454246520996,-0.14628414809703827,0.4701326787471771,-2.8541882038116455,2
74,0.057986725121736526,-0.13137181103229523,0.05904658883810043,-0.15135352313518524,0.48036253452301025,-2.850858211517334,2
75,-0.0932501032948494,0.036677490919828415,0.06716874986886978,-0.15412987768650055,0.557831346988678,-2.847430467605591,2
76,-0.12145398557186127,-0.09535011649131775,0.04077645391225815,-0.15818169713020325,0.5419241189956665,-2.844141721725464,2
77,0.00013992661843076348,-0.01184767298400402,-0.0158366821706295,-0.30769214034080505,0.5285224914550781,-2.8413565158843994,2
78,0.009110377170145512,-0.047226689755916595,-0.02305537275969982,-0.1999988853931427,0.51952064037323,-2.838035821914673,2
79,-0.04577355086803436,-0.08292976766824722,-0.019220896065235138,-0.19195778667926788,0.5129839181900024,-2.8353545665740967,2
80,0.12746670842170715,-0.12036009877920151,-0.05325030907988548,-0.19112330675125122,0.5125667452812195,-2.8331520557403564,2
81,0.0609586164355278,-0.1024293303489685,-0.017367852851748466,-0.2581474483013153,0.4385443329811096,-2.8327150344848633,2
82,0.0859183669090271,-0.04978911578655243,-0.03285656496882439,-0.020859912037849426,0.4561457335948944,-2.8297879695892334,2
83,0.09840270131826401,-0.09106281399726868,0.04592200741171837,-0.1446613073348999,0.8319689035415649,-2.8257205486297607,2
84,-0.06903601437807083,-0.2062424123287201,0.0339789018034935,-0.14352761209011078,0.8310903906822205,-2.8227293491363525,2
85,-0.022084934636950493,-0.09478648006916046,0.007281865458935499,0.0,0.0,0.0,2
86,-0.025287769734859467,-0.10378830134868622,-0.014977460727095604,0.0015344371786341071,-0.0002063268329948187,0.000318554462864995,2
87,-0.060944538563489914,-0.09666810184717178,0.0019634091295301914,0.5477739572525024,-0.6391926407814026,-0.001994592836126685,2
88,-0.014758814126253128,0.013909210450947285,0.03632661700248718,0.2876266539096832,-0.4399506747722626,-0.0024433110374957323,2
89,-0.05962344631552696,-0.027199266478419304,0.034898847341537476,0.6019793152809143,-0.7386606931686401,-0.0002689813554752618,2
90,-0.012464127503335476,-0.05200905725359917,-0.05764908343553543,1.3157511949539185,-0.38108766078948975,-0.005021515302360058,2
91,0.04140324145555496,-0.21742460131645203,-0.06374229490756989,1.1961207389831543,-0.11246954649686813,-0.010338405147194862,2
92,-0.009928996674716473,-0.1423666626214981,0.08232317864894867,1.054720163345337,1.125254511833191,-0.033761147409677505,2
93,-0.06516396254301071,-0.03815704211592674,-0.027965905144810677,0.9257875084877014,1.367315649986267,-0.037126269191503525,2
94,-0.02851942926645279,-0.07346224039793015,-0.07722587883472443,0.3688805401325226,0.5987699031829834,-0.026420023292303085,2
95,-0.11313533782958984,-0.05429950729012489,0.02252153679728508,0.8234913349151611,1.7700048685073853,-0.04178362712264061,2
96,0.08034512400627136,-0.22960425913333893,-0.08731304109096527,0.7130926847457886,0.1918099969625473,-0.019994137808680534,2
97,0.034882545471191406,-0.12331850826740265,-0.05999307334423065,0.6175991296768188,1.3179718255996704,-0.03703218698501587,2
98,-0.11150435358285904,-0.13210827112197876,-0.06943418085575104,1.190312147140503,0.3782888650894165,-0.017137961462140083,2
99,0.12956424057483673,-0.1413753181695938,-0.15981562435626984,0.00644792802631855,0.08477231115102768,-0.030619580298662186,2
100,0.011089609935879707,-0.08573704212903976,-0.003371800994500518,0.08968771249055862,0.18843773007392883,-0.030984291806817055,2
101,-0.04999593272805214,-0.09055153280496597,0.010153115727007389,0.4023078680038452,0.26005813479423523,-0.029118308797478676,2
102,-0.04481986165046692,-0.21418708562850952,0.00525718554854393,0.3525404930114746,0.06321831792593002,-0.02907600626349449,2
103,0.0388442687690258,-0.049918387085199356,-0.10145856440067291,0.07515101879835129,-0.058052096515893936,-0.02988777495920658,2
104,-0.03829087316989899,-0.07156907767057419,-0.02561517246067524,0.3269350826740265,0.08916274458169937,-0.030432984232902527,2
105,0.0011914910282939672,-0.13247759640216827,0.08596772700548172,0.4888257384300232,0.6126869320869446,-0.029730120673775673,2
106,-0.025660794228315353,-0.027876967564225197,-0.04041587561368942,0.3872036337852478,0.5657057166099548,-0.02922924980521202,2
107,0.01345786266028881,-0.1282162219285965,-0.1798289567232132,-0.06777726113796234,0.5336744785308838,-0.030183034017682076,2
108,0.06126675754785538,-0.08334425836801529,0.04866138845682144,-0.0173408854752779,0.5133477449417114,-0.031579189002513885,2
109,-0.11949703842401505,-0.051900070160627365,0.05935673788189888,0.1859981119632721,0.6700782179832458,-0.02824293076992035,2
110,-0.06805367022752762,-0.08103460818529129,0.0010862775379791856,0.4853356182575226,0.7742589712142944,-0.024616051465272903,2
111,0.14779385924339294,-0.05265336111187935,-0.019691206514835358,-0.10976476222276688,0.6876329183578491,-0.03134242072701454,2
112,-0.00354596646502614,-0.12257593870162964,0.042600251734256744,0.09096076339483261,0.16493740677833557,-0.03687769174575806,2
113,0.01902659796178341,-0.11323076486587524,-0.06813349574804306,0.37728971242904663,0.3981027603149414,-0.030202461406588554,2
114,-0.033390142023563385,0.03551759570837021,0.05404886230826378,0.13905490934848785,0.4162110388278961,-0.03221797198057175,2
115,0.020775148645043373,-0.14745624363422394,0.017655320465564728,0.10984902828931808,0.1526668518781662,-0.03511633351445198,2
116,-0.01713140308856964,-0.11000197380781174,-0.003633353393524885,0.08678809553384781,0.23985373973846436,-0.033642008900642395,2
117,0.059739142656326294,0.07686980068683624,-0.0025254141073673964,-0.3208053410053253,0.17402487993240356,-0.03455385938286781,2
118,0.09298673272132874,-0.1222820058465004,-0.05806812271475792,0.2716608941555023,0.5053329467773438,-0.028737789019942284,2
119,-0.010678164660930634,-0.040438130497932434,-0.01217468362301588,0.07473335415124893,0.25145161151885986,-0.0339382104575634,2
120,0.006146256346255541,0.0038046028930693865,-0.05286720022559166,0.05238788574934006,0.31286707520484924,-0.032523151487112045,2
121,0.05118413642048836,-0.05391731858253479,-0.08381951600313187,0.035138051956892014,0.9303886890411377,-0.01939973793923855,2
122,-0.00872089248150587,-0.007749258540570736,-0.06581003218889236,0.022182533517479897,0.23892438411712646,-0.035521913319826126,2
123,0.03031747229397297,0.042284026741981506,0.04313679784536362,0.010019824840128422,0.3045460283756256,-0.034246765077114105,2
124,-0.039086394011974335,-0.10790762305259705,-0.01730397157371044,0.0013586614513769746,0.4588829278945923,-0.029985595494508743,2
125,-0.047022800892591476,-0.021042965352535248,0.049161396920681,-0.21771685779094696,0.7789023518562317,-0.021861346438527107,2
126,-0.0562538281083107,-0.04600286856293678,-0.06084241718053818,-0.16313184797763824,0.6895058751106262,-0.023718852549791336,2
127,-0.061548344790935516,-0.11689361184835434,-0.05500033125281334,-0.02192443609237671,0.31695905327796936,-0.03438406065106392,2
128,0.0019273291109129786,-0.09206213057041168,-0.015484179370105267,-0.02447699010372162,0.8578561544418335,-0.01775738038122654,2
129,-0.09031035751104355,-0.1288723647594452,0.04745125025510788,-0.02735712192952633,0.24569544196128845,-0.03623637557029724,2
130,-0.02626691572368145,-0.07580476999282837,-0.023764953017234802,-0.030231455340981483,0.6019080281257629,-0.025692565366625786,2
131,0.040363870561122894,-0.054773569107055664,-0.039699748158454895,-0.033615369349718094,0.5621033906936646,-0.02739209122955799,2
132,0.06996367126703262,-0.09878966212272644,-0.020646093413233757,-0.03323759138584137,0.5612990856170654,-0.02759886160492897,2
133,-0.06466644257307053,-0.13465896248817444,-0.05161891132593155,-0.06753382086753845,0.38432061672210693,-0.03302161395549774,2
134,0.010067908093333244,-0.10080035775899887,-0.017902879044413567,-0.06644628196954727,0.38346871733665466,-0.03365885093808174,2
135,0.08563719689846039,-0.07134653627872467,0.01588357426226139,-0.0632140263915062,0.5000723004341125,-0.03075944446027279,2
136,0.1256423443555832,-0.1317129135131836,-0.06451255083084106,-0.061742451041936874,0.3899500072002411,-0.034159380942583084,2
137,0.0826001837849617,-0.07730564475059509,-0.05342986434698105,-0.06057925894856453,0.4084630012512207,-0.03415032848715782,2
138,0.012352737598121166,-0.1454789638519287,-0.017537059262394905,-0.15715348720550537,0.710338830947876,-0.026421677321195602,2
139,0.05301707983016968,-0.015924353152513504,0.0462796613574028,-0.036322735249996185,0.3567427694797516,-0.036212485283613205,2
140,0.034095242619514465,-0.09389358013868332,0.018535340204834938,-0.045046787708997726,0.19527578353881836,-0.040503330528736115,2
141,0.03254012018442154,-0.10549221932888031,0.0073068467900156975,-0.05128425732254982,0.26593881845474243,-0.038311030715703964,2
142,-0.0346645712852478,0.029574070125818253,0.05611998587846756,0.029091505333781242,0.44241398572921753,-0.032992586493492126,2
143,0.0359780378639698,-0.15883654356002808,0.005746800918132067,0.029511043801903725,0.4417627155780792,-0.0328202024102211,2
144,0.058950215578079224,-0.09172666072845459,-0.02889356203377247,-0.27101922035217285,0.6279799342155457,-0.028398221358656883,2
145,-0.03341252729296684,-0.12171974033117294,0.02807210385799408,-0.2195800244808197,0.31328675150871277,-0.038365770131349564,2
146,-0.10096997022628784,-0.15621577203273773,-0.029887905344367027,-0.18102380633354187,0.35089218616485596,-0.03651348873972893,2
147,-0.008843470364809036,-0.07477206736803055,0.07625845819711685,-0.1526252180337906,0.20230433344841003,-0.041828177869319916,2
148,0.03569706901907921,-0.006105327978730202,-0.0310378335416317,-0.047074686735868454,0.4432360827922821,-0.03372027352452278,2
149,-0.010154333896934986,-0.16667859256267548,-0.015327628701925278,0.028392890468239784,0.6192150712013245,-0.028977615758776665,2
150,0.02939317561686039,-0.1430082619190216,-0.0024311370216310024,-0.0008724119397811592,0.6611542105674744,-0.02815030887722969,2
151,-0.004969745874404907,-0.07128750532865524,-0.002364540006965399,-0.1883087009191513,0.44430258870124817,-0.034724507480859756,2
152,-0.029378000646829605,-0.06872223317623138,-0.07742200791835785,0.0032758372835814953,0.531296968460083,-0.031770531088113785,2
153,-0.03888730704784393,-0.11835524439811707,0.07368417829275131,-0.02200734056532383,0.3473716974258423,-0.03671470656991005,2
154,-0.05114548280835152,-0.07224792242050171,-0.021306252107024193,-0.04118761420249939,0.4591633379459381,-0.03414798527956009,2
155,0.015888286754488945,-0.1633584201335907,0.026507511734962463,0.025912649929523468,0.21710994839668274,-0.03897632285952568,2
156,-0.07433543354272842,-0.17642201483249664,0.08150047063827515,-0.00562145933508873,0.44427841901779175,-0.03484386205673218,2
157,0.05590997263789177,-0.19580592215061188,-0.07193698734045029,-0.18949155509471893,0.691653847694397,-0.029074352234601974,2
158,-0.055567529052495956,-0.09630883485078812,0.016406437382102013,-0.16519226133823395,0.39527758955955505,-0.03594307601451874,2
159,-0.028278322890400887,-0.05357527360320091,-0.033712878823280334,-0.14869324862957,0.2569500207901001,-0.03907642886042595,2
160,-0.016604019328951836,-0.03262681886553764,-0.11262865364551544,-0.1374756395816803,0.7780951857566833,-0.025720201432704926,2
161,0.06465686112642288,-0.07993292063474655,0.02936903014779091,-0.052436985075473785,0.6927886009216309,-0.028315167874097824,2
162,-0.0025139348581433296,-0.037562791258096695,0.011155055835843086,-0.0673518106341362,0.3994170129299164,-0.03544187918305397,2
163,0.016405852511525154,-0.0610271617770195,-0.0931907370686531,-0.06660924851894379,0.3990646004676819,-0.035725343972444534,2
164,-0.017461491748690605,-0.04505210369825363,-0.08272704482078552,-0.238248810172081,0.42406126856803894,-0.03718765079975128,2
165,0.023375514894723892,-0.09853246808052063,0.056615278124809265,-0.2047278732061386,0.6585949659347534,-0.031355760991573334,2
166,-0.032754287123680115,-0.04953167587518692,-0.040931254625320435,-0.10449433326721191,0.3030543625354767,-0.04041247442364693,2
167,-0.02844204008579254,0.013624279759824276,0.0076360395178198814,-0.10706698149442673,0.4185435473918915,-0.03749729320406914,2
168,-0.030698005110025406,-0.0705326646566391,-0.05998159572482109,-0.10939513146877289,0.27739042043685913,-0.041102662682533264,2
169,0.02678743563592434,-0.0798380896449089,-0.0644652470946312,-0.11063100397586823,0.4760240316390991,-0.03661031648516655,2
170,-0.1431632936000824,-0.03023451380431652,-0.05446649715304375,-0.037037163972854614,0.8471699357032776,-0.028948910534381866,2
171,0.0015933862887322903,0.02682720497250557,-0.019677285104990005,0.0911768227815628,0.14628629386425018,-0.04161333665251732,2
172,-0.014059837907552719,-0.017865262925624847,0.07319147139787674,-0.04082533344626427,0.22836516797542572,-0.040360111743211746,2
173,-0.018365994095802307,-0.08604425936937332,0.03558984398841858,-0.06383204460144043,0.3642067015171051,-0.03790275380015373,2
174,0.03121645376086235,-0.15020272135734558,0.03038952127099037,-0.08188287913799286,0.46495726704597473,-0.03601338341832161,2
175,0.028816794976592064,-0.06778886169195175,-0.08069789409637451,-0.0947159007191658,0.5372306108474731,-0.034501366317272186,2
176,0.0006533769774250686,0.0001145350543083623,-0.002938989084213972,-0.25014662742614746,0.5891339778900146,-0.03376888856291771,2
177,0.0019597236532717943,-0.08667566627264023,-0.034012336283922195,-0.2910701036453247,0.6986405253410339,-0.03182050958275795,2
178,-0.03679028898477554,-0.07135872542858124,0.02481944113969803,0.041639938950538635,0.48846712708473206,-0.03446406498551369,2
179,0.04588060453534126,0.009967555291950703,0.08889687061309814,-0.07619429379701614,0.6222193837165833,-0.03278456628322601,2
180,-0.0104676503688097,-0.10014594346284866,0.1105152815580368,-0.23342068493366241,0.5748087167739868,-0.034897688776254654,2
181,-0.056675106287002563,0.03206419572234154,0.057903338223695755,-0.20568464696407318,0.5400891900062561,-0.03481519594788551,2
182,0.05937831848859787,-0.13236863911151886,0.026581842452287674,-0.18526555597782135,0.3049035668373108,-0.04000857472419739,2
183,0.002067339373752475,-0.19069908559322357,0.04277666285634041,-0.18391305208206177,0.30502504110336304,-0.03977994620800018,2
184,0.09480831772089005,-0.1152893528342247,0.04199961572885513,-0.19640836119651794,0.6923941969871521,-0.03018932044506073,2
185,-0.06960280984640121,-0.08474648743867874,-0.010953247547149658,-0.1948300451040268,0.6920655965805054,-0.030030295252799988,2
186,0.08518487960100174,-0.13991624116897583,-0.05489913001656532,-0.02657741867005825,0.6107787489891052,-0.03276412934064865,2
187,-0.07141907513141632,-0.14295163750648499,-0.0005079780821688473,-0.054741233587265015,0.5016829967498779,-0.034787341952323914,2
188,0.12497064471244812,-0.09460356086492538,0.017982881516218185,-0.07564835995435715,0.49238958954811096,-0.03458932787179947,2
189,-0.07857231795787811,-0.0876724123954773,-0.05970710143446922,-0.07502368837594986,0.492681622505188,-0.03420145809650421,2
190,-0.09825289994478226,-0.1450435221195221,-0.15914569795131683,-0.15934066474437714,0.2770119905471802,-0.038189373910427094,2
191,0.06037132441997528,-0.029699815437197685,-0.015910761430859566,-0.14656303822994232,0.3188188076019287,-0.038360659033060074,2
192,0.02833966165781021,-0.08859823644161224,-0.016893934458494186,-0.14286042749881744,0.6414594650268555,-0.033169277012348175,2
193,0.0684983879327774,-0.04318505525588989,-0.07308685779571533,-0.28159305453300476,0.3137736916542053,-0.03901363164186478,2
194,-0.07021217793226242,-0.1380549520254135,0.06611397117376328,-0.09488387405872345,0.575431764125824,-0.03470126911997795,2
195,-0.07078735530376434,-0.05758907273411751,0.027464959770441055,-0.09371891617774963,0.5740268230438232,-0.034526076167821884,2
196,-0.04611990600824356,-0.11332942545413971,-0.15007507801055908,-0.17322039604187012,0.47712311148643494,-0.03590835630893707,2
197,0.033718548715114594,0.03977580741047859,0.005546262487769127,-0.23136229813098907,0.4786880314350128,-0.03692102059721947,2
198,-0.02392750233411789,-0.23191174864768982,0.051479436457157135,-0.20216341316699982,0.48069122433662415,-0.037018027156591415,2
199,-0.08603715896606445,-0.08584819734096527,0.056606411933898926,-0.1036573201417923,0.40677252411842346,-0.03823547810316086,2
200,0.03112608939409256,-0.0912528932094574,0.07643374800682068,-0.03275365009903908,0.4255143702030182,-0.03752517327666283,2
201,0.01536062452942133,-0.07010477781295776,-0.03436323255300522,-0.20210431516170502,0.36713001132011414,-0.037595752626657486,2
202,0.11872868239879608,-0.01721830666065216,0.0657505989074707,-0.10610520094633102,0.5451593995094299,-0.034927889704704285,2
203,-0.016097888350486755,-0.0673864409327507,0.036062996834516525,-0.18354187905788422,0.6044476628303528,-0.03303634747862816,2
204,0.03833456709980965,-0.07758413255214691,-0.027602029964327812,-0.15530753135681152,0.3275466859340668,-0.03734773024916649,2
205,-0.09015903621912003,-0.18918637931346893,0.02443605288863182,0.0035380101762712,0.43994978070259094,-0.035454265773296356,2
206,-0.04599955677986145,-0.024122141301631927,-0.08767203986644745,-0.0291157104074955,0.4492330849170685,-0.03518131375312805,2
207,-0.0458277091383934,-0.031858354806900024,-0.05238928645849228,-0.028843333944678307,0.44824597239494324,-0.03591270372271538,2
208,-0.038813963532447815,-0.04945248365402222,0.06215627118945122,-0.03314317762851715,0.7602296471595764,-0.03321542218327522,2
209,-0.059524018317461014,-0.03641006723046303,-0.03897272050380707,-0.03251626342535019,0.7592384219169617,-0.03290083631873131,2
210,0.029307616874575615,-0.2074103057384491,0.10078823566436768,-0.054618753492832184,0.687593400478363,-0.033657968044281006,2
211,-0.10289590060710907,-0.23884649574756622,0.46661365032196045,-0.14119692146778107,0.41936635971069336,-0.036087244749069214,2
212,0.21523551642894745,-0.25701606273651123,-0.2515377700328827,-0.20401927828788757,0.5066031813621521,-0.03375161811709404,2
213,-0.16384533047676086,-0.20065367221832275,-0.009776381775736809,-0.034559499472379684,0.42876455187797546,-0.034218475222587585,2
214,-0.5330495238304138,0.314115434885025,0.28991732001304626,0.019055107608437538,0.4369136691093445,-0.03491346165537834,2
215,0.24822181463241577,0.5883205533027649,-0.22747597098350525,-0.017889421433210373,0.43387559056282043,-0.033797841519117355,2
216,-0.49517783522605896,1.1221518516540527,1.356378436088562,-0.2622676193714142,0.43899670243263245,-0.03699247166514397,2
217,-0.31626057624816895,0.08146937191486359,0.002327371621504426,-0.09900696575641632,0.6097971796989441,-0.032465603202581406,2
218,-2.7187654972076416,4.004630088806152,-0.09471601992845535,-0.12423071265220642,0.6209226846694946,-0.03262138366699219,2
219,-1.0179030895233154,2.2107369899749756,0.8459442853927612,-0.1402849704027176,0.5989146828651428,-0.03364548087120056,2
220,3.0776844024658203,-2.091872215270996,-2.1274938583374023,-0.22910478711128235,-0.02798960730433464,-0.038068998605012894,2
221,0.5841763615608215,2.5334670543670654,-2.7725830078125,-0.24964070320129395,0.5433372259140015,-0.050363071262836456,2
222,-6.444425582885742,5.047110080718994,-1.2186180353164673,-0.2550712525844574,0.35676440596580505,-0.08035825937986374,2
223,0.8918722867965698,-1.4612195491790771,-1.3403611183166504,-0.2740795910358429,0.22587664425373077,-0.09893249720335007,2
224,-0.7629796862602234,2.564981698989868,0.6782974600791931,-0.22801050543785095,0.4698418080806732,-0.10747479647397995,2
225,-0.6731501221656799,0.5166658759117126,6.641525745391846,-0.23581178486347198,0.20084723830223083,-0.10474222898483276,2
226,-1.0629138946533203,-7.506936073303223,7.8890156745910645,-0.22610396146774292,0.4361797273159027,-0.03593958541750908,2
227,-0.5124189257621765,0.6532931327819824,9.053021430969238,-0.11208110302686691,0.5626309514045715,0.04225961118936539,2
228,-4.012274742126465,6.790689945220947,7.768071174621582,-0.21131975948810577,0.5595911145210266,0.13518089056015015,2
229,6.28184175491333,0.7139766812324524,5.625198841094971,-0.2657703757286072,0.7426601648330688,0.2188422828912735,2
230,8.44770622253418,-11.400327682495117,7.001673698425293,-0.19887858629226685,1.2395350933074951,0.2843583822250366,2
231,-8.461507797241211,-9.71854019165039,12.08890151977539,-0.20280499756336212,1.7085256576538086,0.3575858771800995,2
232,0.779016375541687,5.829586982727051,12.97919750213623,-0.41120675206184387,1.524478554725647,0.444385290145874,2
233,-0.9673224091529846,5.039836883544922,11.12546157836914,-0.4480997622013092,1.506002426147461,0.5721985697746277,2
234,5.900265216827393,6.201749324798584,11.651595115661621,-0.46574026346206665,0.3889298141002655,0.6497772336006165,2
235,1.5911041498184204,1.9933204650878906,7.6203227043151855,-0.17389671504497528,0.7819985747337341,0.8009722232818604,2
236,-4.566421031951904,-10.53933048248291,7.3362812995910645,-0.3095778226852417,0.8943093419075012,0.8745291233062744,2
237,-12.61418342590332,-13.746484756469727,6.236542224884033,-0.20733192563056946,0.829478919506073,0.9446637630462646,2
238,-6.691129207611084,-7.007007598876953,3.390355348587036,-0.08720887452363968,0.47734910249710083,0.997905433177948,2
239,-19.390766143798828,-13.104924201965332,2.2664825916290283,-2.025846481323242,-0.2661166191101074,0.8984519839286804,2
240,-21.986064910888672,-21.966583251953125,2.15020751953125,-2.2542507648468018,0.8522899150848389,1.0698944330215454,2
241,-2.7617173194885254,-18.3118896484375,2.3834290504455566,-1.6053683757781982,0.48038506507873535,1.0666502714157104,2
242,-12.06494140625,-38.76704025268555,1.1177726984024048,-1.5171775817871094,2.8663580417633057,1.5802922248840332,2
243,-4.362684726715088,-29.29783058166504,0.829484760761261,-0.9616972804069519,2.36553692817688,1.517861247062683,2
244,-29.908958435058594,-38.95765686035156,1.6506808996200562,0.4266680181026459,0.7397493720054626,1.4393848180770874,2
245,-37.35725021362305,-25.767147064208984,-0.11337755620479584,1.3309178352355957,-0.45721256732940674,1.4587790966033936,2
246,-64.11759185791016,-24.233400344848633,-1.904459834098816,2.123514413833618,-1.8771628141403198,1.4943490028381348,2
247,-41.88042068481445,-2.2753398418426514,-5.979247570037842,2.255164623260498,-2.6711976528167725,1.4772456884384155,2
248,-25.481481552124023,-8.1538667678833,-6.326823711395264,2.0917720794677734,-2.676778554916382,1.3849124908447266,2
249,-0.0726911649107933,-17.533336639404297,-8.496752738952637,1.2386269569396973,-1.2313861846923828,1.1704784631729126,2
250,28.235450744628906,-14.955452919006348,-7.99027156829834,1.712209701538086,-1.3615295886993408,1.0314363241195679,2
251,52.610599517822266,-6.313492298126221,-5.668062210083008,2.1567771434783936,-1.1082055568695068,0.8882715106010437,2
252,62.726844787597656,2.7440152168273926,-2.0239765644073486,2.702263593673706,-1.7508584260940552,1.064024806022644,2
253,53.52537155151367,10.312255859375,0.06529116630554199,3.0937161445617676,-0.4662545621395111,0.7120388150215149,2
254,35.3716926574707,18.38173484802246,0.03272969648241997,4.576401710510254,0.24377653002738953,0.19648194313049316,2
255,11.467631340026855,31.49126434326172,3.2596547603607178,4.842801570892334,0.8396127223968506,-0.023026086390018463,2
256,8.857132911682129,56.99571990966797,1.087231159210205,5.8743743896484375,1.5234402418136597,-0.5348764657974243,2
257,49.68977355957031,123.13314819335938,-1.3889133930206299,5.444343090057373,1.3287949562072754,-0.3146948218345642,2
258,-73.86556243896484,34.34920120239258,8.204293251037598,4.099872589111328,1.9809893369674683,-0.41825881600379944,2
259,49.2452278137207,-8.161581993103027,10.542768478393555,2.9432637691497803,1.9643419981002808,-0.652141273021698,2
260,25.9343318939209,-21.577476501464844,9.779674530029297,2.148601531982422,2.1645560264587402,-0.6775376796722412,2
261,2.32425594329834,-8.897706031799316,10.315722465515137,1.6516835689544678,2.0007286071777344,-0.47260862588882446,2
262,-21.079227447509766,12.777910232543945,6.860990524291992,0.9872499108314514,1.4981327056884766,-0.27019011974334717,2
263,-54.665889739990234,31.913997650146484,2.5061569213867188,0.08190957456827164,0.6038994193077087,-0.05878624692559242,2
264,-80.3936767578125,44.28217697143555,1.9163219928741455,-0.46228164434432983,0.26142847537994385,-0.11469170451164246,2
265,-85.887939453125,35.54210662841797,3.6472368240356445,-0.39469820261001587,3.004549980163574,-0.625980794429779,2
266,-74.34771728515625,23.190017700195312,7.229073524475098,-2.2425355911254883,1.8605005741119385,-0.8895318508148193,2
267,-55.93843460083008,18.98301124572754,8.500307083129883,-5.531848907470703,-0.07506424188613892,-1.2699109315872192,2
268,-47.670753479003906,11.85844612121582,11.069453239440918,-4.852100849151611,-0.06862190365791321,-1.2252501249313354,2
269,-36.6062126159668,-8.315311431884766,12.34188175201416,-5.5626068115234375,-1.1915044784545898,-1.3998931646347046,2
270,-24.470705032348633,-31.162839889526367,11.286437034606934,-6.316522598266602,-2.1000773906707764,-1.2786533832550049,2
271,-18.546897888183594,-59.16469192504883,11.129950523376465,-5.127816200256348,-2.3562989234924316,-1.6462308168411255,2
272,-14.232332229614258,-90.07731628417969,12.44869613647461,-3.631223440170288,-1.737116813659668,-1.2867021560668945,2
273,-9.136798858642578,-110.05321502685547,13.539734840393066,-1.8045638799667358,-2.7289469242095947,-1.8983070850372314,2
274,-2.3893895149230957,-113.1112289428711,17.191553115844727,0.3184615671634674,-3.790031671524048,-2.5260250568389893,2
275,3.2783918380737305,-103.2698974609375,20.903202056884766,2.5527546405792236,-4.437368392944336,-2.7843549251556396,2
276,10.401368141174316,-80.61919403076172,20.820880889892578,2.995969533920288,-5.072552680969238,-2.3618314266204834,2
277,20.738475799560547,-48.068634033203125,19.07412338256836,4.280633449554443,-4.501619338989258,-2.3231496810913086,2
278,30.71323013305664,-11.888254165649414,20.061843872070312,4.8660969734191895,-4.855562210083008,-2.016061782836914,2
279,37.07523727416992,20.406309127807617,21.241422653198242,5.84740686416626,-5.21503210067749,-2.0136749744415283,2
280,39.518211364746094,47.8237190246582,22.576658248901367,5.345065116882324,-4.63978910446167,-1.7546322345733643,2
281,41.31627655029297,71.2954330444336,21.153615951538086,5.025810241699219,-3.769293785095215,-1.988829493522644,2
282,41.68328857421875,92.28768920898438,19.969951629638672,3.938950777053833,-3.208029270172119,-1.7062791585922241,2
283,39.90338134765625,103.88880920410156,18.16625213623047,3.1283633708953857,-2.8735122680664062,-1.563080906867981,2
284,37.42767333984375,99.02263641357422,14.545721054077148,1.8722484111785889,-2.0345816612243652,-1.5814998149871826,2
285,28.519887924194336,76.68260192871094,12.65079116821289,1.2408925294876099,-1.7750122547149658,-1.5765669345855713,2
286,17.319608688354492,50.08584976196289,11.584388732910156,0.5821513533592224,-1.6245133876800537,-1.4691303968429565,2
287,11.07437515258789,26.928598403930664,10.025150299072266,-0.17733119428157806,-1.2172067165374756,-1.3393278121948242,2
288,6.03472375869751,7.425978660583496,8.27183723449707,-0.8404144644737244,-1.2467546463012695,-1.1061851978302002,2
289,6.726810455322266,-5.470279216766357,6.918578624725342,-0.9148823618888855,-1.175146222114563,-1.0253500938415527,2
290,7.636538982391357,-12.023632049560547,6.213320255279541,-0.9008362889289856,-0.8493031859397888,-0.951687216758728,2
291,7.3187761306762695,-13.18111515045166,5.307358264923096,-1.6447639465332031,-0.30829235911369324,-0.6928222179412842,2
292,2.5048325061798096,-16.078903198242188,5.79499626159668,0.21800246834754944,-1.5502749681472778,-1.0427902936935425,2
293,7.271886348724365,-12.983223915100098,5.946264743804932,-0.023203615099191666,-1.4145028591156006,-0.9082600474357605,2
294,15.411386489868164,-2.5520358085632324,4.988673686981201,-0.14416690170764923,-0.9303626418113708,-0.7616897821426392,2
295,20.99601173400879,10.826251029968262,5.612494945526123,0.010158037766814232,-0.46530234813690186,-0.6920325756072998,2
296,21.955121994018555,25.60773277282715,7.087835788726807,-0.6386904716491699,-0.6975653767585754,-0.6278442740440369,2
297,10.276651382446289,39.22644805908203,8.733366012573242,-1.2102867364883423,0.03140488639473915,-0.4670470952987671,2
298,0.6158183217048645,46.636932373046875,9.37779712677002,-1.1812324523925781,-0.08417956531047821,-0.43349432945251465,2
299,-3.8684165477752686,37.05023956298828,10.797996520996094,-1.9298964738845825,-0.20527344942092896,-0.3551872968673706,2
300,1.5131609439849854,22.47118377685547,9.893120765686035,-2.3146116733551025,0.04809657111763954,-0.19208520650863647,2
301,19.923677444458008,8.465808868408203,8.175093650817871,-2.182450294494629,0.07586780190467834,-0.08693898469209671,2
302,28.875539779663086,-1.286625623703003,8.272385597229004,-2.395677328109741,0.2585568428039551,-0.021312983706593513,2
303,27.960939407348633,-5.725005149841309,7.574922561645508,-2.425044536590576,0.8873314261436462,0.16227523982524872,2
304,18.91387367248535,-7.896543502807617,6.001474380493164,-2.340521812438965,0.7889661192893982,0.09835457056760788,2
305,4.247941493988037,-10.977221488952637,4.422388553619385,-2.280123710632324,0.9808444380760193,0.16039185225963593,2
306,-10.995260238647461,-13.240187644958496,3.5267038345336914,-2.4318370819091797,1.136237621307373,0.21351727843284607,2
307,-19.206932067871094,-19.43414878845215,5.09440803527832,-2.322054624557495,1.0848640203475952,0.2569805383682251,2
308,-24.155298233032227,-29.350221633911133,6.51501989364624,-2.0910935401916504,0.8728570938110352,0.3002062439918518,2
309,-32.0040168762207,-36.73236846923828,7.689429759979248,-1.4893121719360352,0.5707547068595886,0.4039424657821655,2
310,-31.50839614868164,-33.901519775390625,9.585714340209961,-1.4637678861618042,0.3042975068092346,0.4217539131641388,2
311,-15.434364318847656,-20.1549072265625,11.967822074890137,-0.8661144971847534,0.0026134965009987354,0.5721473097801208,2
312,-1.8114689588546753,-3.425503969192505,13.066372871398926,-0.4958830773830414,-0.19785065948963165,0.7084813714027405,2
313,12.216137886047363,10.747888565063477,13.140376091003418,-0.29169219732284546,0.25027379393577576,0.9906284809112549,2
314,15.338088989257812,19.49207878112793,15.083888053894043,-0.2978849411010742,-0.08209846168756485,1.0504326820373535,2
315,4.120829105377197,23.69147300720215,15.612669944763184,-0.25122058391571045,0.2639319896697998,1.2635201215744019,2
316,-3.8245813846588135,19.261760711669922,17.487184524536133,-0.5224413871765137,-0.02353486232459545,1.3848166465759277,2
317,-2.1643545627593994,8.756072998046875,19.64617347717285,-0.9650771617889404,0.4837137460708618,1.5879542827606201,2
318,4.5723795890808105,-1.218247890472412,21.6256160736084,-0.8305221199989319,0.5312249660491943,1.810712456703186,2
319,8.70656967163086,-4.443191051483154,22.611953735351562,-0.5354675650596619,0.6821472644805908,2.067758798599243,2
320,2.8784265518188477,2.013878583908081,22.91812515258789,-1.0186141729354858,1.0533721446990967,2.249574661254883,2
321,-7.578874111175537,8.656563758850098,22.93451690673828,-1.1264091730117798,0.9656155109405518,2.450432777404785,2
322,-15.118644714355469,10.280214309692383,21.992080688476562,0.20713971555233002,1.4417873620986938,2.9700934886932373,2
323,-12.89607048034668,13.714401245117188,23.00241470336914,-0.40246182680130005,1.0963853597640991,3.0805885791778564,2
324,-10.232786178588867,25.694263458251953,23.100404739379883,-1.101200819015503,0.7034472227096558,3.1818768978118896,2
325,-10.426403999328613,32.90364074707031,23.18093490600586,-1.533427357673645,0.34103190898895264,3.362231969833374,2
326,-13.161019325256348,29.54688262939453,20.10100555419922,-0.4221683442592621,0.8737301230430603,3.9136178493499756,2
327,-19.564205169677734,21.87331771850586,14.37238883972168,-0.7828371524810791,0.42705339193344116,4.08178186416626,2
328,-30.670713424682617,15.46015453338623,10.309762001037598,-2.21897292137146,-0.08132272958755493,3.9958252906799316,2
329,-43.01924133300781,9.610939979553223,6.036930084228516,-0.9003238677978516,-0.7270838022232056,4.264644145965576,2
330,-45.046207427978516,10.074795722961426,1.9128990173339844,-1.73488187789917,-1.2539994716644287,4.233005046844482,2
331,-37.0440788269043,13.323988914489746,1.6551599502563477,-0.48457077145576477,-1.549408197402954,4.350870132446289,2
332,-23.9620418548584,16.432363510131836,2.801689863204956,-1.2634683847427368,-1.8204944133758545,4.378669261932373,2
333,-15.906072616577148,22.304588317871094,2.4120676517486572,-2.034079074859619,-1.7182284593582153,4.447568893432617,2
334,-12.202264785766602,26.166643142700195,1.4108880758285522,-2.838319778442383,-1.8066846132278442,4.516626358032227,2
335,-7.946598529815674,23.756528854370117,0.47129204869270325,-4.401346683502197,-1.5409353971481323,4.733700275421143,2
336,-4.229094982147217,10.84109115600586,-2.813309669494629,-5.084300518035889,-1.474088191986084,4.806326389312744,2
337,-12.659111022949219,-8.280033111572266,-4.793405532836914,-5.278238296508789,-1.5459823608398438,4.777366638183594,2
338,-29.430627822875977,-32.62590789794922,-3.790562868118286,-5.542825222015381,-2.0037431716918945,4.628350734710693,2
339,-32.521942138671875,-64.91450500488281,-0.529243528842926,-5.088019371032715,-2.4298806190490723,4.527281284332275,2
340,-15.528281211853027,-96.4466323852539,-2.060800552368164,-4.8667426109313965,-2.4342784881591797,4.820881366729736,2
341,0.3140522539615631,-114.49333953857422,-4.433456897735596,-3.5452609062194824,-2.525151014328003,4.799962997436523,2
342,23.12287712097168,-119.39527130126953,-3.208857536315918,-2.0473923683166504,-2.3553879261016846,4.804420471191406,2
343,35.88521957397461,-102.85581970214844,-1.4139282703399658,-1.1203899383544922,-2.0303003787994385,4.928527355194092,2
344,32.80967712402344,-64.35877227783203,0.3155743181705475,0.17141395807266235,-1.6189258098602295,4.887058258056641,2
345,19.350921630859375,-17.22385025024414,2.926375389099121,0.2808402180671692,-1.459925651550293,4.984500885009766,2
346,-7.871750831604004,16.958154678344727,6.533377170562744,0.38703078031539917,-1.402998447418213,5.006588459014893,2
347,-23.3197078704834,38.32331848144531,10.907410621643066,0.2974208891391754,-1.684844732284546,5.031497001647949,2
348,-21.97543716430664,45.47917175292969,11.145943641662598,-0.7040703296661377,-1.6911455392837524,5.262280464172363,2
349,-15.412644386291504,33.00149917602539,10.05792236328125,-0.9224228858947754,-1.9537136554718018,5.31246280670166,2
350,-12.610025405883789,2.8234310150146484,5.755152225494385,-1.7311958074569702,-2.053065776824951,5.5047149658203125,2
351,-11.030359268188477,-26.002479553222656,3.415688991546631,-1.3087818622589111,-2.3283557891845703,5.4661946296691895,2
352,-8.08621597290039,-50.2819938659668,1.9211664199829102,-1.0736719369888306,-2.317983627319336,5.527394771575928,2
353,-3.3721513748168945,-64.6606674194336,1.654624581336975,-0.14364835619926453,-2.458134651184082,5.464905261993408,2
354,-9.645709991455078,-67.20452117919922,1.1634423732757568,0.21076776087284088,-2.602165460586548,5.5775346755981445,2
355,-16.909521102905273,-58.27782440185547,0.24372027814388275,1.219476580619812,-2.816378116607666,5.539378643035889,2
356,-6.166250705718994,-45.04452133178711,-0.49297282099723816,1.4955449104309082,-2.837918281555176,5.6399149894714355,2
357,13.93087387084961,-26.73695182800293,-4.996064186096191,1.550830602645874,-2.990325927734375,5.776849746704102,2
358,30.53359603881836,-12.89969539642334,-10.714606285095215,2.1533217430114746,-2.5864028930664062,5.568983554840088,2
359,33.621585845947266,-16.08254623413086,-12.605029106140137,2.270688056945801,-2.396029233932495,5.51105260848999,2
360,29.83635139465332,-21.005828857421875,-13.08759880065918,2.7897918224334717,-2.0419886112213135,5.285078048706055,2
361,18.88140106201172,-22.619911193847656,-14.683293342590332,3.63792085647583,-1.710537314414978,4.9726786613464355,2
362,7.899842739105225,-14.34575080871582,-15.420075416564941,4.24397087097168,-1.4116307497024536,4.683998107910156,2
363,-0.7802748680114746,-0.725453794002533,-17.070955276489258,4.59084415435791,-1.2992794513702393,4.464308738708496,2
364,-4.183787822723389,18.12733268737793,-14.249560356140137,4.905458927154541,-1.0656945705413818,4.096380233764648,2
365,2.9908416271209717,36.803504943847656,-12.015202522277832,4.7518205642700195,-0.9833760857582092,3.8858511447906494,2
366,2.9960498809814453,45.43712615966797,-9.767059326171875,4.059564590454102,-1.2287604808807373,4.009389877319336,2
367,6.395685195922852,50.27491760253906,-8.862001419067383,3.3743717670440674,-1.1149977445602417,3.8665246963500977,2
368,7.01000452041626,40.53855895996094,-7.233713626861572,2.4096598625183105,-1.0476137399673462,3.8081300258636475,2
369,5.094420433044434,22.378002166748047,-6.018259048461914,1.8055734634399414,-0.9856336116790771,3.7516255378723145,2
370,1.9306323528289795,9.374587059020996,-9.209471702575684,1.7439626455307007,-0.6761810183525085,3.5158324241638184,2
371,-0.6892450451850891,-2.1465096473693848,-12.176023483276367,1.8409907817840576,-0.5274985432624817,3.3357973098754883,2
372,-6.325361728668213,-15.855585098266602,-12.644192695617676,2.51273775100708,-0.4601050615310669,3.163073778152466,2
373,-12.031107902526855,-30.027997970581055,-11.302835464477539,3.1711864471435547,-1.4078305959701538,3.52878737449646,2
374,-24.25483512878418,-24.28107261657715,-11.732770919799805,3.284193515777588,-1.5203571319580078,3.406883955001831,2
375,-22.280378341674805,-7.333556652069092,-11.239495277404785,3.188291311264038,-2.1984660625457764,3.5519447326660156,2
376,-14.917608261108398,12.75342082977295,-8.22878646850586,2.8312430381774902,-2.3158130645751953,3.412816286087036,2
377,1.338168740272522,29.052534103393555,-7.451401710510254,2.503943920135498,-2.621729612350464,3.427654504776001,2
378,20.29644203186035,42.212852478027344,-8.987414360046387,1.3286330699920654,-1.92487633228302,3.0585479736328125,2
379,33.544681549072266,45.55553436279297,-8.733417510986328,0.6911056041717529,-1.6657620668411255,2.9580914974212646,2
380,42.73234939575195,35.600616455078125,-8.771376609802246,0.12864620983600616,-1.0160244703292847,2.750443696975708,2
381,49.13515090942383,19.85248565673828,-11.42697525024414,-0.2384483963251114,-0.7675153613090515,2.7213008403778076,2
382,48.282752990722656,-7.756601810455322,-13.83824634552002,-0.28447213768959045,-0.16636782884597778,2.567438840866089,2
383,40.6429328918457,-40.53123092651367,-13.75936508178711,-0.6906737685203552,0.2369563728570938,2.459611415863037,2
384,28.53524398803711,-53.49295425415039,-13.282958030700684,-0.015036292374134064,0.8426622152328491,2.295612335205078,2
385,16.338354110717773,-57.20107650756836,-12.560995101928711,0.5241314172744751,1.1286085844039917,2.156709909439087,2
386,-1.4065775871276855,-58.02813720703125,-10.950292587280273,0.8666259050369263,1.1546437740325928,2.023467779159546,2
387,-19.33850860595703,-54.84714126586914,-9.533917427062988,1.2458137273788452,1.04525887966156,1.894042730331421,2
388,-29.867572784423828,-51.43682098388672,-9.44272232055664,1.8086448907852173,0.8696550130844116,1.7887153625488281,2
389,-25.794109344482422,-37.03076171875,-8.893939018249512,2.22685170173645,0.6082804203033447,1.6706188917160034,2
390,-12.968170166015625,-13.051316261291504,-8.01406478881836,2.7509591579437256,0.28821367025375366,1.6290154457092285,2
391,-11.00379753112793,5.6449360847473145,-6.930630207061768,2.645991802215576,0.45355504751205444,1.4508966207504272,2
392,-8.410346984863281,12.7477388381958,-4.648103713989258,2.4839346408843994,0.3225957751274109,1.3710925579071045,2
393,-0.9259527921676636,18.23373031616211,-1.8021153211593628,2.4989726543426514,0.17856182157993317,1.3788639307022095,2
394,6.237628936767578,15.572690963745117,1.9642643928527832,2.475395917892456,0.0798630565404892,1.4257094860076904,2
395,13.776480674743652,10.329426765441895,4.086517333984375,1.6175888776779175,0.476624995470047,1.2084227800369263,2
396,17.698062896728516,-0.22548648715019226,5.74295711517334,1.6696277856826782,0.6708513498306274,1.272061824798584,2
397,6.715003490447998,-14.637762069702148,5.665192127227783,1.719088077545166,0.9585378170013428,1.3036936521530151,2
398,-9.610745429992676,-28.0457706451416,7.250591278076172,1.4259990453720093,0.8812366127967834,1.2868821620941162,2
399,-27.97199821472168,-41.462188720703125,9.797778129577637,2.1139469146728516,0.5493878126144409,1.501124382019043,2
400,-38.1334228515625,-52.562294006347656,10.586968421936035,2.5462894439697266,0.31689882278442383,1.5819388628005981,2
401,-32.66905975341797,-52.57014846801758,11.6436767578125,3.130775213241577,-0.138663187623024,1.721731424331665,2
402,-15.349518775939941,-43.14583206176758,14.811383247375488,3.673220157623291,-0.3541315197944641,1.8206191062927246,2
403,15.381957054138184,-35.591346740722656,17.576072692871094,4.0537896156311035,-0.405107706785202,1.9388632774353027,2
404,29.61455535888672,-34.813045501708984,18.524906158447266,4.5262627601623535,0.05252465233206749,2.0288259983062744,2
405,33.147491455078125,-26.355106353759766,20.400325775146484,4.870265483856201,0.34167033433914185,2.2156527042388916,2
406,21.75947380065918,-6.769574165344238,22.83712387084961,4.914767265319824,0.5932096838951111,2.4046566486358643,2
407,1.39963960647583,6.811509609222412,23.199180603027344,4.864100456237793,0.6800497174263,2.6574273109436035,2
408,-24.20387840270996,11.060808181762695,23.479501724243164,4.806962013244629,0.531389594078064,2.9446985721588135,2
409,-47.0245475769043,7.333507537841797,22.993654251098633,4.878499984741211,0.07439573109149933,3.301570177078247,2
410,-66.5522689819336,-2.570348024368286,23.78440284729004,4.295590400695801,-0.36636975407600403,3.3963301181793213,2
411,-71.39210510253906,-7.147573471069336,26.31636619567871,4.530587673187256,-1.2476632595062256,3.7723307609558105,2
412,-55.03019332885742,-5.496785640716553,26.587467193603516,4.408635139465332,-1.8732134103775024,3.9611098766326904,2
413,-28.510787963867188,8.255264282226562,26.22312355041504,4.517226696014404,-2.4592061042785645,4.259342670440674,2
414,0.037979576736688614,18.513099670410156,25.118099212646484,4.416203498840332,-2.5092179775238037,4.384011268615723,2
415,25.791973114013672,28.440515518188477,25.433921813964844,4.054434776306152,-2.4199392795562744,4.576491832733154,2
416,42.87164306640625,27.808897018432617,26.853776931762695,3.628523349761963,-2.1886203289031982,4.841375827789307,2
417,53.216697692871094,26.415464401245117,23.484130859375,3.3553192615509033,-1.730237603187561,5.066298484802246,2
418,51.682552337646484,19.254074096679688,20.733240127563477,3.156022310256958,-1.0998024940490723,5.229602336883545,2
419,36.78493118286133,17.84309196472168,18.751998901367188,2.8704843521118164,-0.9767534136772156,5.623012542724609,2
420,28.464645385742188,22.394689559936523,14.019558906555176,2.7089903354644775,-0.4948635995388031,5.734790325164795,2
421,24.258319854736328,30.632492065429688,10.796332359313965,2.4335434436798096,-0.20232798159122467,5.862977504730225,2
422,17.556535720825195,24.188945770263672,7.502740859985352,2.0804057121276855,-0.055471617728471756,6.014588832855225,2
423,1.4748834371566772,22.84200096130371,3.6744046211242676,1.8445072174072266,0.12786772847175598,6.074044227600098,2
424,-11.60644817352295,11.009373664855957,2.3995351791381836,1.7113466262817383,0.2158052921295166,6.075398921966553,2
425,-17.18937873840332,-12.80675220489502,4.139431476593018,1.563330054283142,-0.01700342632830143,6.136148929595947,2
426,-16.350393295288086,-35.39319610595703,5.964823246002197,1.8869054317474365,-0.2763283848762512,6.20642614364624,2
427,-13.956087112426758,-38.95878601074219,7.890304088592529,2.04233455657959,-0.5046651363372803,6.288426399230957,2
428,-10.138519287109375,-35.64911651611328,11.516779899597168,2.3760294914245605,-0.6759687066078186,6.381862640380859,2
429,4.167915344238281,-25.503101348876953,13.182412147521973,2.6657612323760986,-0.7106467485427856,6.488842010498047,2
430,10.399096488952637,-12.213811874389648,10.287464141845703,2.8347983360290527,-0.7158620953559875,6.632594585418701,2
431,8.426861763000488,-3.9886019229888916,9.799528121948242,2.97845196723938,-0.5267054438591003,6.713674068450928,2
432,4.609086513519287,3.4043211936950684,12.373446464538574,3.0518875122070312,-0.6134452223777771,6.852825164794922,2
433,5.213457107543945,8.297200202941895,14.134590148925781,3.00970721244812,-0.5763510465621948,6.977619171142578,2
434,16.642601013183594,11.260791778564453,15.068445205688477,2.9642202854156494,-0.3730989098548889,7.082073211669922,2
435,35.33702850341797,19.63625144958496,12.25811767578125,2.5345959663391113,0.07186701893806458,7.170759201049805,2
436,43.56914138793945,25.102487564086914,8.868720054626465,2.388324737548828,-0.011244703084230423,7.389628887176514,2
437,37.2463493347168,31.358182907104492,5.036582946777344,2.0602176189422607,0.41282156109809875,7.47790002822876,2
438,21.12730598449707,35.29505920410156,-1.4127775430679321,1.7105121612548828,0.882391095161438,7.502188205718994,2
439,1.5430561304092407,30.077329635620117,-5.718684196472168,1.3661010265350342,0.8277236223220825,7.5310797691345215,2
440,-16.000701904296875,25.29587173461914,-9.47346019744873,1.0390880107879639,0.7821339964866638,7.479012489318848,2
441,-23.363506317138672,19.540817260742188,-13.951638221740723,0.9375579357147217,0.6013513207435608,7.397568225860596,2
442,-23.33877182006836,12.556305885314941,-17.853242874145508,0.6188552379608154,0.4194932281970978,7.24028205871582,2
443,-9.069693565368652,8.82502555847168,-17.783414840698242,0.5561953783035278,0.20024441182613373,7.066041469573975,2
444,8.083970069885254,14.730635643005371,-16.05051612854004,0.39300405979156494,0.22511693835258484,6.87860631942749,2
445,26.795005798339844,12.201157569885254,-14.786741256713867,0.34846699237823486,0.4208981692790985,6.718193531036377,2
446,26.706979751586914,15.275501251220703,-14.643548965454102,0.22250397503376007,0.9761744141578674,6.58108377456665,2
447,16.48588752746582,13.572661399841309,-12.681631088256836,0.08756481111049652,0.6989629864692688,6.413412094116211,2
448,5.183486461639404,7.828364372253418,-11.443532943725586,-0.004366680979728699,0.7173871994018555,6.285409927368164,2
449,4.477183818817139,-4.129314422607422,-12.307330131530762,-0.0743764117360115,0.7660574913024902,6.169336318969727,2
450,6.792686462402344,-25.4038143157959,-14.510984420776367,0.1452314555644989,0.9208835363388062,6.066290378570557,2
451,8.648900985717773,-37.183998107910156,-14.557392120361328,0.3315652906894684,0.9614746570587158,5.8988189697265625,2
452,5.3323235511779785,-35.906463623046875,-14.293542861938477,0.8881871104240417,1.0869463682174683,5.777737140655518,2
453,3.5406551361083984,-20.907970428466797,-13.05441665649414,0.8543938398361206,1.0872857570648193,5.573797702789307,2
454,-7.399894714355469,3.7473208904266357,-14.00673770904541,1.0748430490493774,1.101294755935669,5.446957588195801,2
455,-16.697490692138672,22.029682159423828,-13.69682502746582,0.8228106498718262,1.008951187133789,5.282205104827881,2
456,-21.482177734375,30.183334350585938,-11.51235294342041,0.5365402698516846,0.6243207454681396,5.114697456359863,2
457,-21.792980194091797,36.08976364135742,-9.980834007263184,0.12868010997772217,0.41270554065704346,4.993361949920654,2
458,-13.84394645690918,34.00299072265625,-8.609560012817383,-0.3511630594730377,0.14505697786808014,4.866466045379639,2
459,4.21641731262207,21.691675186157227,-6.443325996398926,-0.7608816027641296,0.030803464353084564,4.770794868469238,2
460,22.82480239868164,16.05669403076172,-7.33076286315918,-0.7371573448181152,0.1693125218153,4.748894214630127,2
461,34.25273132324219,14.395211219787598,-7.987796306610107,-0.8857231140136719,0.5816560983657837,4.709580898284912,2
462,37.314937591552734,11.385613441467285,-8.575923919677734,-1.010954737663269,1.009704828262329,4.648401737213135,2
463,35.386417388916016,4.220513343811035,-8.987627029418945,-1.2184646129608154,1.235207200050354,4.512893199920654,2
464,24.408584594726562,-6.912797927856445,-10.051473617553711,-1.1371787786483765,1.4842181205749512,4.41219425201416,2
465,9.062670707702637,-16.539636611938477,-10.262787818908691,-0.8734228014945984,1.692642331123352,4.332165241241455,2
466,0.0834977775812149,-32.109344482421875,-10.275726318359375,-0.6894912123680115,1.6565968990325928,4.191283702850342,2
467,-5.573006629943848,-43.64057540893555,-12.466939926147461,-0.15915963053703308,1.7063305377960205,4.122526168823242,2
468,-6.948430061340332,-34.09403610229492,-15.037935256958008,0.2526733875274658,1.2236378192901611,3.853516101837158,2
469,-9.53293228149414,-19.553943634033203,-17.5109806060791,0.5710431933403015,1.0979937314987183,3.6770479679107666,2
470,-9.241619110107422,-13.88276481628418,-18.572885513305664,0.7827005386352539,1.0408941507339478,3.5138447284698486,2
471,1.7189621925354004,-3.40999436378479,-21.043441772460938,0.48923859000205994,1.0124093294143677,3.2547378540039062,2
472,8.990164756774902,9.518269538879395,-21.71466636657715,0.5483141541481018,1.0472111701965332,3.054074764251709,2
473,18.733858108520508,28.134117126464844,-23.09596061706543,0.3320828676223755,1.2344721555709839,2.8391313552856445,2
474,16.390790939331055,43.95079040527344,-24.110151290893555,-0.16638562083244324,1.4755572080612183,2.593701124191284,2
475,1.4755120277404785,45.62691116333008,-23.004369735717773,-0.5096723437309265,1.5428807735443115,2.370514392852783,2
476,-11.937006950378418,30.228574752807617,-18.72884178161621,-1.0275723934173584,1.3736448287963867,2.1087820529937744,2
477,-15.939596176147461,5.442872524261475,-12.644608497619629,-1.3269397020339966,1.3703974485397339,1.9679442644119263,2
478,-8.6390380859375,-12.977559089660645,-8.354716300964355,-1.1147716045379639,1.1620612144470215,1.8808307647705078,2
479,4.775852203369141,-26.44622230529785,-4.920136451721191,-1.1118367910385132,1.0669710636138916,1.761976957321167,2
480,28.652374267578125,-40.07602310180664,-2.626976490020752,-0.4970436692237854,1.4336366653442383,1.852213978767395,2
481,47.53826141357422,-51.443843841552734,0.46550804376602173,0.1495174765586853,1.4756805896759033,1.7731343507766724,2
482,46.23092269897461,-51.63552474975586,4.464880466461182,0.8052308559417725,2.1888012886047363,1.8610795736312866,2
483,37.617225646972656,-49.175254821777344,6.906976222991943,1.0497335195541382,2.6456544399261475,1.8453021049499512,2
484,29.802448272705078,-51.74899673461914,9.80742073059082,1.69501531124115,3.179802656173706,1.9645142555236816,2
485,22.32499122619629,-52.34920120239258,11.789148330688477,2.348987340927124,3.2721445560455322,2.0308101177215576,2
486,16.641050338745117,-49.23887634277344,13.507631301879883,2.676987648010254,3.3444995880126953,2.052020788192749,2
487,10.51008129119873,-34.02027893066406,15.517755508422852,3.0870134830474854,3.4721839427948,2.144834280014038,2
488,1.6029049158096313,-9.759136199951172,13.291742324829102,3.463733196258545,3.5408730506896973,2.3001654148101807,2
489,-5.0606255531311035,12.343161582946777,8.386518478393555,3.4295480251312256,3.474339246749878,2.393623113632202,2
490,-12.578131675720215,25.174007415771484,4.050534248352051,3.263396978378296,3.3712782859802246,2.4713284969329834,2
491,-19.744129180908203,34.12683868408203,1.7289493083953857,2.840611219406128,3.1402580738067627,2.4760494232177734,2
492,-19.62629508972168,40.47930145263672,-4.586238861083984,2.2988057136535645,2.931662082672119,2.4354207515716553,2
493,-11.910496711730957,37.978546142578125,-10.975502967834473,1.806316614151001,2.793508529663086,2.3647022247314453,2
494,-8.956168174743652,25.290908813476562,-17.88738441467285,1.606289267539978,2.7404067516326904,2.304107427597046,2
495,-4.292697429656982,2.5590462684631348,-24.36063575744629,1.301682472229004,2.668149709701538,2.0925118923187256,2
496,-0.7506839036941528,-24.07459259033203,-28.589431762695312,1.5015379190444946,2.6662228107452393,1.8942365646362305,2
497,-13.21939754486084,-27.920982360839844,-30.756418228149414,1.9971636533737183,2.581961154937744,1.6846665143966675,2
498,-30.755313873291016,-29.22612953186035,-31.737855911254883,2.4343421459198,2.3957631587982178,1.4236807823181152,2
499,-44.403533935546875,-28.03150749206543,-29.922794342041016,2.3342950344085693,2.0259504318237305,0.9700804948806763,2
500,-46.908294677734375,-17.567148208618164,-26.51028823852539,2.690863847732544,1.372584581375122,0.7257936596870422,2
501,-37.38482666015625,4.060224533081055,-22.303377151489258,2.839163064956665,1.0260740518569946,0.4607180655002594,2
502,-14.593880653381348,23.394329071044922,-18.676855087280273,2.561821222305298,0.7253510355949402,0.18608738481998444,2
503,6.969844818115234,32.181640625,-14.124436378479004,2.1463401317596436,0.7136863470077515,-0.045149389654397964,2
504,20.294265747070312,33.722991943359375,-9.24050521850586,1.8062593936920166,0.9807540774345398,-0.19771724939346313,2
505,27.034828186035156,32.18855285644531,-6.608240604400635,1.5470420122146606,1.1714955568313599,-0.25699958205223083,2
506,16.361305236816406,30.795345306396484,-2.675335168838501,1.1522232294082642,1.4708362817764282,-0.3305709660053253,2
507,2.476210355758667,20.890241622924805,2.4522602558135986,0.9326089024543762,1.627938985824585,-0.3275817036628723,2
508,-6.360963821411133,1.414185881614685,7.399019241333008,0.8077986836433411,1.516361117362976,-0.26886287331581116,2
509,-5.722099781036377,-10.834088325500488,12.76507568359375,0.9438050985336304,1.4207168817520142,-0.16071176528930664,2
510,-0.38050228357315063,-2.6244425773620605,17.188108444213867,1.1017075777053833,1.298465371131897,-0.015170358121395111,2
511,5.173699855804443,11.629813194274902,21.29429054260254,1.072512149810791,1.3464564085006714,0.15017300844192505,2
512,7.366894245147705,24.97802734375,21.292123794555664,0.8011114597320557,1.3985564708709717,0.3654707074165344,2
513,0.490129292011261,31.572086334228516,22.85319709777832,0.5348675847053528,1.5090444087982178,0.5618429780006409,2
514,-5.151083946228027,34.590694427490234,24.40013313293457,0.043549079447984695,1.495212435722351,0.7764759063720703,2
515,-7.4438323974609375,29.523195266723633,27.372364044189453,-0.15377262234687805,1.1703482866287231,1.0619819164276123,2
516,1.5293270349502563,32.8143424987793,29.409147262573242,-0.29120492935180664,1.087873101234436,1.368455410003662,2
517,11.633746147155762,42.24380874633789,27.180709838867188,-0.6697583198547363,1.1724380254745483,1.6628787517547607,2
518,12.39055347442627,46.221553802490234,24.763309478759766,-1.139754295349121,1.389514446258545,1.935634732246399,2
519,7.624064922332764,33.798091888427734,24.0164794921875,-1.7758723497390747,1.5197542905807495,2.1724867820739746,2
520,3.8920722007751465,7.378094673156738,21.3524112701416,-1.6711128950119019,1.4356729984283447,2.4381372928619385,2
521,-6.0552568435668945,-23.366395950317383,18.526933670043945,-1.6753650903701782,1.415673851966858,2.640878438949585,2
522,-9.425204277038574,-42.462520599365234,15.69584846496582,-1.4011536836624146,1.3181523084640503,2.809123992919922,2
523,-4.4524149894714355,-45.399620056152344,13.305900573730469,-0.7740728855133057,1.1963191032409668,2.956150531768799,2
524,5.695168495178223,-41.767887115478516,13.212597846984863,-0.38009417057037354,1.1666615009307861,3.074737548828125,2
525,24.142087936401367,-34.9200553894043,10.54472827911377,0.2553163766860962,1.3353948593139648,3.225571632385254,2
526,35.017391204833984,-19.460330963134766,6.834360599517822,0.5165529251098633,1.7998614311218262,3.3465652465820312,2
527,38.778778076171875,4.224384307861328,1.107236623764038,0.7150882482528687,2.4008941650390625,3.4484951496124268,2
528,38.092811584472656,22.524795532226562,-4.589128494262695,0.4494006037712097,2.7989680767059326,3.4390921592712402,2
529,29.228193283081055,32.57523727416992,-7.9265899658203125,0.13812364637851715,3.0143282413482666,3.3658607006073,2
530,3.095637559890747,40.8615608215332,-11.449408531188965,-0.3341180384159088,3.265223503112793,3.2869184017181396,2
531,-31.583450317382812,45.48893737792969,-14.378454208374023,-0.9116306304931641,3.0857508182525635,3.146406888961792,2
532,-70.07701873779297,39.92736053466797,-14.921966552734375,-1.3875272274017334,2.33994722366333,2.961684226989746,2
533,-91.461181640625,27.53504180908203,-11.526445388793945,-1.7385700941085815,1.2230616807937622,2.763789653778076,2
534,-92.5173568725586,14.393722534179688,-6.495851993560791,-2.022918462753296,0.5098714828491211,2.7148613929748535,2
535,-64.913330078125,-3.9624359607696533,-1.3660067319869995,-2.0153086185455322,-0.7118239998817444,2.580198049545288,2
536,-19.08441162109375,-22.595928192138672,2.3486976623535156,-1.719029426574707,-0.5541869401931763,2.795814037322998,2
537,29.259048461914062,-29.012876510620117,1.9788607358932495,-1.3801243305206299,-0.40572842955589294,2.879683494567871,2
538,61.09703826904297,-29.65700340270996,1.6163796186447144,-1.0735867023468018,0.2310577929019928,2.965243339538574,2
539,65.88489532470703,-26.296064376831055,1.9490495920181274,-0.7282187342643738,0.7270674705505371,2.9387412071228027,2
540,52.54473114013672,-24.298866271972656,2.3611152172088623,-0.49780765175819397,1.288855791091919,2.935056447982788,2
541,29.15221405029297,-15.647150993347168,0.5588704347610474,-0.28950273990631104,1.5204360485076904,2.8834962844848633,2
542,0.5794535875320435,1.1512176990509033,-2.6610381603240967,-0.15931737422943115,1.6958074569702148,2.8704864978790283,2
543,-29.83609390258789,19.469993591308594,-4.3585991859436035,-0.3357257544994354,1.684091329574585,2.8581886291503906,2
544,-55.6010627746582,28.653858184814453,-2.5171401500701904,-0.7202467918395996,1.191062092781067,2.792726993560791,2
545,-69.30521392822266,28.479736328125,0.7185279726982117,-1.002311110496521,0.22753509879112244,2.6900436878204346,2
546,-67.45604705810547,22.667909622192383,4.951135635375977,-1.2883501052856445,-0.24113444983959198,2.7721810340881348,2
547,-52.878150939941406,10.060348510742188,9.144658088684082,-1.4875901937484741,-0.8627091646194458,2.8358373641967773,2
548,-28.275882720947266,-13.460060119628906,11.555441856384277,-1.4432742595672607,-1.3700169324874878,2.916736602783203,2
549,-1.6147594451904297,-29.000507354736328,12.237966537475586,-1.0117580890655518,-0.990109920501709,3.1921091079711914,2
550,28.406993865966797,-39.241371154785156,12.327336311340332,-0.669893205165863,-0.7573193311691284,3.361737012863159,2
551,41.795738220214844,-29.707168579101562,10.056817054748535,-0.21512655913829803,-0.2757880985736847,3.513669490814209,2
552,28.659761428833008,-8.548299789428711,5.4532389640808105,-0.05050322413444519,-0.07877117395401001,3.5582475662231445,2
553,10.192743301391602,9.974812507629395,2.8112597465515137,-0.13160938024520874,0.15316973626613617,3.6197566986083984,2
554,-11.521882057189941,29.87420654296875,0.7137048244476318,-0.3839646279811859,0.03584309294819832,3.6189212799072266,2
555,-24.559370040893555,41.710472106933594,0.5244320034980774,-0.8727028965950012,-0.18731634318828583,3.6314756870269775,2
556,-30.544418334960938,52.31922912597656,0.33877328038215637,-1.3836300373077393,-0.7189500331878662,3.5828075408935547,2
557,-26.342824935913086,51.73441696166992,-0.954423725605011,-2.1272754669189453,-0.9111775755882263,3.629185438156128,2
558,-20.25983238220215,38.5204963684082,-1.9147955179214478,-2.3976705074310303,-1.0220063924789429,3.6103057861328125,2
559,-11.60805606842041,22.30126953125,-5.734808444976807,-2.7995991706848145,-1.232939600944519,3.5756595134735107,2
560,-6.611423492431641,4.448404312133789,-8.957612991333008,-2.911801815032959,-1.4251255989074707,3.4676854610443115,2
561,0.7188665270805359,-10.550500869750977,-9.4608154296875,-2.7435877323150635,-1.4953171014785767,3.332421064376831,2
562,13.685816764831543,-22.423831939697266,-7.111056804656982,-2.514951467514038,-1.375522494316101,3.2550339698791504,2
563,20.810686111450195,-24.017227172851562,-4.654287815093994,-2.2757961750030518,-1.172842025756836,3.20812726020813,2
564,19.703645706176758,-23.77065086364746,-2.748035430908203,-1.9455784559249878,-0.8529267907142639,3.186776876449585,2
565,6.008950233459473,-18.03026580810547,0.6168224215507507,-1.6139211654663086,-0.8427487015724182,3.0910303592681885,2
566,-14.726606369018555,-11.24120807647705,3.104339122772217,-1.4721568822860718,-0.8208947777748108,3.1203322410583496,2
567,-34.6434440612793,-4.84776496887207,7.102535724639893,-1.578192114830017,-1.2814210653305054,3.1278767585754395,2
568,-49.795860290527344,-3.770195722579956,12.045819282531738,-1.8074846267700195,-1.6430914402008057,3.2998785972595215,2
569,-50.071678161621094,-4.590296268463135,15.280966758728027,-1.7060633897781372,-2.3382441997528076,3.353250503540039,2
570,-37.224815368652344,-11.202410697937012,17.233287811279297,-1.6946239471435547,-2.8089327812194824,3.5260891914367676,2
571,-18.602174758911133,-15.957357406616211,16.258399963378906,-1.4402865171432495,-3.155970573425293,3.6475982666015625,2
572,9.10684585571289,-21.803382873535156,14.948863983154297,-1.093532919883728,-3.111201286315918,3.815805673599243,2
573,35.11258316040039,-18.418359756469727,13.443714141845703,-1.2879881858825684,-2.7033333778381348,4.189978122711182,2
574,52.93204116821289,-13.427753448486328,10.846707344055176,-0.9867538809776306,-2.2530224323272705,4.292358875274658,2
575,52.12986755371094,-7.121776580810547,7.66544246673584,-0.8665770888328552,-1.5295096635818481,4.449579238891602,2
576,47.6611213684082,-10.684430122375488,7.853243350982666,-0.7900843024253845,-1.0121725797653198,4.5287370681762695,2
577,30.136917114257812,-11.94324016571045,7.458614349365234,-0.5712747573852539,-0.9007275104522705,4.474790573120117,2
578,16.57489776611328,-13.839071273803711,7.645566463470459,-0.40151724219322205,-0.7539423108100891,4.508143424987793,2
579,-0.5707305073738098,-6.175956726074219,9.31506633758545,-0.18534404039382935,-0.6897828578948975,4.541779518127441,2
580,-1.2040621042251587,-7.084169864654541,12.628083229064941,-0.2024150788784027,-0.6663386821746826,4.68393611907959,2
581,1.5958197116851807,-11.256147384643555,15.62210750579834,-0.043026700615882874,-0.6599054932594299,4.797902584075928,2
582,-3.0896427631378174,-8.156299591064453,15.006495475769043,0.08533971011638641,-0.6315658688545227,4.953851699829102,2
583,3.0637733936309814,-16.104393005371094,15.948872566223145,0.354236900806427,-0.6309404969215393,5.061524868011475,2
584,10.590328216552734,-14.250168800354004,18.5263614654541,0.4450099766254425,-0.5467100739479065,5.250542640686035,2
585,16.82437515258789,-17.20587921142578,19.000932693481445,0.49282267689704895,-0.5671080946922302,5.453875541687012,2
586,35.063987731933594,-8.69880199432373,20.71588897705078,0.5411788821220398,-0.26591190695762634,5.69110631942749,2
587,42.78664779663086,9.693740844726562,21.14338493347168,0.6306859850883484,0.3928222060203552,5.903265953063965,2
588,47.12138366699219,32.3680534362793,24.226552963256836,0.4590279161930084,0.6167134046554565,6.107897758483887,2
589,41.29566955566406,46.22047805786133,26.24354362487793,-0.1411236822605133,1.1592471599578857,6.419658184051514,2
590,29.226503372192383,55.06814193725586,26.085491180419922,-0.6067430377006531,1.3624314069747925,6.686094760894775,2
591,24.27583122253418,49.96552276611328,24.282230377197266,-1.0672838687896729,1.497772216796875,6.938618183135986,2
592,20.501934051513672,43.678253173828125,19.275676727294922,-1.6354777812957764,1.9182049036026,7.202066898345947,2
593,10.971685409545898,37.59099578857422,12.740310668945312,-1.6887257099151611,1.9346693754196167,7.3301167488098145,2
594,-2.8955392837524414,23.303451538085938,5.708973407745361,-2.086693048477173,1.940248727798462,7.4508795738220215,2
595,-17.378955841064453,5.430268287658691,-1.1252611875534058,-1.9489957094192505,1.8273789882659912,7.465592861175537,2
596,-19.925518035888672,-18.744220733642578,-6.1267619132995605,-1.8794171810150146,1.8314613103866577,7.4593505859375,2
597,-12.915547370910645,-38.90151596069336,-11.308817863464355,-1.3413110971450806,1.5708894729614258,7.360174655914307,2
598,2.819520950317383,-49.95387649536133,-13.666974067687988,-0.8915711045265198,1.5965511798858643,7.240758419036865,2
599,19.893028259277344,-47.72914505004883,-13.736261367797852,-0.48020118474960327,1.8165757656097412,7.099084854125977,2
600,30.25424575805664,-35.563453674316406,-12.52927303314209,0.19802400469779968,2.2565457820892334,6.986454486846924,2
601,31.195541381835938,-16.794471740722656,-11.233016014099121,0.17317579686641693,2.3624775409698486,6.808547496795654,2
602,20.452882766723633,9.79867935180664,-11.675549507141113,0.24687111377716064,2.684727907180786,6.693823337554932,2
603,5.361604690551758,29.650177001953125,-12.702019691467285,-0.0695308968424797,2.852064847946167,6.562498092651367,2
604,-15.580224990844727,36.38131332397461,-12.678502082824707,-0.5049043297767639,2.6883671283721924,6.427578926086426,2
605,-33.85959243774414,26.348398208618164,-12.805094718933105,-0.6332197189331055,2.362961769104004,6.3487653732299805,2
606,-41.32625198364258,3.697262763977051,-14.14149284362793,-0.783211350440979,1.914070963859558,6.229868412017822,2
607,-40.35080337524414,-19.686054229736328,-16.58488655090332,-0.6145627498626709,1.351449966430664,6.0989484786987305,2
608,-36.51779556274414,-28.094453811645508,-20.080331802368164,-0.2007182389497757,1.017656683921814,5.957571029663086,2
609,-25.575429916381836,-38.08518981933594,-20.04415512084961,0.1943422257900238,0.8934459686279297,5.774873733520508,2
610,-9.005775451660156,-39.57621765136719,-19.353364944458008,0.5825306177139282,0.9979459643363953,5.580041408538818,2
611,0.7464126348495483,-39.141300201416016,-18.83919334411621,1.2095739841461182,0.8932294249534607,5.424015522003174,2
612,4.90576171875,-29.906761169433594,-16.370454788208008,1.401293158531189,0.9874905347824097,5.20774507522583,2
613,10.350098609924316,-13.925220489501953,-15.589913368225098,1.783778429031372,1.0664187669754028,5.063633441925049,2
614,6.6476874351501465,4.9155778884887695,-18.155269622802734,1.7578152418136597,1.1607990264892578,4.88667631149292,2
615,3.4531731605529785,21.448545455932617,-21.98908805847168,1.5148773193359375,1.186553955078125,4.67749547958374,2
616,-8.119401931762695,33.611515045166016,-26.66172218322754,1.128982663154602,1.386203646659851,4.400866985321045,2
617,-27.754741668701172,32.455081939697266,-31.258684158325195,0.6800665855407715,0.965718150138855,4.139992713928223,2
618,-47.54599380493164,25.508026123046875,-32.570526123046875,0.38511544466018677,0.47074830532073975,3.848123788833618,2
619,-67.86473846435547,11.250510215759277,-31.340553283691406,0.38088175654411316,0.4000783860683441,3.486907958984375,2
620,-73.38554382324219,6.944055557250977,-25.865556716918945,0.2746393084526062,-0.5855544209480286,3.2185661792755127,2
621,-76.25688171386719,21.048206329345703,-19.496444702148438,0.05513518676161766,-1.0731031894683838,2.929320812225342,2
622,-67.08008575439453,38.335845947265625,-12.155030250549316,-0.28309816122055054,-2.195415735244751,2.7908220291137695,2
623,-50.41904830932617,50.141605377197266,-6.115041255950928,-0.7617378234863281,-2.209221124649048,2.6012651920318604,2
624,-30.017518997192383,53.04362487792969,-0.5086773037910461,-1.3632416725158691,-2.860874652862549,2.554103374481201,2
625,-5.75150728225708,44.19377899169922,1.1662722826004028,-1.6565335988998413,-2.8966660499572754,2.5121257305145264,2
626,31.643497467041016,25.1242733001709,-0.08758075535297394,-2.0767340660095215,-2.616730213165283,2.5011801719665527,2
627,59.47202682495117,7.645814418792725,-2.9515044689178467,-2.2735910415649414,-2.1300225257873535,2.4852263927459717,2
628,65.41085815429688,-0.7947675585746765,-7.1817731857299805,-2.1879799365997314,-1.3254046440124512,2.4303324222564697,2
629,52.372039794921875,-7.07971715927124,-11.406061172485352,-2.0658977031707764,-0.7594321370124817,2.3250174522399902,2
630,15.759020805358887,-17.25091552734375,-13.638457298278809,-1.8089359998703003,-0.42294996976852417,2.166123151779175,2
631,-27.338233947753906,-30.054405212402344,-14.116674423217773,-1.7419074773788452,-0.6586805582046509,2.0267839431762695,2
632,-60.50503921508789,-36.992610931396484,-12.554980278015137,-1.418351650238037,-1.1644657850265503,1.883317232131958,2
633,-70.80758666992188,-28.899442672729492,-12.337724685668945,-0.9015110731124878,-2.282146453857422,1.6869713068008423,2
634,-56.790565490722656,-10.129240036010742,-14.055135726928711,-0.7052666544914246,-2.554741144180298,1.6265751123428345,2
635,-29.097936630249023,4.021695137023926,-14.029675483703613,-0.7049952745437622,-3.3038101196289062,1.474848985671997,2
636,-3.2117042541503906,12.888216018676758,-14.34261417388916,-0.866757869720459,-3.2881627082824707,1.3853752613067627,2
637,15.583135604858398,4.4018144607543945,-14.667784690856934,-0.885520875453949,-3.2281711101531982,1.210697054862976,2
638,24.43846321105957,-6.482419013977051,-13.309316635131836,-0.8826854228973389,-3.1647183895111084,1.0457589626312256,2
639,24.64899253845215,-14.228612899780273,-10.995450019836426,-0.7931668758392334,-2.788140058517456,0.9372259378433228,2
640,16.643096923828125,-17.98261833190918,-9.101451873779297,-0.6249160170555115,-2.5529422760009766,0.8402867913246155,2
641,2.7410905361175537,-15.79481029510498,-7.383346080780029,-0.40342429280281067,-2.3738012313842773,0.7647976279258728,2
642,1.3311550617218018,-7.116947174072266,-5.264742851257324,-0.1901957392692566,-2.5407466888427734,0.6645146012306213,2
643,4.2371978759765625,5.829280376434326,-6.7942352294921875,-0.07659927755594254,-2.5385122299194336,0.5790488123893738,2
644,11.459083557128906,20.749792098999023,-10.208738327026367,-0.5086785554885864,-2.4505181312561035,0.617544949054718,2
645,21.428403854370117,28.13128662109375,-17.25977325439453,-0.90449458360672,-2.380048990249634,0.5357840061187744,2
646,27.19158363342285,28.58843994140625,-24.656827926635742,-1.3000270128250122,-2.1505749225616455,0.369036465883255,2
647,31.95277976989746,22.909299850463867,-30.06460952758789,-1.4561351537704468,-1.684078574180603,0.05901365727186203,2
648,24.334213256835938,18.682157516479492,-34.239990234375,-1.6145495176315308,-1.1861027479171753,-0.27641141414642334,2
649,9.136784553527832,14.356546401977539,-36.10502243041992,-1.7731009721755981,-1.4123517274856567,-0.6781529784202576,2
650,-7.325778007507324,5.077877998352051,-35.70569610595703,-1.9030730724334717,-1.428980827331543,-1.0726350545883179,2
651,-16.48525619506836,-0.2569374144077301,-34.7813835144043,-1.84095299243927,-1.6892648935317993,-1.46646249294281,2
652,-17.57419776916504,-8.550662994384766,-33.38033676147461,-1.754181146621704,-2.0392696857452393,-1.8345359563827515,2
653,-11.977272987365723,-9.230148315429688,-32.78013229370117,-1.740108609199524,-2.196883201599121,-2.1316537857055664,2
654,2.1144254207611084,-9.095101356506348,-31.509706497192383,-1.5639476776123047,-2.2826480865478516,-2.480865478515625,2
655,11.22122573852539,-0.8510451316833496,-27.845172882080078,-1.3640450239181519,-2.2338833808898926,-2.8296074867248535,2
656,21.220130920410156,7.0317063331604,-25.78107452392578,-1.4027678966522217,-2.097033977508545,-3.1031546592712402,2
657,27.582063674926758,7.036346435546875,-25.61570930480957,-1.4536371231079102,-1.8033335208892822,-3.3626222610473633,2
658,30.605819702148438,6.529855728149414,-23.372074127197266,-1.486947774887085,-1.4107818603515625,-3.6068997383117676,2
659,21.683696746826172,14.378276824951172,-21.39349937438965,-1.7903001308441162,-1.3682668209075928,-3.7920541763305664,2
660,11.823354721069336,11.70093822479248,-16.811405181884766,-1.811939001083374,-1.357743501663208,-4.03882360458374,2
661,3.6904196739196777,-0.5874143838882446,-11.838887214660645,-1.9183893203735352,-1.3190597295761108,-4.176599502563477,2
662,-0.9088405966758728,-13.896916389465332,-9.685035705566406,-1.8759572505950928,-1.3649276494979858,-4.284339427947998,2
663,-9.444540977478027,-17.56072235107422,-4.101680755615234,-1.72958242893219,-1.6894073486328125,-4.402873516082764,2
664,-6.856440544128418,-19.12606430053711,4.878220558166504,-1.3177783489227295,-1.715730905532837,-4.450887203216553,2
665,8.958769798278809,-28.300106048583984,12.689019203186035,-1.205963134765625,-1.855672001838684,-4.3574957847595215,2
666,33.6424446105957,-33.9246711730957,20.195051193237305,-0.7313280701637268,-1.599458932876587,-4.228202819824219,2
667,56.26728820800781,-30.456113815307617,26.41718292236328,-0.42516207695007324,-1.1070828437805176,-3.9786741733551025,2
668,65.8158187866211,-21.662254333496094,33.78958511352539,-0.23909389972686768,-0.3785795569419861,-3.6448874473571777,2
669,67.1832275390625,-13.234246253967285,38.380008697509766,-0.11152175813913345,0.408566415309906,-3.2576801776885986,2
670,63.011474609375,-7.228192329406738,39.538116455078125,-0.16252993047237396,0.5285245180130005,-2.881113052368164,2
671,53.307273864746094,-2.335101842880249,42.34800720214844,0.01927466131746769,1.479753017425537,-2.466477394104004,2
672,46.80718231201172,3.451975107192993,44.29988479614258,-0.05002919211983681,1.652281641960144,-2.0397021770477295,2
673,35.84137725830078,9.20751667022705,44.15660858154297,-0.054841071367263794,2.151331901550293,-1.5949174165725708,2
674,28.98342514038086,14.261326789855957,42.781578063964844,-0.13526739180088043,2.653679132461548,-1.1468348503112793,2
675,24.3492374420166,20.330442428588867,41.604576110839844,-0.46245041489601135,2.8978681564331055,-0.716742217540741,2
676,17.1481990814209,22.646081924438477,38.966209411621094,-0.6849070191383362,2.7981293201446533,-0.30308428406715393,2
677,12.310287475585938,27.39494514465332,36.68897247314453,-0.9737919569015503,2.936983108520508,0.08727280050516129,2
678,3.4235501289367676,30.143829345703125,35.43552780151367,-1.3180509805679321,3.10813570022583,0.45435401797294617,2
679,4.577180862426758,17.726274490356445,34.821197509765625,-1.5305594205856323,3.223721742630005,0.8277454376220703,2
680,1.025518774986267,9.048447608947754,33.8541145324707,-1.5944328308105469,3.363515853881836,1.1971696615219116,2
681,-3.1844751834869385,-4.049810886383057,32.053558349609375,-1.443827748298645,3.4344136714935303,1.5763027667999268,2
682,-5.496209621429443,-18.027311325073242,30.11181640625,-1.2182281017303467,3.4381871223449707,1.9135655164718628,2
683,-5.67833137512207,-30.415456771850586,29.050493240356445,-0.8443288803100586,3.053006887435913,2.2152295112609863,2
684,-2.133052110671997,-34.60493469238281,31.423860549926758,-0.168206587433815,3.4771125316619873,2.6381947994232178,2
685,0.09258442372083664,-30.516286849975586,31.070505142211914,0.9194678664207458,4.2003302574157715,3.2211363315582275,2
686,0.6500572562217712,-25.821094512939453,31.747182846069336,1.7439378499984741,4.04296875,3.7302722930908203,2
687,3.993764877319336,-9.85256576538086,33.048362731933594,1.9388060569763184,4.160211563110352,4.024113178253174,2
688,7.368742942810059,20.313758850097656,32.35233688354492,1.7800047397613525,4.224263668060303,4.279482364654541,2
689,-0.04109656810760498,50.55290603637695,30.20061492919922,0.9528710842132568,4.463100910186768,4.342473030090332,2
690,-3.2018091678619385,71.91769409179688,32.13031768798828,-0.08593201637268066,4.390645503997803,4.471837520599365,2
691,-13.830037117004395,76.1975326538086,34.2193603515625,-1.4053144454956055,3.615992546081543,4.63332462310791,2
692,-28.489986419677734,71.32185363769531,34.4647102355957,-3.784597396850586,1.6877343654632568,4.253943920135498,2
693,-30.331445693969727,37.95357131958008,37.40022659301758,-4.265082359313965,1.3601891994476318,4.680108547210693,2
694,-20.801284790039062,-1.9414180517196655,35.973480224609375,-4.231358051300049,1.5064582824707031,5.205761909484863,2
695,-6.266489505767822,-48.894412994384766,31.229259490966797,-3.555579423904419,1.4459749460220337,5.802852630615234,2
696,13.14023208618164,-92.0384521484375,27.056676864624023,-2.6689631938934326,1.580146074295044,6.198065280914307,2
697,26.908987045288086,-122.74547576904297,25.526498794555664,-1.2592405080795288,2.129581928253174,6.612657070159912,2
698,29.276851654052734,-128.15048217773438,26.114099502563477,-0.17565734684467316,2.5902960300445557,6.7523722648620605,2
699,38.30635452270508,-118.19060516357422,25.560617446899414,1.8267314434051514,3.2639362812042236,7.253530025482178,2
700,23.82533073425293,-95.74374389648438,23.40682601928711,2.4876558780670166,3.3668177127838135,7.24822473526001,2
701,6.935532569885254,-58.48527526855469,19.761157989501953,3.2328410148620605,3.594311237335205,7.388943672180176,2
702,-18.22777557373047,-22.623987197875977,15.46709156036377,3.8399393558502197,3.50789475440979,7.62327766418457,2
703,-35.38459014892578,9.874125480651855,9.980230331420898,3.9069948196411133,3.230746030807495,7.745663642883301,2
704,-41.47004318237305,35.876991271972656,8.666977882385254,3.654179096221924,2.7278244495391846,7.8585205078125,2
705,-51.427574157714844,42.64676284790039,7.354701042175293,3.0389950275421143,2.0555315017700195,7.913749694824219,2
706,-41.779693603515625,35.74736022949219,6.484057903289795,2.575756788253784,1.7896443605422974,7.90541410446167,2
707,-30.667510986328125,20.239416122436523,5.24342679977417,2.282879114151001,1.5267534255981445,7.926482677459717,2
708,-15.610113143920898,5.703638076782227,2.7295894622802734,2.177462577819824,1.5605823993682861,7.8807477951049805,2
709,-8.390604019165039,-11.604936599731445,0.49733966588974,2.3385517597198486,1.316798448562622,7.996809959411621,2
710,7.889656066894531,-16.51357078552246,-2.775033712387085,2.6405820846557617,1.5069907903671265,7.9723920822143555,2
711,7.312721252441406,-17.774150848388672,-2.807788610458374,2.782823085784912,1.7693268060684204,7.859991073608398,2
712,-0.5423310995101929,-2.124729633331299,-1.2809622287750244,3.116710901260376,1.7859145402908325,7.928997039794922,2
713,-18.231958389282227,-3.3185746669769287,-3.249244451522827,3.083019733428955,1.7870815992355347,7.848381042480469,2
714,-28.930065155029297,-7.273711681365967,-3.4989278316497803,3.1136763095855713,1.5814837217330933,7.79167366027832,2
715,-36.71647262573242,-13.090715408325195,-4.228292465209961,3.378183364868164,1.2976289987564087,7.784053802490234,2
716,-43.220314025878906,-18.40834617614746,-6.637130260467529,3.5597944259643555,0.5439149141311646,7.9157843589782715,2
717,-54.76520538330078,-20.62097930908203,-9.407687187194824,3.7278223037719727,0.17836254835128784,7.754254341125488,2
718,-55.96495819091797,-18.33661460876465,-7.478431224822998,3.8259785175323486,-0.45238345861434937,7.675498962402344,2
719,-57.15963363647461,-24.346416473388672,-6.052631855010986,4.1552734375,-0.9845210313796997,7.623659610748291,2
720,-41.46108627319336,-13.131746292114258,0.09611450135707855,4.342042446136475,-1.4449846744537354,7.5824785232543945,2
721,-33.5455207824707,0.7363823056221008,5.3017120361328125,4.374298095703125,-1.6678255796432495,7.521707057952881,2
722,-17.938331604003906,11.283514022827148,9.520947456359863,4.146881580352783,-1.9353528022766113,7.587147235870361,2
723,-8.338372230529785,25.85163116455078,13.98143482208252,3.835965394973755,-1.9552520513534546,7.612823486328125,2
724,3.07418155670166,29.807390213012695,17.23283576965332,3.453528881072998,-2.2648544311523438,7.954824447631836,2
725,23.25996971130371,42.5965576171875,19.13596534729004,3.149226427078247,-1.8256046772003174,7.9349045753479,2
726,37.580810546875,41.160316467285156,20.662757873535156,2.6195735931396484,-1.3250373601913452,7.986439228057861,2
727,51.789432525634766,45.88915252685547,22.920318603515625,2.1336424350738525,-0.8286408185958862,8.167325019836426,2
728,48.788204193115234,44.100486755371094,23.172487258911133,1.7310755252838135,-0.15562047064304352,8.268962860107422,2
729,41.63365936279297,44.94845962524414,20.98798370361328,1.3147591352462769,0.2687981426715851,8.50436019897461,2
730,10.459086418151855,33.42384338378906,16.891510009765625,0.9796360731124878,0.3448059856891632,8.790156364440918,2
731,-18.26089859008789,17.789085388183594,14.511026382446289,0.6359573602676392,0.24058160185813904,8.985679626464844,2
732,-47.988136291503906,-5.438185691833496,9.108147621154785,0.6717319488525391,-0.27145877480506897,9.175633430480957,2
733,-66.6945571899414,-24.64491081237793,4.036248207092285,1.036865472793579,-1.1656091213226318,9.341327667236328,2
734,-61.97678756713867,-35.60394287109375,3.2029225826263428,1.4662781953811646,-1.7537254095077515,9.330671310424805,2
735,-58.0927848815918,-38.090118408203125,1.0672985315322876,1.9529123306274414,-2.40822172164917,9.364889144897461,2
736,-25.80983543395996,-18.099435806274414,3.3444411754608154,2.213762044906616,-2.699842691421509,9.368436813354492,2
737,6.769296646118164,15.931053161621094,3.93688702583313,2.019613265991211,-2.615748643875122,9.381258964538574,2
738,32.52430725097656,49.734580993652344,3.394162178039551,1.4019737243652344,-2.3824102878570557,9.463873863220215,2
739,64.11424255371094,79.47386932373047,3.2827937602996826,0.44285061955451965,-1.6414258480072021,9.464943885803223,2
740,72.53863525390625,93.62338256835938,3.0150339603424072,-0.349082887172699,-0.9545645713806152,9.452645301818848,2
741,76.3790283203125,103.0794448852539,2.5792622566223145,-1.0181447267532349,-0.4168979525566101,9.430869102478027,2
742,64.01516723632812,100.39498901367188,1.0104854106903076,-2.3349199295043945,0.4453279376029968,9.496874809265137,2
743,46.26865005493164,87.90853881835938,-1.2271811962127686,-3.0675487518310547,0.6433169841766357,9.50539493560791,2
744,22.374834060668945,62.90146255493164,-2.263167381286621,-3.8929455280303955,1.0978388786315918,9.51109790802002,2
745,2.719376802444458,22.296072006225586,-4.011179447174072,-3.9314379692077637,1.1806491613388062,9.40418815612793,2
746,-16.65213394165039,-23.861507415771484,-7.306178092956543,-3.788189649581909,0.9243243336677551,9.31187629699707,2
747,-21.81256103515625,-56.86635971069336,-8.264376640319824,-3.1858937740325928,0.6898651719093323,9.189401626586914,2
748,-17.658458709716797,-77.4815444946289,-11.261372566223145,-2.1131129264831543,0.5006445050239563,9.018989562988281,2
749,-11.519495010375977,-74.33424377441406,-14.143209457397461,-1.5558241605758667,0.460908442735672,8.937518119812012,2
750,-1.7521525621414185,-45.56196594238281,-17.98883819580078,-1.0288347005844116,0.5063815116882324,8.80602741241455,2
751,6.942578315734863,-6.9377360343933105,-22.033506393432617,-0.8213937282562256,0.4771599769592285,8.591233253479004,2
752,10.08521842956543,41.16814422607422,-27.88791847229004,-1.2259602546691895,0.4983522295951843,8.349418640136719,2
753,6.649428367614746,66.4620590209961,-30.713430404663086,-2.0743331909179688,0.6676397919654846,8.110163688659668,2
754,-0.5763899683952332,73.3886489868164,-33.113346099853516,-2.783116579055786,0.6352783441543579,7.7844557762146,2
755,-13.585370063781738,57.981056213378906,-32.3419303894043,-3.446608781814575,0.5367724895477295,7.46159029006958,2
756,-30.120288848876953,33.41046142578125,-31.593673706054688,-4.066139221191406,0.2094767540693283,7.134047508239746,2
757,-42.98411178588867,5.39747428894043,-30.939027786254883,-3.5798399448394775,-0.3855207860469818,6.696632385253906,2
758,-46.90520477294922,-15.854470252990723,-30.256874084472656,-3.3772387504577637,-0.7525358200073242,6.425417423248291,2
759,-42.794288635253906,-24.6921443939209,-27.193355560302734,-3.038881778717041,-1.3092228174209595,6.086688041687012,2
760,-28.19853401184082,-22.66669273376465,-20.70896339416504,-2.9158549308776855,-1.4061435461044312,5.985540866851807,2
761,-13.741971015930176,-9.627249717712402,-13.878467559814453,-2.7198245525360107,-1.444256067276001,5.8979668617248535,2
762,-2.025190830230713,2.606963872909546,-11.210982322692871,-2.7533812522888184,-1.5924721956253052,5.750843524932861,2
763,7.395744800567627,9.447697639465332,-6.544637203216553,-2.8384861946105957,-1.5582914352416992,5.665867328643799,2
764,12.7058744430542,15.714142799377441,-7.8358306884765625,-2.958871364593506,-1.4556150436401367,5.594193458557129,2
765,17.6188907623291,23.286300659179688,-11.40099811553955,-3.234971046447754,-1.33417546749115,5.490781784057617,2
766,25.866239547729492,29.303884506225586,-14.667798042297363,-3.500370979309082,-1.114582896232605,5.346749782562256,2
767,34.84040069580078,32.42848205566406,-16.14496612548828,-3.798173666000366,-0.7580924034118652,5.217205047607422,2
768,32.686344146728516,31.74777603149414,-15.646734237670898,-4.197146415710449,-0.36748573184013367,5.1017279624938965,2
769,26.86985969543457,27.922870635986328,-16.53237533569336,-4.179427623748779,-0.18384428322315216,5.20033073425293,2
770,18.34046745300293,21.571840286254883,-18.246862411499023,-4.5229315757751465,0.015222812071442604,4.956628322601318,2
771,-1.278335452079773,9.598161697387695,-18.779277801513672,-4.797152519226074,0.04673037678003311,4.686396598815918,2
772,-18.24151039123535,-8.538411140441895,-19.00632095336914,-4.801185607910156,0.10722903162240982,4.488406181335449,2
773,-31.8021240234375,-22.26627540588379,-20.06632423400879,-4.6767683029174805,-0.056294556707143784,4.268670558929443,2
774,-40.67938995361328,-28.94939422607422,-21.2894344329834,-4.230298042297363,-0.5457205772399902,3.8960366249084473,2
775,-46.23810577392578,-25.907949447631836,-23.163175582885742,-4.1416239738464355,-0.7649264335632324,3.835038423538208,2
776,-38.136226654052734,-21.713960647583008,-25.060707092285156,-3.722780704498291,-1.4047248363494873,3.473191261291504,2
777,-32.505889892578125,-24.659059524536133,-24.557878494262695,-3.2316701412200928,-2.0702178478240967,3.0282371044158936,2
778,-24.814682006835938,-32.10098648071289,-22.45248794555664,-2.9915616512298584,-2.419475555419922,2.790558099746704,2
779,-6.656295299530029,-42.396705627441406,-19.77450942993164,-2.684973955154419,-2.203127861022949,2.893209457397461,2
780,15.474441528320312,-40.198246002197266,-17.31546401977539,-2.228943347930908,-2.268014669418335,2.7456395626068115,2
781,29.59535789489746,-28.554920196533203,-16.067567825317383,-1.797803282737732,-2.1906583309173584,2.5789241790771484,2
782,36.13787841796875,-13.707281112670898,-14.107913970947266,-1.7692744731903076,-1.6851049661636353,2.6542599201202393,2
783,37.871910095214844,-7.648453235626221,-13.927194595336914,-1.638551950454712,-1.5033512115478516,2.445643663406372,2
784,41.57576370239258,-2.8018813133239746,-13.204724311828613,-1.5495221614837646,-1.1333553791046143,2.308238983154297,2
785,40.73236083984375,1.5982167720794678,-13.105772972106934,-1.4792486429214478,-0.8957952857017517,2.092235803604126,2
786,26.905742645263672,-13.903422355651855,-12.667665481567383,-1.3499919176101685,-0.38548949360847473,1.9624457359313965,2
787,8.13364028930664,-40.38264083862305,-11.686100959777832,-1.274148941040039,-0.25018811225891113,1.751216173171997,2
788,-2.8800511360168457,-60.685516357421875,-10.341594696044922,-0.9624527096748352,-0.11044865846633911,1.6321649551391602,2
789,-11.433723449707031,-62.73171615600586,-7.556830406188965,-0.4759003818035126,-0.2728484272956848,1.481728196144104,2
790,-8.391167640686035,-40.20548629760742,-5.802953243255615,0.25532424449920654,-0.4014350175857544,1.3674150705337524,2
791,1.557634949684143,-2.533721446990967,-4.392168045043945,0.35721927881240845,-0.46705514192581177,1.4045575857162476,2
792,9.773091316223145,31.212980270385742,-4.073740005493164,0.4578082859516144,-0.39751487970352173,1.3867648839950562,2
793,13.574557304382324,57.636207580566406,-3.5121049880981445,0.09858277440071106,-0.13700643181800842,1.4092562198638916,2
794,15.44486141204834,66.67784118652344,-3.34077525138855,-0.4671907424926758,0.01277767401188612,1.3852559328079224,2
795,16.91889762878418,58.1988410949707,-4.189853668212891,-1.1937068700790405,0.1255544275045395,1.360714316368103,2
796,16.083293914794922,30.866003036499023,-6.259111404418945,-1.7069814205169678,0.24471242725849152,1.3032183647155762,2
797,6.433543682098389,-10.053808212280273,-9.011676788330078,-1.9640079736709595,0.4565902650356293,1.2333272695541382,2
798,-2.5066332817077637,-59.88188934326172,-11.028011322021484,-1.8834317922592163,0.5389270782470703,1.1367841958999634,2
799,-11.906256675720215,-92.92151641845703,-11.826827049255371,-0.9837304353713989,0.46148011088371277,0.9723532795906067,2
800,-22.619735717773438,-116.40058898925781,-14.350515365600586,-0.2434748113155365,0.22871114313602448,0.8427847623825073,2
801,-24.3767032623291,-118.96996307373047,-15.921600341796875,0.5692732334136963,0.041424281895160675,0.7219805121421814,2
802,-27.6942195892334,-102.88582611083984,-17.218570709228516,2.1527223587036133,-0.2935679852962494,0.5443345904350281,2
803,-26.75883674621582,-71.3088150024414,-17.403030395507812,3.0745935440063477,-0.4771310091018677,0.3903621733188629,2
804,-20.739477157592773,-26.87194061279297,-16.429738998413086,3.972177505493164,-0.857591450214386,0.23428070545196533,2
805,-14.286397933959961,18.43832015991211,-16.790985107421875,4.385993480682373,-0.8357364535331726,0.02672133781015873,2
806,-9.054811477661133,56.70358657836914,-16.268875122070312,4.056798934936523,-1.0300240516662598,-0.10829757153987885,2
807,-2.6428306102752686,82.7405776977539,-14.64338207244873,3.551931381225586,-1.1228244304656982,-0.2774176001548767,2
808,1.301865816116333,90.33890533447266,-14.28797721862793,2.4632961750030518,-1.1318449974060059,-0.4280197024345398,2
809,10.473145484924316,75.3377914428711,-14.111802101135254,1.7395092248916626,-1.1112666130065918,-0.6067959070205688,2
810,18.013240814208984,45.589019775390625,-14.811846733093262,1.04637610912323,-0.891792893409729,-0.833952784538269,2
811,19.849502563476562,10.728866577148438,-16.24016571044922,0.6824252605438232,-0.7406061887741089,-1.0054296255111694,2
812,11.265320777893066,-16.40959358215332,-17.02689552307129,0.4332747161388397,-0.5798144936561584,-1.1549453735351562,2
813,-6.434435844421387,-24.91462516784668,-15.961679458618164,0.7964057922363281,-0.5428603887557983,-1.3090906143188477,2
814,-18.52669906616211,-22.756502151489258,-15.730829238891602,0.9642698168754578,-0.5035712122917175,-1.4840208292007446,2
815,-25.47416114807129,-11.230137825012207,-14.33607006072998,1.2847963571548462,-0.7994425296783447,-1.5879244804382324,2
816,-27.309743881225586,8.939413070678711,-12.094588279724121,1.3785616159439087,-1.0261389017105103,-1.7309296131134033,2
817,-23.83419418334961,20.106477737426758,-9.561351776123047,1.302130937576294,-1.4144710302352905,-1.8048577308654785,2
818,-12.737109184265137,24.819690704345703,-4.47810697555542,1.1341053247451782,-1.6665620803833008,-1.9151341915130615,2
819,4.351532936096191,21.354591369628906,-0.9061887860298157,0.8075107932090759,-1.6293127536773682,-2.0628814697265625,2
820,26.962785720825195,6.985384941101074,1.2511929273605347,0.6337313055992126,-1.4663105010986328,-2.142310380935669,2
821,45.32014083862305,-10.0825834274292,1.6755284070968628,0.6939147710800171,-1.343268871307373,-2.1069467067718506,2
822,52.88178634643555,-21.23809814453125,1.057803988456726,0.8355012536048889,-0.6639193296432495,-2.1877694129943848,2
823,49.3343505859375,-23.6922664642334,-0.4682174026966095,1.039050817489624,-0.14131736755371094,-2.174919843673706,2
824,35.15550994873047,-17.100496292114258,-1.521090030670166,0.9665712714195251,0.0259740948677063,-2.012993574142456,2
825,17.854084014892578,-1.707582712173462,-3.031550645828247,1.2698495388031006,0.5979415774345398,-2.1122899055480957,2
826,-2.0113470554351807,15.4254150390625,-3.5875606536865234,1.2101036310195923,0.6683544516563416,-2.0829272270202637,2
827,-16.71405792236328,30.954242706298828,-5.714202880859375,1.1076316833496094,0.6202071309089661,-2.0909955501556396,2
828,-24.021459579467773,45.65073013305664,-6.681552410125732,0.6647292375564575,0.3578720986843109,-2.0939552783966064,2
829,-25.171337127685547,50.4854850769043,-6.758203506469727,0.12659351527690887,0.013367618434131145,-2.116447925567627,2
830,-17.442432403564453,44.67813491821289,-6.349907875061035,-0.3760913908481598,-0.23767141997814178,-2.184816360473633,2
831,-2.5412137508392334,39.4278678894043,-5.378913879394531,-0.8130475282669067,-0.4140145778656006,-2.2516071796417236,2
832,10.654529571533203,31.622577667236328,-2.630068302154541,-1.2561395168304443,-0.3249937891960144,-2.345211982727051,2
833,23.493362426757812,14.446756362915039,-0.7143252491950989,-1.5897737741470337,-0.238755464553833,-2.379094123840332,2
834,32.404014587402344,-1.4052865505218506,2.3406176567077637,-1.5043193101882935,-0.025535112246870995,-2.3899993896484375,2
835,29.850841522216797,-18.39520263671875,5.333323955535889,-1.5256848335266113,0.3466395437717438,-2.379638195037842,2
836,25.891849517822266,-38.074859619140625,8.384608268737793,-0.9375964403152466,0.5235936045646667,-2.311222791671753,2
837,22.42876625061035,-40.56407165527344,10.561444282531738,-0.47619569301605225,0.9313240051269531,-2.2470505237579346,2
838,15.050161361694336,-26.004192352294922,12.007368087768555,-0.14543753862380981,1.156330943107605,-2.1549057960510254,2
839,7.78404426574707,-16.70298194885254,12.186723709106445,0.14289306104183197,1.3202639818191528,-2.0429916381835938,2
840,-1.6272327899932861,-3.9583075046539307,14.273307800292969,0.41052499413490295,1.3498389720916748,-1.9146617650985718,2
841,-3.1043615341186523,14.743069648742676,15.18358039855957,-0.09891249984502792,1.1791539192199707,-1.8067229986190796,2
842,5.017933368682861,31.088178634643555,14.156153678894043,-0.2564646899700165,1.1662758588790894,-1.6608359813690186,2
843,7.375758647918701,40.476219177246094,13.547438621520996,-0.542687714099884,1.2060520648956299,-1.5121177434921265,2
844,11.635469436645508,45.25071334838867,11.94322395324707,-1.0223127603530884,1.365979790687561,-1.3861674070358276,2
845,9.22131633758545,40.58424758911133,10.529912948608398,-1.4590387344360352,1.4795924425125122,-1.2517566680908203,2
846,4.670138835906982,24.801250457763672,9.781023979187012,-1.8763976097106934,1.535360336303711,-1.1356555223464966,2
847,0.08210361003875732,2.5661654472351074,8.621706008911133,-2.1089556217193604,1.5926247835159302,-1.0278148651123047,2
848,-1.074929118156433,-19.759180068969727,7.717101097106934,-2.059432029724121,1.5569565296173096,-0.9264606833457947,2
849,0.982175350189209,-37.56006622314453,7.518298149108887,-1.636961579322815,1.5755860805511475,-0.8039097189903259,2
850,8.356388092041016,-60.692298889160156,5.945056438446045,-1.2835652828216553,1.6373732089996338,-0.7404232621192932,2
851,16.355710983276367,-74.70339965820312,4.673330307006836,-0.3662705421447754,1.7266310453414917,-0.6230483651161194,2
852,16.236024856567383,-69.06449890136719,4.094542026519775,0.056836944073438644,1.8629895448684692,-0.673375129699707,2
853,9.698946952819824,-53.873470306396484,4.55851936340332,0.7597887516021729,2.0233702659606934,-0.6561360359191895,2
854,-3.835458278656006,-35.43138885498047,5.026185512542725,1.6228177547454834,2.221992015838623,-0.5473073124885559,2
855,-21.507761001586914,-10.0890474319458,6.358091831207275,1.6580833196640015,1.9907646179199219,-0.6021484732627869,2
856,-27.923667907714844,14.798009872436523,9.565101623535156,1.7037092447280884,1.8740687370300293,-0.5769762992858887,2
857,-25.80132293701172,30.351350784301758,11.41818904876709,1.5584415197372437,1.5168448686599731,-0.48961615562438965,2
858,-14.89696979522705,41.68471908569336,11.08020305633545,1.2106828689575195,1.2267118692398071,-0.3705255389213562,2
859,0.33754172921180725,46.2756233215332,11.957444190979004,0.8019009828567505,1.0677021741867065,-0.2514457702636719,2
860,18.21503448486328,35.28407287597656,9.546839714050293,0.2922159433364868,1.3371351957321167,-0.17203544080257416,2
861,31.754451751708984,22.58678436279297,7.747945308685303,-0.07915213704109192,1.5017895698547363,-0.06416937708854675,2
862,36.650115966796875,13.492135047912598,3.988382577896118,-0.2711070775985718,1.8018016815185547,0.027195150032639503,2
863,34.81332778930664,2.873065948486328,0.271464467048645,-0.2386140376329422,2.266488790512085,0.11056161671876907,2
864,24.04392433166504,-16.136871337890625,-5.415803909301758,-0.1907985955476761,2.681300163269043,0.12931936979293823,2
865,3.751441717147827,-25.76865577697754,-8.678422927856445,-0.0709708109498024,2.9028730392456055,0.06292495876550674,2
866,-23.212949752807617,-29.403793334960938,-11.281697273254395,0.27980369329452515,2.9214179515838623,-0.0013124642428010702,2
867,-50.65278244018555,-20.783489227294922,-13.714923858642578,0.6587514877319336,2.5091464519500732,-0.07657227665185928,2
868,-56.864742279052734,-5.374145030975342,-15.018819808959961,0.8668989539146423,2.025485038757324,-0.2198747992515564,2
869,-53.765193939208984,17.774150848388672,-14.680658340454102,0.8420718312263489,1.3595325946807861,-0.3815845847129822,2
870,-46.31681442260742,40.004249572753906,-12.947169303894043,0.4243514835834503,1.000105619430542,-0.6244098544120789,2
871,-44.70576095581055,50.05678176879883,-10.640981674194336,-0.11023417860269547,0.34067460894584656,-0.776197075843811,2
872,-41.06328582763672,46.850215911865234,-7.860010623931885,-0.5555464029312134,0.022056711837649345,-0.8773081302642822,2
873,-34.9265251159668,32.49393081665039,-3.936786651611328,-1.009063482284546,-0.2979699969291687,-0.9601138830184937,2
874,-25.589942932128906,14.516256332397461,1.064274787902832,-1.3591370582580566,-0.5216057896614075,-1.019435167312622,2
875,-15.633357048034668,2.2062675952911377,4.985875129699707,-1.5140773057937622,-0.7591567635536194,-1.0122517347335815,2
876,1.214747667312622,-4.599271297454834,8.339357376098633,-1.3875432014465332,-0.9069638252258301,-0.9298173189163208,2
877,17.85894012451172,-1.409079670906067,10.54572582244873,-1.2935978174209595,-0.9110155701637268,-0.8386081457138062,2
878,28.223487854003906,6.002978324890137,12.49477767944336,-1.1818405389785767,-0.6288575530052185,-0.7173003554344177,2
879,27.37923240661621,14.453954696655273,12.481971740722656,-1.2230324745178223,-0.19794991612434387,-0.586751401424408,2
880,16.793071746826172,18.462034225463867,10.958110809326172,-1.5183675289154053,-0.1324056088924408,-0.491740345954895,2
881,-1.4593136310577393,13.442509651184082,9.385542869567871,-1.7005306482315063,-0.02020268142223358,-0.3902992904186249,2
882,-21.312715530395508,-1.5231318473815918,7.38894510269165,-1.8671354055404663,-0.13824212551116943,-0.3109216094017029,2
883,-32.592838287353516,-18.479177474975586,4.590213298797607,-1.613495111465454,-0.2839300334453583,-0.2216482013463974,2
884,-38.23777770996094,-34.72944259643555,3.139479398727417,-1.2588213682174683,-0.740550696849823,-0.18838617205619812,2
885,-43.441680908203125,-50.47454833984375,3.3823225498199463,-1.1885838508605957,-1.054037094116211,-0.14392836391925812,2
886,-36.33076477050781,-52.87793731689453,5.226040363311768,-0.3854679465293884,-1.670954942703247,-0.133745014667511,2
887,-21.214122772216797,-40.8177375793457,7.436250686645508,-0.05035686492919922,-1.8087513446807861,-0.026357710361480713,2
888,-5.983398914337158,-20.792051315307617,6.707454204559326,0.3433483839035034,-1.8516571521759033,0.07894115149974823,2
889,8.493501663208008,-6.355047702789307,2.0098280906677246,0.38038864731788635,-1.965401291847229,0.16122134029865265,2
890,20.79324722290039,-0.08374832570552826,-2.0014586448669434,0.3245677351951599,-1.765967607498169,0.21068944036960602,2
891,24.539379119873047,0.2757757008075714,-5.554413795471191,0.4307345747947693,-1.588215708732605,0.17525401711463928,2
892,27.164379119873047,3.4031333923339844,-8.728236198425293,0.346486896276474,-1.4257856607437134,0.13216063380241394,2
893,28.11446762084961,1.7069734334945679,-12.961058616638184,0.4253261983394623,-1.1369943618774414,0.02924421615898609,2
894,20.925315856933594,-6.941195964813232,-15.676008224487305,0.4065406918525696,-0.8062372803688049,-0.09071892499923706,2
895,5.337491989135742,-18.817153930664062,-19.14321517944336,0.6101247668266296,-0.6483793258666992,-0.2758568227291107,2
896,-13.280440330505371,-23.49232292175293,-21.136770248413086,0.5622137188911438,-0.6850218176841736,-0.4145188629627228,2
897,-28.753725051879883,-19.364803314208984,-22.985010147094727,0.8674502372741699,-0.926109790802002,-0.6356198191642761,2
898,-41.30300521850586,-6.153542518615723,-23.08263397216797,0.9794648885726929,-1.1689120531082153,-0.8425537347793579,2
899,-44.44404220581055,12.967400550842285,-22.04545021057129,1.0028882026672363,-1.6360526084899902,-1.053032398223877,2
900,-40.4448356628418,29.947080612182617,-19.991464614868164,0.8066272139549255,-2.028371810913086,-1.2555328607559204,2
901,-28.27535629272461,39.10764694213867,-19.171205520629883,0.4456009864807129,-2.30837082862854,-1.4595915079116821,2
902,-11.328978538513184,38.04274368286133,-17.89230728149414,0.06949484348297119,-2.6055691242218018,-1.672823190689087,2
903,3.1982479095458984,33.06218338012695,-18.117679595947266,-0.2573001980781555,-2.7090799808502197,-1.8874584436416626,2
904,16.126562118530273,19.830923080444336,-18.659494400024414,-0.5955763459205627,-2.565202474594116,-2.0850048065185547,2
905,25.975988388061523,-2.017425060272217,-19.9260196685791,-0.6776721477508545,-2.4709291458129883,-2.3168013095855713,2
906,30.51457405090332,-26.613048553466797,-19.286191940307617,-0.46896037459373474,-2.1634762287139893,-2.5885891914367676,2
907,25.78000831604004,-45.656280517578125,-14.972827911376953,-0.20484134554862976,-1.911759853363037,-2.7754225730895996,2
908,17.935531616210938,-58.07198715209961,-11.8660306930542,0.42725300788879395,-1.5920758247375488,-2.9795095920562744,2
909,6.539533615112305,-58.710933685302734,-9.49749755859375,0.7831023931503296,-1.8077868223190308,-2.9789340496063232,2
910,-5.542355537414551,-47.343509674072266,-7.336964130401611,1.556096076965332,-1.8036020994186401,-3.116201162338257,2
911,-13.296122550964355,-27.31819725036621,-5.665623664855957,1.9884686470031738,-1.888346552848816,-3.15364670753479,2
912,-14.488993644714355,-3.8368239402770996,-2.455796003341675,2.0569541454315186,-2.057920217514038,-3.1210529804229736,2
913,-8.65356731414795,23.98293685913086,-1.1034713983535767,2.0501599311828613,-2.195747137069702,-3.119368076324463,2
914,5.230151653289795,44.64403533935547,0.45931899547576904,1.6207597255706787,-2.253013849258423,-3.0656187534332275,2
915,19.86512565612793,46.088226318359375,1.6454992294311523,1.1331688165664673,-2.0810463428497314,-3.0837018489837646,2
916,34.35346984863281,34.4555778503418,1.984594464302063,0.7761024236679077,-1.976562261581421,-3.1036007404327393,2
917,48.14338684082031,23.70374870300293,1.0667701959609985,0.363504022359848,-1.396957278251648,-3.1239142417907715,2
918,61.3039665222168,9.391366004943848,-0.9952920079231262,0.3014398217201233,-1.2287988662719727,-3.131437063217163,2
919,65.39070129394531,-0.9064161777496338,-2.421950340270996,0.29238638281822205,-0.41487571597099304,-3.218473434448242,2
920,60.35920715332031,-6.762014865875244,-3.4695417881011963,0.4251173436641693,0.09767045825719833,-3.258180856704712,2
921,46.25505447387695,-9.392425537109375,-4.835626125335693,0.4024539589881897,0.5618928670883179,-3.236184597015381,2
922,31.034080505371094,-6.4326171875,-6.881145000457764,0.6217969059944153,1.1002018451690674,-3.327916383743286,2
923,19.679702758789062,-2.1617510318756104,-8.613335609436035,0.6183689832687378,1.4014891386032104,-3.375875949859619,2
924,8.632871627807617,-1.9240771532058716,-9.918465614318848,0.64853435754776,1.6103057861328125,-3.4603772163391113,2
925,-0.8065473437309265,-9.14793872833252,-10.712536811828613,0.7577474117279053,1.6676304340362549,-3.5708909034729004,2
926,-3.759392499923706,-14.801765441894531,-11.114537239074707,0.8210550546646118,1.6524219512939453,-3.6752939224243164,2
927,0.2214474231004715,-18.1490535736084,-10.905485153198242,1.1383036375045776,1.594539999961853,-3.7991647720336914,2
928,4.435107231140137,-12.975868225097656,-11.603114128112793,1.346126914024353,1.5270326137542725,-3.8972361087799072,2
929,6.061985492706299,4.333965301513672,-13.202872276306152,1.3679194450378418,1.3834537267684937,-3.9767274856567383,2
930,7.041126728057861,20.043893814086914,-14.099088668823242,1.3395811319351196,1.5960921049118042,-4.133687973022461,2
931,9.536770820617676,31.63041877746582,-14.223067283630371,1.039247751235962,1.6498302221298218,-4.270393371582031,2
932,11.634011268615723,40.806373596191406,-14.525368690490723,0.5410041213035583,1.7342900037765503,-4.419902324676514,2
933,11.400689125061035,37.53771209716797,-14.500782012939453,0.22845783829689026,1.8478807210922241,-4.546911239624023,2
934,7.120336055755615,33.763511657714844,-14.777525901794434,-0.1960267722606659,1.9581310749053955,-4.684521675109863,2
935,0.6236096024513245,25.11485481262207,-14.343877792358398,-0.4697154462337494,1.8419820070266724,-4.7738752365112305,2
936,-4.8162665367126465,16.32221221923828,-14.051976203918457,-0.7548220157623291,1.931052327156067,-4.92525577545166,2
937,-5.802783966064453,1.3647600412368774,-12.238364219665527,-0.8797515034675598,1.9277708530426025,-5.054701328277588,2
938,-2.7967984676361084,-17.123531341552734,-10.896527290344238,-0.7474095225334167,1.9852317571640015,-5.150147914886475,2
939,0.8156421184539795,-33.25884246826172,-10.592140197753906,-0.5583782196044922,1.8483494520187378,-5.248256683349609,2
940,8.25877857208252,-41.25811767578125,-9.762443542480469,-0.03132865950465202,1.782902717590332,-5.301121711730957,2
941,19.432373046875,-36.86903381347656,-9.181801795959473,0.4478999674320221,1.7710176706314087,-5.380648612976074,2
942,28.54913902282715,-16.464622497558594,-8.036076545715332,0.8345773816108704,2.183598756790161,-5.486304759979248,2
943,32.03870391845703,9.128936767578125,-6.664189338684082,0.8891331553459167,2.345106363296509,-5.605871677398682,2
944,27.776187896728516,32.72441482543945,-6.1950836181640625,0.7539154887199402,2.795413017272949,-5.69389533996582,2
945,17.839937210083008,48.75567626953125,-6.314807415008545,0.22241944074630737,3.0022759437561035,-5.80334997177124,2
946,4.185486793518066,50.634239196777344,-5.4487504959106445,-0.31409329175949097,3.1181528568267822,-5.852751731872559,2
947,-6.074594020843506,35.975345611572266,-3.43375301361084,-0.9394478797912598,3.2435131072998047,-5.928461074829102,2
948,-10.150514602661133,7.237678050994873,-2.1169111728668213,-1.2164934873580933,3.108931303024292,-5.915812969207764,2
949,-9.227775573730469,-25.88128662109375,-0.21847476065158844,-1.0953571796417236,3.0643084049224854,-5.854924201965332,2
950,-4.545877456665039,-52.566349029541016,0.936008632183075,-0.6825653314590454,2.956353187561035,-5.797909259796143,2
951,1.751320719718933,-62.5588493347168,1.7453614473342896,0.08573432266712189,2.9235739707946777,-5.703391075134277,2
952,5.478823661804199,-55.71736526489258,2.9581780433654785,0.6790409088134766,2.9812755584716797,-5.730386734008789,2
953,5.573972702026367,-36.298580169677734,4.25655460357666,1.1572353839874268,3.0913991928100586,-5.7662129402160645,2
954,3.155991554260254,-5.339301586151123,5.627959728240967,1.4995145797729492,3.2037081718444824,-5.766561508178711,2
955,-4.9683518409729,25.606924057006836,6.634507179260254,1.4248830080032349,3.177816867828369,-5.769735813140869,2
956,-11.650535583496094,42.72286605834961,7.1305317878723145,1.021139144897461,3.1710829734802246,-5.773606300354004,2
957,-15.38051986694336,56.3099479675293,7.974734783172607,0.40857967734336853,2.9682178497314453,-5.774700164794922,2
958,-15.6117582321167,59.60550308227539,7.6129937171936035,-0.26556625962257385,2.784726858139038,-5.726770401000977,2
959,-13.67507553100586,49.02536392211914,7.355860233306885,-0.9710848927497864,2.7497873306274414,-5.689065933227539,2
960,-10.567317962646484,26.108003616333008,5.759627342224121,-1.096070647239685,2.588914632797241,-5.402088642120361,2
961,-6.691908836364746,-1.560868740081787,3.2274420261383057,-1.172747015953064,2.4753072261810303,-5.232952117919922,2
962,-5.629115104675293,-27.51032829284668,1.6944143772125244,-1.0896425247192383,2.4969985485076904,-5.170132637023926,2
963,-6.206814765930176,-43.5655403137207,1.1183366775512695,-0.7528135776519775,2.4445910453796387,-5.1259002685546875,2
964,-7.83228063583374,-50.26191711425781,0.796326220035553,-0.22444771230220795,2.3776180744171143,-5.083179473876953,2
965,-11.098724365234375,-45.77587890625,0.7600928544998169,0.39355096220970154,2.352236747741699,-5.02781343460083,2
966,-15.451374053955078,-28.583236694335938,0.4250220060348511,0.9151938557624817,2.264930486679077,-4.997379779815674,2
967,-19.784605026245117,-1.6682840585708618,0.05641255900263786,1.065826654434204,2.1818599700927734,-5.064343452453613,2
968,-22.548091888427734,29.176992416381836,-0.39578762650489807,0.838344156742096,1.9427598714828491,-5.174830913543701,2
969,-22.511749267578125,49.16817092895508,-0.6492589712142944,0.32339879870414734,1.5608241558074951,-5.2587385177612305,2
970,-21.41448974609375,60.50663375854492,-0.618149995803833,-0.2682848870754242,1.4401129484176636,-5.286192893981934,2
971,-17.3353328704834,59.778480529785156,-1.683899164199829,-1.012934684753418,1.105741262435913,-5.341667652130127,2
972,-12.299356460571289,48.303138732910156,-3.853545665740967,-1.326602578163147,1.2344945669174194,-5.233436107635498,2
973,-10.464858055114746,29.057960510253906,-5.963345050811768,-1.7529839277267456,1.114065170288086,-5.257364749908447,2
974,-16.853023529052734,9.206379890441895,-7.74849271774292,-2.0163798332214355,1.0044735670089722,-5.316270351409912,2
975,-25.232446670532227,-5.78328275680542,-9.55688762664795,-2.040285348892212,0.8628033995628357,-5.374805450439453,2
976,-35.60051345825195,-13.878087997436523,-10.986910820007324,-1.905739665031433,0.48783183097839355,-5.465063571929932,2
977,-41.35045623779297,-15.0164213180542,-12.113261222839355,-1.597629189491272,0.049974266439676285,-5.541843414306641,2
978,-41.446449279785156,-18.06208610534668,-11.868974685668945,-1.3859819173812866,-0.26537707448005676,-5.628620147705078,2
979,-38.70283126831055,-14.524393081665039,-11.391656875610352,-1.0943087339401245,-0.8717477917671204,-5.763317584991455,2
980,-34.38653564453125,-10.598422050476074,-9.500890731811523,-1.18379545211792,-1.1002110242843628,-5.873380184173584,2
