,gyro.x,gyro.y,gyro.z,stabilizer.pitch,stabilizer.roll,stabilizer.yaw,label
0,0.1156943291425705,0.0978679284453392,-0.01193024218082428,-0.16945123672485352,0.5745065212249756,-4.234658718109131,2
1,0.004632719326764345,0.13569779694080353,0.008721727877855301,-0.17054808139801025,0.5815840363502502,-4.2305908203125,2
2,0.10896514356136322,0.06494428217411041,0.02690744586288929,-0.1712663620710373,0.6493827700614929,-4.226749897003174,2
3,0.13597708940505981,0.19464266300201416,-0.0077058193273842335,-0.17236730456352234,0.6388198137283325,-4.2222771644592285,2
4,0.12634767591953278,0.09019413590431213,0.07774819433689117,-0.17348918318748474,0.5676743388175964,-4.217849254608154,2
5,0.21801771223545074,0.04723084345459938,-0.022967295721173286,-0.1738896369934082,0.5773451328277588,-4.213211536407471,2
6,0.025755928829312325,0.0019841559696942568,-0.13182057440280914,-0.17364785075187683,0.5847169756889343,-4.209218502044678,2
7,0.02602262981235981,0.13663344085216522,0.023678848519921303,-0.17353086173534393,0.7153613567352295,-4.20622444152832,2
8,0.1363617479801178,0.03807647526264191,-0.051845815032720566,-0.17415091395378113,0.6875874996185303,-4.202010154724121,2
9,0.04501531645655632,0.12556971609592438,0.025593861937522888,-0.17507880926132202,0.5397441387176514,-4.197869300842285,2
10,0.025882791727781296,0.057666294276714325,-0.02319381944835186,-0.17558935284614563,0.5534995794296265,-4.1936726570129395,2
11,0.0962243303656578,0.04874276742339134,-0.031178951263427734,-0.17547588050365448,0.6277388334274292,-4.1900787353515625,2
12,-0.02976304292678833,0.04513709247112274,-0.005617721006274223,-0.17512887716293335,0.5574299097061157,-4.185984134674072,2
13,0.04306207224726677,-0.035439979285001755,-0.09424471110105515,-0.17462295293807983,0.5666745901107788,-4.18189811706543,2
14,0.002933567389845848,0.042877066880464554,-0.0042371442541480064,-0.17355674505233765,0.5739725232124329,-4.178257942199707,2
15,0.03864104673266411,0.03337937220931053,-0.11401671171188354,-0.17255231738090515,0.7689993381500244,-4.174786567687988,2
16,-0.0703740194439888,0.06389471143484116,-0.12476721405982971,-0.171848863363266,0.6001455187797546,-4.171050548553467,2
17,-0.009468244388699532,0.057612814009189606,-0.03543213754892349,-0.1723998337984085,0.5991338491439819,-4.167932033538818,2
18,0.17338182032108307,0.060980211943387985,-0.031447697430849075,-0.1724439561367035,0.536128580570221,-4.163646221160889,2
19,0.03845759108662605,0.13730266690254211,0.07707398384809494,-0.17288339138031006,0.5520046949386597,-4.159966468811035,2
20,0.07553457468748093,0.08887051790952682,0.0065056453458964825,-0.17388498783111572,0.5642631649971008,-4.155367851257324,2
21,-0.004692631307989359,0.06736621260643005,-0.029529061168432236,-0.1742972582578659,0.5731490254402161,-4.150985240936279,2
22,0.03303105756640434,0.048703599721193314,0.0488746277987957,-0.174155130982399,0.579809308052063,-4.147012233734131,2
23,-0.006356608122587204,0.1339859813451767,0.0086436215788126,-0.17392213642597198,0.6482530832290649,-4.1427321434021,2
24,0.1287359893321991,0.12280502170324326,-0.1320493221282959,-0.17482110857963562,0.6372830271720886,-4.138487815856934,2
25,0.04595731198787689,0.06207432597875595,-0.039098724722862244,-0.17518989741802216,0.5663268566131592,-4.135355472564697,2
26,0.0324736088514328,0.11499440670013428,-0.008830197155475616,-0.1746635138988495,0.7651433944702148,-4.132063388824463,2
27,0.002432038076221943,0.07384753972291946,-0.02531055361032486,-0.17439965903759003,0.5361825823783875,-4.127701759338379,2
28,-0.04505159333348274,0.09502163529396057,-0.0493270643055439,-0.1741933524608612,0.6776286959648132,-4.123962879180908,2
29,0.12151152640581131,0.11347152292728424,0.02113923989236355,-0.17397776246070862,0.532376229763031,-4.119656562805176,2
30,0.06637269258499146,0.09710053354501724,-0.07494497299194336,-0.11053971946239471,0.6125975251197815,-4.115945339202881,2
31,0.001473022741265595,0.08729124069213867,0.006268903613090515,-0.18925981223583221,0.6093190908432007,-4.111650466918945,2
32,0.019412294030189514,0.09764265269041061,-0.027242591604590416,-0.18990997970104218,0.6087607741355896,-4.107537746429443,2
33,-0.045000698417425156,0.04628335312008858,-0.0615522526204586,-0.19031360745429993,0.6083258390426636,-4.103902339935303,2
34,-0.0039983391761779785,0.12885813415050507,-0.025000331923365593,-0.18793269991874695,0.5432270169258118,-4.100432395935059,2
35,0.03652836009860039,0.14835956692695618,-0.0026806627865880728,-0.18685998022556305,0.5576254725456238,-4.096961975097656,2
36,0.21622280776500702,0.04731709882616997,0.0025923149660229683,-0.18617679178714752,0.6323471069335938,-4.093153476715088,2
37,-0.06201564148068428,0.1602393090724945,0.010021441616117954,-0.18518398702144623,0.6259175539016724,-4.089323043823242,2
38,0.16684392094612122,0.05314735695719719,-0.08761287480592728,-0.1844637393951416,0.5572009682655334,-4.085193157196045,2
39,0.1365034580230713,0.05809568241238594,-0.030168095603585243,-0.18310768902301788,0.5698565244674683,-4.081630229949951,2
40,-0.1334090232849121,0.008139630779623985,-0.09485183656215668,-0.18199104070663452,0.5783923864364624,-4.078098773956299,2
41,-0.04401683062314987,0.1492854803800583,-0.01645134948194027,-0.18130183219909668,0.6466551423072815,-4.0748467445373535,2
42,0.0683656856417656,0.04319905489683151,-0.08802581578493118,-0.18072651326656342,0.7625666856765747,-4.071130752563477,2
43,0.013987652026116848,0.09798762202262878,-0.038540564477443695,-0.17993678152561188,0.6616252064704895,-4.068108558654785,2
44,0.0022492031566798687,0.16976934671401978,-0.00285576400347054,-0.18022707104682922,0.6472513675689697,-4.064600944519043,2
45,0.14816726744174957,0.08088669925928116,0.060546111315488815,-0.1807122379541397,0.5103275775909424,-4.06093168258667,2
46,0.019271690398454666,0.14501218497753143,0.03945077955722809,-0.18071182072162628,0.596615731716156,-4.056673049926758,2
47,0.11071300506591797,0.028573205694556236,-0.07876220345497131,-0.1816973090171814,0.5360711812973022,-4.048661708831787,2
48,0.14841318130493164,0.04826611280441284,-0.06093153357505798,-0.18086029589176178,0.5548301339149475,-4.044964790344238,2
49,-0.014561309479176998,0.10643099993467331,0.018302589654922485,-0.18082408607006073,0.5687910914421082,-4.041013717651367,2
50,0.03317153453826904,0.05787496641278267,-0.09946117550134659,-0.18130278587341309,0.5789082050323486,-4.037329196929932,2
51,0.11012369394302368,0.18037231266498566,-0.024551261216402054,-0.18241435289382935,0.587009847164154,-4.033901214599609,2
52,0.08214795589447021,0.015285014174878597,0.020207613706588745,-0.18345125019550323,0.6565255522727966,-4.030310153961182,2
53,0.003185170004144311,0.13547804951667786,-0.12668302655220032,-0.1835901141166687,0.582404375076294,-4.026373386383057,2
54,0.06812487542629242,-0.00530620152130723,-0.007460871245712042,-0.18356449902057648,0.5896333456039429,-4.023097991943359,2
55,0.010546072386205196,0.11714503914117813,-0.032334163784980774,-0.18321827054023743,0.6588886976242065,-4.019388198852539,2
56,0.13672025501728058,0.126709446310997,-0.020371844992041588,-0.1838190257549286,0.6478893756866455,-4.015558242797852,2
57,-0.03699762374162674,0.02929661236703396,-0.06715340912342072,-0.18441273272037506,0.6392356157302856,-4.0116987228393555,2
58,0.09050941467285156,0.0686640813946724,-0.08164162933826447,-0.18476369976997375,0.6326279640197754,-4.008232593536377,2
59,0.13211627304553986,0.03580554947257042,-0.08251061290502548,-0.18531835079193115,0.6327887773513794,-4.004691123962402,2
60,-0.028230786323547363,0.054449912160634995,-0.03492891788482666,-0.18523213267326355,0.5651209354400635,-4.001511573791504,2
61,0.0795387551188469,0.21273957192897797,-0.010799956507980824,-0.18631990253925323,0.5771247148513794,-3.9981236457824707,2
62,-0.003952706698328257,0.15640036761760712,0.015947148203849792,-0.1877378225326538,0.587453305721283,-3.9944374561309814,2
63,-0.01608712039887905,7.066999387461692e-05,0.06496518105268478,-0.18812747299671173,0.7831911444664001,-3.9903435707092285,2
64,-0.0377340130507946,-0.03973481431603432,-0.025298645719885826,-0.18775732815265656,0.5514832139015198,-3.9868052005767822,2
65,0.06696753948926926,0.13261263072490692,-0.06408138573169708,-0.18826740980148315,0.6395977735519409,-3.978820562362671,2
66,-0.02791084535419941,0.1468825340270996,0.05212288349866867,-0.1888262778520584,0.5691545009613037,-3.9753589630126953,2
67,0.06626461446285248,0.11789791285991669,0.006155295763164759,-0.1892092078924179,0.6414140462875366,-3.9710447788238525,2
68,-0.03746752813458443,-0.0007699970155954361,-0.0360894612967968,-0.18915972113609314,0.5700225830078125,-3.9671833515167236,2
69,-0.010789130814373493,0.08930622041225433,-0.01850983314216137,-0.37776660919189453,0.5783094167709351,-3.961545705795288,2
70,0.034760646522045135,0.01867043785750866,0.03300915285944939,-0.2677314579486847,0.5850532054901123,-3.958845376968384,2
71,-0.07897499948740005,0.0633360967040062,0.009912021458148956,-0.1215553879737854,0.6531654596328735,-3.9554173946380615,2
72,-0.008687562309205532,0.13202689588069916,0.0725143551826477,-0.13728393614292145,0.5773769021034241,-3.952131986618042,2
73,0.03726046159863472,0.01102282851934433,0.06731629371643066,-0.1482706367969513,0.6469181776046753,-3.947256565093994,2
74,0.012678008526563644,0.06872312724590302,-0.0858118087053299,-0.15603624284267426,0.572860836982727,-3.9428303241729736,2
75,-0.09992558509111404,0.08790277689695358,-0.010348619893193245,-0.16265249252319336,0.6423966288566589,-3.939350128173828,2
76,0.08378038555383682,0.018224431201815605,-0.026502784341573715,-0.16810940206050873,0.5689203143119812,-3.9355249404907227,2
77,-0.06622929126024246,0.06685218214988708,-0.023592280223965645,-0.17198516428470612,0.5772700309753418,-3.9317383766174316,2
78,0.03160663694143295,-0.06077675148844719,-0.09040392190217972,-0.1745409220457077,0.5836165547370911,-3.9279258251190186,2
79,0.06283880025148392,0.023968476802110672,-0.02634239010512829,-0.17591556906700134,0.6520389318466187,-3.9249448776245117,2
80,-0.050316378474235535,0.08371195197105408,0.007054637651890516,-0.1777297854423523,0.577036440372467,-3.9210009574890137,2
81,0.06729070097208023,0.08467023819684982,-0.02275185100734234,-0.17967718839645386,0.7723105549812317,-3.9178078174591064,2
82,0.09562845528125763,0.07161170989274979,0.011166946962475777,-0.18182888627052307,0.5421507954597473,-3.9134578704833984,2
83,-0.06979187577962875,0.06148368492722511,-0.09023559093475342,-0.18372823297977448,0.5560392737388611,-3.9096415042877197,2
84,0.0852375254034996,0.08747955411672592,-0.03829006850719452,-0.18476855754852295,0.6300960183143616,-3.9068663120269775,2
85,-0.08364327251911163,0.10816401243209839,-0.031480055302381516,-0.1850823312997818,0.5601667761802673,-3.9035825729370117,2
86,0.07317059487104416,0.050191763788461685,0.012661143206059933,-0.1853283792734146,0.5699895620346069,-3.9000658988952637,2
87,0.07217921316623688,0.0987713634967804,0.012849434278905392,-0.1855466663837433,0.5776049494743347,-3.8958218097686768,2
88,-0.04295109212398529,0.07612661272287369,-0.052579332143068314,-0.18586893379688263,0.5834434032440186,-3.8913609981536865,2
89,0.1260337382555008,-0.10496807843446732,0.04584682360291481,-0.1865990310907364,0.5831864476203918,-3.8877484798431396,2
90,-0.030889149755239487,0.07915571331977844,0.10812406986951828,-0.18600669503211975,0.5838041305541992,-3.8837289810180664,2
91,0.018434587866067886,0.05050451681017876,-0.04770573973655701,-0.18631957471370697,0.5828187465667725,-3.8786213397979736,2
92,0.04783537983894348,0.15205959975719452,0.018392056226730347,-0.18650197982788086,0.6476663947105408,-3.874723434448242,2
93,0.12858536839485168,-0.05415850877761841,0.006528021767735481,-0.18671661615371704,0.6342851519584656,-3.8711814880371094,2
94,-0.022508729249238968,0.06777798384428024,-0.015875430777668953,-0.2492089569568634,0.6233609914779663,-3.8667068481445312,2
95,-0.01632143370807171,0.11104609072208405,-0.05967672914266586,-0.23336346447467804,0.5507944822311401,-3.8635871410369873,2
96,0.11949598044157028,0.11435487121343613,-0.12934236228466034,-0.1583385020494461,0.7491883635520935,-3.859544515609741,2
97,0.061857081949710846,0.07288870960474014,-0.03327973559498787,0.0,0.0,0.0,2
98,0.011897402815520763,0.1730271279811859,-0.011929577216506004,-0.003969984594732523,-0.20134933292865753,-0.00047135865315794945,2
99,0.027099929749965668,0.08985667675733566,-0.07712293416261673,-0.006941076833754778,-1.278282642364502,-0.0006171512650325894,2
100,0.06268762052059174,0.06483075022697449,0.0011199271539226174,-0.015596424229443073,-0.23724214732646942,-0.0010479851625859737,2
101,0.10595344752073288,0.12457187473773956,-0.07069966942071915,-0.027804182842373848,0.05094936862587929,-0.0011621223529800773,2
102,0.07835454493761063,0.11028643697500229,-0.06312409043312073,-0.04555262625217438,0.27006199955940247,-0.001823238912038505,2
103,0.09973613917827606,0.23311422765254974,-0.034801583737134933,-0.06575527787208557,0.43941208720207214,-0.00238431035540998,2
104,-0.006407477892935276,0.08489813655614853,-0.03954728692770004,-0.07294795662164688,0.5390892028808594,-0.002630137838423252,2
105,0.06940846145153046,0.1258956491947174,-0.03495258837938309,-0.07738528400659561,0.6052103042602539,-0.002660964149981737,2
106,0.0988946333527565,0.09042758494615555,-0.05631835013628006,-0.08617114275693893,0.6413348317146301,-0.0028634858317673206,2
107,0.13283967971801758,0.0696873739361763,-0.03819504380226135,-0.09339231997728348,0.6670286655426025,-0.003487668465822935,2
108,0.034298159182071686,0.08176519721746445,-0.07150473445653915,-0.09842747449874878,1.0681732892990112,-0.0032217984553426504,2
109,0.035328224301338196,0.11564037203788757,-0.0744904950261116,-0.10589205473661423,0.5969236493110657,-0.004882651846855879,2
110,0.09107980877161026,0.12516488134860992,-0.051622796803712845,-0.1105017438530922,1.283311367034912,-0.003953253384679556,2
111,-0.049779199063777924,0.12005900591611862,-0.007050418294966221,-0.115986667573452,-0.10871058702468872,-0.00820146594196558,2
112,-0.006693773902952671,0.16189081966876984,0.014582671225070953,-0.12070943415164948,0.4039306342601776,-0.00711021339520812,2
113,-0.07946819812059402,0.10195910930633545,0.016055451706051826,-0.12533912062644958,1.0055700540542603,-0.005297646392136812,2
114,-0.09560811519622803,0.07311482727527618,0.023506084457039833,-0.1307082623243332,0.6604542136192322,-0.006388198584318161,2
115,0.030407927930355072,0.04505280777812004,0.0683140978217125,-0.1323668509721756,0.8907667398452759,-0.005291044246405363,2
116,0.03485214337706566,0.16578498482704163,0.031166736036539078,-0.13555032014846802,0.8247939348220825,-0.005240755621343851,2
117,0.07994036376476288,0.07539612799882889,-0.00725221075117588,-0.13845515251159668,1.189984917640686,-0.003741292515769601,2
118,0.030866364017128944,0.08310016989707947,-0.1226758286356926,-0.14025746285915375,0.4571332633495331,-0.007095102220773697,2
119,-0.0076070609502494335,0.09868905693292618,-0.1782166212797165,-0.14260800182819366,0.5063493251800537,-0.007859558798372746,2
120,0.10629652440547943,0.13158603012561798,-0.13566599786281586,-0.3209400475025177,0.7187674641609192,-0.010188248008489609,2
121,0.09090569615364075,0.11722897738218307,-0.011671354994177818,-0.27389058470726013,0.5297366976737976,-0.012619546614587307,2
122,0.041750840842723846,-0.0019679388497024775,-0.06450999528169632,-0.2386092245578766,0.7215837240219116,-0.010812196880578995,2
123,0.19801925122737885,0.1626552790403366,-0.024717135354876518,-0.2134825438261032,0.7017632126808167,-0.01135613676160574,2
124,0.03387327864766121,0.03674427419900894,0.040795616805553436,-0.19467376172542572,0.686556875705719,-0.011638433672487736,2
125,0.04456379637122154,0.199071004986763,0.00263069081120193,-0.1809169203042984,0.6747948527336121,-0.011072506196796894,2
126,0.11119527369737625,0.16015368700027466,-0.08732768893241882,-0.17338544130325317,0.665320634841919,-0.01100829802453518,2
127,-0.014476923272013664,0.18165020644664764,-0.03932619467377663,-0.03323426842689514,0.6573477983474731,-0.0106275649741292,2
128,-0.009559351950883865,0.09292624890804291,-0.1040721908211708,-0.0638180524110794,0.5202548503875732,-0.011905030347406864,2
129,0.10872607678174973,0.06241261214017868,0.0404578298330307,-0.08569888025522232,0.6751301884651184,-0.012048016302287579,2
130,0.05767839029431343,0.185604989528656,-0.00915912538766861,-0.10336636006832123,0.6636825203895569,-0.012153375893831253,2
131,0.10543602705001831,0.023395877331495285,-0.017168665304780006,-0.11639756709337234,0.656367301940918,-0.012804877944290638,2
132,0.06932498514652252,0.06826119869947433,0.055521223694086075,-0.12477444857358932,0.6506975889205933,-0.01307214330881834,2
133,-0.017758319154381752,0.09405434131622314,-0.019876040518283844,-0.132772296667099,0.4181485176086426,-0.01334063895046711,2
134,0.018237914890050888,0.015202870592474937,0.03584502637386322,-0.13690254092216492,0.6937658190727234,-0.01285659708082676,2
135,-0.056929055601358414,0.022498968988656998,-0.10607660561800003,-0.13946744799613953,0.4597388803958893,-0.013442328199744225,2
136,0.10026592761278152,0.11397381871938705,-0.11375440657138824,-0.14237384498119354,0.6093853116035461,-0.013779883272945881,2
137,-0.00953071191906929,0.07121116667985916,0.05109301954507828,-0.14418503642082214,0.7198014259338379,-0.014138448983430862,2
138,-0.008585312403738499,0.1605689525604248,-0.018666615709662437,-0.1456606388092041,0.6968672871589661,-0.013921036384999752,2
139,0.07765670120716095,0.15597572922706604,-0.0021793858613818884,-0.14693738520145416,0.5798336267471313,-0.014605579897761345,2
140,-0.017777137458324432,0.027069002389907837,0.0019986971747130156,-0.14794297516345978,0.5917536020278931,-0.014690695330500603,2
141,0.10946512222290039,0.10945934057235718,0.015384900383651257,-0.0515342615544796,0.8901767730712891,-0.013701332733035088,2
142,0.10323990136384964,0.1483815312385559,-0.024743497371673584,-0.1707030087709427,0.8249688148498535,-0.01465779822319746,2
143,-0.017472706735134125,0.03644784167408943,-0.01044832356274128,-0.16602711379528046,0.5868794918060303,-0.01552856620401144,2
144,0.008576550520956516,0.16107748448848724,-0.010521226562559605,-0.16248056292533875,0.5028810501098633,-0.015537785366177559,2
145,-0.0788402333855629,0.09533750265836716,-0.07633937150239944,-0.1603444665670395,0.5305619239807129,-0.015369175001978874,2
146,0.09015330672264099,0.1541689783334732,-0.14549463987350464,-0.15814673900604248,0.5517942905426025,-0.015907593071460724,2
147,-0.02952634170651436,0.08826986700296402,-0.0014238808071240783,-0.1565842628479004,0.5677397847175598,-0.016668571159243584,2
148,0.0022224984131753445,0.07611823081970215,-0.004907767754048109,-0.15462546050548553,0.8399832248687744,-0.015481995418667793,2
149,0.11118791997432709,0.10404404997825623,-0.1355268955230713,-0.15320666134357452,0.7838521599769592,-0.01580645516514778,2
150,0.059732452034950256,-0.01649816520512104,-0.033803705126047134,-0.15102452039718628,0.572921097278595,-0.01761126145720482,2
151,0.002476816764101386,0.09612264484167099,0.041154645383358,-0.23284406960010529,0.5826507806777954,-0.01832667551934719,2
152,0.036757566034793854,0.13688957691192627,-0.009752307087182999,-0.21112683415412903,0.5062797665596008,-0.018294693902134895,2
153,0.006663814652711153,0.14696794748306274,-0.01382728572934866,-0.1954411417245865,0.5322226285934448,-0.017978455871343613,2
154,0.0159151628613472,0.20600727200508118,-0.04936373233795166,-0.185013085603714,0.6321512460708618,-0.017268529161810875,2
155,0.0844273790717125,0.10772852599620819,-0.03324143961071968,-0.01525292918086052,0.7874365448951721,-0.017152179032564163,2
156,0.1037062481045723,0.08567392826080322,0.03745703399181366,-0.12817886471748352,0.6639740467071533,-0.018132872879505157,2
157,0.07607744634151459,0.03578978404402733,-0.0827193409204483,-0.13339810073375702,0.4928191006183624,-0.018403608351945877,2
158,0.02946365997195244,0.12122123688459396,0.06131332740187645,-0.13741599023342133,0.5220998525619507,-0.018692737445235252,2
159,0.019931910559535027,0.12205716967582703,-0.03085511550307274,-0.14069412648677826,0.5441009998321533,-0.018133163452148438,2
160,0.0210101380944252,0.11887823045253754,0.02742290496826172,-0.1433541178703308,0.5606324672698975,-0.018290583044290543,2
161,-0.04559663310647011,0.027707630768418312,0.006159658543765545,-0.14591941237449646,0.572855532169342,-0.017875971272587776,2
162,0.06698581576347351,0.016957536339759827,-0.04124036431312561,-0.14765745401382446,0.6579772233963013,-0.017655551433563232,2
163,0.08567638695240021,0.11145225912332535,-0.0380140021443367,-0.22455264627933502,0.5716862678527832,-0.017956599593162537,2
164,-0.0016299084527418017,0.09026096761226654,-0.07621417939662933,-0.20798882842063904,0.5818290710449219,-0.0182342492043972,2
165,0.044628631323575974,0.10105039179325104,0.01083471067249775,-0.19471579790115356,0.6640849709510803,-0.017934726551175117,2
166,0.10318022221326828,0.11004454642534256,-0.09060267359018326,-0.1856696605682373,0.5783228874206543,-0.01855596713721752,2
167,-0.0321781300008297,0.1334727555513382,-0.06615389883518219,-0.17862500250339508,0.5870468020439148,-0.019265536218881607,2
168,-0.008758794516324997,0.11308887600898743,-0.06102164834737778,-0.17371220886707306,0.5937404036521912,-0.020121168345212936,2
169,0.03358545899391174,-0.001664880895987153,-0.023529281839728355,-0.16891908645629883,0.6712657809257507,-0.020338330417871475,2
170,0.06500174850225449,0.14980968832969666,-0.07082358002662659,-0.093592569231987,0.6576423645019531,-0.02078836038708687,2
171,0.0063475570641458035,0.03280441090464592,0.040779273957014084,-0.10949862748384476,0.6478369235992432,-0.0213482528924942,2
172,0.04853476211428642,0.13862451910972595,-0.05135845020413399,-0.12112871557474136,0.6402367949485779,-0.021118391305208206,2
173,0.07144061475992203,-0.00571597320958972,-0.10651390999555588,-0.13111168146133423,0.6343995332717896,-0.021849729120731354,2
174,0.007567580323666334,0.0538923479616642,-0.009168939664959908,-0.13754011690616608,0.629781186580658,-0.022923780605196953,2
175,0.06719779968261719,0.05417216196656227,-0.002338242484256625,-0.14278963208198547,0.5558706521987915,-0.022800832986831665,2
176,-0.12504185736179352,0.08956999331712723,-0.06427077203989029,-0.14706793427467346,0.5689162611961365,-0.0227532759308815,2
177,0.1643017828464508,0.06656166911125183,-0.0754581019282341,-0.15115708112716675,0.5795313119888306,-0.023198740556836128,2
178,0.17417962849140167,0.11285959929227829,-0.04248010367155075,-0.15507183969020844,0.6590624451637268,-0.02395634911954403,2
179,0.06581506878137589,0.0890139639377594,-0.14601214230060577,-0.15837852656841278,0.579334557056427,-0.02451217733323574,2
180,0.024985546246170998,0.10194869339466095,-0.052227020263671875,-0.09170445799827576,0.7947173714637756,-0.025512492284178734,2
181,-0.09235021471977234,0.11363524943590164,-0.029064400121569633,-0.1801079660654068,0.6808603405952454,-0.026192709803581238,2
182,0.009338367730379105,0.10897408425807953,-0.020093102008104324,-0.24682112038135529,0.594786524772644,-0.026934070512652397,2
183,-0.08739734441041946,0.09849745035171509,-0.03285069391131401,-0.22875431180000305,0.5973274111747742,-0.02712087519466877,2
184,0.0189321618527174,0.10077071189880371,-0.0042541008442640305,-0.21463195979595184,0.5988829135894775,-0.02721766009926796,2
185,0.014096901752054691,0.01898237317800522,-0.03238235414028168,-0.2027735710144043,0.6008012294769287,-0.02729719690978527,2
186,0.044919129461050034,0.13431060314178467,0.10425626486539841,-0.19419392943382263,0.6028006076812744,-0.027199098840355873,2
187,0.09083478897809982,0.024873875081539154,-0.0061990730464458466,-0.05287371948361397,0.6041405200958252,-0.026755355298519135,2
188,0.0195855051279068,0.07627829164266586,-0.0528162345290184,-0.1480731964111328,0.5376903414726257,-0.026737557724118233,2
189,0.09818815439939499,0.20300665497779846,0.007430854253470898,-0.15417270362377167,0.622853696346283,-0.026865722611546516,2
190,-0.011930841952562332,0.1535966843366623,0.031974878162145615,-0.09309523552656174,0.6194785237312317,-0.027125410735607147,2
191,0.02179780602455139,0.1530069261789322,-0.09314817190170288,-0.18115392327308655,0.5491620898246765,-0.026742814108729362,2
192,-0.12926405668258667,0.047360073775053024,-0.13555210828781128,-0.18051840364933014,0.5626435279846191,-0.0273053590208292,2
193,0.06671268492937088,0.09742838144302368,-0.061209551990032196,-0.3784647285938263,0.5071144104003906,-0.027016738429665565,2
194,0.14627596735954285,0.07711346447467804,-0.09565065801143646,-0.1950943022966385,0.6657355427742004,-0.02742677740752697,2
195,0.04855505749583244,0.10032661259174347,-0.04788081347942352,-0.12347627431154251,0.5862807035446167,-0.029780250042676926,2
196,-0.10070215165615082,0.047093141824007034,-0.05440165475010872,-0.13512149453163147,0.5920765399932861,-0.029955433681607246,2
197,0.05390315502882004,0.07937498390674591,-0.02672661654651165,-0.14413486421108246,0.7276513576507568,-0.02936694025993347,2
198,0.06760906428098679,0.08460518717765808,-0.13019630312919617,-0.1504504233598709,0.6322414875030518,-0.030223703011870384,2
199,0.009068024344742298,0.0784987062215805,0.020496046170592308,-0.15648138523101807,0.5607774257659912,-0.0314415879547596,2
200,-0.02348329871892929,0.1882271021604538,-0.00895894505083561,-0.16076457500457764,0.571355938911438,-0.031221022829413414,2
201,0.06880991905927658,0.1454659402370453,0.0526360385119915,-0.09964631497859955,0.7769854664802551,-0.03058374859392643,2
202,-0.126581072807312,0.04660917818546295,-0.10694640129804611,-0.184059277176857,0.6034559011459351,-0.03019796498119831,2
203,0.08379388600587845,0.19243943691253662,0.0633741021156311,-0.18309807777404785,0.6690272092819214,-0.030626589432358742,2
204,0.06845331937074661,0.16659171879291534,-0.009397822432219982,-0.18320301175117493,0.5226658582687378,-0.030768295750021935,2
205,0.11516956239938736,0.10045743733644485,0.07304317504167557,-0.18237514793872833,0.5439319014549255,-0.03094739280641079,2
206,0.05017596110701561,0.02056119590997696,-0.06853363662958145,-0.18171252310276031,0.6249879002571106,-0.030120138078927994,2
207,-0.015478887595236301,0.04119556024670601,-0.028501510620117188,-0.18190500140190125,0.6244868636131287,-0.03081776201725006,2
208,0.12034165114164352,0.08234848827123642,-0.00946978759020567,-0.18222667276859283,0.6237048506736755,-0.031263452023267746,2
209,-0.13239963352680206,0.1577228605747223,0.581355094909668,-0.1835278421640396,0.6244732737541199,-0.03145591914653778,2
210,0.675308883190155,-0.13690103590488434,0.07439301162958145,-0.11876547336578369,0.7477883100509644,-0.03076837584376335,2
211,-0.43838274478912354,0.6778247952461243,-0.06005168706178665,-0.13321654498577118,0.7092612385749817,-0.03159313648939133,2
212,0.47199562191963196,-0.749082088470459,2.6172585487365723,-0.13710565865039825,0.5529402494430542,-0.037114210426807404,2
213,0.9473336338996887,-1.0507668256759644,0.16852408647537231,-0.1476457566022873,0.4977726936340332,-0.03315793350338936,2
214,-0.8530374765396118,2.8159701824188232,-1.5648550987243652,-0.21464037895202637,0.517655074596405,-0.0364731065928936,2
215,-0.5220942497253418,-1.502090573310852,-2.573245048522949,-0.20588122308254242,0.524893581867218,-0.038262274116277695,2
216,-0.9240618348121643,1.8694798946380615,1.1035780906677246,-0.14512482285499573,0.5144143104553223,-0.04967999830842018,2
217,0.027114994823932648,0.7736889123916626,0.6130863428115845,-0.22483007609844208,0.512044370174408,-0.046639684587717056,2
218,-3.0780558586120605,1.2033625841140747,1.044493317604065,-0.1763012856245041,0.4938187599182129,-0.03900350630283356,2
219,-4.038721084594727,4.362898349761963,-2.380802869796753,-0.2830501198768616,0.44667303562164307,-0.03322108834981918,2
220,-8.760805130004883,9.046269416809082,-6.772459030151367,-0.35355818271636963,0.5548321008682251,-0.05515943095088005,2
221,-8.908824920654297,8.28519344329834,-5.01542329788208,-0.49660226702690125,0.3542788028717041,-0.12627285718917847,2
222,7.806577682495117,-8.418051719665527,2.7172064781188965,-0.6332900524139404,0.13669195771217346,-0.17037570476531982,2
223,2.1845245361328125,0.014326067641377449,9.263056755065918,-0.48349571228027344,-0.13842085003852844,-0.14603213965892792,2
224,-5.939228057861328,7.7417449951171875,7.921483993530273,-0.5813473463058472,-0.045264191925525665,-0.047057151794433594,2
225,1.930261492729187,-0.7059792280197144,3.9830498695373535,-0.566384494304657,-0.07859848439693451,0.026152001693844795,2
226,7.238431453704834,-5.801023483276367,-1.9408341646194458,-0.8086336851119995,-0.5764943957328796,0.041960425674915314,2
227,14.040403366088867,-17.109594345092773,1.0285102128982544,-0.7743244767189026,-0.4532916247844696,0.04174882918596268,2
228,10.76486873626709,-7.857063293457031,2.3933606147766113,-1.17838454246521,-0.880761444568634,0.0699155181646347,2
229,-11.215826988220215,7.109485626220703,1.340779185295105,-1.2059736251831055,-0.7809320688247681,0.1092553660273552,2
230,0.5337294936180115,-3.3763985633850098,0.5296939611434937,-1.2354037761688232,-0.6342083811759949,0.13327978551387787,2
231,15.379008293151855,-11.597023963928223,4.263794898986816,-1.5424741506576538,-0.8462364673614502,0.1775260716676712,2
232,-1.6653287410736084,16.044189453125,7.317933082580566,-2.0192222595214844,-1.0138863325119019,0.2786613702774048,2
233,16.646041870117188,3.5604135990142822,5.6554789543151855,-2.063115358352661,-0.7405000925064087,0.3827003836631775,2
234,35.69660949707031,-18.46160125732422,4.737659931182861,-2.0331320762634277,-0.19857536256313324,0.5162491202354431,2
235,11.063665390014648,-3.4592840671539307,1.902921438217163,-2.6614606380462646,-0.1158825159072876,0.6357473134994507,2
236,19.779096603393555,-18.331483840942383,0.8045233488082886,-2.51261305809021,0.10781291127204895,0.6772105693817139,2
237,37.246212005615234,-35.19626998901367,-0.635797381401062,-2.97784161567688,0.3910069465637207,0.7594330906867981,2
238,1.4595838785171509,-35.953433990478516,3.316195249557495,-2.5420241355895996,0.6030891537666321,0.7449081540107727,2
239,7.028147220611572,-70.8287582397461,1.4397828578948975,-2.6769790649414062,1.1151939630508423,0.9557711482048035,2
240,20.811819076538086,-101.70808410644531,0.6271119117736816,-1.551753044128418,1.516136884689331,1.1027553081512451,2
241,30.918270111083984,-125.47328186035156,-0.4654529392719269,-1.3174374103546143,2.0966248512268066,1.1014869213104248,2
242,13.959976196289062,-117.39788818359375,-3.298895835876465,-0.001803029328584671,2.384124517440796,1.123070478439331,2
243,-6.555000305175781,-113.20345306396484,-3.5852229595184326,0.49399521946907043,3.02531099319458,0.9307519793510437,2
244,-23.514663696289062,-101.09937286376953,-1.9371814727783203,0.8453378677368164,3.1227805614471436,0.8227424025535583,2
245,-41.052955627441406,-86.40109252929688,-2.345043420791626,1.031054139137268,3.3552255630493164,0.6141185760498047,2
246,-46.93113708496094,-68.84446716308594,-0.9861637353897095,2.778651714324951,2.872164249420166,0.8231194615364075,2
247,-49.43976974487305,-49.91606140136719,-0.5859172344207764,3.3850514888763428,2.8916399478912354,0.6371141076087952,2
248,-51.974609375,-24.717620849609375,0.6390145421028137,4.240118503570557,1.8585611581802368,0.9572635293006897,2
249,-54.61811447143555,5.850790500640869,3.489220380783081,4.43019962310791,1.770999550819397,0.7335155606269836,2
250,-47.14506912231445,37.554447174072266,6.295035362243652,3.2882957458496094,0.7096261382102966,0.8530827760696411,2
251,-33.37255096435547,64.87857055664062,9.499767303466797,4.49515438079834,-0.14524078369140625,1.6053179502487183,2
252,-20.748104095458984,75.015625,8.41909408569336,3.677781820297241,-0.5059241056442261,1.6739146709442139,2
253,-6.133941650390625,75.99243927001953,9.556009292602539,0.3242810070514679,-1.3581430912017822,2.2036757469177246,2
254,18.18114471435547,64.12515258789062,9.430730819702148,0.3199942111968994,-0.9292323589324951,2.1096205711364746,2
255,32.37260818481445,39.657508850097656,8.129377365112305,0.15043070912361145,-0.6851188540458679,2.0587334632873535,2
256,40.952388763427734,20.089385986328125,8.767030715942383,-1.2017570734024048,0.676212728023529,1.973018765449524,2
257,49.473968505859375,-11.32906723022461,9.58263111114502,-0.4297695755958557,0.8965340256690979,2.005572557449341,2
258,47.58024215698242,-45.917728424072266,11.37496566772461,0.9245928525924683,1.5185410976409912,1.8988384008407593,2
259,39.57459259033203,-67.06478881835938,15.524739265441895,2.1854546070098877,1.962967872619629,1.94284188747406,2
260,25.62501335144043,-81.60914611816406,18.137353897094727,3.845832109451294,2.0103280544281006,2.1212191581726074,2
261,1.4370396137237549,-83.33916473388672,18.13823699951172,5.047451496124268,1.8902887105941772,2.357308864593506,2
262,-18.640182495117188,-66.35285186767578,12.666726112365723,6.443757057189941,1.7558205127716064,2.5722217559814453,2
263,-35.538658142089844,-32.44378662109375,6.855842113494873,7.27522611618042,1.4995534420013428,2.698018789291382,2
264,-47.468788146972656,15.15955924987793,2.3412537574768066,8.26236629486084,1.0240166187286377,2.853342056274414,2
265,-50.491844177246094,71.43146514892578,0.16439469158649445,7.920291900634766,0.6581188440322876,2.786501884460449,2
266,-45.3209114074707,120.8738784790039,-2.563044548034668,8.0023775100708,0.2930818498134613,2.634519100189209,2
267,-32.67689514160156,156.20498657226562,-4.971923351287842,6.5287909507751465,-0.19584810733795166,2.6988143920898438,2
268,-18.19827651977539,176.62677001953125,-7.087885856628418,4.715551376342773,-0.46873846650123596,2.6590917110443115,2
269,-1.220436930656433,180.6497344970703,-8.605391502380371,4.03538179397583,-0.3920026123523712,2.212437868118286,2
270,15.16317367553711,162.63352966308594,-6.966822147369385,1.8800188302993774,-0.2782956063747406,2.1022143363952637,2
271,25.82901954650879,136.6750946044922,-3.5753700733184814,1.7787104845046997,-0.2321167290210724,1.9433925151824951,2
272,20.518083572387695,104.4051742553711,-0.27800267934799194,-0.6852208971977234,-0.27545589208602905,2.349839448928833,2
273,7.147686004638672,76.53076934814453,0.2950257956981659,-2.6234676837921143,0.4432739019393921,2.3081510066986084,2
274,-6.285361289978027,64.35150146484375,0.8144733905792236,-4.656775951385498,-0.06253379583358765,2.4679157733917236,2
275,-24.3520565032959,57.86830139160156,-0.25359538197517395,-6.331025123596191,0.16120809316635132,2.617654323577881,2
276,-41.9036865234375,46.00358963012695,-0.3054784834384918,-8.471522331237793,-0.569323718547821,2.4870283603668213,2
277,-46.55586242675781,23.532751083374023,2.6624085903167725,-7.6109299659729,-1.0765411853790283,2.244692802429199,2
278,-38.259300231933594,-1.8071656227111816,4.346437931060791,-8.422252655029297,-1.6660740375518799,2.2276077270507812,2
279,-13.839157104492188,-20.365861892700195,2.8700573444366455,-9.552781105041504,-1.8964968919754028,2.6034982204437256,2
280,10.681015014648438,-28.374130249023438,-1.185638427734375,-8.812921524047852,-2.180248975753784,2.3001301288604736,2
281,26.651477813720703,-39.86430358886719,-1.3163723945617676,-8.687702178955078,-2.136834144592285,2.2761404514312744,2
282,41.893253326416016,-53.536128997802734,-0.4498528838157654,-8.250312805175781,-1.5737553834915161,2.6464648246765137,2
283,48.576358795166016,-59.408424377441406,-1.2160078287124634,-8.52780532836914,-0.27897095680236816,4.138143539428711,2
284,43.7376594543457,-66.60259246826172,-4.953373908996582,-7.305419445037842,-0.2489692121744156,3.295842170715332,2
285,29.521591186523438,-73.58748626708984,-3.1509850025177,-6.257074356079102,-0.35416725277900696,2.4282419681549072,2
286,13.3544340133667,-75.80622100830078,0.4141024947166443,-5.844614028930664,0.26008838415145874,2.9038748741149902,2
287,-4.297122478485107,-69.7844009399414,-3.124102830886841,-4.7321696281433105,0.32551413774490356,2.773977518081665,2
288,-16.94864273071289,-53.50717544555664,-5.800797939300537,-4.075239658355713,0.1261991560459137,2.587686061859131,2
289,-25.84640121459961,-32.97846221923828,-6.6505584716796875,-3.728769540786743,0.8076431155204773,3.429643392562866,2
290,-29.53853416442871,-13.744303703308105,-10.623466491699219,-3.094558000564575,-1.3285894393920898,1.5348753929138184,2
291,-32.04157257080078,-3.2424728870391846,-6.150487422943115,-2.7095394134521484,-1.6658246517181396,1.4065229892730713,2
292,-22.903789520263672,8.367480278015137,-3.2582199573516846,-2.7576098442077637,-1.6900601387023926,1.5502269268035889,2
293,-1.9473721981048584,15.488553047180176,-2.5023937225341797,-3.406301498413086,-1.286649465560913,2.0127665996551514,2
294,21.515655517578125,21.074542999267578,-3.3342907428741455,-3.785133123397827,-1.2349581718444824,2.073906421661377,2
295,37.38652038574219,18.68596649169922,-3.879323720932007,-4.029513359069824,-1.0079984664916992,2.044865369796753,2
296,43.26820373535156,6.14854097366333,-3.893233299255371,-4.079192161560059,-0.4482102692127228,2.0826597213745117,2
297,41.20478057861328,-12.74026870727539,-3.3129689693450928,-3.9323339462280273,0.0884566530585289,2.0756797790527344,2
298,28.858055114746094,-31.076309204101562,-3.4546241760253906,-3.560833215713501,0.8685054183006287,2.2297942638397217,2
299,10.344659805297852,-45.324703216552734,-6.111259460449219,-2.871716022491455,1.0924041271209717,2.129903554916382,2
300,-13.651437759399414,-49.36021423339844,-8.5084810256958,-2.2546074390411377,0.017749091610312462,1.4994899034500122,2
301,-33.36029052734375,-40.40831756591797,-8.5182523727417,-1.152993083000183,1.15208899974823,1.9264570474624634,2
302,-45.085445404052734,-29.94659996032715,-9.920997619628906,-0.5813491344451904,-0.8288670778274536,1.3453731536865234,2
303,-46.40469741821289,-20.128820419311523,-6.8484272956848145,-0.26832693815231323,-1.6196976900100708,1.187949299812317,2
304,-31.545555114746094,-6.677111625671387,-5.237674236297607,0.05177529901266098,-2.024620532989502,1.1117055416107178,2
305,-5.482398986816406,7.200058937072754,-5.051921844482422,-0.14027319848537445,-2.3251285552978516,1.0996893644332886,2
306,27.359783172607422,22.280357360839844,-5.365337371826172,-0.9851658344268799,-1.4202067852020264,1.184901237487793,2
307,53.02885055541992,29.79511070251465,-5.73867654800415,-1.254699945449829,-1.332613229751587,1.1404155492782593,2
308,63.24391174316406,29.953733444213867,-6.19096565246582,-2.1499412059783936,-0.2476247400045395,1.1781171560287476,2
309,63.824466705322266,23.006732940673828,-5.388537406921387,-2.3075437545776367,0.5987623333930969,1.0931676626205444,2
310,50.6928825378418,5.971848011016846,-2.4279162883758545,-1.7976642847061157,1.6295586824417114,0.972671389579773,2
311,24.294748306274414,-10.173171997070312,1.3533302545547485,-1.4438375234603882,2.2359933853149414,0.9283746480941772,2
312,-12.040993690490723,-22.86225700378418,3.336735725402832,-2.609731912612915,1.6713794469833374,0.817930281162262,2
313,-42.491817474365234,-28.816749572753906,4.911242485046387,-1.601311445236206,1.0470926761627197,0.8947914838790894,2
314,-53.986392974853516,-37.5854377746582,4.943969249725342,-1.1307411193847656,0.4383724331855774,0.9373906850814819,2
315,-46.04520034790039,-37.331233978271484,4.6828932762146,-1.1936439275741577,0.3893066346645355,0.9508516192436218,2
316,-27.815946578979492,-35.069610595703125,6.122918605804443,-0.5788764357566833,-0.12097204476594925,1.0232934951782227,2
317,-4.260354042053223,-26.72852897644043,6.4641804695129395,0.11331751197576523,-0.36830201745033264,1.1127406358718872,2
318,12.061894416809082,-18.53568458557129,6.374289512634277,0.9810566306114197,-0.5792826414108276,1.220643162727356,2
319,27.949848175048828,-4.845003128051758,7.958002090454102,0.5394695997238159,-0.25169020891189575,1.2484815120697021,2
320,35.29850769042969,16.697587966918945,9.447537422180176,0.8981553912162781,0.05487583950161934,1.3214302062988281,2
321,31.364656448364258,28.548595428466797,10.625275611877441,-0.08844070881605148,0.7266700863838196,1.3334720134735107,2
322,21.760234832763672,33.75236892700195,12.673930168151855,0.011146366596221924,1.0762578248977661,1.4361841678619385,2
323,10.248191833496094,32.7508430480957,12.258931159973145,-0.4790761172771454,1.3112820386886597,1.550634741783142,2
324,-3.0111377239227295,22.963804244995117,11.022566795349121,-1.5066912174224854,1.3419626951217651,1.6270195245742798,2
325,-10.920777320861816,3.763273000717163,10.480015754699707,-1.0530561208724976,1.2760844230651855,1.8247649669647217,2
326,-13.568727493286133,-22.387269973754883,9.523545265197754,0.10846762359142303,-0.08464033156633377,2.2667155265808105,2
327,-4.5085320472717285,-37.95647430419922,6.806971549987793,0.8654619455337524,-0.052610769867897034,2.3966245651245117,2
328,14.880945205688477,-32.21488571166992,4.710041046142578,0.7819833159446716,-0.05295855551958084,2.416001558303833,2
329,29.41349983215332,-14.190285682678223,4.468328952789307,0.9474162459373474,0.5941452383995056,2.322662830352783,2
330,38.93204879760742,7.391462802886963,3.4801671504974365,0.8133803009986877,1.6049885749816895,2.1427154541015625,2
331,33.739646911621094,27.51460838317871,0.9581915140151978,0.35259637236595154,2.150376319885254,2.1084320545196533,2
332,8.114030838012695,34.55507278442383,0.14975100755691528,0.4418799877166748,2.3995180130004883,2.2015068531036377,2
333,-23.511890411376953,27.83965301513672,-2.2964110374450684,-0.22572061419487,2.210692882537842,2.202077865600586,2
334,-47.69926071166992,18.505142211914062,-3.9027984142303467,-1.3915257453918457,1.0237526893615723,2.2020299434661865,2
335,-58.84302520751953,5.186708927154541,-6.706588268280029,-0.8344574570655823,0.931604266166687,2.2377848625183105,2
336,-49.920806884765625,-11.995028495788574,-9.994189262390137,-1.1457799673080444,-0.8753795027732849,2.281067371368408,2
337,-22.408376693725586,-20.105560302734375,-13.136594772338867,-1.289644479751587,-0.2792564034461975,2.03935170173645,2
338,12.196529388427734,-21.288637161254883,-12.509795188903809,-2.1481873989105225,-0.39259570837020874,1.8410588502883911,2
339,37.36232376098633,-10.821348190307617,-12.023478507995605,-1.3728704452514648,-0.09381545335054398,1.718066930770874,2
340,41.53278350830078,-7.3180084228515625,-12.160727500915527,-1.3996168375015259,2.0731465816497803,1.6583174467086792,2
341,28.344263076782227,-3.3528897762298584,-12.665518760681152,-0.8632774353027344,2.1789474487304688,1.543800711631775,2
342,-1.0564498901367188,-4.998978137969971,-12.395965576171875,-1.098305344581604,2.464169502258301,1.3818854093551636,2
343,-35.53488540649414,-10.209868431091309,-10.401473999023438,-0.6665909290313721,1.935189962387085,1.3156499862670898,2
344,-62.26156234741211,-15.254809379577637,-7.185084342956543,-0.5564529299736023,1.0130107402801514,1.197487473487854,2
345,-77.72547912597656,-22.765901565551758,-3.145940065383911,-0.0765850692987442,-0.18080882728099823,1.1968096494674683,2
346,-76.85025787353516,-28.155412673950195,-1.7503286600112915,0.9067732095718384,-1.3823665380477905,1.297871708869934,2
347,-61.02076721191406,-29.56463050842285,-2.0084924697875977,1.4498629570007324,-3.1112074851989746,1.4140228033065796,2
348,-29.253799438476562,-18.632192611694336,-0.36075589060783386,1.5542004108428955,-1.960494041442871,1.1049613952636719,2
349,12.893966674804688,1.3389112949371338,2.3358349800109863,1.724387288093567,-2.074662923812866,1.06560480594635,2
350,48.53412628173828,25.894662857055664,4.799787521362305,1.651233196258545,-1.9870799779891968,1.117536187171936,2
351,73.27874755859375,46.725704193115234,4.167068004608154,0.94847172498703,-1.2383160591125488,1.186584234237671,2
352,78.12071990966797,57.581398010253906,2.6286609172821045,0.29447752237319946,-0.5001920461654663,1.2775375843048096,2
353,60.15487289428711,59.83576965332031,1.6183611154556274,-0.48886242508888245,0.5283411145210266,1.2811965942382812,2
354,26.8577938079834,53.03250503540039,1.0602517127990723,-0.7163510322570801,0.7565315961837769,1.321579098701477,2
355,-10.023445129394531,40.85105895996094,-0.06253743171691895,-1.1545318365097046,0.927280068397522,1.3412799835205078,2
356,-44.95834732055664,23.245763778686523,-1.0784034729003906,-1.1908048391342163,0.5458568930625916,1.350114345550537,2
357,-67.74917602539062,-0.3619209825992584,-0.8543861508369446,-0.9352445006370544,0.07326873391866684,1.31440269947052,2
358,-74.54623413085938,-20.966482162475586,-1.3481541872024536,-1.134897232055664,-1.0761628150939941,1.3575479984283447,2
359,-61.31058883666992,-35.18449783325195,-2.945373296737671,-1.4734563827514648,-2.1400744915008545,1.404199242591858,2
360,-28.873641967773438,-44.126644134521484,-3.6008100509643555,-1.0968812704086304,-2.6324596405029297,1.3860844373703003,2
361,7.739150524139404,-42.27766418457031,-3.040567398071289,-0.4315422475337982,-2.7877871990203857,1.3307864665985107,2
362,48.95862579345703,-27.190223693847656,-1.260175347328186,0.09143178910017014,-2.543456554412842,1.2918258905410767,2
363,68.04659271240234,-6.007226467132568,0.4544534981250763,0.6465765833854675,-1.6160831451416016,1.174121618270874,2
364,72.35936737060547,17.98794174194336,3.8873441219329834,0.22049030661582947,-0.3321384787559509,1.2792387008666992,2
365,60.90532684326172,42.53010940551758,4.852535247802734,-0.2589508593082428,0.6616196036338806,1.3703795671463013,2
366,30.618623733520508,59.37620162963867,5.235209941864014,-0.3786625862121582,1.1338831186294556,1.3694708347320557,2
367,-10.197816848754883,58.90480041503906,5.020869255065918,-0.8565862774848938,1.2916136980056763,1.4292799234390259,2
368,-41.11887741088867,49.01638412475586,2.8517308235168457,-1.1148285865783691,0.8868123292922974,1.483163595199585,2
369,-61.607818603515625,25.970834732055664,-0.5271452069282532,-1.6514275074005127,0.42535316944122314,1.5194579362869263,2
370,-71.45503997802734,-1.7417725324630737,-3.313657283782959,-2.0222554206848145,-0.6188479661941528,1.510223627090454,2
371,-65.80149841308594,-29.638607025146484,-3.2713732719421387,-1.974480390548706,-1.7066949605941772,1.4573657512664795,2
372,-38.83565139770508,-47.08019256591797,-2.2826595306396484,-1.584612488746643,-1.6274123191833496,1.4925581216812134,2
373,1.1082546710968018,-50.25841522216797,-2.0070652961730957,-0.9248452186584473,-2.0258963108062744,1.4628996849060059,2
374,39.65959930419922,-35.15091323852539,-2.540485382080078,-0.5665698051452637,-1.9861228466033936,1.483872652053833,2
375,59.591915130615234,-3.5226199626922607,-3.6548328399658203,-0.24432478845119476,-1.3006967306137085,1.4944177865982056,2
376,59.95561218261719,33.505882263183594,-1.0865861177444458,-0.4370177686214447,-0.9302939176559448,1.4964706897735596,2
377,43.275550842285156,61.17545700073242,1.8645145893096924,-1.1595122814178467,-0.5405482649803162,1.5497616529464722,2
378,20.85066032409668,69.10199737548828,4.71111536026001,-1.97817063331604,-0.1479920893907547,1.6016534566879272,2
379,0.6936081647872925,57.682918548583984,6.18333101272583,-2.3391811847686768,-0.15290842950344086,1.5800279378890991,2
380,-13.39777660369873,33.502159118652344,8.418115615844727,-2.8215396404266357,-0.14328789710998535,1.6311652660369873,2
381,-19.2273006439209,2.895392656326294,7.3035430908203125,-2.8463618755340576,-0.2557313144207001,1.6838845014572144,2
382,-16.137346267700195,-22.095239639282227,4.08793830871582,-2.90548038482666,-0.432101309299469,1.7618250846862793,2
383,-5.079300880432129,-38.630043029785156,3.8471498489379883,-2.541245698928833,-0.5129806399345398,1.8081958293914795,2
384,-1.5901120901107788,-50.88459396362305,7.441990375518799,-2.316330909729004,-0.46870484948158264,1.8883028030395508,2
385,-8.044836044311523,-50.870582580566406,12.280071258544922,-1.812537431716919,-0.49922260642051697,1.9662971496582031,2
386,-11.781548500061035,-39.697845458984375,14.622488021850586,-1.1474061012268066,-0.6180185079574585,2.067328929901123,2
387,-6.016242980957031,-18.88433074951172,17.148679733276367,-1.0828182697296143,-1.1109765768051147,2.156628131866455,2
388,-3.428709030151367,4.259401798248291,20.559553146362305,-0.8773456811904907,-0.9923226833343506,2.3652660846710205,2
389,-9.902413368225098,19.354225158691406,22.21424674987793,-0.9401676058769226,-1.021827220916748,2.5731799602508545,2
390,-12.036349296569824,23.878475189208984,23.15337371826172,-1.0762829780578613,-1.2520278692245483,2.7655932903289795,2
391,-9.923989295959473,20.783504486083984,25.728160858154297,-1.3691960573196411,-1.3523902893066406,3.0009732246398926,2
392,-10.654082298278809,16.940711975097656,28.43633270263672,-1.5510023832321167,-1.1922173500061035,3.283602237701416,2
393,-7.2835211753845215,4.213020324707031,30.080522537231445,-1.8047051429748535,-1.2157237529754639,3.585089683532715,2
394,-11.089262962341309,-10.501188278198242,28.929508209228516,-2.375930070877075,0.28419601917266846,4.1910881996154785,2
395,-15.740612030029297,-25.422901153564453,28.549917221069336,-2.0747480392456055,0.04001958295702934,4.431364059448242,2
396,-20.5316219329834,-37.7314338684082,28.551301956176758,-1.6701356172561646,-0.267162024974823,4.678398609161377,2
397,-17.968053817749023,-45.71006393432617,26.572540283203125,-1.1604042053222656,-0.5878129005432129,4.934183597564697,2
398,-12.635257720947266,-43.20948028564453,24.24395179748535,-0.6843144297599792,-0.8546087145805359,5.188148021697998,2
399,-8.149199485778809,-37.54752731323242,21.129287719726562,-0.17959974706172943,-1.0351402759552002,5.423024654388428,2
400,-6.751532554626465,-23.039390563964844,18.407772064208984,0.2483060508966446,-1.2139158248901367,5.627933979034424,2
401,-2.9837725162506104,-10.893969535827637,16.43840217590332,0.45766928791999817,-1.2799899578094482,5.818645000457764,2
402,-3.8930466175079346,4.347047328948975,13.193787574768066,0.5808037519454956,-1.44870924949646,5.978460788726807,2
403,-4.974655628204346,14.254985809326172,8.988190650939941,0.5592163801193237,-1.6152420043945312,6.105785369873047,2
404,-2.3129148483276367,15.163402557373047,5.363433361053467,0.5092708468437195,-1.891944408416748,6.192849636077881,2
405,6.825207233428955,19.425098419189453,1.7443692684173584,0.3992812931537628,-1.8815500736236572,6.234611511230469,2
406,18.97756576538086,17.389034271240234,-2.4904932975769043,0.11375349760055542,-1.710120439529419,6.251583099365234,2
407,27.33352279663086,10.268205642700195,-5.293619632720947,0.02196718566119671,-1.4385526180267334,6.203391075134277,2
408,24.50847053527832,-0.84585040807724,-7.497944355010986,-0.07010215520858765,-1.1014132499694824,6.137750625610352,2
409,21.46047019958496,-4.14947509765625,-9.225859642028809,-0.08905215561389923,-0.7421183586120605,6.054728984832764,2
410,16.47208595275879,-3.6286964416503906,-10.0979642868042,0.05346056446433067,-0.3669833540916443,5.930883884429932,2
411,2.2419121265411377,-1.1562492847442627,-10.697855949401855,-0.4860062897205353,1.1252357959747314,5.761589050292969,2
412,-15.253494262695312,11.806486129760742,-9.584303855895996,-0.48075249791145325,0.8585016131401062,5.686779499053955,2
413,-33.04779815673828,20.185400009155273,-9.581254005432129,-0.4333920180797577,0.39215731620788574,5.611018657684326,2
414,-35.58338165283203,27.0844669342041,-11.553548812866211,-0.6158156991004944,-0.321742981672287,5.553133010864258,2
415,-32.62656021118164,31.511655807495117,-15.714224815368652,-1.0175336599349976,-0.9508461356163025,5.460687637329102,2
416,-22.337522506713867,34.35074996948242,-19.949254989624023,-0.8101938366889954,-1.407855749130249,5.290699481964111,2
417,-4.602294445037842,30.195554733276367,-23.899263381958008,-1.1692410707473755,-1.7161016464233398,5.088960647583008,2
418,15.251256942749023,22.978744506835938,-27.790428161621094,-1.3264883756637573,-1.977752447128296,4.844764709472656,2
419,30.419536590576172,4.806494235992432,-30.484346389770508,-1.4457036256790161,-1.7399564981460571,4.548673152923584,2
420,42.76844024658203,-11.370880126953125,-32.87814712524414,-1.3158496618270874,-1.8053785562515259,4.23732328414917,2
421,39.61641311645508,-21.018558502197266,-35.5160026550293,-1.0437407493591309,-1.4376609325408936,3.895199775695801,2
422,20.00235366821289,-28.848175048828125,-37.10130310058594,-0.6761059761047363,-0.9293750524520874,3.527008295059204,2
423,-6.3706440925598145,-27.869346618652344,-37.102752685546875,-0.3860526382923126,-1.3266112804412842,3.171743154525757,2
424,-18.328067779541016,-12.611526489257812,-35.29833221435547,-0.10695537179708481,-1.478499174118042,2.8111393451690674,2
425,-15.312506675720215,7.090583324432373,-36.760379791259766,-0.01970028690993786,-1.8590260744094849,2.472951889038086,2
426,-11.009150505065918,31.310640335083008,-37.38529968261719,-0.20359955728054047,-2.043347120285034,2.121500015258789,2
427,-0.47291722893714905,45.89219284057617,-36.825374603271484,-0.5163863301277161,-2.1207823753356934,1.7394708395004272,2
428,11.772432327270508,46.373966217041016,-35.50933074951172,-1.1983228921890259,-2.1703174114227295,1.3915671110153198,2
429,31.80438232421875,44.37969970703125,-33.71784973144531,-1.1194368600845337,-2.3909761905670166,0.9492412805557251,2
430,47.86729049682617,36.32875442504883,-30.661741256713867,-1.6301536560058594,-1.7956711053848267,0.6054317951202393,2
431,64.21723175048828,20.455158233642578,-28.07608413696289,-1.897963285446167,-1.713666319847107,0.2751946449279785,2
432,73.46571350097656,6.083224773406982,-26.284238815307617,-2.11649489402771,-1.0898007154464722,-0.0065164826810359955,2
433,72.09663391113281,1.0126442909240723,-26.690160751342773,-2.1580123901367188,-0.15758562088012695,-0.2653968930244446,2
434,58.373287200927734,0.2009410560131073,-27.782915115356445,-2.2264740467071533,0.13374872505664825,-0.5463496446609497,2
435,39.1417121887207,2.884148597717285,-26.9624080657959,-2.290747880935669,0.7501043081283569,-0.8107107281684875,2
436,19.90705108642578,6.54085111618042,-27.039344787597656,-2.2543206214904785,0.9769791960716248,-1.1027469635009766,2
437,8.615324974060059,9.547868728637695,-27.148517608642578,-2.402810573577881,0.8803410530090332,-1.397017478942871,2
438,7.286667346954346,13.472855567932129,-26.028215408325195,-2.4641857147216797,0.8926958441734314,-1.6752809286117554,2
439,10.677421569824219,14.533041000366211,-24.223711013793945,-2.5109710693359375,0.9749287962913513,-1.9320929050445557,2
440,16.622697830200195,16.626623153686523,-23.039222717285156,-2.6849772930145264,0.8977716565132141,-2.20011043548584,2
441,32.9085807800293,6.7658796310424805,-22.831470489501953,-2.94222092628479,1.185617446899414,-2.409323215484619,2
442,52.55831527709961,-8.553037643432617,-22.7061824798584,-2.9179763793945312,1.519451379776001,-2.6274588108062744,2
443,65.40010833740234,-20.61646270751953,-24.48736572265625,-2.7307493686676025,2.024094343185425,-2.8541204929351807,2
444,65.14812469482422,-21.30792236328125,-26.20533561706543,-2.416698455810547,2.9417645931243896,-3.0324816703796387,2
445,53.019073486328125,-14.745849609375,-28.743221282958984,-2.164198637008667,3.14523983001709,-3.395235538482666,2
446,30.46363639831543,4.082850456237793,-30.77664566040039,-2.067647933959961,3.815141201019287,-3.660027503967285,2
447,0.9265836477279663,30.53102684020996,-28.496417999267578,-2.3280298709869385,3.8046417236328125,-4.073572158813477,2
448,-21.573078155517578,48.982208251953125,-25.27901840209961,-2.880284070968628,3.731656551361084,-4.420479774475098,2
449,-34.441558837890625,50.188777923583984,-22.481853485107422,-3.2106125354766846,3.4494717121124268,-4.606338977813721,2
450,-28.05568504333496,33.81938934326172,-20.831012725830078,-3.869144916534424,3.121429681777954,-4.849877834320068,2
451,-7.710909843444824,13.33849811553955,-16.681467056274414,-3.883267879486084,2.8874008655548096,-4.9002509117126465,2
452,21.428483963012695,-7.475858211517334,-13.163018226623535,-3.966384172439575,2.7709388732910156,-5.048764705657959,2
453,38.93050003051758,-28.214059829711914,-7.97212553024292,-3.7453036308288574,3.3292789459228516,-5.003877639770508,2
454,42.530059814453125,-40.99708938598633,-5.736753940582275,-3.453256845474243,3.5001401901245117,-5.163606643676758,2
455,45.79573059082031,-54.338951110839844,-2.6396565437316895,-2.925285816192627,4.033851146697998,-5.1594953536987305,2
456,44.75193786621094,-52.253562927246094,-1.269632339477539,-2.512493371963501,4.5264201164245605,-5.266618251800537,2
457,42.17418670654297,-34.383209228515625,-1.3062540292739868,-2.129955530166626,5.053605079650879,-5.351778984069824,2
458,33.73994064331055,-6.254393577575684,-2.309295415878296,-1.8219752311706543,5.481616973876953,-5.407090187072754,2
459,18.638946533203125,29.96595001220703,-3.5422801971435547,-1.9467036724090576,5.942693710327148,-5.498116493225098,2
460,4.425520896911621,55.88369369506836,-4.89593505859375,-2.4134321212768555,5.750916481018066,-5.70911979675293,2
461,-5.773355007171631,65.10951232910156,-5.12639856338501,-3.057504653930664,5.9238409996032715,-5.717312812805176,2
462,-16.113243103027344,57.359928131103516,-4.161929607391357,-3.615352153778076,5.55196475982666,-5.739376068115234,2
463,-18.544532775878906,36.94440841674805,-2.4950921535491943,-4.193535804748535,5.422255992889404,-5.7225422859191895,2
464,-18.93861961364746,8.697700500488281,-1.9041591882705688,-4.338750839233398,5.258510589599609,-5.5572428703308105,2
465,-19.853229522705078,-28.101003646850586,-0.4812231957912445,-4.305121421813965,5.128339767456055,-5.4646453857421875,2
466,-15.666524887084961,-53.588294982910156,-0.3279426693916321,-3.825209140777588,4.947281360626221,-5.347851753234863,2
467,-16.713197708129883,-70.09407043457031,-0.15580375492572784,-3.2704246044158936,4.7817487716674805,-5.378533363342285,2
468,-12.97510051727295,-73.44996643066406,0.6559457778930664,-2.419029712677002,4.750504970550537,-5.269893169403076,2
469,-7.4843597412109375,-63.27611541748047,1.5005825757980347,-1.9360038042068481,4.648111343383789,-5.491270065307617,2
470,-9.666101455688477,-46.986961364746094,5.162296295166016,-1.1445629596710205,4.59852409362793,-5.4035186767578125,2
471,-13.571578025817871,-22.76045036315918,6.772922039031982,-1.043606162071228,4.498984336853027,-5.645869255065918,2
472,-13.8670654296875,-2.6456432342529297,9.22016429901123,-0.8291787505149841,4.325411796569824,-5.618655681610107,2
473,-8.693836212158203,17.914119720458984,10.508543968200684,-0.8927285075187683,4.1860432624816895,-5.587484836578369,2
474,-1.7234110832214355,35.810455322265625,10.601958274841309,-1.1327450275421143,4.271495342254639,-5.472186088562012,2
475,-0.18232320249080658,44.46298599243164,9.66322135925293,-1.3866665363311768,4.281197547912598,-5.2729268074035645,2
476,-3.4548463821411133,37.67573547363281,6.624185085296631,-1.8382207155227661,4.210628509521484,-5.184464454650879,2
477,-4.267459392547607,21.967931747436523,3.3635058403015137,-2.2866625785827637,4.183303356170654,-5.157442092895508,2
478,-8.644405364990234,-5.750462055206299,1.9815083742141724,-2.3940212726593018,4.118616104125977,-5.067339897155762,2
479,-19.953811645507812,-44.43418884277344,0.6787513494491577,-1.943924069404602,3.9941649436950684,-4.84923791885376,2
480,-29.443140029907227,-69.06062316894531,0.33673468232154846,-1.5025936365127563,3.841794967651367,-4.877346038818359,2
481,-34.64517593383789,-79.71795654296875,1.1554503440856934,-0.8580609560012817,3.415907144546509,-4.972256183624268,2
482,-36.22740173339844,-72.00157928466797,2.206216812133789,-0.292758047580719,3.0595805644989014,-5.13784122467041,2
483,-29.523460388183594,-45.98631286621094,3.823591470718384,0.6160588264465332,2.6525728702545166,-5.032517433166504,2
484,-25.538467407226562,-16.40065574645996,3.9999094009399414,0.8696550726890564,2.47403621673584,-5.114768981933594,2
485,-18.652280807495117,11.781392097473145,5.747578144073486,1.0742323398590088,2.2262933254241943,-5.049858570098877,2
486,-6.71046781539917,39.12560272216797,5.4992241859436035,0.8958122134208679,2.1215555667877197,-5.0146379470825195,2
487,2.24885892868042,59.996150970458984,4.896398544311523,0.29789185523986816,2.108943462371826,-5.033132076263428,2
488,4.292043209075928,59.326690673828125,3.5257976055145264,-0.20514647662639618,2.1246893405914307,-4.92672061920166,2
489,5.178289413452148,46.08705520629883,1.1554845571517944,-0.8461798429489136,2.17634654045105,-4.89394998550415,2
490,5.303430557250977,22.896337509155273,-0.5909412503242493,-1.226222038269043,2.241481304168701,-4.836838245391846,2
491,7.118009567260742,4.8700361251831055,-2.204127311706543,-1.4261131286621094,2.3177828788757324,-4.82077693939209,2
492,4.470267295837402,-9.589180946350098,-3.790955066680908,-1.3619205951690674,2.3907954692840576,-4.7964887619018555,2
493,-8.891130447387695,-26.824514389038086,-5.299862384796143,-1.234663486480713,2.3520545959472656,-4.818628311157227,2
494,-25.289615631103516,-33.72154235839844,-6.236702919006348,-0.820446252822876,2.241210460662842,-4.832095146179199,2
495,-34.816436767578125,-29.024030685424805,-7.389990329742432,-0.6529830098152161,2.237823963165283,-4.968722343444824,2
496,-34.94966125488281,-25.986013412475586,-7.998847961425781,-0.24659475684165955,1.8900814056396484,-5.019986629486084,2
497,-31.13087272644043,-31.96291732788086,-5.988651752471924,-0.11901717633008957,1.4257001876831055,-5.128058910369873,2
498,-17.377044677734375,-29.909934997558594,-5.045031547546387,0.3133954107761383,1.159471035003662,-5.166594505310059,2
499,-5.915760040283203,-19.31553840637207,-5.8236613273620605,0.32254138588905334,1.169631838798523,-5.303402423858643,2
500,-5.999392986297607,-1.1251178979873657,-6.961437225341797,0.4238256514072418,0.9952692985534668,-5.366439342498779,2
501,-16.35699462890625,16.560935974121094,-8.58473014831543,0.4627458155155182,0.7798551321029663,-5.408664703369141,2
502,-26.726728439331055,25.47917366027832,-7.613722324371338,0.24196474254131317,0.6238734722137451,-5.49596643447876,2
503,-29.923425674438477,19.25397300720215,-7.398018836975098,-0.06528235226869583,0.1940123587846756,-5.543478488922119,2
504,-21.09320831298828,4.592339992523193,-6.901829719543457,-0.15345081686973572,0.050455737859010696,-5.637587547302246,2
505,-18.216556549072266,-20.759029388427734,-5.125803470611572,0.07711559534072876,-0.08122242242097855,-5.713541030883789,2
506,-12.520827293395996,-37.31723403930664,-3.354335308074951,0.3289514482021332,-0.05900478735566139,-5.80329704284668,2
507,0.767920732498169,-27.973567962646484,-1.3618172407150269,0.6559997200965881,-0.2610906660556793,-5.815810203552246,2
508,1.9339779615402222,-11.059158325195312,2.444652795791626,0.8850460052490234,-0.25494617223739624,-5.824642658233643,2
509,-0.24006718397140503,7.235798358917236,5.556697845458984,0.9648534059524536,-0.3055013120174408,-5.779627323150635,2
510,-3.043195962905884,18.808549880981445,7.205581188201904,0.972093403339386,-0.3717959523200989,-5.711037635803223,2
511,-13.36190414428711,19.701507568359375,9.474669456481934,0.7077950239181519,-0.540310263633728,-5.59232759475708,2
512,-21.898820877075195,13.79782485961914,11.399347305297852,0.3487800657749176,-0.510450005531311,-5.521078586578369,2
513,-21.483707427978516,-2.088022470474243,12.070279121398926,0.3851427137851715,-0.6502906680107117,-5.454841613769531,2
514,-15.560650825500488,-13.645203590393066,12.130208969116211,0.548668384552002,-0.7545974850654602,-5.389919757843018,2
515,-8.406628608703613,-21.73284339904785,12.43045425415039,0.6870656609535217,-0.906786322593689,-5.265775680541992,2
516,-3.895160436630249,-26.28708267211914,13.198637008666992,1.0174723863601685,-1.0919629335403442,-5.128307342529297,2
517,-0.3352915346622467,-19.43770980834961,13.780777931213379,1.4029723405838013,-1.2030339241027832,-4.999096393585205,2
518,-0.5446839332580566,-2.295029878616333,13.557539939880371,1.4492735862731934,-1.2826075553894043,-4.800907135009766,2
519,1.9339704513549805,5.748706817626953,13.084672927856445,1.483368992805481,-1.119066834449768,-4.722231388092041,2
520,2.5808722972869873,8.69668960571289,13.197851181030273,1.3323657512664795,-0.7970715761184692,-4.66628885269165,2
521,1.737755298614502,12.938894271850586,14.994304656982422,1.1268588304519653,-0.6995363831520081,-4.52444314956665,2
522,-1.7317533493041992,24.897485733032227,16.691844940185547,0.8879692554473877,-0.7743493914604187,-4.315334320068359,2
523,-9.777860641479492,30.08782386779785,17.16968536376953,0.5884987711906433,-0.7975954413414001,-4.137919902801514,2
524,-17.417190551757812,29.311735153198242,16.996994018554688,0.37340161204338074,-1.0209975242614746,-3.9643752574920654,2
525,-23.464153289794922,14.207443237304688,17.301010131835938,0.11501763015985489,-1.4170677661895752,-3.738006591796875,2
526,-25.359739303588867,-3.6628799438476562,16.482595443725586,0.051871683448553085,-1.6554696559906006,-3.5910682678222656,2
527,-20.86441993713379,-18.097702026367188,15.79948902130127,0.26704421639442444,-2.0242621898651123,-3.4473018646240234,2
528,-12.346209526062012,-19.095596313476562,15.549211502075195,0.4111347198486328,-1.9354490041732788,-3.352426290512085,2
529,-3.851405382156372,-3.9414846897125244,16.262226104736328,0.6158143281936646,-2.0799765586853027,-3.1964128017425537,2
530,0.35976946353912354,16.246986389160156,16.600757598876953,0.6030504703521729,-2.1057870388031006,-3.024739980697632,2
531,-1.2389308214187622,33.1154899597168,17.03968048095703,0.2896387577056885,-2.172574996948242,-2.790013313293457,2
532,-1.084071397781372,34.64686965942383,18.425809860229492,-0.05193813517689705,-2.100433826446533,-2.6428964138031006,2
533,2.8077571392059326,21.897871017456055,20.250642776489258,-0.3408481478691101,-2.1494855880737305,-2.4702935218811035,2
534,10.152896881103516,4.852962493896484,20.7641544342041,-0.48019126057624817,-2.0945327281951904,-2.3061466217041016,2
535,23.88048553466797,-7.704794406890869,19.85056495666504,-0.42881450057029724,-1.94512140750885,-2.1396901607513428,2
536,35.697208404541016,-4.603804111480713,17.444751739501953,-0.3312997817993164,-1.6555566787719727,-1.977832555770874,2
537,39.14023208618164,-1.7137113809585571,15.500884056091309,-0.3799606263637543,-1.4369227886199951,-1.737808108329773,2
538,27.573993682861328,16.42447280883789,12.637779235839844,-0.4204142391681671,-0.895649790763855,-1.6046862602233887,2
539,8.528271675109863,34.03403091430664,9.438156127929688,-0.681941032409668,-0.6782233119010925,-1.4488675594329834,2
540,-7.072995662689209,45.86491012573242,4.60573673248291,-1.1799378395080566,-0.6630745530128479,-1.2891006469726562,2
541,-29.359041213989258,49.61051940917969,1.2954990863800049,-1.6110535860061646,-0.9407287240028381,-1.2480381727218628,2
542,-47.49481201171875,38.91361618041992,1.1245596408843994,-2.0038814544677734,-1.5640658140182495,-1.2555056810379028,2
543,-48.43010330200195,20.599576950073242,3.403806686401367,-2.273571252822876,-1.7978991270065308,-1.309780240058899,2
544,-37.97578048706055,5.984716892242432,5.742526054382324,-2.4770824909210205,-2.45386004447937,-1.2722340822219849,2
545,-23.664243698120117,-6.697353363037109,5.631941795349121,-2.409069538116455,-2.962827205657959,-1.2638400793075562,2
546,-6.240843296051025,-16.008207321166992,7.6635355949401855,-2.328108072280884,-3.1441500186920166,-1.1995400190353394,2
547,9.42428970336914,-22.221141815185547,8.941568374633789,-2.047408103942871,-3.134540557861328,-1.169724702835083,2
548,24.121517181396484,-23.746015548706055,12.647801399230957,-1.913316249847412,-2.878107786178589,-1.0115255117416382,2
549,40.07701873779297,-12.068981170654297,14.400099754333496,-1.700456142425537,-2.395528554916382,-0.8547275066375732,2
550,51.948394775390625,-5.385517120361328,18.287059783935547,-1.5249165296554565,-2.2934858798980713,-0.7738420963287354,2
551,53.80254364013672,-1.0982403755187988,21.701631546020508,-1.4180731773376465,-1.4656964540481567,-0.5881490111351013,2
552,50.863197326660156,8.170744895935059,23.986858367919922,-1.8167277574539185,-1.229259729385376,-0.19406110048294067,2
553,38.6141242980957,23.357236862182617,20.67064666748047,-1.9449464082717896,-0.7162729501724243,0.05784403532743454,2
554,23.42518424987793,21.979705810546875,19.034147262573242,-2.2300243377685547,-0.28937268257141113,0.2976521849632263,2
555,9.836283683776855,18.837739944458008,18.646854400634766,-2.4148731231689453,0.03554024547338486,0.48426157236099243,2
556,-1.2171343564987183,8.195359230041504,18.827131271362305,-2.5727133750915527,0.09514136612415314,0.6545107364654541,2
557,-6.646496772766113,-17.992603302001953,17.787277221679688,-2.550783634185791,0.057881273329257965,0.8045501112937927,2
558,-9.580177307128906,-45.94327163696289,18.035072326660156,-2.163499355316162,-0.1947687864303589,0.8734354376792908,2
559,-6.5222930908203125,-66.43889617919922,16.9169864654541,-1.4729604721069336,-0.3681437373161316,0.9652228355407715,2
560,-1.0885790586471558,-75.49520874023438,17.228673934936523,-0.9709728360176086,-0.41664934158325195,1.1981252431869507,2
561,6.034502029418945,-57.992103576660156,17.27724266052246,-0.2754788398742676,-0.4252890348434448,1.3817660808563232,2
562,17.567169189453125,-21.041624069213867,16.326093673706055,0.4116489291191101,-0.41969454288482666,1.50014066696167,2
563,30.407032012939453,18.053613662719727,15.710518836975098,0.2937769293785095,-0.2263241559267044,1.7474828958511353,2
564,43.16352844238281,36.526084899902344,14.07931900024414,-0.06384237855672836,0.17962178587913513,1.9588409662246704,2
565,45.63817596435547,39.15061950683594,14.37484359741211,-0.4460933804512024,0.37616223096847534,2.0787322521209717,2
566,42.973480224609375,28.53273582458496,15.317168235778809,-0.8871178030967712,1.1584573984146118,2.273683547973633,2
567,33.20684051513672,7.3912577629089355,15.322959899902344,-1.0767178535461426,1.425926923751831,2.405865430831909,2
568,17.173742294311523,-18.28825569152832,15.682245254516602,-0.8787420392036438,1.906771183013916,2.5473368167877197,2
569,-0.6656325459480286,-37.07917022705078,16.981855392456055,-0.4208686053752899,2.1089470386505127,2.6745409965515137,2
570,-19.93185043334961,-42.44594955444336,16.812681198120117,-0.044537585228681564,1.929939866065979,2.8166494369506836,2
571,-30.354570388793945,-31.083290100097656,15.486104965209961,0.5996414422988892,1.5696144104003906,2.947371244430542,2
572,-32.62812042236328,-24.00796127319336,13.679034233093262,0.747426450252533,1.0911309719085693,3.0940256118774414,2
573,-28.136384963989258,-20.004980087280273,12.738168716430664,0.9100650548934937,0.8982772827148438,3.2293336391448975,2
574,-14.035770416259766,-15.119096755981445,10.11644172668457,1.060080885887146,0.62912517786026,3.3468618392944336,2
575,-0.8293964266777039,0.014323950745165348,6.8675336837768555,1.2909342050552368,0.5842740535736084,3.439450740814209,2
576,10.295902252197266,16.72714614868164,3.90108585357666,1.255748987197876,0.6744930148124695,3.5002338886260986,2
577,16.99025535583496,30.90947723388672,3.190666675567627,0.942592442035675,0.9048315286636353,3.527437686920166,2
578,20.375606536865234,34.983795166015625,1.945770263671875,0.5545865893363953,1.151969075202942,3.5531857013702393,2
579,20.363746643066406,31.919994354248047,1.107085108757019,0.31307336688041687,1.2097514867782593,3.5989725589752197,2
580,17.650787353515625,24.46880531311035,0.8498253226280212,-0.010324935428798199,1.4698833227157593,3.610896587371826,2
581,14.757621765136719,11.95546817779541,0.7040862441062927,-0.2519759237766266,1.6750421524047852,3.6221349239349365,2
582,5.029239177703857,1.846462607383728,0.6011175513267517,-0.3291700482368469,1.8598954677581787,3.6320877075195312,2
583,-4.722060203552246,-3.242669105529785,-1.638724446296692,-0.24546001851558685,1.8838136196136475,3.6485729217529297,2
584,-14.423717498779297,-14.545248031616211,-2.414745569229126,-0.12471918016672134,1.7340760231018066,3.6485886573791504,2
585,-20.581384658813477,-26.230083465576172,-3.51674222946167,-0.033217426389455795,1.5186761617660522,3.613291025161743,2
586,-14.736005783081055,-28.454437255859375,-3.624957323074341,0.33499133586883545,1.3675072193145752,3.5790436267852783,2
587,-3.262228012084961,-13.68968677520752,-3.5829732418060303,0.7713299989700317,1.2009249925613403,3.564875841140747,2
588,7.045131206512451,4.359801769256592,-3.557159423828125,0.9290671348571777,1.285707950592041,3.5176689624786377,2
589,10.030821800231934,29.648109436035156,-3.154003620147705,0.7502822279930115,1.4088943004608154,3.461636543273926,2
590,8.753805160522461,51.00334930419922,-4.30803108215332,0.20425017178058624,1.4723809957504272,3.4021716117858887,2
591,4.7690887451171875,61.532047271728516,-4.948702335357666,-0.6448407769203186,1.580878496170044,3.316091299057007,2
592,-2.374351739883423,46.72267532348633,-5.8702006340026855,-1.2839844226837158,1.5402671098709106,3.283781051635742,2
593,-11.592391014099121,22.28390121459961,-6.829314231872559,-1.6048898696899414,1.433449149131775,3.262141227722168,2
594,-18.262062072753906,-2.679281711578369,-7.686497211456299,-1.661177635192871,1.4689794778823853,3.213884115219116,2
595,-22.424592971801758,-26.783105850219727,-9.337573051452637,-1.4631308317184448,1.1072994470596313,3.170518636703491,2
596,-19.586076736450195,-46.44776153564453,-11.11759090423584,-1.1871119737625122,0.951158344745636,3.0654385089874268,2
597,-11.596739768981934,-45.8392333984375,-12.737314224243164,-0.5577081441879272,0.7997422218322754,2.9770760536193848,2
598,-0.8367727994918823,-28.393260955810547,-15.297935485839844,-0.3765942454338074,0.9359381794929504,2.7883124351501465,2
599,13.705461502075195,-10.775603294372559,-17.06209945678711,0.0013897801982238889,0.902472734451294,2.6506707668304443,2
600,17.46609115600586,-6.363605499267578,-19.610445022583008,0.14758700132369995,1.1133626699447632,2.4815073013305664,2
601,7.867839336395264,-3.5736567974090576,-20.372772216796875,0.14869026839733124,1.0894426107406616,2.2819008827209473,2
602,-4.375901699066162,4.910326957702637,-19.63102149963379,0.1542382836341858,1.318395972251892,2.069397211074829,2
603,-13.2918119430542,16.718690872192383,-20.100976943969727,0.057211581617593765,1.1534916162490845,1.8772449493408203,2
604,-23.02379035949707,21.562246322631836,-21.408193588256836,-0.1819826364517212,0.9102612733840942,1.6730191707611084,2
605,-29.69856834411621,14.663912773132324,-22.457399368286133,-0.27324238419532776,0.8921635746955872,1.4700512886047363,2
606,-36.11891174316406,2.316098690032959,-23.41229248046875,-0.3753247559070587,0.32126688957214355,1.262977957725525,2
607,-40.9494743347168,-6.788789749145508,-23.912172317504883,-0.28527209162712097,0.29823657870292664,1.029873013496399,2
608,-40.09236526489258,-9.008366584777832,-23.954856872558594,-0.10303545743227005,-0.14333248138427734,0.8092849254608154,2
609,-32.293357849121094,-13.36203670501709,-21.955482482910156,-0.10598678141832352,-0.6609271764755249,0.5698309540748596,2
610,-21.703962326049805,-26.618202209472656,-19.995540618896484,0.1221320703625679,-0.9535620212554932,0.36116817593574524,2
611,-7.9198126792907715,-27.931236267089844,-17.02494239807129,0.33195051550865173,-0.8336355090141296,0.14639928936958313,2
612,4.359636306762695,-26.289569854736328,-12.381889343261719,0.7672399282455444,-0.9380151033401489,-0.00434592692181468,2
613,5.9058837890625,-10.476868629455566,-5.906510353088379,0.9394539594650269,-0.8433592915534973,-0.12208304554224014,2
614,-1.157190203666687,4.0204901695251465,-1.5468205213546753,1.070121169090271,-0.7805624604225159,-0.17267830669879913,2
615,-15.075420379638672,13.599771499633789,1.2593730688095093,0.941363513469696,-1.016279935836792,-0.16101710498332977,2
616,-20.767789840698242,26.572233200073242,4.0266218185424805,0.7065658569335938,-1.064025640487671,-0.1606629341840744,2
617,-12.48379135131836,42.44399642944336,6.025156497955322,0.3751019239425659,-1.4092539548873901,-0.1047942042350769,2
618,4.286320209503174,54.34081268310547,6.8608479499816895,-0.05436944216489792,-1.5616165399551392,-0.05130172520875931,2
619,23.740251541137695,47.25850296020508,8.789730072021484,-0.622355580329895,-1.4116880893707275,-0.0035397999454289675,2
620,31.059284210205078,32.56622314453125,10.455824851989746,-1.0342413187026978,-1.0176438093185425,0.05487478896975517,2
621,29.257766723632812,9.85926628112793,11.362469673156738,-1.3655385971069336,-0.7699734568595886,0.1644136905670166,2
622,26.380558013916016,-8.760747909545898,11.080161094665527,-1.2790988683700562,-0.4870738387107849,0.25617077946662903,2
623,18.74650764465332,-16.146587371826172,10.171259880065918,-1.174270510673523,-0.21083098649978638,0.36340558528900146,2
624,2.1540091037750244,-12.616072654724121,8.75552749633789,-0.9404516816139221,-0.11831362545490265,0.4553402066230774,2
625,-16.091556549072266,-8.061970710754395,7.020978927612305,-0.705997109413147,-0.2265120893716812,0.5264809131622314,2
626,-36.60784149169922,-4.879867076873779,5.518563270568848,-0.6264306902885437,-0.4990525543689728,0.5940007567405701,2
627,-47.99559783935547,-0.9412171840667725,5.536226749420166,-0.6594080924987793,-0.8364697694778442,0.659247875213623,2
628,-45.34172439575195,6.832940578460693,6.360748291015625,-0.5602859854698181,-1.5618659257888794,0.7021463513374329,2
629,-31.531940460205078,14.53502368927002,8.639620780944824,-0.6537659168243408,-1.6060494184494019,0.7699359059333801,2
630,-11.563329696655273,22.69888687133789,11.231818199157715,-0.9013875722885132,-1.8789663314819336,0.8675874471664429,2
631,7.989388465881348,31.00647735595703,13.864502906799316,-1.2825779914855957,-2.028513193130493,0.9970358610153198,2
632,22.437103271484375,34.39319610595703,17.07889175415039,-1.5939472913742065,-1.8214327096939087,1.1321626901626587,2
633,32.04706573486328,33.98408889770508,19.59749412536621,-1.8927866220474243,-1.5607401132583618,1.2833011150360107,2
634,37.26182556152344,22.415359497070312,21.84547996520996,-2.2708795070648193,-1.2313532829284668,1.4733831882476807,2
635,35.57172775268555,1.0850725173950195,23.76459312438965,-2.2776033878326416,-0.7123020887374878,1.6568063497543335,2
636,30.650550842285156,-20.4205265045166,24.130233764648438,-2.2228190898895264,-0.3409271538257599,1.8866336345672607,2
637,27.892227172851562,-30.5163631439209,23.440813064575195,-1.8655647039413452,-0.03878001868724823,2.08650279045105,2
638,26.914308547973633,-16.90620231628418,20.27112579345703,-1.6454085111618042,-0.04255484417080879,2.278425693511963,2
639,23.16585922241211,9.033553123474121,15.275701522827148,-1.5490541458129883,0.08570344001054764,2.458773136138916,2
640,17.390798568725586,34.195533752441406,9.69883918762207,-1.7809194326400757,0.4284172058105469,2.6474220752716064,2
641,6.968118190765381,51.471927642822266,4.533368110656738,-2.1575562953948975,0.6247190237045288,2.746429443359375,2
642,-10.639192581176758,54.456199645996094,0.8775131106376648,-2.7294750213623047,0.6109206080436707,2.788409471511841,2
643,-39.201595306396484,43.62240219116211,-0.6583080291748047,-3.4244701862335205,0.31895729899406433,2.7850418090820312,2
644,-63.51849365234375,11.211562156677246,-2.121187210083008,-3.8055548667907715,-0.0918465405702591,2.764742851257324,2
645,-74.40644073486328,-29.12029457092285,-1.6431465148925781,-3.6099750995635986,-0.898836612701416,2.6601593494415283,2
646,-65.25211334228516,-71.4057388305664,0.995983362197876,-3.338596820831299,-1.3550395965576172,2.7395379543304443,2
647,-35.413082122802734,-91.06078338623047,3.7268152236938477,-2.264596462249756,-2.1191837787628174,2.6881866455078125,2
648,2.471339464187622,-94.88753509521484,9.359248161315918,-1.256858229637146,-2.330803155899048,2.7918641567230225,2
649,37.84870910644531,-74.97537994384766,13.401033401489258,-0.4897751212120056,-2.095707893371582,3.0060248374938965,2
650,65.3275375366211,-46.409629821777344,14.304031372070312,0.34941864013671875,-1.3950291872024536,3.2253952026367188,2
651,76.44802856445312,-14.641268730163574,15.911928176879883,0.42103302478790283,-0.7987078428268433,3.4321696758270264,2
652,67.84383392333984,12.529626846313477,17.050073623657227,0.4820576608181,0.0194317065179348,3.623507261276245,2
653,44.002899169921875,41.53922653198242,16.82734489440918,0.2403298169374466,0.5475443601608276,3.793795585632324,2
654,19.705814361572266,57.36133575439453,16.119630813598633,-0.25998154282569885,1.04903244972229,3.9931178092956543,2
655,-4.492025852203369,56.96765899658203,15.558690071105957,-0.8270836472511292,1.0717487335205078,4.141183853149414,2
656,-27.383214950561523,44.65989685058594,17.78898811340332,-1.5334365367889404,0.8580928444862366,4.295541286468506,2
657,-48.2612190246582,14.53663444519043,17.598575592041016,-1.625968098640442,0.730423629283905,4.471590518951416,2
658,-59.74729919433594,-21.92828941345215,17.038984298706055,-1.807865858078003,0.009578494355082512,4.615143299102783,2
659,-59.508392333984375,-60.41435623168945,15.786945343017578,-1.160697340965271,-0.754861056804657,4.750370502471924,2
660,-35.49424362182617,-81.46060180664062,13.9200439453125,-0.5205904841423035,-1.0493286848068237,4.954466819763184,2
661,-3.2131381034851074,-87.91952514648438,13.359025001525879,0.5146631002426147,-1.4252499341964722,5.096933841705322,2
662,25.82047462463379,-74.4275131225586,11.606742858886719,1.1406196355819702,-1.2908761501312256,5.275781154632568,2
663,40.955806732177734,-46.75719451904297,9.091429710388184,1.971781849861145,-0.7756259441375732,5.404941082000732,2
664,45.4634895324707,-10.299246788024902,4.892995357513428,2.1429219245910645,-0.331714391708374,5.517195224761963,2
665,35.85597610473633,25.576866149902344,0.9835532307624817,2.208970069885254,0.24155472218990326,5.55286979675293,2
666,15.128591537475586,44.20721435546875,-2.5797362327575684,1.7736663818359375,0.4313695430755615,5.588141918182373,2
667,-10.576550483703613,59.818843841552734,-5.889711380004883,1.22532320022583,0.4010668396949768,5.586367130279541,2
668,-33.737178802490234,57.33192825317383,-6.237549304962158,0.5497976541519165,0.2664129436016083,5.539172649383545,2
669,-47.971168518066406,41.0036735534668,-6.958791255950928,-0.10683107376098633,-0.3233392834663391,5.510883808135986,2
670,-47.17414093017578,20.09177017211914,-7.2000017166137695,-0.31847336888313293,-0.8263868093490601,5.434349536895752,2
671,-32.86380386352539,-7.061209201812744,-7.109419345855713,-0.4556659460067749,-1.094357967376709,5.333739757537842,2
672,-9.289620399475098,-26.190837860107422,-7.268107891082764,-0.2540751099586487,-1.476285696029663,5.268489837646484,2
673,16.542818069458008,-35.66590118408203,-7.1483564376831055,-0.046581801027059555,-1.4702814817428589,5.196324348449707,2
674,39.01957702636719,-40.84819793701172,-8.477316856384277,0.5514326095581055,-1.0660731792449951,5.0801897048950195,2
675,50.496952056884766,-43.23674774169922,-7.489645957946777,0.7570095062255859,-0.7053744792938232,5.024807453155518,2
676,41.06990051269531,-41.72141647338867,-5.495268821716309,1.3906129598617554,-0.22283922135829926,4.939544677734375,2
677,18.842689514160156,-37.34177780151367,-3.37994647026062,1.8297828435897827,0.24823296070098877,4.87204647064209,2
678,-5.42209529876709,-26.910137176513672,-2.4839134216308594,2.2657597064971924,0.415378212928772,4.833070755004883,2
679,-29.47900390625,-8.920378684997559,-3.647956132888794,2.7914085388183594,0.820125162601471,4.681290149688721,2
680,-49.89336395263672,20.065500259399414,-5.1435136795043945,2.2148563861846924,-0.08202039450407028,4.83314323425293,2
681,-56.308773040771484,55.76592254638672,-5.991811752319336,1.8645399808883667,-0.6575787663459778,4.806836128234863,2
682,-42.002037048339844,86.24961853027344,-5.221165657043457,1.1266262531280518,-1.1431946754455566,4.726977348327637,2
683,-20.6656436920166,97.14688110351562,-3.332628011703491,0.05193623900413513,-1.4398975372314453,4.633545875549316,2
684,2.94336199760437,91.68702697753906,-2.5259947776794434,-0.9521980285644531,-1.5905063152313232,4.563755989074707,2
685,24.91295051574707,73.10110473632812,-3.0471079349517822,-1.792402744293213,-1.4333550930023193,4.483932018280029,2
686,43.19856262207031,46.136600494384766,-1.8505516052246094,-2.3673813343048096,-1.1516369581222534,4.4257493019104,2
687,52.23297119140625,9.566018104553223,-1.967488169670105,-2.7270843982696533,-0.5072191953659058,4.364389419555664,2
688,52.025001525878906,-23.294891357421875,-2.1789472103118896,-2.604362726211548,-0.2435583472251892,4.349498748779297,2
689,42.6263542175293,-50.05464172363281,-4.6137871742248535,-2.321549415588379,0.40522366762161255,4.317868232727051,2
690,30.165979385375977,-56.72541427612305,-8.905271530151367,-1.677011489868164,0.8004354238510132,4.257742881774902,2
691,13.983145713806152,-47.738765716552734,-14.729153633117676,-1.0439794063568115,1.1098400354385376,4.152292251586914,2
692,-3.233499050140381,-28.77040672302246,-22.07561683654785,-0.8292701840400696,1.151986002922058,4.000100135803223,2
693,-20.67313575744629,-18.76403045654297,-27.57680320739746,-0.4078962504863739,0.9899815320968628,3.7715044021606445,2
694,-37.16284942626953,-17.266132354736328,-31.76964569091797,0.0002098895056406036,0.6177242994308472,3.499807357788086,2
695,-42.036956787109375,-8.156980514526367,-36.51291275024414,0.18813738226890564,0.26500168442726135,3.1808054447174072,2
696,-38.19031524658203,6.816905498504639,-38.86826705932617,0.3292976915836334,-0.17925076186656952,2.817366123199463,2
697,-34.262264251708984,24.52642822265625,-39.92209243774414,0.1946428269147873,-0.28266531229019165,2.415093183517456,2
698,-23.214895248413086,25.134536743164062,-40.839576721191406,0.021454237401485443,-0.44340938329696655,2.0065786838531494,2
699,-12.037408828735352,17.558547973632812,-40.9901008605957,-0.26216694712638855,-0.7909685969352722,1.5963079929351807,2
700,-1.1338756084442139,10.931549072265625,-39.88036346435547,-0.43250012397766113,-0.8803642988204956,1.184397578239441,2
701,-0.12123599648475647,4.727224349975586,-38.70652389526367,-0.5194274187088013,-0.9255491495132446,0.7864363789558411,2
702,-1.033191442489624,-1.105520248413086,-38.636131286621094,-0.5729567408561707,-0.9599628448486328,0.40118587017059326,2
703,-6.267889499664307,4.185601234436035,-37.24656677246094,-0.4995604455471039,-1.020440936088562,0.019023241475224495,2
704,-18.12124252319336,9.813546180725098,-32.625667572021484,-0.5064001679420471,-1.1911982297897339,-0.34741681814193726,2
705,-29.229034423828125,7.442071437835693,-28.376293182373047,-0.7250452637672424,-1.526870608329773,-0.6696308255195618,2
706,-27.795488357543945,1.236099123954773,-27.428125381469727,-0.29215097427368164,-1.2828689813613892,-0.9803825616836548,2
707,-18.05040168762207,-2.0348739624023438,-26.534399032592773,-0.306329607963562,-1.6289414167404175,-1.2524527311325073,2
708,-9.009666442871094,-5.889214515686035,-25.60234260559082,-0.3331659734249115,-1.6088694334030151,-1.5137593746185303,2
709,2.4145665168762207,-19.730255126953125,-22.82796859741211,-0.17552168667316437,-1.795588731765747,-1.7694820165634155,2
710,10.858818054199219,-32.5263557434082,-20.19046401977539,0.04938887804746628,-1.6713882684707642,-1.9957410097122192,2
711,15.6564302444458,-27.530851364135742,-18.18198013305664,0.5934972763061523,-1.7738763093948364,-2.208613872528076,2
712,14.006462097167969,-17.586078643798828,-18.095216751098633,0.45787110924720764,-1.5968608856201172,-2.334083080291748,2
713,15.088807106018066,-4.109114646911621,-17.063823699951172,0.6601851582527161,-1.3624095916748047,-2.5178003311157227,2
714,15.374932289123535,8.039654731750488,-14.291773796081543,0.5134678483009338,-1.472518801689148,-2.6442599296569824,2
715,14.223268508911133,22.69646644592285,-12.47255802154541,0.3733430504798889,-1.2093708515167236,-2.7890920639038086,2
716,9.515318870544434,26.809673309326172,-10.11684799194336,0.05075937137007713,-1.0684373378753662,-2.9024205207824707,2
717,6.519102573394775,15.982131004333496,-6.582386493682861,-0.3215954899787903,-1.0638377666473389,-2.9821884632110596,2
718,1.8116416931152344,3.669539213180542,-4.412503719329834,-0.4244818091392517,-1.03955078125,-3.054262399673462,2
719,-5.247974872589111,1.432673692703247,-3.0284934043884277,-0.37882864475250244,-0.8949072360992432,-3.1182363033294678,2
720,-11.291362762451172,7.467254161834717,-1.679890513420105,-0.3558386266231537,-1.0740216970443726,-3.1489033699035645,2
721,-16.597379684448242,14.025544166564941,-0.061719708144664764,-0.5170397162437439,-1.2650779485702515,-3.1539011001586914,2
722,-15.565455436706543,4.46102237701416,2.041536331176758,-0.633640468120575,-1.507920503616333,-3.1568875312805176,2
723,-6.469789981842041,-21.024192810058594,3.6414856910705566,-0.5021589398384094,-1.61849045753479,-3.164457082748413,2
724,9.635931015014648,-40.88127899169922,5.453593730926514,-0.6243636608123779,-1.8189828395843506,-3.0690557956695557,2
725,24.136577606201172,-52.046607971191406,7.164182186126709,-0.22569186985492706,-1.6880415678024292,-3.0010998249053955,2
726,37.500038146972656,-45.11210250854492,8.822582244873047,0.4030556380748749,-1.4649566411972046,-2.9338319301605225,2
727,42.36138916015625,-26.73479461669922,8.751062393188477,0.6376389265060425,-1.125940203666687,-2.798848867416382,2
728,37.47604751586914,-4.193370819091797,7.3613505363464355,0.9816259741783142,-0.4732087552547455,-2.732360363006592,2
729,23.81845474243164,16.826580047607422,4.955793380737305,0.837160050868988,-0.1728658527135849,-2.62160587310791,2
730,6.500232219696045,36.49957275390625,4.3137407302856445,0.7010031938552856,0.08735104650259018,-2.578162908554077,2
731,-14.245955467224121,43.271087646484375,2.902921438217163,-0.1419079750776291,0.06487688422203064,-2.4882845878601074,2
732,-15.959393501281738,25.339956283569336,2.616260528564453,-0.5649884939193726,-0.13646300137043,-2.453900098800659,2
733,-8.123856544494629,3.20807147026062,3.694239377975464,-0.6916936039924622,-0.4402996897697449,-2.4254770278930664,2
734,1.4554935693740845,-22.176410675048828,4.21072244644165,-0.5130295157432556,-0.4054950177669525,-2.408156633377075,2
735,22.282514572143555,-35.8922004699707,4.372100830078125,-0.5465748906135559,-0.5765513181686401,-2.341670036315918,2
736,43.72064208984375,-32.59640121459961,5.589688301086426,0.06464824825525284,-0.3223566710948944,-2.310070037841797,2
737,60.68302917480469,-20.599363327026367,5.430624961853027,0.26432672142982483,0.04656262695789337,-2.2456774711608887,2
738,67.15457916259766,-10.905342102050781,4.982316017150879,0.6474913358688354,0.7827167510986328,-2.208672523498535,2
739,57.78127670288086,-4.424245834350586,6.482360363006592,0.7250237464904785,1.4706672430038452,-2.161146402359009,2
740,31.90552520751953,-1.1111717224121094,8.551680564880371,0.719658374786377,1.9596960544586182,-2.0910611152648926,2
741,-3.4741878509521484,-3.211864709854126,10.515832901000977,0.7600310444831848,2.0666041374206543,-1.9863094091415405,2
742,-26.04163360595703,-13.194649696350098,11.052027702331543,0.8844300508499146,1.8762742280960083,-1.8605999946594238,2
743,-34.58806228637695,-20.700252532958984,10.030628204345703,0.9378124475479126,1.547114610671997,-1.7564616203308105,2
744,-24.2377986907959,-18.730915069580078,8.3200101852417,1.2170274257659912,1.3183164596557617,-1.6649267673492432,2
745,1.4652494192123413,-1.7204761505126953,7.305233955383301,1.5146578550338745,1.1181539297103882,-1.5719422101974487,2
746,30.093347549438477,19.80897331237793,7.109313011169434,1.5105525255203247,1.272428274154663,-1.5262975692749023,2
747,52.094505310058594,39.33565902709961,7.013784885406494,1.2292605638504028,1.6310652494430542,-1.4785034656524658,2
748,63.706886291503906,48.217044830322266,6.1648430824279785,0.6169108748435974,2.156888723373413,-1.4431042671203613,2
749,56.38223648071289,46.51237106323242,5.986729145050049,-0.058980733156204224,2.776738405227661,-1.403796672821045,2
750,32.794593811035156,43.59492111206055,6.29378604888916,-0.5581852793693542,3.33438777923584,-1.3279246091842651,2
751,10.310547828674316,34.00324630737305,7.290072441101074,-0.9743778705596924,3.647782802581787,-1.2325859069824219,2
752,-13.039665222167969,15.330759048461914,9.126206398010254,-1.1711820363998413,3.7345898151397705,-1.0909994840621948,2
753,-29.415390014648438,-2.5979864597320557,9.961494445800781,-1.233691692352295,3.472201108932495,-0.9494072198867798,2
754,-33.47766876220703,-27.99079132080078,12.114686965942383,-1.1028574705123901,3.0871787071228027,-0.8063698410987854,2
755,-27.274869918823242,-44.10279846191406,13.758960723876953,-0.804366946220398,2.6123509407043457,-0.6854296922683716,2
756,-10.91079330444336,-36.59566879272461,16.466642379760742,-0.15337873995304108,2.643393039703369,-0.4854339361190796,2
757,9.562565803527832,-17.3076229095459,17.2237548828125,0.223920077085495,2.8668529987335205,-0.3502846360206604,2
758,17.363590240478516,2.6358590126037598,16.91763687133789,0.4971093535423279,2.9850785732269287,-0.15036821365356445,2
759,8.988040924072266,26.66376495361328,16.59145736694336,0.2647087275981903,3.0645761489868164,-0.07602743059396744,2
760,0.2687631845474243,43.2131233215332,14.719573974609375,0.053515881299972534,3.162353515625,0.12206628173589706,2
761,-4.370668888092041,48.58562469482422,11.130228042602539,-0.607543408870697,3.197227954864502,0.17047147452831268,2
762,-4.089289665222168,31.51287841796875,9.354300498962402,-1.1959871053695679,3.106384515762329,0.24691984057426453,2
763,-0.8309230208396912,11.216841697692871,8.636618614196777,-1.5050835609436035,3.042881488800049,0.3556928336620331,2
764,-5.46589469909668,-15.699792861938477,6.928244113922119,-1.234663724899292,3.201484203338623,0.6480916142463684,2
765,-19.083663940429688,-38.00672149658203,1.719092845916748,-0.9365434050559998,3.0095059871673584,0.7824757695198059,2
766,-41.26839828491211,-53.1842041015625,-2.214277982711792,0.5392389893531799,4.583566188812256,1.4113600254058838,2
767,-68.7103271484375,-55.386043548583984,-4.956536293029785,1.4711048603057861,3.7346224784851074,1.5759470462799072,2
768,-98.35757446289062,-38.910526275634766,-6.477273941040039,1.6542572975158691,3.152333974838257,1.2876437902450562,2
769,-112.5510025024414,-18.386497497558594,-6.641638278961182,1.8693475723266602,1.6796876192092896,1.1388510465621948,2
770,-108.49125671386719,-2.651266574859619,-5.373933792114258,2.016326904296875,0.7257644534111023,1.0312349796295166,2
771,-85.03312683105469,14.498551368713379,-4.508174419403076,1.954774260520935,-0.41675007343292236,0.9367097020149231,2
772,-50.63088607788086,28.09062957763672,-3.9489543437957764,1.6454476118087769,-1.3967715501785278,0.8254497647285461,2
773,-15.247535705566406,44.305145263671875,-3.8020598888397217,1.1797451972961426,-1.7880460023880005,0.6840879321098328,2
774,16.101911544799805,52.94207000732422,-3.6817920207977295,0.4996877610683441,-1.9983844757080078,0.5513632893562317,2
775,34.35054016113281,51.29611587524414,-3.3779191970825195,-0.11347056925296783,-1.7541813850402832,0.45752981305122375,2
776,40.8765754699707,39.6353645324707,-4.5003981590271,-0.7710815072059631,-1.2730917930603027,0.35039880871772766,2
777,30.714183807373047,20.943941116333008,-5.284117221832275,-1.2150884866714478,-1.06730055809021,0.3118187189102173,2
778,3.3684585094451904,-4.837728500366211,-6.500466346740723,-1.352764368057251,-0.8819655776023865,0.2746082842350006,2
779,-32.01370620727539,-14.754292488098145,-8.165093421936035,-1.2320518493652344,-0.9584368467330933,0.22518785297870636,2
780,-63.06410598754883,-12.59153938293457,-11.652677536010742,-1.1440144777297974,-1.5716047286987305,0.1510603427886963,2
781,-84.95160675048828,-5.160001754760742,-13.367199897766113,-0.9144213199615479,-1.9511823654174805,0.039803240448236465,2
782,-90.7939453125,-5.545293807983398,-13.976515769958496,-0.877813458442688,-3.099982500076294,-0.09116122871637344,2
783,-85.34654998779297,-12.907954216003418,-13.525935173034668,-0.872825562953949,-3.9180984497070312,-0.22272105515003204,2
784,-63.467002868652344,-28.98052215576172,-11.921262741088867,-0.7872366309165955,-4.985411643981934,-0.34661903977394104,2
785,-26.00654411315918,-48.572654724121094,-10.264861106872559,-0.12715651094913483,-5.716683387756348,-0.4980071485042572,2
786,17.383865356445312,-59.5836181640625,-7.825368881225586,0.192191481590271,-5.678277969360352,-0.500018298625946,2
787,59.04358673095703,-49.472412109375,-7.626155853271484,1.0055482387542725,-5.224081993103027,-0.5954556465148926,2
788,80.2359848022461,-19.06517791748047,-8.460362434387207,0.9926599264144897,-4.781035900115967,-0.42794179916381836,2
789,75.3755874633789,21.374021530151367,-9.622306823730469,1.1318360567092896,-3.8809385299682617,-0.4738729000091553,2
790,47.033573150634766,56.136627197265625,-9.626684188842773,0.7873031497001648,-3.5219006538391113,-0.4888312816619873,2
791,15.42884349822998,75.92125701904297,-8.426872253417969,-0.05583605915307999,-3.041245937347412,-0.45964160561561584,2
792,-9.361076354980469,72.4292984008789,-6.877625465393066,-0.6746830344200134,-3.191417932510376,-0.6360896229743958,2
793,-18.73309326171875,54.11474609375,-3.751400947570801,-1.4575451612472534,-3.3647515773773193,-0.7058752179145813,2
794,-12.15859317779541,30.671483993530273,1.7977566719055176,-1.837722659111023,-3.5371816158294678,-0.8641483187675476,2
795,-1.8508918285369873,-0.8323265314102173,9.522810935974121,-2.0691566467285156,-3.656095027923584,-0.9044898748397827,2
796,14.634903907775879,-23.215389251708984,14.857292175292969,-1.9254018068313599,-3.643883466720581,-0.8931465148925781,2
797,30.990507125854492,-34.94695281982422,19.3004093170166,-1.8590914011001587,-3.49381947517395,-0.6414254903793335,2
798,44.079219818115234,-34.69028854370117,22.173593521118164,-1.5278667211532593,-2.939800262451172,-0.4098660349845886,2
799,53.14955520629883,-35.61922073364258,23.684776306152344,-1.3741564750671387,-2.8363699913024902,-0.10776006430387497,2
800,59.97853469848633,-44.661720275878906,22.34105110168457,-0.7664023041725159,-2.0813984870910645,0.015663526952266693,2
801,57.26647186279297,-43.863006591796875,19.635074615478516,-0.4243693947792053,-1.6236491203308105,0.2911307215690613,2
802,42.220863342285156,-29.989482879638672,17.53466796875,0.10476820170879364,-1.052453637123108,0.43989649415016174,2
803,21.079166412353516,-19.526527404785156,18.347192764282227,0.41888490319252014,-0.6814278960227966,0.6090778112411499,2
804,-1.4769892692565918,-8.776068687438965,18.974109649658203,0.5640774369239807,-0.45403599739074707,0.8201917409896851,2
805,-6.971888065338135,3.030627727508545,18.980588912963867,0.17586825788021088,-0.5832666158676147,1.230224847793579,2
806,-0.8458264470100403,8.153003692626953,18.456249237060547,0.21816280484199524,-0.5892611145973206,1.3859049081802368,2
807,12.154970169067383,10.087584495544434,20.775026321411133,0.22019262611865997,-0.6699488162994385,1.5301744937896729,2
808,20.066699981689453,6.580854415893555,23.73073387145996,0.12284933775663376,-0.43801799416542053,1.7419315576553345,2
809,25.089271545410156,-0.045316338539123535,25.605100631713867,0.007935126312077045,-0.23137328028678894,1.9936981201171875,2
810,35.5847053527832,-9.006837844848633,25.817710876464844,0.21162062883377075,0.0974055603146553,2.1809306144714355,2
811,42.00633239746094,-10.46630859375,26.318645477294922,0.33758848905563354,0.42081743478775024,2.4267420768737793,2
812,43.07511520385742,-1.2350977659225464,25.972705841064453,0.2152775377035141,0.6205800175666809,2.7412900924682617,2
813,31.4490909576416,4.241952896118164,26.20482635498047,0.3316863179206848,1.2627859115600586,2.9822349548339844,2
814,16.693710327148438,11.199082374572754,25.228857040405273,0.2809388041496277,1.2696484327316284,3.249605655670166,2
815,7.659248352050781,-0.9629476070404053,20.959049224853516,0.23577123880386353,1.4985747337341309,3.4938814640045166,2
816,-5.098044395446777,-15.70773983001709,16.634626388549805,0.35917481780052185,1.4181808233261108,3.693071126937866,2
817,-11.635720252990723,-24.457212448120117,11.764132499694824,0.5686092376708984,1.4604835510253906,3.845675468444824,2
818,-12.195154190063477,-33.97093963623047,7.702220916748047,1.1555213928222656,1.271549940109253,3.9487242698669434,2
819,-7.371577739715576,-28.317487716674805,5.432593822479248,1.40415358543396,1.1742653846740723,4.0145955085754395,2
820,0.6069380640983582,-16.71776580810547,6.187143325805664,2.2272462844848633,1.3862224817276,4.058192729949951,2
821,7.047422409057617,3.215445041656494,6.632373809814453,2.640517234802246,1.1549230813980103,4.1636528968811035,2
822,11.279236793518066,9.51396656036377,6.225826740264893,2.5913503170013428,1.4965158700942993,4.184205532073975,2
823,6.293537616729736,30.779823303222656,7.464875221252441,2.431431770324707,2.0425596237182617,4.15999174118042,2
824,-4.196010112762451,41.642765045166016,8.824565887451172,1.8370157480239868,2.109959602355957,4.205069541931152,2
825,-23.82322883605957,39.83383560180664,11.536040306091309,1.441261887550354,1.8584444522857666,4.354081630706787,2
826,-34.377891540527344,49.72184371948242,11.671549797058105,0.8912785053253174,1.2889883518218994,4.532686233520508,2
827,-34.042205810546875,45.06155776977539,12.833991050720215,0.15554149448871613,0.5608078837394714,4.698320388793945,2
828,-26.020851135253906,37.40913391113281,13.842437744140625,0.2262154221534729,-1.6742850542068481,5.372129917144775,2
829,-8.013800621032715,16.583351135253906,12.100483894348145,-0.2436867505311966,-1.870395541191101,5.467015266418457,2
830,22.564647674560547,-0.71236252784729,11.564942359924316,-0.3840894103050232,-1.9142926931381226,5.583689212799072,2
831,54.112953186035156,-4.700550556182861,8.17038345336914,-0.47698265314102173,-1.1975116729736328,5.602883815765381,2
832,84.12299346923828,-11.571610450744629,6.233720302581787,-0.4642113149166107,-0.5532295107841492,5.668210506439209,2
833,98.74052429199219,-10.160303115844727,6.348657608032227,-0.39319857954978943,0.6966515779495239,5.67012882232666,2
834,93.31891632080078,-6.344307899475098,9.529909133911133,-0.559951901435852,1.4958491325378418,5.7312445640563965,2
835,70.29946899414062,10.743395805358887,10.573552131652832,-0.6415629982948303,2.842435598373413,5.770969390869141,2
836,40.48624038696289,4.8524603843688965,14.072152137756348,-0.6597926020622253,3.2726588249206543,5.914434432983398,2
837,7.962276935577393,-4.834303855895996,17.08342742919922,-0.6137513518333435,3.8652329444885254,6.061001300811768,2
838,-21.059345245361328,-3.749894380569458,20.28364372253418,-0.811332106590271,3.9487946033477783,6.175186634063721,2
839,-26.642953872680664,-17.47603988647461,20.10985565185547,-0.5392412543296814,3.70051908493042,6.425340175628662,2
840,-26.33755874633789,-9.531684875488281,19.67097282409668,-0.2456667572259903,3.4442179203033447,6.656684875488281,2
841,-9.900278091430664,-9.597443580627441,21.261465072631836,-0.1994403451681137,3.2206223011016846,6.822896480560303,2
842,18.0380802154541,-4.068840980529785,22.294599533081055,-0.47194865345954895,3.459559917449951,6.8799848556518555,2
843,37.765602111816406,12.6559419631958,21.87579917907715,-0.4579051434993744,3.6912269592285156,7.083277702331543,2
844,51.37187957763672,20.055753707885742,23.68311882019043,-0.6478415727615356,4.363496780395508,7.275912284851074,2
845,54.7310676574707,31.498001098632812,23.043668746948242,-1.1158727407455444,4.969778537750244,7.396779537200928,2
846,39.709869384765625,29.15020751953125,20.75594139099121,-1.4576021432876587,5.298598766326904,7.614013671875,2
847,4.8033857345581055,23.145612716674805,21.95583152770996,-1.7602314949035645,5.640413761138916,7.835916042327881,2
848,-21.812597274780273,-5.829692363739014,22.189910888671875,-1.7902021408081055,5.7400970458984375,8.160799980163574,2
849,-41.61149215698242,-33.84624481201172,22.4294376373291,-1.6435997486114502,5.471249103546143,8.395637512207031,2
850,-43.94736099243164,-57.322265625,18.364421844482422,-1.0684208869934082,4.917809963226318,8.688718795776367,2
851,-40.184078216552734,-72.4750747680664,15.46706771850586,-0.6965222954750061,4.641589164733887,8.68265151977539,2
852,-21.640121459960938,-82.58879089355469,16.343570709228516,0.36230960488319397,4.309913635253906,9.00890064239502,2
853,3.2027862071990967,-79.4834213256836,17.764392852783203,1.3309580087661743,4.211547374725342,9.22084903717041,2
854,28.21190643310547,-66.8116226196289,20.41813087463379,2.0292723178863525,4.294388771057129,9.272761344909668,2
855,54.104583740234375,-39.290523529052734,20.536754608154297,2.78479266166687,4.751594066619873,9.500232696533203,2
856,55.55766296386719,-14.100872993469238,21.335018157958984,3.035754919052124,5.2978901863098145,9.563278198242188,2
857,38.617881774902344,12.97141170501709,21.787620544433594,3.1584696769714355,5.966391086578369,9.738680839538574,2
858,5.884698390960693,37.83509063720703,19.750410079956055,2.8949594497680664,6.313351154327393,9.88089370727539,2
859,-31.016054153442383,54.460609436035156,16.43728256225586,2.2732043266296387,6.165412425994873,9.965657234191895,2
860,-60.52503967285156,64.58855438232422,13.403593063354492,1.7049769163131714,5.943287372589111,10.150898933410645,2
861,-84.6966323852539,66.11273193359375,8.053258895874023,0.9502660036087036,4.976692199707031,10.326777458190918,2
862,-98.59313201904297,54.644039154052734,3.888787269592285,0.07613680511713028,3.897700548171997,10.289653778076172,2
863,-101.3036117553711,20.806304931640625,-0.6610241532325745,-0.3842172622680664,3.305258274078369,10.300074577331543,2
864,-90.96482849121094,-1.154006838798523,-5.152167320251465,-0.45162490010261536,2.0340447425842285,10.458873748779297,2
865,-57.25996017456055,-28.470958709716797,-13.897997856140137,-0.11582297831773758,1.5781289339065552,10.550799369812012,2
866,-27.571870803833008,-36.57682418823242,-22.53264617919922,0.2978650629520416,0.9811961054801941,10.499112129211426,2
867,-12.302437782287598,-29.177799224853516,-26.444746017456055,0.733282744884491,1.2130694389343262,10.245735168457031,2
868,-17.19402313232422,-4.7278642654418945,-29.368009567260742,1.0068223476409912,0.9842475056648254,10.0053071975708,2
869,-36.68134307861328,-0.30421870946884155,-31.681808471679688,0.9486829042434692,0.9290660619735718,9.618217468261719,2
870,-76.22100830078125,5.61031436920166,-34.02519989013672,1.003143310546875,0.2599829137325287,9.369963645935059,2
871,-110.62032318115234,-2.1416890621185303,-36.043827056884766,0.9023544788360596,-0.5034056901931763,8.992732048034668,2
872,-120.7984848022461,-2.4416651725769043,-34.76498031616211,0.978766679763794,-1.7967740297317505,8.694287300109863,2
873,-106.734375,-9.203067779541016,-30.682456970214844,0.9709818959236145,-2.634780168533325,8.266997337341309,2
874,-83.94279479980469,-6.079010486602783,-27.740705490112305,1.2159035205841064,-4.025445461273193,8.073857307434082,2
875,-36.95972442626953,-9.41214656829834,-23.949581146240234,1.2394481897354126,-4.753807067871094,7.794952869415283,2
876,0.1401260495185852,-10.23583984375,-20.204452514648438,1.2436045408248901,-4.835319995880127,7.510204315185547,2
877,36.150794982910156,-8.3135347366333,-18.144346237182617,1.47329580783844,-4.657855033874512,7.292459487915039,2
878,55.86960983276367,-15.063957214355469,-14.246319770812988,1.4299304485321045,-4.074717998504639,7.108748912811279,2
879,64.02368927001953,-10.063323020935059,-11.986112594604492,1.7378058433532715,-3.331392526626587,6.898571491241455,2
880,58.7682991027832,-1.5953060388565063,-13.511272430419922,1.6014411449432373,-2.667228937149048,6.835721969604492,2
881,31.69974136352539,9.979920387268066,-15.415939331054688,1.5873215198516846,-2.156599760055542,6.719091415405273,2
882,-5.24915075302124,24.55840301513672,-16.68772315979004,1.4573118686676025,-1.9745970964431763,6.595019340515137,2
883,-43.94232940673828,24.339698791503906,-18.66848373413086,1.1544114351272583,-2.289358615875244,6.4972991943359375,2
884,-68.78884887695312,19.206865310668945,-20.427453994750977,0.8886873126029968,-2.5784919261932373,6.266297817230225,2
885,-62.99981689453125,10.416633605957031,-23.022972106933594,0.6796692609786987,-3.5052924156188965,6.127795219421387,2
886,-39.876251220703125,5.574259281158447,-26.188737869262695,0.6560871005058289,-4.145429611206055,5.869700908660889,2
887,-11.008387565612793,7.36543607711792,-29.389402389526367,0.5453354120254517,-4.365862846374512,5.602036476135254,2
888,12.550152778625488,13.889169692993164,-32.22618865966797,0.37224531173706055,-4.430566310882568,5.358689785003662,2
889,27.76788902282715,16.581443786621094,-35.596397399902344,0.293857604265213,-4.205928325653076,4.988417625427246,2
890,30.298980712890625,15.310330390930176,-36.478694915771484,0.10281859338283539,-3.892834186553955,4.649601459503174,2
891,12.556036949157715,15.613397598266602,-36.583709716796875,-0.055246707051992416,-3.738379955291748,4.301239490509033,2
892,-2.982203245162964,16.939790725708008,-38.5263671875,-0.21266689896583557,-3.7078793048858643,3.933347463607788,2
893,-11.06786823272705,7.451760292053223,-41.31951141357422,-0.33423420786857605,-3.6108014583587646,3.5080175399780273,2
894,-12.818324089050293,-5.53782844543457,-43.28775405883789,-0.2307618260383606,-3.957174062728882,3.0272891521453857,2
895,-12.58973503112793,-8.48775577545166,-45.01145553588867,-0.6911007165908813,-3.9166452884674072,2.968754768371582,2
896,-9.147483825683594,-5.860299587249756,-48.829559326171875,-0.5093181133270264,-4.078254222869873,2.4773662090301514,2
897,-2.749508857727051,-7.605882167816162,-51.45524597167969,-0.3438451588153839,-4.225747585296631,1.9521862268447876,2
898,3.8422064781188965,-10.81088638305664,-51.61652374267578,-0.09412795305252075,-4.133930683135986,1.3311859369277954,2
899,8.613581657409668,-2.4750025272369385,-50.51729202270508,0.08564324676990509,-4.146042346954346,0.7750609517097473,2
900,9.684943199157715,8.384749412536621,-49.65874481201172,0.20060378313064575,-4.022768974304199,0.20302605628967285,2
901,10.907299995422363,22.944976806640625,-48.013580322265625,0.1308206170797348,-4.017435550689697,-0.29216468334198,2
902,11.564144134521484,34.26980972290039,-45.35531997680664,-0.13514113426208496,-3.9969303607940674,-0.7250134944915771,2
903,5.657785415649414,32.86014938354492,-42.31275939941406,-0.4072507321834564,-3.860426664352417,-1.2109969854354858,2
904,1.8230239152908325,15.73823070526123,-39.76470947265625,-0.6075934767723083,-3.9219729900360107,-1.6996240615844727,2
905,2.3738291263580322,-7.378808498382568,-37.505157470703125,-0.566752016544342,-3.8759536743164062,-2.2172157764434814,2
906,-1.585727572441101,-27.333850860595703,-32.837284088134766,-0.21312245726585388,-3.8608458042144775,-2.7755556106567383,2
907,-4.459131717681885,-37.06990432739258,-29.17115020751953,0.34262746572494507,-3.87562894821167,-3.290681838989258,2
908,-10.598599433898926,-38.07663345336914,-25.050094604492188,1.0579721927642822,-3.9574215412139893,-3.8136141300201416,2
909,-11.090996742248535,-32.154693603515625,-19.42560386657715,2.343801975250244,-4.105297565460205,-4.757850170135498,2
910,3.411896228790283,-16.858558654785156,-13.576984405517578,2.7797493934631348,-3.1614558696746826,-5.180324077606201,2
911,17.48504638671875,10.988982200622559,-7.498551368713379,2.736504316329956,-3.3252875804901123,-5.115564823150635,2
912,25.707046508789062,42.273841857910156,-5.527538776397705,2.2312657833099365,-3.0785882472991943,-4.9101738929748535,2
913,28.93138313293457,71.1531982421875,-5.348829746246338,1.6403063535690308,-3.1449201107025146,-4.802485942840576,2
914,30.133710861206055,85.99855041503906,-6.988279819488525,0.40035122632980347,-2.6409616470336914,-4.550264358520508,2
915,27.61534309387207,82.76685333251953,-8.588739395141602,-0.8366537094116211,-1.6652337312698364,-4.515749454498291,2
916,19.3828067779541,58.09113693237305,-8.464162826538086,-1.9402811527252197,-1.2249577045440674,-4.4314045906066895,2
917,3.260930061340332,27.186981201171875,-9.34875774383545,-2.6004674434661865,-1.054756999015808,-4.4576005935668945,2
918,-9.34009838104248,-5.842493534088135,-9.679688453674316,-3.0135486125946045,-1.1252187490463257,-4.446369171142578,2
919,-19.226627349853516,-41.41337966918945,-7.834036827087402,-2.3354849815368652,-0.7714657783508301,-4.907197952270508,2
920,-26.4835205078125,-66.34278869628906,-4.012851238250732,-1.7614020109176636,-1.2075413465499878,-5.055201530456543,2
921,-31.9202823638916,-69.29927825927734,-0.07310708612203598,-0.8559381365776062,-1.6568816900253296,-5.211027145385742,2
922,-32.70691680908203,-56.76321792602539,3.141117572784424,-0.5167896151542664,-2.2177374362945557,-5.030181407928467,2
923,-28.63499641418457,-22.446247100830078,6.686286926269531,0.06634911894798279,-2.747731924057007,-5.005014896392822,2
924,-17.154827117919922,20.90091896057129,8.352575302124023,0.0946950688958168,-3.1417102813720703,-4.8708815574646,2
925,-0.3516543507575989,55.7331657409668,10.126052856445312,-0.4029946029186249,-3.285118341445923,-4.693599700927734,2
926,10.205193519592285,60.134666442871094,13.35194206237793,-1.101315975189209,-3.48718523979187,-4.572403907775879,2
927,17.70967674255371,38.505043029785156,15.07942008972168,-1.7492855787277222,-3.385160446166992,-4.444281578063965,2
928,25.206140518188477,9.92784595489502,17.964893341064453,-2.050413131713867,-3.4237589836120605,-4.3580322265625,2
929,32.16358947753906,-16.160701751708984,20.519258499145508,-1.9555460214614868,-3.1789729595184326,-4.258126258850098,2
930,36.866912841796875,-37.267723083496094,23.9685115814209,-1.8513320684432983,-3.1213455200195312,-4.040855407714844,2
931,39.30712127685547,-56.97529602050781,26.35591697692871,-1.2092933654785156,-2.558260917663574,-3.873197317123413,2
932,46.3036003112793,-61.642642974853516,29.89328956604004,-0.7115726470947266,-2.352881908416748,-3.584987163543701,2
933,50.01233673095703,-48.48213577270508,31.91434097290039,-0.1023186668753624,-1.9774967432022095,-3.2833123207092285,2
934,51.983917236328125,-20.312673568725586,32.34326171875,0.4824431836605072,-1.0490843057632446,-2.951047658920288,2
935,45.75773620605469,1.8007458448410034,31.434499740600586,0.21640309691429138,-1.4423197507858276,-2.560856580734253,2
936,33.168460845947266,14.482110023498535,29.23324966430664,0.10452228039503098,-0.7843617796897888,-2.1983578205108643,2
937,31.379777908325195,22.486474990844727,25.899534225463867,-0.10408145189285278,-0.8418391346931458,-1.9344911575317383,2
938,33.48789596557617,26.69779396057129,22.09126091003418,-0.4079125225543976,-0.442333459854126,-1.6512668132781982,2
939,38.723228454589844,27.606258392333984,19.18464469909668,-0.6682552695274353,-0.20584601163864136,-1.446300745010376,2
940,43.967323303222656,14.048362731933594,15.871827125549316,-0.8623142242431641,0.33200204372406006,-1.2575364112854004,2
941,48.69499969482422,-15.835697174072266,14.638131141662598,-0.7658908367156982,1.0064438581466675,-1.1155099868774414,2
942,53.25676345825195,-33.09233093261719,12.883267402648926,-0.5302695631980896,1.1186490058898926,-1.0268899202346802,2
943,54.706748962402344,-49.545475006103516,11.29164981842041,0.2086314558982849,1.8017277717590332,-0.9297439455986023,2
944,49.66644287109375,-45.38007354736328,11.617526054382324,0.708908200263977,2.0939183235168457,-0.8561180233955383,2
945,42.94477081298828,-29.58393669128418,11.720627784729004,1.1822378635406494,2.7290658950805664,-0.7466683387756348,2
946,34.54364013671875,-4.571165561676025,12.188244819641113,1.2863562107086182,3.092994451522827,-0.6593577265739441,2
947,30.08722496032715,8.274801254272461,12.13280963897705,1.3540842533111572,3.419577121734619,-0.5404719710350037,2
948,14.584495544433594,18.000749588012695,11.150822639465332,1.1479878425598145,3.6034369468688965,-0.43601933121681213,2
949,4.110144138336182,18.3236083984375,9.904520988464355,0.9995442628860474,3.84318470954895,-0.3126569092273712,2
950,9.748761177062988,10.181843757629395,7.027011394500732,0.7504004240036011,3.7895150184631348,-0.22713994979858398,2
951,22.290376663208008,-6.293656349182129,2.710216760635376,0.6732670664787292,4.081199645996094,-0.16849106550216675,2
952,41.13042449951172,-20.946138381958008,0.5112782716751099,0.8678427338600159,3.9841485023498535,-0.07268975675106049,2
953,55.36220169067383,-41.02214813232422,-2.6393942832946777,1.2454010248184204,4.876772403717041,-0.0648273304104805,2
954,56.87991714477539,-47.273712158203125,-4.295688629150391,1.8415335416793823,5.530679702758789,-0.033521536737680435,2
955,45.3082275390625,-32.672943115234375,-5.809198379516602,2.1899633407592773,5.764648914337158,-0.1358821988105774,2
956,17.72184944152832,-4.770206451416016,-9.01803970336914,2.5723695755004883,6.419949531555176,-0.21135449409484863,2
957,-6.353452205657959,17.97117042541504,-12.460951805114746,2.4532132148742676,6.434908866882324,-0.3784654140472412,2
958,-25.293903350830078,39.524864196777344,-13.053544044494629,2.0504424571990967,6.2981085777282715,-0.6215647459030151,2
959,-35.32769012451172,50.637359619140625,-11.460150718688965,1.4358241558074951,6.053618907928467,-0.8818559050559998,2
960,-38.12888717651367,47.36763381958008,-9.548601150512695,0.8861569166183472,5.600729942321777,-0.9609668850898743,2
961,-36.29258728027344,33.43281173706055,-8.332178115844727,0.43340030312538147,5.33475399017334,-1.0146123170852661,2
962,-26.228513717651367,12.567137718200684,-8.229756355285645,0.18772593140602112,4.987607002258301,-0.9919558167457581,2
963,-10.071769714355469,-10.544346809387207,-8.819732666015625,0.08916675299406052,4.831974983215332,-1.0749409198760986,2
964,0.06545352935791016,-22.9931583404541,-7.929603576660156,0.370009183883667,4.76162052154541,-1.0021554231643677,2
965,1.5820727348327637,-28.150888442993164,-6.308934211730957,0.6622962355613708,4.871194362640381,-1.0665934085845947,2
966,-4.2594475746154785,-22.231124877929688,-3.3006362915039062,0.7272018790245056,4.889005661010742,-1.3550065755844116,2
967,-13.069206237792969,-11.49051284790039,1.133244514465332,0.9139909744262695,4.777352333068848,-1.4114389419555664,2
968,-19.874401092529297,-0.8730412721633911,3.256134510040283,1.0743255615234375,4.727321147918701,-1.3738985061645508,2
969,-23.558269500732422,9.180797576904297,4.602750301361084,0.9631451964378357,4.450364589691162,-1.4349037408828735,2
970,-24.992136001586914,12.222723960876465,6.549300670623779,0.8383078575134277,4.333103179931641,-1.452652096748352,2
971,-24.456758499145508,15.741917610168457,9.291666030883789,0.6958761215209961,3.918346881866455,-1.4016472101211548,2
972,-23.97754669189453,17.083696365356445,12.390449523925781,0.5785542130470276,3.9164421558380127,-1.3336944580078125,2
973,-25.821657180786133,13.775872230529785,16.54548454284668,0.44755247235298157,3.610283613204956,-1.1591012477874756,2
974,-31.11680030822754,6.592072010040283,19.212411880493164,0.3914364278316498,3.390216827392578,-0.9315937757492065,2
975,-34.03842544555664,-2.2597217559814453,20.011051177978516,0.43717658519744873,2.899282217025757,-0.6004467010498047,2
976,-34.2593994140625,-8.392822265625,20.202205657958984,0.4658570885658264,2.9307336807250977,-0.4708225131034851,2
977,-33.03391647338867,-10.036900520324707,20.372732162475586,0.6619136929512024,2.5808215141296387,-0.19112658500671387,2
978,-31.264699935913086,-10.107123374938965,19.483428955078125,0.8671243190765381,2.1218554973602295,0.10848027467727661,2
979,-29.29969024658203,-6.680228233337402,18.77104377746582,0.9541266560554504,1.7713416814804077,0.2949349284172058,2
980,-27.364639282226562,-0.7890349626541138,17.351421356201172,1.023726463317871,1.4519662857055664,0.48900699615478516,2
981,-26.567276000976562,-1.6576918363571167,14.558538436889648,1.0755469799041748,1.4372007846832275,0.6317230463027954,2
982,-24.405622482299805,-3.794318675994873,11.770777702331543,1.2101603746414185,1.0628167390823364,0.8685665726661682,2
