,timestamp_start,timestamp_end,acc.x,acc.y,acc.z,gyro.x,gyro.y,gyro.z,mag.x,mag.y,mag.z,stabilizer.pitch,stabilizer.roll,stabilizer.yaw
0,125386,125389,-0.10706711560487747,-0.03362463414669037,0.8306418657302856,22.193378448486328,129.7147674560547,-33.534976959228516,1.042447805404663,2.470376491546631,5.005249500274658,-2.7155776023864746,1.6707673072814941,3.6566593647003174
1,125396,125399,-0.03693574666976929,-0.03021017462015152,0.808132529258728,15.379973411560059,113.4811782836914,-36.832061767578125,1.0349482297897339,2.5018749237060547,5.033748149871826,-4.335555553436279,1.8229304552078247,3.3321022987365723
2,125406,125409,-0.034926220774650574,-0.0177677720785141,0.8486241698265076,18.698392868041992,80.94584655761719,-35.464141845703125,1.0289485454559326,2.4838757514953613,5.018748760223389,-4.936938762664795,2.0033740997314453,3.025880813598633
3,125416,125419,-0.04907509684562683,-0.021172454580664635,0.8834730982780457,34.45893096923828,36.743343353271484,-31.939403533935547,1.0439478158950806,2.4748761653900146,5.018748760223389,-5.598439693450928,2.2786974906921387,2.710947275161743
4,125426,125429,-0.06564529985189438,-0.07912474870681763,0.9018837809562683,38.96312713623047,-5.121469974517822,-25.16337013244629,1.0214488506317139,2.46437668800354,5.023248672485352,-5.730496406555176,2.486119031906128,2.399566888809204
5,125436,125439,-0.1292896568775177,-0.12873007357120514,0.9120386242866516,17.642578125,-34.52324676513672,-23.208059310913086,1.0259486436843872,2.4838757514953613,5.021749019622803,-5.368536949157715,2.7953004837036133,2.1750271320343018
6,125446,125449,-0.11606286466121674,-0.09899933636188507,0.9009247422218323,-21.75335693359375,-48.9981575012207,-20.356962203979492,1.0349482297897339,2.4748761653900146,5.036747932434082,-4.934605598449707,2.6712028980255127,1.9113926887512207
7,125456,125459,-0.10623548924922943,-0.02249058708548546,0.993371844291687,-49.94513702392578,-45.582557678222656,-19.417753219604492,1.057447075843811,2.494375228881836,5.035248279571533,-4.4271464347839355,2.1525356769561768,1.6295398473739624
8,125466,125469,-0.09491150081157684,-0.07076587527990341,0.9416311383247375,-73.72870635986328,-34.23410415649414,-19.81671142578125,1.0514473915100098,2.5033748149871826,5.035248279571533,-3.9781227111816406,1.8088796138763428,1.5355497598648071
9,125476,125479,-0.08632177114486694,-0.06828039884567261,0.9397608637809753,-76.62506103515625,-14.665495872497559,-17.702896118164062,1.0409479141235352,2.5078744888305664,5.036747932434082,-3.8976070880889893,0.836211085319519,1.2137845754623413
10,125486,125489,-0.02547549642622471,0.011576371267437935,0.9173790216445923,-68.4944076538086,14.544156074523926,-13.811563491821289,1.0544472932815552,2.5123744010925293,5.044247627258301,-3.980501651763916,0.19109061360359192,1.0727190971374512
11,125496,125499,-0.05999981611967087,-0.0647532269358635,0.9083961844444275,-44.5330696105957,34.807491302490234,-8.87089729309082,1.0409479141235352,2.522873878479004,5.03074836730957,-4.271582126617432,-0.45223501324653625,0.9257714748382568
12,125506,125509,-0.079261414706707,-0.04410305991768837,0.9099992513656616,-13.223690032958984,42.3260383605957,-4.410684108734131,1.0409479141235352,2.5078744888305664,5.033748149871826,-4.567419528961182,-0.5938533544540405,0.9616444706916809
13,125516,125519,-0.058848075568675995,-0.04434571415185928,0.9591467976570129,21.91672134399414,40.39241027832031,-4.33820915222168,1.0304484367370605,2.5093743801116943,5.026248455047607,-4.955899715423584,-0.5185295343399048,0.9586185812950134
14,125526,125529,-0.12947222590446472,-0.11515291780233383,0.9263095259666443,48.141746520996094,31.073841094970703,-6.37399959564209,1.0319483280181885,2.5048747062683105,5.0277485847473145,-5.281713008880615,-0.19417142868041992,0.9150500893592834
15,125536,125539,-0.17239075899124146,-0.1467617005109787,0.9173009991645813,62.79566955566406,18.94096565246582,-6.412034034729004,1.042447805404663,2.515374183654785,5.047247409820557,-5.76560115814209,0.4756610095500946,0.9008603096008301
16,125546,125549,-0.07809183746576309,-0.08248079568147659,0.9328474998474121,62.50220489501953,5.539464473724365,-5.774019241333008,1.0139492750167847,2.5078744888305664,5.0517473220825195,-5.588192939758301,0.9739470481872559,0.7895252704620361
17,125556,125559,0.03215176984667778,-0.10293350368738174,0.949910581111908,51.016902923583984,-8.466621398925781,-4.859220504760742,1.0409479141235352,2.4988749027252197,5.042747974395752,-5.5769453048706055,1.6533068418502808,0.7928887009620667
18,125566,125569,0.05901885777711868,-0.06427828222513199,0.9322267174720764,34.15111541748047,-26.674036026000977,-3.0324859619140625,1.0274486541748047,2.5033748149871826,5.026248455047607,-5.354000091552734,2.155836820602417,0.785737156867981
19,125576,125579,-0.032668810337781906,-0.06219249591231346,0.9054855108261108,11.631619453430176,-40.76566696166992,-1.7631622552871704,1.0289485454559326,2.495875120162964,5.0277485847473145,-4.95988130569458,2.4616451263427734,0.7918409109115601
20,125586,125589,-0.09814731776714325,-0.1111178994178772,0.9453626275062561,-11.937819480895996,-45.546852111816406,-1.1420360803604126,1.0379481315612793,2.4748761653900146,5.0277485847473145,-4.558096885681152,2.3123674392700195,0.6574257612228394
21,125596,125599,-0.0725288838148117,-0.1542944312095642,0.8659176826477051,-29.186649322509766,-41.307228088378906,0.17580246925354004,1.0499475002288818,2.489875555038452,5.033748149871826,-4.138401985168457,2.049027919769287,0.5975956916809082
22,125606,125609,-0.06128205358982086,-0.10346467047929764,0.9116628170013428,-44.00619888305664,-33.67280197143555,1.7983243465423584,1.0664466619491577,2.49137544631958,5.005249500274658,-3.7494547367095947,1.591230034828186,0.5385755300521851
23,125616,125619,-0.01816784217953682,-0.0060654752887785435,0.9639869332313538,-50.481807708740234,-19.948713302612305,3.599276542663574,1.0604469776153564,2.494375228881836,5.041247844696045,-3.652127504348755,1.3354166746139526,0.667729914188385
24,125626,125629,-0.058355800807476044,-0.03781452029943466,0.9941975474357605,-46.58114242553711,-12.970340728759766,5.44037389755249,1.0514473915100098,2.497375011444092,5.029248237609863,-3.444631576538086,0.7071373462677002,0.6310358047485352
25,125636,125639,-0.07140149921178818,-0.052844513207674026,0.9693788886070251,-37.86993408203125,-4.799321174621582,6.0741167068481445,1.0304484367370605,2.5003750324249268,5.032248497009277,-3.4398086071014404,0.476936012506485,0.7918502688407898
26,125646,125649,-0.11350535601377487,-0.07171918451786041,0.9968336224555969,-24.004056930541992,-1.5952513217926025,5.282863616943359,1.055947184562683,2.5078744888305664,5.036747932434082,-3.4481635093688965,0.1272585242986679,0.8308098912239075
27,125656,125659,-0.18132531642913818,-0.08753853291273117,0.9474731087684631,-6.340039253234863,0.2526772618293762,4.095341682434082,1.0544472932815552,2.4853756427764893,5.002249717712402,-3.4166812896728516,0.2524603009223938,1.0419607162475586
28,125666,125669,-0.09726784378290176,-0.04737504944205284,0.960476279258728,5.087583541870117,-0.42144882678985596,1.6817200183868408,1.0439478158950806,2.486875534057617,5.018748760223389,-3.377910852432251,0.18269343674182892,1.0426781177520752
29,125676,125679,-0.039256077259778976,-0.07934392243623734,0.8747926354408264,9.66434383392334,-1.045512318611145,0.20738504827022552,1.0304484367370605,2.5033748149871826,5.029248237609863,-3.326317310333252,0.3096287250518799,1.0807480812072754
30,125686,125689,-0.03643477335572243,-0.0588185079395771,0.8756695985794067,4.067244052886963,-5.373497486114502,-1.9127141237258911,1.0499475002288818,2.4778759479522705,5.018748760223389,-3.4250524044036865,0.4161478579044342,1.0790507793426514
31,125696,125699,-0.049170397222042084,-0.05193929001688957,0.8733466863632202,-12.920591354370117,-6.250638961791992,-2.9971811771392822,1.033448338508606,2.488375425338745,5.01724910736084,-3.281736373901367,0.38076454401016235,1.0582048892974854
32,125706,125709,-0.06672245264053345,-0.0405365414917469,0.8956938982009888,-31.55392837524414,-11.25267219543457,-3.299689769744873,1.048447608947754,2.4823758602142334,5.011249542236328,-3.0883994102478027,-0.08722448348999023,0.9107809066772461
33,125716,125719,-0.06970036774873734,-0.0298454649746418,0.9319028258323669,-44.21729278564453,-19.403169631958008,-2.6466448307037354,1.0454477071762085,2.4823758602142334,5.023248672485352,-2.9243674278259277,-0.38024067878723145,0.922182023525238
34,125726,125729,-0.05336017161607742,-0.03183799237012863,0.935287594795227,-47.365604400634766,-26.909151077270508,-2.2026119232177734,1.0619468688964844,2.495875120162964,5.0277485847473145,-2.7674169540405273,-0.7911789417266846,0.923076868057251
35,125736,125739,-0.06295405328273773,-0.026981770992279053,0.9513301849365234,-42.98344421386719,-32.50248718261719,-2.485671043395996,1.0619468688964844,2.5018749237060547,5.03074836730957,-2.5607998371124268,-1.051696538925171,0.9872536063194275
36,125746,125749,-0.04285253584384918,-0.031861066818237305,0.9528250098228455,-32.92905807495117,-35.76308822631836,-2.731675863265991,1.0604469776153564,2.5033748149871826,5.032248497009277,-2.00732421875,-1.4757674932479858,0.9540229439735413
37,125756,125759,-0.04067876189947128,-0.03914645314216614,0.9491891860961914,-19.28460693359375,-38.68012619018555,-2.3178927898406982,1.055947184562683,2.489875555038452,5.021749019622803,-1.882230520248413,-1.6944093704223633,0.964667022228241
38,125766,125769,-0.07280923426151276,-0.021798212081193924,0.9041720628738403,-7.688119888305664,-37.725460052490234,-2.3853495121002197,1.0664466619491577,2.4823758602142334,5.01724910736084,-1.3157408237457275,-1.8555810451507568,0.9389820098876953
39,125776,125779,-0.08955539762973785,0.002581728156656027,0.9081352949142456,2.1046857833862305,-39.012779235839844,-2.1252777576446533,1.0619468688964844,2.4808759689331055,5.024748802185059,-1.022860050201416,-1.820716381072998,0.9545711874961853
40,125786,125789,-0.059835486114025116,-0.023420514538884163,0.9698907732963562,6.761485576629639,-29.88658332824707,-0.8650354146957397,1.0604469776153564,2.494375228881836,5.032248497009277,-0.7503877282142639,-1.7452892065048218,0.9654048085212708
41,125796,125799,-0.07145632803440094,-0.05148489028215408,0.9893383383750916,1.286163568496704,-24.323598861694336,-1.6536839008331299,1.055947184562683,2.489875555038452,5.018748760223389,-0.4537656605243683,-1.6934107542037964,0.9575044512748718
42,125806,125809,-0.060154449194669724,-0.05442129075527191,0.987114429473877,-14.463781356811523,-19.573272705078125,-4.5927324295043945,1.0649467706680298,2.492875337600708,5.012749195098877,-0.2863290011882782,-1.9018797874450684,0.9166038632392883
43,125816,125819,-0.05209615081548691,-0.03945831581950188,0.9648973345756531,-22.140846252441406,-6.691919803619385,-7.474884986877441,1.0679465532302856,2.486875534057617,5.015748977661133,-0.20094406604766846,-2.082162857055664,0.8725425004959106
44,125826,125829,-0.05305352434515953,-0.05551876500248909,1.0086112022399902,-20.567798614501953,8.579305648803711,-8.471644401550293,1.0649467706680298,2.5018749237060547,5.024748802185059,-0.28567391633987427,-2.300097942352295,0.8112877607345581
45,125836,125839,-0.039345573633909225,0.020572420209646225,0.9933452606201172,-8.480813980102539,24.58063507080078,-9.526697158813477,1.0619468688964844,2.492875337600708,5.015748977661133,-0.49779370427131653,-2.5167877674102783,0.7162566781044006
46,125846,125849,-0.053644903004169464,-0.008105236105620861,0.9465994238853455,12.130239486694336,26.425676345825195,-8.83096694946289,1.0529472827911377,2.5048747062683105,5.024748802185059,-0.8303173780441284,-2.3145997524261475,0.638778805732727
47,125856,125859,-0.06711918115615845,-0.0388011708855629,0.9453563690185547,29.424400329589844,10.684013366699219,-7.712155342102051,1.0619468688964844,2.516874074935913,5.0277485847473145,-0.9429088234901428,-2.149473190307617,0.5232349634170532
48,125866,125869,-0.04916119575500488,-0.05256841331720352,0.9225189685821533,33.264678955078125,-12.467904090881348,-4.874602317810059,1.0604469776153564,2.5123744010925293,5.035248279571533,-0.9369755387306213,-1.691218614578247,0.45513129234313965
49,125876,125879,-0.08065885305404663,-0.06403443217277527,0.9015775322914124,26.441753387451172,-24.825157165527344,-0.3944268822669983,1.057447075843811,2.5003750324249268,5.032248497009277,-0.7789033055305481,-1.5520093441009521,0.4404798746109009
50,125886,125889,-0.12100792676210403,-0.022285224869847298,0.9149163365364075,14.978630065917969,-31.07969856262207,4.393024921417236,1.055947184562683,2.5108745098114014,5.045747756958008,-0.4373672306537628,-1.284735083580017,0.4422864317893982
51,125896,125899,-0.1910015046596527,-0.006346358917653561,0.9826452136039734,1.0056161880493164,-36.90396499633789,9.237610816955566,1.0754462480545044,2.488375425338745,5.029248237609863,-0.4853242337703705,-1.2250621318817139,0.6358850002288818
52,125906,125909,-0.13027405738830566,-0.0339287631213665,0.98248690366745,-19.121984481811523,-40.304725646972656,11.887533187866211,1.0634467601776123,2.497375011444092,5.026248455047607,0.11169411242008209,-1.4390301704406738,0.6903754472732544
53,125916,125919,-0.037578143179416656,-0.04291073605418205,0.9510608315467834,-40.85722732543945,-46.07844924926758,11.600109100341797,1.0694465637207031,2.5063745975494385,5.023248672485352,0.5856769680976868,-1.737658143043518,0.806979238986969
54,125926,125929,-0.033184994012117386,-0.06281940639019012,1.0121442079544067,-53.886436462402344,-47.08974838256836,10.643566131591797,1.0784460306167603,2.515374183654785,5.026248455047607,0.9764530658721924,-2.3630595207214355,0.9781187772750854
55,125936,125939,0.05654451623558998,-0.04272103309631348,0.9571092128753662,-55.988834381103516,-36.26276397705078,7.051135540008545,1.0754462480545044,2.515374183654785,5.038248062133789,1.3186241388320923,-2.763789176940918,1.0999000072479248
56,125946,125949,0.0632544681429863,-0.07423566281795502,0.9046533107757568,-41.9012565612793,-20.67530059814453,3.9413986206054688,1.0994449853897095,2.515374183654785,5.044247627258301,1.6283684968948364,-3.387084722518921,1.192336916923523
57,125956,125959,0.02660413831472397,-0.11482329666614532,0.9301273226737976,-19.51127815246582,-7.2887492179870605,2.2499747276306152,1.073946237564087,2.516874074935913,5.0277485847473145,1.668142318725586,-3.703418493270874,1.2625927925109863
58,125966,125969,-0.04035244882106781,-0.0844298005104065,0.9638774991035461,9.901139259338379,8.76259994506836,1.6667988300323486,1.073946237564087,2.5048747062683105,5.0277485847473145,1.550527811050415,-3.578887701034546,1.2757208347320557
59,125976,125979,-0.027017852291464806,-0.0234084315598011,0.9046991467475891,31.347898483276367,16.728395462036133,0.5469046235084534,1.0814459323883057,2.521373987197876,5.0502471923828125,1.3311787843704224,-3.5285987854003906,1.3553465604782104
60,125986,125989,0.06566578894853592,0.018802745267748833,0.9018470644950867,43.834922790527344,10.790545463562012,-1.131693959236145,1.0829458236694336,2.5048747062683105,5.036747932434082,1.1761283874511719,-3.053187131881714,1.322133183479309
61,125996,125999,0.005491016432642937,0.00017316766025032848,0.9270069599151611,50.52064514160156,-2.191506862640381,-0.675642192363739,1.073946237564087,2.516874074935913,5.045747756958008,1.2348581552505493,-2.635312557220459,1.278590202331543
62,126006,126009,-0.04282395914196968,-0.023995742201805115,0.9348113536834717,45.843894958496094,-11.864487648010254,0.8262338042259216,1.0844457149505615,2.5123744010925293,5.053247451782227,1.4837411642074585,-2.193901777267456,1.2201107740402222
63,126016,126019,-0.08362776041030884,-0.05289987102150917,0.9497930407524109,30.21734619140625,-21.506986618041992,2.3055622577667236,1.0829458236694336,2.516874074935913,5.045747756958008,1.4445223808288574,-1.807023525238037,1.3288391828536987
64,126026,126029,-0.10406653583049774,-0.10947511345148087,0.978890597820282,12.171236991882324,-23.75692367553711,1.9137555360794067,1.0679465532302856,2.5048747062683105,5.057746887207031,1.7772482633590698,-1.5665647983551025,1.298888087272644
65,126036,126039,-0.0724978968501091,-0.16464972496032715,0.966709315776825,-2.6777913570404053,-22.481895446777344,0.6909732222557068,1.0844457149505615,2.5063745975494385,5.0502471923828125,1.906184434890747,-1.798677921295166,1.4742369651794434
66,126046,126049,-0.08454597741365433,-0.22128993272781372,0.9327141046524048,-15.616997718811035,-17.34078598022461,-1.3795357942581177,1.087445616722107,2.5063745975494385,5.029248237609863,2.1324923038482666,-1.7574008703231812,1.412208080291748
67,126056,126059,-0.11499068140983582,-0.20935380458831787,0.9467366933822632,-18.46164321899414,-14.027563095092773,-1.8771950006484985,1.0979450941085815,2.516874074935913,5.057746887207031,2.145150661468506,-1.9188755750656128,1.4461615085601807
68,126066,126069,-0.11559390276670456,-0.1441713273525238,0.9920419454574585,-12.90837287902832,-6.958841323852539,-1.9342972040176392,1.0799460411071777,2.516874074935913,5.060746669769287,2.239652633666992,-2.2568986415863037,1.514630913734436
69,126076,126079,0.013734361156821251,-0.07287959009408951,0.9394903182983398,-0.02942802757024765,2.330110549926758,-2.895904541015625,1.0844457149505615,2.524373769760132,5.053247451782227,2.348121166229248,-2.3317813873291016,1.4697414636611938
70,126086,126089,-0.029975757002830505,-0.030553510412573814,0.9958357214927673,16.174713134765625,7.360354900360107,-4.18350887298584,1.0784460306167603,2.518373966217041,5.0502471923828125,2.244645595550537,-2.150442361831665,1.4047330617904663
71,126096,126099,0.06222999840974808,-0.005501281004399061,0.9952638745307922,31.325586318969727,11.471148490905762,-4.856936454772949,1.0889455080032349,2.516874074935913,5.057746887207031,2.0822863578796387,-1.851104497909546,1.3574124574661255
72,126106,126109,-0.025828810408711433,-0.057102020829916,0.9717503786087036,37.408164978027344,14.022634506225586,-5.401699542999268,1.087445616722107,2.518373966217041,5.059247016906738,1.9827852249145508,-1.458108901977539,1.274553894996643
73,126116,126119,-0.02405419573187828,-0.08939427137374878,0.9866140484809875,38.38801193237305,15.702849388122559,-6.235420227050781,1.0814459323883057,2.524373769760132,5.056247234344482,1.862522006034851,-0.8815950751304626,1.1031240224838257
74,126126,126129,-0.01737859658896923,-0.055533576756715775,0.9871072769165039,34.501304626464844,11.156155586242676,-5.45236873626709,1.0844457149505615,2.515374183654785,5.053247451782227,1.7535490989685059,-0.768589437007904,1.1682209968566895
75,126136,126139,-0.04097411781549454,-0.07408930361270905,0.9836936593055725,21.590612411499023,-1.4639612436294556,-6.466710567474365,1.0649467706680298,2.516874074935913,5.0517473220825195,1.7163141965866089,-0.36308667063713074,1.0396572351455688
76,126146,126149,-0.08545398712158203,-0.028224052861332893,1.0020875930786133,6.3435258865356445,-24.971662521362305,-5.938051223754883,1.070946455001831,2.5078744888305664,5.0517473220825195,1.846326231956482,-0.418940931558609,1.082335114479065
77,126156,126159,-0.058437298983335495,0.0510844811797142,1.0320453643798828,-6.348283767700195,-45.666351318359375,-4.8189921379089355,1.0754462480545044,2.5063745975494385,5.062246799468994,2.4145419597625732,-0.397114634513855,0.9537425637245178
78,126166,126169,-0.05269177258014679,0.06411176919937134,1.0011109113693237,-7.869386672973633,-51.5085563659668,-0.932182252407074,1.0934453010559082,2.5333733558654785,5.074246406555176,2.6796681880950928,-0.5577919483184814,1.0387940406799316
79,126176,126179,-0.07910887897014618,-0.004613463766872883,1.0463148355484009,-3.357677936553955,-50.60004806518555,4.396967887878418,1.1024448871612549,2.521373987197876,5.074246406555176,3.4560506343841553,-0.5876927971839905,0.9768577814102173
80,126186,126189,-0.09887527674436569,-0.1260523945093155,1.0714731216430664,-4.66389274597168,-48.4472770690918,8.16896915435791,1.0889455080032349,2.5378730297088623,5.069746494293213,3.620939254760742,-0.6289937496185303,1.1185072660446167
81,126196,126199,-0.13110493123531342,-0.1438923329114914,1.046377182006836,-3.6185457706451416,-37.08651351928711,9.078782081604004,1.1039447784423828,2.5378730297088623,5.075746059417725,4.107588291168213,-0.6646484136581421,1.191291093826294
82,126206,126209,-0.07911909371614456,-0.046403560787439346,0.9646263718605042,-4.83270263671875,-22.488563537597656,7.187922477722168,1.1024448871612549,2.521373987197876,5.062246799468994,4.251608848571777,-0.7145146727561951,1.3071995973587036
83,126216,126219,-0.060753583908081055,0.018260838463902473,0.9793202877044678,-4.17030143737793,-10.43991756439209,3.111886739730835,1.0949451923370361,2.519873857498169,5.066746711730957,4.611532211303711,-0.7666608095169067,1.3276307582855225
84,126226,126229,-0.05798916518688202,-0.021641356870532036,1.0274081230163574,9.720219612121582,4.893980026245117,1.8514351844787598,1.1024448871612549,2.5273735523223877,5.068246364593506,4.492840766906738,-0.66753751039505,1.3227468729019165
85,126236,126239,-0.05870713293552399,-0.04792269691824913,1.0543137788772583,24.834606170654297,12.5861177444458,2.60896372795105,1.1084445714950562,2.5123744010925293,5.056247234344482,4.398614883422852,-0.40383556485176086,1.2726224660873413
86,126246,126249,-0.08866281807422638,-0.1242591068148613,1.0372860431671143,39.60783767700195,7.493463516235352,0.6420021057128906,1.1039447784423828,2.5108745098114014,5.063746929168701,4.236817359924316,-0.12158206850290298,1.3193249702453613
87,126256,126259,-0.11973880231380463,-0.09794876724481583,1.0418579578399658,48.02577209472656,-2.331594944000244,0.5939684510231018,1.0979450941085815,2.5258736610412598,5.072746276855469,4.217986583709717,0.41472020745277405,1.2396314144134521
88,126266,126269,-0.0598355233669281,-0.06033056601881981,1.0515508651733398,47.147010803222656,0.650161862373352,0.3556029796600342,1.0979450941085815,2.522873878479004,5.066746711730957,4.1871418952941895,0.43897107243537903,1.5980499982833862
89,126276,126279,-0.08501122146844864,-0.055934518575668335,1.0596717596054077,40.35951614379883,17.32239532470703,-0.17249417304992676,1.1024448871612549,2.5273735523223877,5.071246147155762,4.09483528137207,1.1430590152740479,1.4079375267028809
90,126286,126289,-0.087267205119133,-0.07672417163848877,0.998202919960022,32.12196350097656,36.59040069580078,3.9395244121551514,1.1144442558288574,2.5093743801116943,5.06524658203125,3.770955801010132,1.423039197921753,1.5089402198791504
91,126296,126299,-0.04491136595606804,-0.019298195838928223,1.0306823253631592,17.006071090698242,52.84781265258789,5.709214210510254,1.1054446697235107,2.5123744010925293,5.089245319366455,3.2399373054504395,1.5699372291564941,1.6611915826797485
92,126306,126309,-0.01893729530274868,-0.066127248108387,0.9948436617851257,-2.0369410514831543,63.236663818359375,8.877360343933105,1.1054446697235107,2.521373987197876,5.074246406555176,2.770080327987671,1.7191601991653442,1.6945521831512451
93,126316,126319,-0.010055634193122387,-0.07371033728122711,1.020442247390747,-16.065776824951172,57.8054313659668,13.052767753601074,1.0904453992843628,2.5333733558654785,5.095245361328125,2.1216657161712646,1.5018686056137085,1.9068098068237305
94,126326,126329,-0.034662410616874695,-0.042908478528261185,1.0483759641647339,-21.282812118530273,29.57660675048828,16.22218132019043,1.0919454097747803,2.546872615814209,5.090745449066162,1.8604496717453003,1.226029634475708,2.129287004470825
95,126336,126339,-0.1487949937582016,-0.10218772292137146,1.0215885639190674,-23.20746612548828,-0.23909133672714233,17.557947158813477,1.0979450941085815,2.5318734645843506,5.0787458419799805,1.6889516115188599,0.9016039967536926,2.36881685256958
96,126346,126349,-0.16884441673755646,-0.05397617816925049,1.0488262176513672,-23.85161590576172,-25.366483688354492,19.27059555053711,1.0919454097747803,2.5318734645843506,5.075746059417725,1.7509288787841797,0.7048720717430115,2.5130045413970947
97,126356,126359,-0.08780921250581741,-0.010537993162870407,1.0163785219192505,-25.26925277709961,-34.751808166503906,21.865365982055664,1.1039447784423828,2.5348732471466064,5.0787458419799805,2.3040101528167725,0.5667208433151245,2.659966230392456
98,126366,126369,-0.09160937368869781,0.0221630297601223,1.0205234289169312,-29.420574188232422,-36.00187301635742,24.00899887084961,1.1069446802139282,2.522873878479004,5.0787458419799805,2.8246026039123535,0.37115174531936646,2.849724769592285
99,126376,126379,-0.06689321994781494,-0.014921875670552254,1.031243085861206,-22.871156692504883,-31.67932891845703,23.05817222595215,1.109944462776184,2.5258736610412598,5.0787458419799805,3.0256237983703613,0.02789893001317978,3.108062267303467
100,126386,126389,-0.04642854630947113,-0.02864805795252323,1.0035285949707031,-9.453767776489258,-20.875560760498047,18.197486877441406,1.0994449853897095,2.5273735523223877,5.083245754241943,3.1810412406921387,-0.19746209681034088,3.335181713104248
101,126396,126399,-0.14080698788166046,-0.0774637833237648,0.9712640643119812,8.889161109924316,-3.873004913330078,11.842398643493652,1.0904453992843628,2.524373769760132,5.071246147155762,3.378333568572998,-0.15988004207611084,3.4544003009796143
102,126406,126409,-0.14053577184677124,-0.016569852828979492,1.041579008102417,29.849050521850586,18.264835357666016,6.193915843963623,1.0844457149505615,2.5393729209899902,5.071246147155762,3.2374956607818604,0.2143554389476776,3.41251802444458
103,126416,126419,-0.08113159984350204,-0.01937284879386425,0.9919520616531372,45.315155029296875,37.106937408447266,4.000332832336426,1.0829458236694336,2.540872812271118,5.069746494293213,2.847635507583618,0.5233843922615051,3.4873764514923096
104,126426,126429,-0.07944551855325699,-0.0453328862786293,0.965771496295929,46.731178283691406,46.4007682800293,3.3544845581054688,1.0919454097747803,2.5378730297088623,5.087745666503906,2.4415812492370605,0.9830077886581421,3.544867753982544
105,126436,126439,-0.0491565503180027,-0.042646896094083786,0.9968995451927185,32.09880828857422,43.55898666381836,1.313839077949524,1.0754462480545044,2.5273735523223877,5.062246799468994,2.000875473022461,1.641434907913208,3.4298741817474365
106,126446,126449,-0.016774898394942284,-0.13324877619743347,1.0351381301879883,23.114612579345703,41.208255767822266,1.7129496335983276,1.087445616722107,2.518373966217041,5.068246364593506,1.6736618280410767,1.5901654958724976,3.659538745880127
107,126456,126459,-0.08857310563325882,-0.21481025218963623,0.9766877889633179,10.265687942504883,31.310861587524414,1.7692208290100098,1.0829458236694336,2.5288734436035156,5.075746059417725,1.294644832611084,1.8790591955184937,3.6235320568084717
108,126466,126469,-0.04783859848976135,-0.07138951867818832,1.011716604232788,-10.72604751586914,18.252965927124023,3.9786055088043213,1.087445616722107,2.5123744010925293,5.074246406555176,0.9701247811317444,1.794755220413208,3.698878526687622
109,126476,126479,-0.014074327424168587,-0.009114018641412258,1.0054185390472412,-29.00419044494629,6.7795000076293945,6.0743231773376465,1.0844457149505615,2.5093743801116943,5.077246189117432,1.0103141069412231,1.4705394506454468,3.84635329246521
110,126486,126489,-0.011521399021148682,-0.04310205206274986,0.9946310520172119,-35.787567138671875,7.692182540893555,7.094813823699951,1.0889455080032349,2.5288734436035156,5.066746711730957,0.9016126394271851,1.2980140447616577,3.8260412216186523
111,126496,126499,-0.041243474930524826,-0.064884252846241,1.0257761478424072,-36.54646301269531,12.450658798217773,9.6589994430542,1.085945725440979,2.5288734436035156,5.063746929168701,0.7366809844970703,0.8584622144699097,3.9242072105407715
112,126506,126509,-0.05923905968666077,-0.043067723512649536,1.0237520933151245,-29.855363845825195,16.43813705444336,11.480679512023926,1.085945725440979,2.5258736610412598,5.066746711730957,0.5200786590576172,0.4767440855503082,4.027472972869873
113,126516,126519,-0.02517411857843399,-0.10759472846984863,1.0286188125610352,-20.546091079711914,26.90653419494629,11.492598533630371,1.0829458236694336,2.522873878479004,5.081745624542236,0.3152763843536377,0.22611692547798157,4.134441375732422
114,126526,126529,-0.03798043727874756,-0.05387473478913307,1.049607753753662,-6.879655838012695,21.437206268310547,10.10090160369873,1.0664466619491577,2.5273735523223877,5.077246189117432,0.14990605413913727,0.1233413890004158,4.247315883636475
115,126536,126539,-0.0460941419005394,-0.09990713745355606,1.0560743808746338,0.5267502665519714,15.523263931274414,4.940464973449707,1.085945725440979,2.522873878479004,5.069746494293213,0.06172909960150719,0.10450936108827591,4.346083641052246
116,126546,126549,-0.06621871888637543,-0.11732132732868195,1.0740277767181396,3.351201057434082,5.688723087310791,-1.885400652885437,1.073946237564087,2.5318734645843506,5.072746276855469,-0.11785988509654999,0.20483632385730743,4.330763339996338
117,126556,126559,-0.1033373549580574,-0.09045369178056717,1.0525360107421875,10.741941452026367,1.1276626586914062,-5.655706882476807,1.073946237564087,2.5258736610412598,5.063746929168701,-0.0532083697617054,0.3265303075313568,4.297226905822754
118,126566,126569,-0.08082881569862366,0.005435886327177286,1.05335533618927,18.456907272338867,-4.327504634857178,-8.357372283935547,1.0754462480545044,2.521373987197876,5.068246364593506,-0.1242033913731575,0.3561572730541229,4.24064302444458
119,126576,126579,0.004681213293224573,0.031296465545892715,1.0972565412521362,26.23542594909668,-15.548388481140137,-7.274348735809326,1.0799460411071777,2.5258736610412598,5.075746059417725,-0.04584196209907532,0.6830971837043762,4.136983394622803
120,126586,126589,-0.028716905042529106,-0.03966424986720085,1.105962872505188,24.014184951782227,-23.089651107788086,-2.5971927642822266,1.0769461393356323,2.522873878479004,5.063746929168701,0.21451421082019806,1.0307785272598267,4.071894645690918
121,126596,126599,-0.010866262950003147,-0.0834248960018158,1.0489517450332642,20.833269119262695,-9.354881286621094,-1.176018238067627,1.0784460306167603,2.5123744010925293,5.086245536804199,0.39918845891952515,1.3884159326553345,4.033297538757324
122,126606,126609,0.0009123366908170283,-0.0989280715584755,1.0611941814422607,13.47667121887207,7.5081305503845215,-3.4089853763580322,1.072446346282959,2.5123744010925293,5.068246364593506,0.4039878249168396,1.4506295919418335,4.022350311279297
123,126616,126619,-0.06964683532714844,-0.13205721974372864,1.0284616947174072,-1.6335513591766357,19.502214431762695,-4.788509845733643,1.085945725440979,2.5078744888305664,5.060746669769287,0.2149857133626938,1.3107720613479614,3.99936580657959
124,126626,126629,-0.15268409252166748,-0.1336718201637268,1.008687973022461,-18.988279342651367,14.449625015258789,-6.8203349113464355,1.0784460306167603,2.5123744010925293,5.056247234344482,-0.0878179594874382,1.4134567975997925,3.9102237224578857
125,126636,126639,-0.1854296773672104,-0.05962633714079857,1.1055656671524048,-35.3852653503418,5.018808841705322,-9.41343879699707,1.0799460411071777,2.5108745098114014,5.0517473220825195,-0.1200660914182663,1.0091238021850586,3.8571033477783203
126,126646,126649,-0.0907410979270935,0.008172264322638512,1.1281664371490479,-41.01898193359375,1.951985239982605,-10.889568328857422,1.0679465532302856,2.5018749237060547,5.0517473220825195,-0.06157247722148895,0.5628877282142639,3.780045986175537
127,126656,126659,-0.04258223623037338,0.0038390837144106627,1.0764751434326172,-30.963775634765625,4.121957302093506,-12.674445152282715,1.085945725440979,2.516874074935913,5.060746669769287,-0.11939749121665955,0.1324431151151657,3.664092779159546
128,126666,126669,0.031940486282110214,-0.050822027027606964,1.0215314626693726,-10.844727516174316,9.361589431762695,-16.187198638916016,1.0754462480545044,2.5063745975494385,5.0502471923828125,-0.259678453207016,0.008776826784014702,3.5084314346313477
129,126676,126679,-0.037640057504177094,-0.04567229747772217,1.045020580291748,14.569479942321777,14.148672103881836,-18.272432327270508,1.0784460306167603,2.488375425338745,5.023248672485352,-0.4719710052013397,0.05760667100548744,3.3178093433380127
130,126686,126689,-0.022706296294927597,-0.0513513945043087,1.0589066743850708,26.075456619262695,17.819435119628906,-18.85712432861328,1.070946455001831,2.5078744888305664,5.042747974395752,-0.7531343698501587,0.40938204526901245,3.115774393081665
131,126696,126699,0.0033186350483447313,-0.037596601992845535,1.0225509405136108,26.768579483032227,21.060102462768555,-19.542160034179688,1.0679465532302856,2.495875120162964,5.036747932434082,-0.9887701272964478,0.6247873902320862,2.9150989055633545
132,126706,126709,-0.046213697642087936,-0.029836110770702362,0.9931047558784485,21.776870727539062,21.87135124206543,-18.669565200805664,1.0784460306167603,2.488375425338745,5.035248279571533,-1.2451101541519165,1.000184178352356,2.7253215312957764
133,126716,126719,0.014350512996315956,0.024727437645196915,0.960199773311615,11.350552558898926,22.192371368408203,-17.082225799560547,1.057447075843811,2.4823758602142334,5.023248672485352,-1.3256107568740845,1.041873574256897,2.5585832595825195
134,126726,126729,0.051287706941366196,0.06786815077066422,0.9419234991073608,-3.6522216796875,8.52117919921875,-16.25434112548828,1.055947184562683,2.495875120162964,5.03074836730957,-1.4168639183044434,1.082017421722412,2.4029078483581543
135,126736,126739,0.09913520514965057,0.11466825753450394,0.9307615756988525,-14.855539321899414,-2.4007556438446045,-14.995720863342285,1.0634467601776123,2.470376491546631,5.01724910736084,-1.297995686531067,0.9871925711631775,2.2625813484191895
136,126746,126749,0.0022485253866761923,-0.016912218183279037,0.9294713139533997,-21.62367057800293,-13.7979154586792,-13.97298526763916,1.0589470863342285,2.468876600265503,5.0277485847473145,-1.1611037254333496,0.7484076619148254,2.115278959274292
137,126756,126759,0.02806553617119789,0.05348162353038788,0.9579904675483704,-28.055686950683594,-21.05495834350586,-13.905705451965332,1.0619468688964844,2.462876796722412,5.015748977661133,-0.9514930844306946,0.5325485467910767,1.9863572120666504
138,126766,126769,-0.001769155845977366,0.06398814171552658,0.9764324426651001,-32.6962776184082,-21.82281494140625,-13.86109447479248,1.073946237564087,2.4778759479522705,5.033748149871826,-0.8832442164421082,0.08766437321901321,1.7980220317840576
139,126776,126779,0.06847241520881653,0.10784004628658295,1.0479859113693237,-31.03241539001465,-18.79081916809082,-13.430535316467285,1.0754462480545044,2.5033748149871826,5.026248455047607,-0.5581788420677185,-0.0872681736946106,1.7046563625335693
140,126786,126789,-0.010301077738404274,0.013747641816735268,1.003043293952942,-22.377113342285156,-17.4010066986084,-9.953514099121094,1.0589470863342285,2.492875337600708,5.03074836730957,-0.26784348487854004,-0.3852202594280243,1.5958625078201294
141,126796,126799,-0.09078757464885712,-0.05212889239192009,0.9792320132255554,-17.900177001953125,-11.75735092163086,-9.129201889038086,1.0829458236694336,2.4838757514953613,5.03074836730957,-0.32708650827407837,-0.44501981139183044,1.5024269819259644
142,126806,126809,-0.0401008315384388,-0.13679076731204987,0.9932851195335388,-13.109621047973633,-4.900743007659912,-9.513727188110352,1.0979450941085815,2.4838757514953613,5.03074836730957,-0.4746902287006378,-0.7272298336029053,1.3593403100967407
143,126816,126819,-0.10857545584440231,-0.17602090537548065,1.009551763534546,-7.633835315704346,7.1517205238342285,-11.768255233764648,1.0754462480545044,2.488375425338745,5.023248672485352,-0.3219394087791443,-0.7184687256813049,1.2982168197631836
144,126826,126829,-0.055627815425395966,-0.0867827981710434,0.9959832429885864,-1.3478106260299683,10.89355182647705,-15.961263656616211,1.0769461393356323,2.471876382827759,5.012749195098877,-0.4692436158657074,-0.8222967982292175,1.1494289636611938
145,126836,126839,0.024137914180755615,-0.006709335371851921,0.9958089590072632,11.221770286560059,7.3483052253723145,-17.975732803344727,1.0679465532302856,2.495875120162964,5.033748149871826,-0.5993662476539612,-0.7018939256668091,0.9948335289955139
146,126846,126849,-0.008960857056081295,0.003179993713274598,0.9942187666893005,32.353885650634766,-5.983551025390625,-16.219297409057617,1.0619468688964844,2.4988749027252197,5.033748149871826,-0.7331773042678833,-0.5741604566574097,0.7981415390968323
147,126856,126859,-0.058328527957201004,-0.0283492524176836,1.0268220901489258,58.72031784057617,-20.232633590698242,-10.881645202636719,1.0664466619491577,2.5063745975494385,5.053247451782227,-0.5422945618629456,-0.02369803935289383,0.6811646819114685
148,126866,126869,-0.040543992072343826,-0.0594453439116478,0.9891215562820435,78.69730377197266,-32.221588134765625,-1.5735152959823608,1.073946237564087,2.5048747062683105,5.057746887207031,-0.03287433832883835,0.9777110815048218,0.67838454246521
149,126876,126879,-0.14419987797737122,-0.15831537544727325,0.983963131904602,74.96418762207031,-32.626338958740234,6.278253078460693,1.0754462480545044,2.518373966217041,5.068246364593506,0.0973699763417244,1.6518797874450684,0.6705615520477295
150,126886,126889,-0.17907267808914185,-0.1982261836528778,0.875783383846283,45.14902877807617,-29.507957458496094,8.220982551574707,1.0904453992843628,2.524373769760132,5.0802459716796875,0.4843985438346863,2.1743364334106445,0.7218928933143616
151,126896,126899,-0.14292766153812408,-0.16565968096256256,0.9128308892250061,10.184446334838867,-31.66549301147461,6.734367370605469,1.085945725440979,2.5048747062683105,5.063746929168701,0.7568122148513794,2.4848809242248535,0.7829529047012329
152,126906,126909,-0.09129805862903595,-0.08337459713220596,0.9368398189544678,-39.00688171386719,-33.631351470947266,4.750981330871582,1.085945725440979,2.5048747062683105,5.060746669769287,1.1876072883605957,2.1483254432678223,0.7995328903198242
153,126916,126919,-0.04852204769849777,-0.039336007088422775,0.9770777225494385,-85.87904357910156,-16.879858016967773,0.7858810424804688,1.0949451923370361,2.489875555038452,5.042747974395752,1.242836356163025,1.4486398696899414,0.7941798567771912
154,126926,126929,0.059702277183532715,-0.02910345233976841,0.9360284805297852,-113.97135925292969,5.456206321716309,-3.354464054107666,1.0754462480545044,2.521373987197876,5.068246364593506,1.2766849994659424,0.17128492891788483,0.7458353638648987
155,126936,126939,-0.020034881308674812,-0.023836500942707062,0.9988656640052795,-127.10540771484375,19.870088577270508,-9.144975662231445,1.085945725440979,2.5618717670440674,5.09974479675293,1.082579255104065,-0.9365637302398682,0.6848499774932861
156,126946,126949,-0.056876204907894135,0.01354319415986538,1.0552144050598145,-114.59686279296875,31.97597312927246,-12.344630241394043,1.073946237564087,2.5618717670440674,5.090745449066162,0.6705734729766846,-2.219339370727539,0.5474622845649719
157,126956,126959,-0.08540528267621994,0.004770747851580381,1.0562480688095093,-78.36346435546875,45.6005859375,-13.133498191833496,1.0799460411071777,2.5858707427978516,5.093745231628418,0.3412850499153137,-3.009544849395752,0.4228116571903229
158,126966,126969,-0.07140558212995529,0.010370026342570782,1.011627197265625,-21.08665657043457,50.044952392578125,-13.669557571411133,1.0754462480545044,2.572371244430542,5.095245361328125,-0.2504887580871582,-3.4268639087677,0.2629682719707489
159,126976,126979,-0.07518019527196884,0.007911031134426594,0.9555419683456421,38.28474426269531,45.26752853393555,-13.969756126403809,1.0604469776153564,2.5573720932006836,5.089245319366455,-0.6390907168388367,-3.4217514991760254,0.0948401689529419
160,126986,126989,-0.1442382037639618,-0.0026894574984908104,0.9777756333351135,85.91581726074219,33.039154052734375,-13.476967811584473,1.057447075843811,2.542372941970825,5.074246406555176,-1.2390761375427246,-2.409146308898926,-0.027456436306238174
161,126996,126999,-0.11368881911039352,-0.03196457400918007,0.9881579875946045,110.12897491455078,18.515270233154297,-12.669926643371582,1.0499475002288818,2.5618717670440674,5.093745231628418,-1.457471251487732,-1.6324067115783691,-0.19352810084819794
162,127006,127009,-0.1558205634355545,-0.04408889636397362,0.9667091369628906,106.36802673339844,3.9925620555877686,-11.682289123535156,1.0589470863342285,2.543872833251953,5.096745014190674,-1.4468474388122559,-0.43523722887039185,-0.3252916634082794
163,127016,127019,-0.2551990747451782,-0.09661906957626343,0.9641228914260864,81.0546875,-8.477252960205078,-9.654150009155273,1.0619468688964844,2.546872615814209,5.08474588394165,-1.363368272781372,0.20919069647789001,-0.4837242662906647
164,127026,127029,-0.10832151770591736,-0.14511239528656006,0.9265804886817932,38.214839935302734,-19.799694061279297,-6.882876873016357,1.0679465532302856,2.522873878479004,5.060746669769287,-1.1438106298446655,0.7753143906593323,-0.5878282189369202
165,127036,127039,-0.10865693539381027,-0.06108051910996437,0.9585679173469543,-8.863067626953125,-30.09512710571289,-4.825637340545654,1.0649467706680298,2.492875337600708,5.033748149871826,-0.9545184373855591,0.9442357420921326,-0.6409289240837097
166,127046,127049,-0.007239680737257004,0.025829100981354713,0.9767289757728577,-50.35115051269531,-37.257755279541016,-4.896632194519043,1.0814459323883057,2.5123744010925293,5.0502471923828125,-0.41878703236579895,0.5372146964073181,-0.7385936975479126
167,127056,127059,0.08486758917570114,0.04972723871469498,1.0063834190368652,-76.68231964111328,-40.83995056152344,-5.6769843101501465,1.087445616722107,2.524373769760132,5.062246799468994,-0.2425009161233902,0.01743982918560505,-0.7522461414337158
168,127066,127069,0.020242279395461082,-0.0021513274405151606,1.0072249174118042,-82.95448303222656,-36.93560028076172,-5.844674110412598,1.0919454097747803,2.5288734436035156,5.072746276855469,0.28672146797180176,-1.0406992435455322,-0.8585981130599976
169,127076,127079,-0.04848281666636467,-0.010120171122252941,1.054445743560791,-73.77000427246094,-33.2420654296875,-5.86130428314209,1.0679465532302856,2.540872812271118,5.060746669769287,0.5372450351715088,-1.677776575088501,-0.8769263029098511
170,127086,127089,-0.04491439834237099,0.0028077326714992523,1.076138973236084,-47.9022331237793,-21.772586822509766,-5.421952247619629,1.0844457149505615,2.5123744010925293,5.056247234344482,0.8041253089904785,-2.280694007873535,-0.9183049201965332
171,127096,127099,-0.022067617624998093,-0.03378268703818321,1.0125118494033813,-12.119072914123535,-11.029305458068848,-4.127676486968994,1.0649467706680298,2.519873857498169,5.045747756958008,0.8296524286270142,-2.5114030838012695,-0.9344273209571838
172,127106,127109,-0.05402876064181328,-0.03426225855946541,1.013087511062622,26.794435501098633,-1.604996919631958,-2.451251268386841,1.0664466619491577,2.5033748149871826,5.041247844696045,0.8413299322128296,-2.336970329284668,-0.9459803104400635
173,127116,127119,-0.036689382046461105,-0.017566310241818428,1.0305451154708862,60.13168716430664,4.1685638427734375,-0.9829273819923401,1.0694465637207031,2.524373769760132,5.056247234344482,0.8711901903152466,-1.7178113460540771,-0.950586199760437
174,127126,127129,-0.035622768104076385,-0.04593254253268242,0.9987832307815552,80.12053680419922,6.406462669372559,-0.7044479250907898,1.072446346282959,2.518373966217041,5.06524658203125,0.8317502737045288,-1.102803111076355,-0.9716699123382568
175,127136,127139,-0.05379170551896095,-0.06411206722259521,1.0101209878921509,85.50750732421875,4.653560638427734,-0.5277129411697388,1.0769461393356323,2.5348732471466064,5.075746059417725,0.7082146406173706,-0.5095113515853882,-0.9830793142318726
176,127146,127149,-0.06916960328817368,-0.05310468003153801,1.0054270029067993,76.89323425292969,1.2913273572921753,0.46578535437583923,1.085945725440979,2.5048747062683105,5.066746711730957,0.7186082005500793,0.5494497418403625,-0.9817412495613098
177,127156,127159,0.029008209705352783,0.026904813945293427,1.014412522315979,54.235137939453125,3.0090575218200684,-0.9617878794670105,1.072446346282959,2.49137544631958,5.047247409820557,0.7337554097175598,1.0518641471862793,-0.9937509298324585
178,127166,127169,-0.01862369477748871,-0.041645731776952744,0.9816117286682129,20.891048431396484,9.032085418701172,-4.25089693069458,1.0829458236694336,2.4778759479522705,5.033748149871826,0.5406667590141296,1.4721591472625732,-0.9927988052368164
179,127176,127179,-0.005634251516312361,0.002179029630497098,1.0151296854019165,2.082923412322998,15.366473197937012,-4.5627360343933105,1.0844457149505615,2.4853756427764893,5.026248455047607,0.4589633345603943,1.41379714012146,-1.0480434894561768
180,127186,127189,0.008037555031478405,0.002913092030212283,0.9219992756843567,-18.614904403686523,10.604459762573242,-1.8933026790618896,1.0664466619491577,2.497375011444092,5.023248672485352,0.26570963859558105,1.4129657745361328,-1.071022629737854
181,127196,127199,-0.0387757308781147,-0.034857042133808136,0.950810968875885,-32.46821975708008,-0.42594364285469055,0.8923245668411255,1.0769461393356323,2.489875555038452,5.033748149871826,0.23923054337501526,1.1024186611175537,-1.0797985792160034
182,127206,127209,-0.06345181167125702,-0.03078719973564148,0.9666497707366943,-39.13862609863281,-22.56707763671875,6.158820629119873,1.0829458236694336,2.495875120162964,5.036747932434082,0.43544062972068787,0.7403113842010498,-1.057589054107666
183,127216,127219,-0.06546226143836975,-0.03779404237866402,0.9569698572158813,-43.85270690917969,-42.121036529541016,13.037040710449219,1.0919454097747803,2.5018749237060547,5.039747714996338,0.554809033870697,0.27577295899391174,-0.9613667726516724
184,127226,127229,-0.022774120792746544,-0.015518047846853733,0.9221972227096558,-46.50857925415039,-59.17342758178711,19.70597267150879,1.070946455001831,2.5108745098114014,5.048747539520264,1.3164091110229492,-0.23909254372119904,-0.802147626876831
185,127236,127239,-0.07442984730005264,-0.05695124715566635,0.9471065998077393,-46.263912200927734,-69.95227813720703,22.09880256652832,1.0934453010559082,2.521373987197876,5.062246799468994,2.080294609069824,-0.7089363932609558,-0.5897393822669983
186,127246,127249,-0.14711986482143402,-0.054911475628614426,0.9751794934272766,-42.70515441894531,-66.80486297607422,22.79222297668457,1.0889455080032349,2.540872812271118,5.0517473220825195,2.6729836463928223,-1.008780837059021,-0.3606029450893402
187,127256,127259,-0.10497301071882248,0.0241788849234581,0.9355732202529907,-43.05753707885742,-48.12847900390625,21.427806854248047,1.0964452028274536,2.5303733348846436,5.068246364593506,3.3592376708984375,-1.5681570768356323,-0.11619066447019577
188,127266,127269,-0.06099427491426468,0.01084381528198719,0.9769240021705627,-40.245811462402344,-20.096296310424805,20.048900604248047,1.111444354057312,2.515374183654785,5.074246406555176,3.4154632091522217,-1.8388539552688599,0.09346002340316772
189,127276,127279,-0.08333499729633331,0.013152964413166046,1.0283499956130981,-21.21030616760254,16.239992141723633,16.141210556030273,1.1024448871612549,2.5393729209899902,5.068246364593506,3.381889581680298,-2.3467094898223877,0.3072400689125061
190,127286,127289,-0.06173992529511452,-0.01807735674083233,1.015202283859253,10.125368118286133,56.31049346923828,12.874460220336914,1.0949451923370361,2.546872615814209,5.075746059417725,2.814598560333252,-2.376214027404785,0.4432651102542877
191,127296,127299,-0.009321924299001694,0.055727314203977585,1.0107790231704712,37.3430290222168,78.40003204345703,10.184470176696777,1.085945725440979,2.570871353149414,5.093745231628418,1.939231514930725,-1.8706674575805664,0.49721571803092957
192,127306,127309,-0.027603521943092346,0.05191690847277641,1.0103652477264404,61.802825927734375,90.11763763427734,7.067208766937256,1.0829458236694336,2.570871353149414,5.090745449066162,1.2712751626968384,-1.5674140453338623,0.5786053538322449
193,127316,127319,-0.1180841326713562,-0.044553715735673904,0.9472708702087402,70.42234802246094,81.19403076171875,2.581193685531616,1.0889455080032349,2.573871374130249,5.09974479675293,0.24643656611442566,-0.5818784236907959,0.5647516250610352
194,127326,127329,-0.10603854805231094,0.007081981282681227,0.9789075255393982,67.9358901977539,54.03232955932617,-1.0919500589370728,1.0694465637207031,2.5663716793060303,5.098245143890381,-0.3725695312023163,-0.08214180916547775,0.5954650640487671
195,127336,127339,-0.013101396150887012,0.016140207648277283,0.9840072393417358,54.89963912963867,16.58268928527832,-3.613502025604248,1.0799460411071777,2.549872398376465,5.08474588394165,-0.6433959007263184,0.6364805698394775,0.5400062799453735
196,127346,127349,-0.013648098334670067,-0.03815380111336708,1.0043669939041138,38.4410514831543,-20.92156219482422,-3.7304234504699707,1.070946455001831,2.5258736610412598,5.08474588394165,-0.5030077695846558,0.9616053104400635,0.5064472556114197
197,127356,127359,-0.1119011640548706,-0.07959427684545517,1.0007295608520508,15.836204528808594,-46.97060775756836,-3.1200737953186035,1.0799460411071777,2.5318734645843506,5.075746059417725,-0.14808325469493866,1.3203670978546143,0.4527543783187866
198,127366,127369,-0.17783182859420776,-0.0849975049495697,0.9806155562400818,-9.217170715332031,-59.990814208984375,-3.1981565952301025,1.0784460306167603,2.5273735523223877,5.089245319366455,0.42874863743782043,1.1313077211380005,0.4335530698299408
199,127376,127379,-0.19014112651348114,-0.05723407119512558,1.0141289234161377,-26.242359161376953,-63.139286041259766,-4.481210708618164,1.0919454097747803,2.5378730297088623,5.081745624542236,1.1120766401290894,0.8982212543487549,0.3860708177089691
200,127386,127389,-0.05623612925410271,-0.01500213798135519,1.0579910278320312,-34.49287796020508,-50.79898452758789,-4.997884273529053,1.0934453010559082,2.5393729209899902,5.089245319366455,1.6369909048080444,0.611880362033844,0.3311178386211395
201,127396,127399,-0.03922749683260918,-0.043060481548309326,1.0577958822250366,-34.546627044677734,-31.937057495117188,-5.387025356292725,1.0994449853897095,2.5363731384277344,5.086245536804199,2.047257423400879,0.2134212851524353,0.28475210070610046
202,127406,127409,-0.056644923985004425,-0.04364245384931564,1.0541582107543945,-32.03900146484375,-6.75555944442749,-5.023012161254883,1.0934453010559082,2.542372941970825,5.071246147155762,2.024477958679199,-0.09603718668222427,0.23310570418834686
203,127416,127419,-0.08054178208112717,-0.06896906346082687,1.0540300607681274,-16.946882247924805,16.914608001708984,-1.344250202178955,1.1024448871612549,2.5273735523223877,5.068246364593506,1.94046151638031,-0.34135350584983826,0.19148951768875122
204,127426,127429,-0.1479281634092331,-0.07380779832601547,1.1035469770431519,3.1591577529907227,31.867712020874023,2.4152708053588867,1.0799460411071777,2.5258736610412598,5.075746059417725,1.6095448732376099,-0.39865735173225403,0.19530579447746277
205,127436,127439,-0.07553260773420334,-0.05832473561167717,1.0614525079727173,16.700469970703125,27.74681854248047,2.1373538970947266,1.070946455001831,2.522873878479004,5.063746929168701,1.2296990156173706,-0.128033846616745,0.19317111372947693
206,127446,127449,0.008787035942077637,-0.09674905985593796,0.9566503167152405,22.220766067504883,10.96235179901123,0.39052310585975647,1.0844457149505615,2.5273735523223877,5.06524658203125,1.1549882888793945,0.011297070421278477,0.2177252620458603
207,127456,127459,0.04548265039920807,-0.11302120238542557,0.9506654143333435,18.646347045898438,-4.120192527770996,-1.138742446899414,1.087445616722107,2.515374183654785,5.062246799468994,1.1957592964172363,0.2194051891565323,0.21318967640399933
208,127466,127469,0.06498143076896667,-0.09147704392671585,0.9563450217247009,19.840160369873047,-16.237804412841797,-1.4077216386795044,1.085945725440979,2.492875337600708,5.054747104644775,1.4518346786499023,0.3170713782310486,0.2116464078426361
209,127476,127479,-0.010318370535969734,-0.028014127165079117,0.9472476243972778,29.85515785217285,-23.223522186279297,-0.3444734215736389,1.087445616722107,2.5033748149871826,5.047247409820557,1.68655526638031,0.7455452084541321,0.16642986238002777
210,127486,127489,-0.0762137845158577,-0.06291364133358002,0.984606146812439,39.13451385498047,-19.705209732055664,3.44716739654541,1.0844457149505615,2.521373987197876,5.062246799468994,1.8540229797363281,0.9887403845787048,0.19402816891670227
211,127496,127499,0.0031057328451424837,0.007586040534079075,1.0483100414276123,36.16712951660156,-7.82985258102417,7.2957258224487305,1.0799460411071777,2.519873857498169,5.072746276855469,1.9469523429870605,1.4132071733474731,0.23761935532093048
212,127506,127509,0.04529483988881111,0.05872192606329918,1.0278080701828003,28.70018196105957,4.61402702331543,9.068918228149414,1.0799460411071777,2.522873878479004,5.063746929168701,1.975236177444458,1.6045359373092651,0.3468233346939087
213,127516,127519,0.015842748805880547,0.062168072909116745,0.9914065599441528,13.463751792907715,13.671366691589355,9.130022048950195,1.0919454097747803,2.5108745098114014,5.054747104644775,1.8221136331558228,1.8869363069534302,0.4293111562728882
214,127526,127529,0.08993187546730042,0.07302183657884598,1.0114105939865112,-6.632103443145752,21.409435272216797,9.373281478881836,1.085945725440979,2.5108745098114014,5.057746887207031,1.6128101348876953,1.8769727945327759,0.538265585899353
215,127536,127539,0.08685725182294846,0.01758064143359661,0.9657599329948425,-32.298465728759766,19.657976150512695,9.129016876220703,1.085945725440979,2.5078744888305664,5.075746059417725,1.3786377906799316,1.5474976301193237,0.6653619408607483
216,127546,127549,0.09973369538784027,0.015552637167274952,0.8987126350402832,-59.16322708129883,8.87576961517334,8.487767219543457,1.1009448766708374,2.5318734645843506,5.069746494293213,1.3289952278137207,1.0568920373916626,0.7742577791213989
217,127556,127559,-0.008103535510599613,-0.0054510473273694515,0.8890321254730225,-71.57247161865234,-11.336532592773438,7.631058692932129,1.0889455080032349,2.540872812271118,5.08474588394165,1.3911068439483643,0.2575952410697937,0.8889337778091431
218,127566,127569,-0.0175632257014513,0.031000938266515732,0.8790310621261597,-67.614501953125,-29.753860473632812,6.753275394439697,1.0964452028274536,2.5363731384277344,5.083245754241943,1.5773977041244507,-0.28906482458114624,0.9261077642440796
219,127576,127579,-0.009467740543186665,0.10316099971532822,0.9500021934509277,-48.285648345947266,-32.180259704589844,5.295199871063232,1.0934453010559082,2.5393729209899902,5.0802459716796875,2.114938735961914,-0.8490735292434692,1.0112004280090332
220,127586,127589,0.021707776933908463,0.07930634170770645,1.015894889831543,-16.25944709777832,-20.04262351989746,4.077976703643799,1.0979450941085815,2.543872833251953,5.075746059417725,2.2332067489624023,-1.1190935373306274,1.0268945693969727
221,127596,127599,-0.0855279490351677,0.0048899780958890915,1.0848735570907593,22.589351654052734,9.414796829223633,4.052323341369629,1.0784460306167603,2.5393729209899902,5.086245536804199,2.257038116455078,-0.9983780980110168,1.0441933870315552
222,127606,127609,-0.09319359809160233,-0.07277124375104904,1.07086980342865,53.799983978271484,40.56611633300781,2.130524158477783,1.087445616722107,2.542372941970825,5.077246189117432,2.004345417022705,-0.5266393423080444,1.0498378276824951
223,127616,127619,-0.03536232188344002,-0.07717737555503845,1.0150290727615356,67.16130828857422,65.82643127441406,-0.17432352900505066,1.087445616722107,2.542372941970825,5.098245143890381,1.2957735061645508,0.222683385014534,1.0188498497009277
224,127626,127629,-0.0184031892567873,-0.07657062262296677,0.9835867285728455,62.491634368896484,71.18952178955078,-1.7707183361053467,1.0769461393356323,2.549872398376465,5.111744403839111,0.6499410271644592,0.7970089316368103,1.0384554862976074
225,127636,127639,-0.012354460544884205,-0.07552319020032883,1.0525041818618774,45.8623046875,61.38499450683594,-2.4614689350128174,1.0679465532302856,2.549872398376465,5.093745231628418,-0.08070776611566544,1.3827613592147827,1.0211503505706787
226,127646,127649,-0.020566795021295547,-0.05026835948228836,1.0332096815109253,20.283031463623047,38.9658317565918,-2.973839044570923,1.0784460306167603,2.5333733558654785,5.077246189117432,-0.5044590830802917,1.8050297498703003,0.9949741959571838
227,127656,127659,0.037314094603061676,0.044526755809783936,1.0268292427062988,-2.10270357131958,19.86282730102539,-2.352905750274658,1.0754462480545044,2.524373769760132,5.062246799468994,-0.8778426647186279,1.842029333114624,0.9847878217697144
228,127666,127669,0.023905890062451363,0.09069984406232834,1.0584614276885986,-20.978519439697266,-0.7606202363967896,-1.9205451011657715,1.085945725440979,2.522873878479004,5.069746494293213,-0.922498881816864,1.673880696296692,0.9727465510368347
229,127676,127679,0.024252263829112053,0.007556225638836622,1.024291753768921,-27.287273406982422,-23.48786163330078,-0.3640337884426117,1.085945725440979,2.519873857498169,5.069746494293213,-0.682684600353241,1.3267821073532104,0.9784758687019348
230,127686,127689,-0.02889847569167614,-0.05140583962202072,1.0055826902389526,-28.809507369995117,-38.878658294677734,0.3038645386695862,1.0814459323883057,2.5273735523223877,5.086245536804199,-0.43703988194465637,1.1404889822006226,0.9585603475570679
231,127696,127699,-0.10569051653146744,-0.13674090802669525,0.9804486036300659,-32.428253173828125,-41.487579345703125,0.24457935988903046,1.0799460411071777,2.540872812271118,5.075746059417725,0.1584581583738327,0.6276251673698425,0.9899079203605652
232,127706,127709,-0.061281777918338776,-0.11987006664276123,1.0078259706497192,-37.3729248046875,-34.96940994262695,-0.7431239485740662,1.0904453992843628,2.5303733348846436,5.074246406555176,0.4064222276210785,0.3265365958213806,0.9649726152420044
233,127716,127719,-0.096744604408741,-0.07386162132024765,1.0017420053482056,-38.78346252441406,-21.479511260986328,-1.2027637958526611,1.085945725440979,2.522873878479004,5.08474588394165,0.7754716873168945,-0.15946973860263824,0.965331494808197
234,127726,127729,-0.08388623595237732,0.012807676568627357,1.0255149602890015,-41.214271545410156,-8.65766429901123,-2.036458730697632,1.0964452028274536,2.545372724533081,5.086245536804199,0.9873001575469971,-0.46337437629699707,0.9555347561836243
235,127736,127739,-0.10895546525716782,-0.0015092921676114202,1.0218052864074707,-38.66012191772461,1.7467138767242432,-0.7471867799758911,1.0814459323883057,2.5303733348846436,5.071246147155762,0.9945435523986816,-0.8384807109832764,0.9372078776359558
236,127746,127749,-0.1556626558303833,-0.04257166385650635,0.9901521801948547,-33.66291809082031,11.897043228149414,0.9336360692977905,1.073946237564087,2.543872833251953,5.08474588394165,0.8288445472717285,-1.154889464378357,0.9247150421142578
237,127756,127759,-0.19265176355838776,-0.05227315425872803,1.0409008264541626,-26.528888702392578,14.576592445373535,2.6774559020996094,1.072446346282959,2.5363731384277344,5.062246799468994,0.5820612907409668,-1.510844111442566,0.9284431338310242
238,127766,127769,-0.12317027151584625,-0.06485447287559509,1.0297974348068237,-14.799942016601562,9.100740432739258,4.822902202606201,1.0904453992843628,2.542372941970825,5.074246406555176,0.3262867331504822,-1.7777186632156372,0.9535779356956482
239,127776,127779,-0.0405086986720562,-0.008786247111856937,1.0074080228805542,-2.0049288272857666,5.132589817047119,5.40263557434082,1.0754462480545044,2.5273735523223877,5.068246364593506,0.4439399242401123,-1.6738736629486084,1.0109853744506836
240,127786,127789,-0.0119248665869236,0.010129110887646675,1.0620054006576538,5.123610019683838,-3.630922317504883,4.837460994720459,1.0829458236694336,2.519873857498169,5.063746929168701,0.4327111840248108,-1.7110384702682495,1.063610553741455
241,127796,127799,0.044563233852386475,0.01896739937365055,1.0878359079360962,12.264571189880371,-11.286430358886719,0.7905232310295105,1.087445616722107,2.5303733348846436,5.059247016906738,0.5474885702133179,-1.5486329793930054,1.1010699272155762
242,127806,127809,-0.030920276418328285,-0.009617620147764683,1.0946712493896484,24.922985076904297,-6.765162467956543,-7.909783840179443,1.0829458236694336,2.5318734645843506,5.075746059417725,0.6999160051345825,-1.3872262239456177,1.0700252056121826
243,127816,127819,-0.026867883279919624,-0.1560109704732895,1.0398105382919312,38.1486930847168,6.923623561859131,-13.057963371276855,1.0814459323883057,2.542372941970825,5.077246189117432,0.6044376492500305,-1.0863796472549438,0.9728057384490967
244,127826,127829,-0.07394251972436905,-0.18756452202796936,1.0053133964538574,54.82319641113281,23.062131881713867,-16.3135929107666,1.0829458236694336,2.5318734645843506,5.066746711730957,0.3459441661834717,-0.5381285548210144,0.8369392156600952
245,127836,127839,-0.0742228776216507,-0.09946347028017044,1.0146172046661377,65.36302947998047,37.58504867553711,-18.300745010375977,1.0799460411071777,2.543872833251953,5.087745666503906,0.060763999819755554,0.025432392954826355,0.661686897277832
246,127846,127849,-0.041471585631370544,-0.021014254540205002,0.9993254542350769,63.63181686401367,44.80060958862305,-17.9559268951416,1.0769461393356323,2.5588719844818115,5.087745666503906,-0.5467564463615417,0.7339636087417603,0.502227783203125
247,127856,127859,0.024876659736037254,-0.08495926111936569,0.9761534333229065,47.846736907958984,43.60945129394531,-16.45271110534668,1.0784460306167603,2.542372941970825,5.086245536804199,-0.8945040106773376,1.2176953554153442,0.3189547061920166
248,127866,127869,0.05710507556796074,-0.0698627308011055,1.0235049724578857,24.09956169128418,29.430747985839844,-13.154777526855469,1.0694465637207031,2.542372941970825,5.071246147155762,-1.11817467212677,1.5080463886260986,0.154482901096344
249,127876,127879,-0.028479700908064842,-0.12301760911941528,0.9894060492515564,0.6455018520355225,8.775775909423828,-10.510624885559082,1.0829458236694336,2.519873857498169,5.066746711730957,-1.123619556427002,1.520247220993042,0.015209273435175419
250,127886,127889,-0.09234107285737991,-0.044805023819208145,1.0372443199157715,-26.402137756347656,-16.95359230041504,-7.765308856964111,1.0769461393356323,2.5288734436035156,5.066746711730957,-1.2002230882644653,1.3610639572143555,-0.07987608015537262
251,127896,127899,-0.05718878284096718,-0.007360309362411499,1.0193467140197754,-44.34780502319336,-22.36736488342285,-6.206395626068115,1.0784460306167603,2.5333733558654785,5.074246406555176,-1.0357751846313477,0.9136816263198853,-0.16680295765399933
252,127906,127909,-0.03872626647353172,-0.03375823423266411,1.006885290145874,-51.83842468261719,-20.029760360717773,-4.1172637939453125,1.0784460306167603,2.545372724533081,5.0802459716796875,-0.7198660373687744,0.4119211435317993,-0.22623945772647858
253,127916,127919,-0.03250126540660858,0.04625968635082245,1.0672415494918823,-49.47795104980469,-19.40449333190918,-3.079495668411255,1.073946237564087,2.546872615814209,5.08474588394165,-0.6456926465034485,-0.12088003009557724,-0.2665107548236847
254,127926,127929,-0.07515702396631241,0.047787055373191833,1.0984174013137817,-38.70793151855469,-18.004255294799805,-2.919158697128296,1.0814459323883057,2.545372724533081,5.077246189117432,-0.3563392758369446,-0.6029748320579529,-0.2965899705886841
255,127936,127939,-0.06361723691225052,0.026292115449905396,1.088964819908142,-17.67709732055664,-12.121105194091797,-2.9949100017547607,1.087445616722107,2.542372941970825,5.077246189117432,-0.20499081909656525,-0.7260488271713257,-0.2955015003681183
256,127946,127949,-0.11515559256076813,-0.10104536265134811,1.0451922416687012,11.602876663208008,-1.3077354431152344,-1.3945754766464233,1.085945725440979,2.5318734645843506,5.063746929168701,-0.12610888481140137,-0.6693935394287109,-0.29869869351387024
257,127956,127959,-0.07883751392364502,-0.06276340782642365,1.0221723318099976,33.140708923339844,11.861055374145508,1.4743541479110718,1.0814459323883057,2.5123744010925293,5.06524658203125,-0.22326971590518951,-0.34150245785713196,-0.28046584129333496
258,127966,127969,0.0007321372395381331,-0.028414322063326836,1.010927438735962,37.39968490600586,22.45293617248535,3.1143078804016113,1.070946455001831,2.5288734436035156,5.063746929168701,-0.5188378691673279,-0.030154913663864136,-0.2672310173511505
259,127976,127979,0.08916882425546646,0.07441271841526031,1.0114941596984863,30.10047721862793,25.394433975219727,3.399415969848633,1.0799460411071777,2.5318734645843506,5.0787458419799805,-0.824647843837738,0.3871424198150635,-0.21996863186359406
260,127986,127989,0.08824026584625244,0.10334046930074692,0.9292006492614746,10.201584815979004,17.584474563598633,1.28761887550354,1.0769461393356323,2.5108745098114014,5.069746494293213,-0.9548763036727905,0.4401193857192993,-0.2286289632320404
261,127996,127999,0.08798336237668991,0.10590337961912155,0.9393879175186157,-15.032696723937988,1.1092357635498047,-1.0509713888168335,1.072446346282959,2.515374183654785,5.053247451782227,-1.0988143682479858,0.38967403769493103,-0.23447902500629425
262,128006,128009,0.11191831529140472,0.08544648438692093,0.9880933165550232,-32.71278762817383,-16.982994079589844,-2.956371307373047,1.085945725440979,2.5078744888305664,5.042747974395752,-0.9419987201690674,0.05959172174334526,-0.2750704884529114
263,128016,128019,0.07371430844068527,0.02632184326648712,1.014418363571167,-38.41301345825195,-28.96729278564453,-4.820090293884277,1.072446346282959,2.5123744010925293,5.044247627258301,-0.8341805338859558,-0.2391911894083023,-0.2985042631626129
264,128026,128029,0.029970284551382065,-0.04347981885075569,0.9857115149497986,-29.785396575927734,-39.921566009521484,-5.252560138702393,1.0919454097747803,2.522873878479004,5.045747756958008,-0.537274956703186,-0.5764596462249756,-0.34098753333091736
265,128036,128039,-0.06979668140411377,-0.061243936419487,1.0594542026519775,-14.055870056152344,-44.710975646972656,-5.238487720489502,1.085945725440979,2.522873878479004,5.060746669769287,0.021298399195075035,-0.7678033113479614,-0.38068681955337524
266,128046,128049,-0.052926234900951385,-0.08937831223011017,1.0648958683013916,-2.0799388885498047,-33.961124420166016,-6.115794658660889,1.0799460411071777,2.5288734436035156,5.066746711730957,0.5304908752441406,-0.8717443943023682,-0.43325477838516235
267,128056,128059,-0.06771492213010788,-0.08752971142530441,1.0238933563232422,7.760705471038818,-20.07731056213379,-8.574676513671875,1.0814459323883057,2.518373966217041,5.059247016906738,0.4870463013648987,-0.8974595069885254,-0.5020614266395569
268,128066,128069,-0.08704107999801636,0.012047195807099342,1.0477476119995117,23.313674926757812,-12.037332534790039,-8.923298835754395,1.0754462480545044,2.524373769760132,5.059247016906738,0.7194357514381409,-0.6198768019676208,-0.5632264614105225
269,128076,128079,-0.0898018330335617,-0.018323682248592377,1.044127106666565,41.34513854980469,4.583443641662598,-8.147119522094727,1.0754462480545044,2.5123744010925293,5.056247234344482,0.6989127397537231,-0.3995811343193054,-0.6654854416847229
270,128086,128089,-0.05913827195763588,-0.033050887286663055,1.0842708349227905,50.50337219238281,22.552963256835938,-8.211997032165527,1.0754462480545044,2.515374183654785,5.053247451782227,0.3314141035079956,0.35115835070610046,-0.6927096843719482
271,128096,128099,-0.07951300591230392,-0.1167772114276886,1.067982792854309,48.28190231323242,24.608766555786133,-9.178732872009277,1.0664466619491577,2.521373987197876,5.059247016906738,0.16154694557189941,0.5815975069999695,-0.8208690881729126
272,128106,128109,-0.13114458322525024,-0.07324514538049698,1.1056385040283203,46.82075500488281,7.928883075714111,-6.596738338470459,1.0799460411071777,2.516874074935913,5.0517473220825195,-0.08841462433338165,1.2910469770431519,-0.8708916306495667
273,128116,128119,-0.160134419798851,-0.0805332362651825,1.0679665803909302,40.91230392456055,-12.154068946838379,1.6223235130310059,1.072446346282959,2.494375228881836,5.044247627258301,0.012914984486997128,1.44931161403656,-0.9502058625221252
274,128126,128129,-0.09414271265268326,-0.07771940529346466,1.0107966661453247,22.032695770263672,-23.609172821044922,9.529603958129883,1.0769461393356323,2.486875534057617,5.045747756958008,0.4261820912361145,1.9841911792755127,-0.8817941546440125
275,128136,128139,-0.13430099189281464,-0.10914114862680435,0.9304305911064148,-1.024137258529663,-23.5748291015625,13.172994613647461,1.0919454097747803,2.4808759689331055,5.0277485847473145,0.5637403130531311,1.9992647171020508,-0.7953806519508362
276,128146,128149,-0.16519393026828766,-0.12364380806684494,0.8972969055175781,-30.713045120239258,-16.793701171875,14.50350570678711,1.0754462480545044,2.4763760566711426,5.026248455047607,0.8460716009140015,1.7969725131988525,-0.667423665523529
277,128156,128159,-0.08707361668348312,-0.12213125824928284,0.8631496429443359,-58.00027084350586,-7.863186359405518,14.933059692382812,1.087445616722107,2.49137544631958,5.041247844696045,1.0007023811340332,1.3979201316833496,-0.5190579295158386
278,128166,128169,-0.07715757191181183,-0.06581448763608932,0.9231788516044617,-73.35853576660156,-2.6214797496795654,12.759896278381348,1.0844457149505615,2.5123744010925293,5.0502471923828125,1.0966142416000366,0.5790197849273682,-0.3842272162437439
279,128176,128179,-0.0022667585872113705,0.04603245109319687,0.9605909585952759,-68.99445343017578,1.5162181854248047,12.485045433044434,1.0964452028274536,2.515374183654785,5.038248062133789,1.1041697263717651,-0.09990349411964417,-0.25656887888908386
280,128186,128189,-0.01982792280614376,0.05545814707875252,0.9650879502296448,-51.13008499145508,0.151866152882576,12.515146255493164,1.0934453010559082,2.524373769760132,5.047247409820557,1.0920475721359253,-0.7510536909103394,-0.13001777231693268
281,128196,128199,-0.08229532837867737,-0.012168549932539463,0.9978559017181396,-22.561294555664062,-1.6328052282333374,9.5780029296875,1.0979450941085815,2.516874074935913,5.057746887207031,1.1770994663238525,-1.0691190958023071,-0.00740205030888319
282,128206,128209,-0.13322684168815613,-0.012234065681695938,1.0357483625411987,7.2787652015686035,-7.305844306945801,4.999589443206787,1.087445616722107,2.524373769760132,5.056247234344482,1.2679578065872192,-0.9769220948219299,0.06942000240087509
283,128216,128219,-0.060729317367076874,0.029114356264472008,0.9610444903373718,34.97844696044922,-7.74009370803833,5.809875965118408,1.0904453992843628,2.5273735523223877,5.074246406555176,1.4039735794067383,-0.778794527053833,0.12946468591690063
284,128226,128229,-0.04585875943303108,0.07651016116142273,0.9818732142448425,53.308021545410156,-2.891570806503296,3.156755208969116,1.0844457149505615,2.5393729209899902,5.071246147155762,1.4673646688461304,-0.15321168303489685,0.17154192924499512
285,128236,128239,-0.07494661957025528,0.04712831974029541,1.0166295766830444,58.16069412231445,9.54963207244873,2.7127199172973633,1.0814459323883057,2.5303733348846436,5.074246406555176,1.363014578819275,0.34721148014068604,0.20057716965675354
286,128246,128249,-0.04268665239214897,0.03487354516983032,1.0459024906158447,54.15726089477539,20.486177444458008,2.8538401126861572,1.0889455080032349,2.5288734436035156,5.081745624542236,1.2215774059295654,0.9718532562255859,0.22785018384456635
287,128256,128259,-0.04475339874625206,0.006566810421645641,1.070282220840454,40.846656799316406,28.47063446044922,3.837116003036499,1.0889455080032349,2.516874074935913,5.0787458419799805,1.1366690397262573,1.2868287563323975,0.275445818901062
288,128266,128269,-0.05254025012254715,-0.014790697023272514,1.041446566581726,22.5223331451416,28.23189926147461,6.17362642288208,1.0799460411071777,2.522873878479004,5.054747104644775,0.638001024723053,1.69307279586792,0.32423266768455505
289,128276,128279,-0.03434772044420242,0.0036707930266857147,0.9887480139732361,5.682810306549072,21.145408630371094,7.583876132965088,1.0679465532302856,2.4988749027252197,5.057746887207031,0.44316941499710083,1.8885693550109863,0.39991432428359985
290,128286,128289,0.03313952311873436,0.038153402507305145,1.0465890169143677,-12.339816093444824,5.790858268737793,10.333120346069336,1.0784460306167603,2.4823758602142334,5.0502471923828125,0.4440368413925171,1.7076315879821777,0.5100573301315308
291,128296,128299,0.05784972012042999,-0.005358237307518721,1.0833208560943604,-25.69453239440918,-13.494640350341797,13.141580581665039,1.0829458236694336,2.495875120162964,5.045747756958008,0.45508795976638794,1.4370815753936768,0.6337007880210876
292,128306,128309,0.014993291348218918,-0.012598812580108643,1.0369046926498413,-34.090396881103516,-24.177345275878906,13.477460861206055,1.0919454097747803,2.5018749237060547,5.048747539520264,0.568999707698822,1.2621862888336182,0.7470903992652893
293,128316,128319,-0.030764615163207054,0.0019228323362767696,1.039206862449646,-31.328346252441406,-28.955310821533203,14.225029945373535,1.0829458236694336,2.5108745098114014,5.054747104644775,0.9860842823982239,0.8549037575721741,0.9029355049133301
294,128326,128329,-0.058222606778144836,0.03503819555044174,1.079838752746582,-25.82005500793457,-35.0452995300293,12.501626968383789,1.0814459323883057,2.5063745975494385,5.062246799468994,1.4121265411376953,0.4009343087673187,1.0622599124908447
295,128336,128339,0.023250237107276917,0.08490648120641708,1.0960301160812378,-26.299129486083984,-35.04759216308594,7.21427059173584,1.087445616722107,2.497375011444092,5.047247409820557,1.880244493484497,0.12100518494844437,1.1802366971969604
296,128346,128349,0.06210993602871895,-0.030822014436125755,1.0257008075714111,-23.719913482666016,-15.980663299560547,3.132755994796753,1.0889455080032349,2.5108745098114014,5.048747539520264,2.138406276702881,-0.07708800584077835,1.221993327140808
297,128356,128359,-0.025524398311972618,-0.056344348937273026,0.9862447381019592,-21.885812759399414,14.326021194458008,-0.9314544796943665,1.0769461393356323,2.5078744888305664,5.045747756958008,1.915679931640625,-0.3792991042137146,1.2163012027740479
298,128366,128369,-0.052406907081604004,-0.0351635217666626,0.9514380097389221,-15.430970191955566,43.80937194824219,-4.639403820037842,1.0829458236694336,2.489875555038452,5.024748802185059,1.5673346519470215,-0.31611713767051697,1.1502436399459839
299,128376,128379,-0.055456630885601044,-0.03985772281885147,0.8775027990341187,-7.321214199066162,66.09140014648438,-8.432395935058594,1.0829458236694336,2.492875337600708,5.0277485847473145,0.8799357414245605,-0.5109100341796875,1.0775599479675293
300,128386,128389,-0.0521814189851284,0.04683893546462059,0.9163837432861328,10.8084135055542,85.80528259277344,-8.46900749206543,1.0814459323883057,2.5003750324249268,5.053247451782227,0.4096955358982086,-0.4547744691371918,1.0004346370697021
301,128396,128399,-0.018410958349704742,0.1349259316921234,0.9766879081726074,23.935453414916992,99.0359115600586,-9.097679138183594,1.0679465532302856,2.516874074935913,5.0517473220825195,-0.7555924654006958,-0.14432385563850403,0.8782727122306824
302,128406,128409,0.04054764285683632,0.12858380377292633,0.945725679397583,30.774457931518555,99.16402435302734,-9.833924293518066,1.0619468688964844,2.522873878479004,5.0517473220825195,-1.3890727758407593,0.154802605509758,0.7961323261260986
303,128416,128419,0.10108698159456253,0.10698450356721878,0.9795125126838684,38.64952850341797,72.10706329345703,-8.79767894744873,1.0664466619491577,2.5273735523223877,5.071246147155762,-2.4432244300842285,0.5718895792961121,0.6950526237487793
304,128426,128429,0.11983338743448257,0.08945556730031967,1.0120140314102173,40.54509735107422,38.371826171875,-5.762402057647705,1.0529472827911377,2.5048747062683105,5.042747974395752,-2.8253695964813232,0.920222818851471,0.6338436007499695
305,128436,128439,0.022678207606077194,-0.017702659592032433,0.9604455232620239,26.650789260864258,0.009527546353638172,-1.4958242177963257,1.0589470863342285,2.5048747062683105,5.054747104644775,-2.9979171752929688,1.2218749523162842,0.6001166701316833
306,128446,128449,-0.05243722349405289,-0.019228963181376457,0.9759315848350525,3.2087185382843018,-29.315839767456055,3.158658504486084,1.0589470863342285,2.4988749027252197,5.042747974395752,-2.6993017196655273,1.2154020071029663,0.5970187783241272
307,128456,128459,-0.03673446178436279,-0.05945596843957901,0.9410424828529358,-26.52666664123535,-50.32940673828125,5.450283527374268,1.0544472932815552,2.497375011444092,5.038248062133789,-2.0838544368743896,0.9866902232170105,0.6285107731819153
308,128466,128469,-0.049186546355485916,-0.07143625617027283,0.935671865940094,-61.03165054321289,-62.74000930786133,2.8096864223480225,1.073946237564087,2.5108745098114014,5.045747756958008,-1.702538251876831,0.5776163935661316,0.6585605144500732
309,128476,128479,-0.029042288661003113,-0.014623827300965786,0.9977572560310364,-82.56243133544922,-56.666927337646484,-1.5976272821426392,1.072446346282959,2.5063745975494385,5.06524658203125,-0.9930881857872009,-0.36951562762260437,0.6332452893257141
310,128486,128489,-0.043705254793167114,-0.03150637447834015,1.0132981538772583,-81.59668731689453,-41.13423156738281,-4.985838890075684,1.073946237564087,2.516874074935913,5.066746711730957,-0.5671380162239075,-0.938556432723999,0.6515873074531555
311,128496,128499,-0.05811544880270958,-0.03452548757195473,1.026004433631897,-67.74263000488281,-19.948549270629883,-9.229501724243164,1.0814459323883057,2.5363731384277344,5.074246406555176,-0.22611001133918762,-1.7379900217056274,0.5841093063354492
312,128506,128509,-0.03451520949602127,-0.03769814968109131,0.9726775884628296,-36.99420928955078,8.542153358459473,-11.987296104431152,1.0784460306167603,2.5333733558654785,5.068246364593506,-0.4392487108707428,-2.1633591651916504,0.4914591908454895
313,128516,128519,-0.053014468401670456,-0.04464412108063698,0.9868448972702026,3.83699893951416,31.159252166748047,-13.503491401672363,1.0889455080032349,2.5378730297088623,5.054747104644775,-0.624305784702301,-2.2479546070098877,0.37747424840927124
314,128526,128529,-0.04871511459350586,-0.05332319810986519,0.9992532134056091,41.397647857666016,44.98783493041992,-14.655811309814453,1.073946237564087,2.5378730297088623,5.054747104644775,-1.1752877235412598,-1.913889765739441,0.2508623003959656
315,128536,128539,-0.04308595135807991,-0.06151249259710312,0.9855526685714722,71.70204162597656,44.266990661621094,-16.164997100830078,1.0649467706680298,2.5378730297088623,5.075746059417725,-1.6635279655456543,-1.2546024322509766,0.10741221904754639
316,128546,128549,-0.0393349826335907,-0.06835681200027466,0.9897914528846741,93.71125030517578,30.485157012939453,-15.37733268737793,1.070946455001831,2.5558722019195557,5.090745449066162,-1.8544272184371948,-0.46994462609291077,-0.08360530436038971
317,128556,128559,-0.041160307824611664,-0.02168869785964489,1.0179400444030762,101.28142547607422,14.019462585449219,-11.465310096740723,1.0634467601776123,2.575371265411377,5.101244926452637,-2.084625482559204,0.6876757144927979,-0.18267764151096344
318,128566,128569,-0.04968734830617905,-0.058848876506090164,0.9829190373420715,83.11853790283203,9.293929100036621,-3.9568886756896973,1.0634467601776123,2.5603718757629395,5.095245361328125,-2.1360673904418945,1.322304368019104,-0.3462202548980713
319,128576,128579,-0.026030411943793297,-0.023745955899357796,1.004547357559204,43.6235466003418,9.636722564697266,0.2558949291706085,1.0664466619491577,2.5123744010925293,5.06524658203125,-2.1900360584259033,2.1380558013916016,-0.32850199937820435
320,128586,128589,-0.048407599329948425,-0.034170426428318024,1.0036399364471436,-16.140016555786133,-2.1148314476013184,2.8090553283691406,1.0664466619491577,2.515374183654785,5.071246147155762,-2.133729934692383,2.0105369091033936,-0.4024023711681366
321,128596,128599,-0.02998070977628231,-0.05367403104901314,0.9707313776016235,-63.002044677734375,-11.915824890136719,4.752969264984131,1.0904453992843628,2.5303733348846436,5.074246406555176,-2.049487352371216,1.489227056503296,-0.41189393401145935
322,128606,128609,-0.09526868164539337,-0.07490353286266327,0.9864927530288696,-91.72199249267578,-19.997243881225586,7.0252685546875,1.0664466619491577,2.545372724533081,5.071246147155762,-1.8018478155136108,0.6299937963485718,-0.38219887018203735
323,128616,128619,-0.09471610188484192,-0.04645424708724022,0.9923036098480225,-99.10133361816406,-26.579490661621094,11.27609634399414,1.073946237564087,2.5528724193573,5.08474588394165,-1.4549338817596436,-0.6244578957557678,-0.38252919912338257
324,128626,128629,-0.04601951688528061,-0.014199740253388882,0.9995425939559937,-87.07723236083984,-34.17207336425781,14.144512176513672,1.073946237564087,2.549872398376465,5.072746276855469,-1.066870093345642,-1.272972583770752,-0.15024010837078094
325,128636,128639,-0.0392720103263855,-0.02326373942196369,0.9957448840141296,-63.77709197998047,-35.09046936035156,15.440153121948242,1.0919454097747803,2.5348732471466064,5.060746669769287,-0.7522266507148743,-2.1418251991271973,-0.021441200748085976
326,128646,128649,-0.03419932350516319,0.0005023090052418411,1.0599085092544556,-25.934669494628906,-25.57278823852539,17.45285987854004,1.0829458236694336,2.5348732471466064,5.057746887207031,-0.5302839279174805,-2.4556009769439697,0.20578843355178833
327,128656,128659,-0.044145163148641586,-0.019157055765390396,1.0258461236953735,24.115867614746094,0.22107797861099243,21.50301742553711,1.0919454097747803,2.5258736610412598,5.060746669769287,-0.41533979773521423,-2.375060796737671,0.43516457080841064
328,128666,128669,-0.032069455832242966,-0.035330262035131454,0.9784632325172424,51.74006652832031,20.046855926513672,23.359216690063477,1.085945725440979,2.5378730297088623,5.075746059417725,-0.6638842821121216,-1.9745395183563232,0.673265278339386
329,128676,128679,-0.03464360162615776,-0.05681490898132324,0.9653648734092712,58.11459732055664,31.300369262695312,22.723588943481445,1.0619468688964844,2.540872812271118,5.066746711730957,-1.1618294715881348,-1.2507880926132202,0.9680549502372742
330,128686,128689,-0.02150292694568634,-0.04579586163163185,0.9569081664085388,44.91998291015625,27.525484085083008,20.348846435546875,1.0649467706680298,2.522873878479004,5.063746929168701,-1.3099021911621094,-0.9118520021438599,1.1006745100021362
331,128696,128699,-0.03151401877403259,-0.04462191462516785,0.9529936909675598,19.659381866455078,14.761707305908203,16.202810287475586,1.0754462480545044,2.5123744010925293,5.056247234344482,-1.5170507431030273,-0.4822431206703186,1.3054970502853394
332,128706,128709,0.013355355709791183,-0.032027117908000946,0.9432055354118347,-3.7082438468933105,3.286888360977173,11.634254455566406,1.0799460411071777,2.5138742923736572,5.048747539520264,-1.5828001499176025,-0.40517058968544006,1.439468264579773
333,128716,128719,-0.009831679984927177,-0.016251593828201294,0.9640332460403442,-14.825235366821289,-4.709346771240234,8.97437572479248,1.073946237564087,2.516874074935913,5.048747539520264,-1.578605055809021,-0.5951589345932007,1.5129938125610352
334,128726,128729,0.0005189342191442847,-0.07067354768514633,0.9475085139274597,-10.956859588623047,-10.33027172088623,9.789875984191895,1.0619468688964844,2.5048747062683105,5.048747539520264,-1.457147240638733,-0.8032872080802917,1.5801348686218262
335,128736,128739,-0.004832289647310972,-0.05295059084892273,0.955172061920166,-0.46212294697761536,-12.462642669677734,11.28138542175293,1.0754462480545044,2.5033748149871826,5.0502471923828125,-1.2860867977142334,-0.8554865121841431,1.6800905466079712
336,128746,128749,0.02898630127310753,-0.006677689496427774,0.9522888660430908,8.969057083129883,-11.615107536315918,12.284517288208008,1.0784460306167603,2.5123744010925293,5.053247451782227,-1.3866509199142456,-0.7546172142028809,1.8524631261825562
337,128756,128759,0.014361299574375153,-0.04897070303559303,0.9411463141441345,18.436403274536133,-7.553886413574219,12.910874366760254,1.0784460306167603,2.5093743801116943,5.0502471923828125,-1.1875487565994263,-0.4981738030910492,1.997554898262024
338,128766,128769,-0.022999392822384834,-0.04135829582810402,0.9847038388252258,24.796144485473633,-7.85256814956665,14.255363464355469,1.0694465637207031,2.5063745975494385,5.0502471923828125,-1.2179198265075684,-0.12063711881637573,2.193833827972412
339,128776,128779,-0.031083568930625916,-0.01312456838786602,1.0229257345199585,17.24224853515625,-10.089794158935547,15.80523681640625,1.073946237564087,2.5288734436035156,5.069746494293213,-1.1397689580917358,-0.19836010038852692,2.2566871643066406
340,128786,128789,-0.056134529411792755,-0.029181964695453644,1.0206780433654785,-2.1621265411376953,-23.81197166442871,15.876384735107422,1.0769461393356323,2.519873857498169,5.057746887207031,-1.0024632215499878,-0.0750541016459465,2.426985502243042
341,128796,128799,-0.05308593809604645,-0.027926433831453323,1.0207597017288208,-19.036903381347656,-37.60289764404297,12.527427673339844,1.0829458236694336,2.5288734436035156,5.069746494293213,-0.6768048405647278,-0.39531630277633667,2.5083446502685547
342,128806,128809,-0.026633750647306442,-0.05679286643862724,1.0248560905456543,-32.77663803100586,-35.801212310791016,7.8527750968933105,1.0889455080032349,2.5258736610412598,5.066746711730957,-0.40287819504737854,-0.6810465455055237,2.626528739929199
343,128816,128819,-0.05347328633069992,-0.06421998143196106,1.0398612022399902,-30.10884666442871,-17.408601760864258,1.9950474500656128,1.0799460411071777,2.5288734436035156,5.075746059417725,0.013684986159205437,-1.0965641736984253,2.645460605621338
344,128826,128829,-0.007827733643352985,-0.0313420370221138,1.0246888399124146,-16.06234359741211,-1.0473968982696533,-0.7778392434120178,1.0814459323883057,2.5363731384277344,5.074246406555176,0.15118323266506195,-1.230485439300537,2.6792216300964355
345,128836,128839,-0.05152124911546707,-0.07465487718582153,1.023862361907959,13.812583923339844,12.973376274108887,-3.1569695472717285,1.0994449853897095,2.5303733348846436,5.077246189117432,-0.06057325005531311,-1.1822084188461304,2.6940395832061768
346,128846,128849,-0.06603020429611206,-0.06204354390501976,1.0301979780197144,51.5877571105957,13.003254890441895,-4.761287212371826,1.0769461393356323,2.5378730297088623,5.075746059417725,-0.29029202461242676,-0.875348687171936,2.66373872756958
347,128856,128859,-0.04583146423101425,-0.040202803909778595,1.0082277059555054,74.29743957519531,11.528724670410156,-4.13404655456543,1.0664466619491577,2.5333733558654785,5.098245143890381,-0.45696771144866943,0.07238619029521942,2.6828696727752686
348,128866,128869,-0.02843150869011879,-0.04836677014827728,1.01071298122406,78.12689971923828,15.206132888793945,-3.5399694442749023,1.0664466619491577,2.5603718757629395,5.104244709014893,-0.5940190553665161,0.6370664834976196,2.6111087799072266
349,128876,128879,-0.04677625000476837,-0.0660540908575058,1.0031343698501587,65.93855285644531,8.517620086669922,-6.259922027587891,1.072446346282959,2.542372941970825,5.092245101928711,-0.6352408528327942,1.4290506839752197,2.562779426574707
350,128886,128889,-0.009984317235648632,-0.06254059076309204,0.9928123950958252,43.619388580322266,-0.17480236291885376,-9.335115432739258,1.072446346282959,2.515374183654785,5.086245536804199,-0.678372323513031,1.9745209217071533,2.4821088314056396
351,128896,128899,-0.03765130788087845,-0.05345791205763817,1.0615991353988647,10.669722557067871,-5.477728843688965,-12.790983200073242,1.0769461393356323,2.519873857498169,5.057746887207031,-0.6803771257400513,2.3165087699890137,2.3838014602661133
352,128906,128909,-0.048052117228507996,-0.09493246674537659,1.0221842527389526,-19.712955474853516,-0.35125842690467834,-15.431276321411133,1.085945725440979,2.5078744888305664,5.0787458419799805,-0.613921582698822,2.1982204914093018,2.227508783340454
353,128916,128919,-0.029273303225636482,-0.046121157705783844,0.9881581664085388,-42.91992950439453,9.406463623046875,-15.557032585144043,1.0784460306167603,2.521373987197876,5.068246364593506,-0.7034394145011902,1.9354214668273926,2.0807979106903076
354,128926,128929,-0.02001221664249897,0.013507096096873283,0.9743362069129944,-57.32727813720703,13.876384735107422,-16.95518684387207,1.0754462480545044,2.5363731384277344,5.0802459716796875,-0.8152285814285278,1.155042290687561,1.8848919868469238
355,128936,128939,-0.05803145840764046,0.03497312217950821,0.9909559488296509,-53.183048248291016,19.886821746826172,-15.824458122253418,1.0904453992843628,2.5393729209899902,5.077246189117432,-1.0918300151824951,0.6835071444511414,1.7299106121063232
356,128946,128949,-0.08459988981485367,0.059649333357810974,1.0419445037841797,-36.07139587402344,17.00341796875,-14.311511993408203,1.0784460306167603,2.548372507095337,5.071246147155762,-1.1076565980911255,0.13139422237873077,1.5818191766738892
357,128956,128959,-0.029224131256341934,0.08982988446950912,1.0940247774124146,-12.622759819030762,-1.852396011352539,-12.340593338012695,1.0664466619491577,2.5363731384277344,5.0802459716796875,-1.2148828506469727,0.05665671452879906,1.4723894596099854
358,128966,128969,0.025240464136004448,0.006761141121387482,1.1092177629470825,21.31128692626953,-31.601978302001953,-8.583622932434082,1.070946455001831,2.5258736610412598,5.066746711730957,-1.0254288911819458,0.3829379379749298,1.40707528591156
359,128976,128979,0.041570354253053665,-0.034556008875370026,1.0940475463867188,43.27650833129883,-55.254154205322266,-1.0313072204589844,1.0694465637207031,2.5333733558654785,5.104244709014893,-0.6857556700706482,0.9591321349143982,1.37676203250885
360,128986,128989,0.03997451439499855,-0.013819227926433086,1.0463415384292603,43.518184661865234,-60.89816665649414,5.68963623046875,1.0769461393356323,2.5528724193573,5.090745449066162,0.1624206155538559,1.3804824352264404,1.4048634767532349
361,128996,128999,-0.019361713901162148,0.00614332826808095,1.0117990970611572,27.604063034057617,-52.833492279052734,8.971306800842285,1.0814459323883057,2.515374183654785,5.086245536804199,0.6052657961845398,1.7631860971450806,1.4520471096038818
362,129006,129009,-0.05609487369656563,0.006203139200806618,1.0210086107254028,6.273270130157471,-26.794931411743164,10.998888969421387,1.0919454097747803,2.5048747062683105,5.075746059417725,1.0957891941070557,1.8306447267532349,1.5356597900390625
363,129016,129019,-0.058868568390607834,0.03929724171757698,1.04045569896698,-14.600464820861816,3.366873264312744,11.387194633483887,1.0919454097747803,2.5048747062683105,5.048747539520264,0.9701982140541077,1.704839825630188,1.6076200008392334
364,129026,129029,-0.05265318974852562,0.037473566830158234,1.0297499895095825,-37.18121337890625,21.90035629272461,11.578688621520996,1.0889455080032349,2.4988749027252197,5.057746887207031,0.7472014427185059,1.2880268096923828,1.7049347162246704
365,129036,129039,-0.04099413752555847,0.013317356817424297,1.0339739322662354,-55.772274017333984,27.08784294128418,13.359482765197754,1.087445616722107,2.497375011444092,5.044247627258301,0.6308685541152954,0.9104549884796143,1.8557424545288086
366,129046,129049,-0.07397671043872833,-0.0016543538076803088,1.059264898300171,-63.810420989990234,21.349592208862305,14.22947883605957,1.0889455080032349,2.5288734436035156,5.054747104644775,0.27231940627098083,0.1905774474143982,1.9770320653915405
367,129056,129059,-0.043098900467157364,-0.007061140611767769,1.094254493713379,-62.85727310180664,13.99402904510498,12.86771011352539,1.0799460411071777,2.5048747062683105,5.0517473220825195,0.2935086190700531,-0.2507164478302002,2.1485254764556885
368,129066,129069,0.002878018654882908,-0.03222406283020973,1.073778748512268,-50.98442077636719,0.2981620728969574,10.172293663024902,1.0784460306167603,2.518373966217041,5.059247016906738,0.21393445134162903,-1.048814058303833,2.2712037563323975
369,129076,129079,-0.047815095633268356,-0.06290759891271591,1.0757858753204346,-42.87081527709961,-8.066329002380371,8.826140403747559,1.085945725440979,2.5078744888305664,5.045747756958008,0.21823041141033173,-1.186476707458496,2.3519065380096436
370,129086,129089,-0.06875596195459366,-0.057405684143304825,1.076645851135254,-31.677978515625,-15.48950481414795,4.652409553527832,1.1024448871612549,2.518373966217041,5.044247627258301,0.44203799962997437,-1.69314444065094,2.4448142051696777
371,129096,129099,-0.029553372412919998,-0.11687853932380676,1.0057071447372437,-12.29977035522461,-13.771553993225098,0.038814812898635864,1.073946237564087,2.495875120162964,5.042747974395752,0.68834388256073,-1.780578851699829,2.476067543029785
372,129106,129109,-0.07084964960813522,-0.10899018496274948,0.9952162504196167,8.702841758728027,-4.349539756774902,-3.6107847690582275,1.0934453010559082,2.49137544631958,5.041247844696045,0.762813150882721,-1.820019006729126,2.462709426879883
373,129116,129119,-0.07166460901498795,-0.08550452440977097,0.9372401237487793,21.474586486816406,5.074868202209473,-7.488704681396484,1.0889455080032349,2.486875534057617,5.03074836730957,0.684032678604126,-1.577289342880249,2.3981587886810303
374,129126,129129,-0.019688883796334267,-0.06004374101758003,0.8604351282119751,25.524633407592773,10.400538444519043,-9.615782737731934,1.0769461393356323,2.489875555038452,5.018748760223389,0.6186307668685913,-1.2179831266403198,2.298741102218628
375,129136,129139,-0.03175266459584236,-0.040614791214466095,0.9102711081504822,25.683700561523438,16.187864303588867,-9.627839088439941,1.0769461393356323,2.5048747062683105,5.039747714996338,0.4143381118774414,-1.268087387084961,2.2318460941314697
376,129146,129149,0.0300276055932045,0.07333534210920334,0.9671769738197327,24.046581268310547,22.173444747924805,-10.311884880065918,1.085945725440979,2.495875120162964,5.048747539520264,0.17946600914001465,-0.9512615203857422,2.123528480529785
377,129156,129159,0.059860821813344955,0.08173216134309769,0.9154810905456543,22.021533966064453,29.116090774536133,-10.497588157653809,1.0769461393356323,2.495875120162964,5.033748149871826,-0.0365448072552681,-0.8076105713844299,2.0215580463409424
378,129166,129169,0.0021246206015348434,0.005673699080944061,0.9366866946220398,18.836040496826172,31.658775329589844,-10.081610679626465,1.0769461393356323,2.5078744888305664,5.045747756958008,-0.4676104187965393,-0.5033283233642578,1.9131104946136475
379,129176,129179,-0.0630430206656456,-0.03692437335848808,0.9382212162017822,14.406777381896973,25.470577239990234,-10.175158500671387,1.070946455001831,2.516874074935913,5.0517473220825195,-0.7138534188270569,-0.3299643099308014,1.8048655986785889
380,129186,129189,-0.03719280660152435,-0.03205964341759682,0.9551461338996887,5.665553569793701,13.234902381896973,-9.936147689819336,1.0619468688964844,2.5108745098114014,5.057746887207031,-0.8015227317810059,-0.19498248398303986,1.6873619556427002
381,129196,129199,-0.0737101286649704,-0.045582856982946396,0.9363867044448853,-4.197651386260986,-2.168962001800537,-9.420119285583496,1.0649467706680298,2.5108745098114014,5.054747104644775,-0.8754710555076599,-0.42473655939102173,1.6098227500915527
382,129206,129209,-0.099889375269413,-0.04024481028318405,0.9549947381019592,-13.38851261138916,-18.299882888793945,-8.913599014282227,1.0664466619491577,2.518373966217041,5.056247234344482,-0.6797530651092529,-0.5300999283790588,1.5101169347763062
383,129216,129219,-0.1630934476852417,-0.039221007376909256,0.9937298893928528,-16.542882919311523,-28.711994171142578,-9.544007301330566,1.0634467601776123,2.521373987197876,5.059247016906738,-0.41935956478118896,-0.6501764059066772,1.4170916080474854
384,129226,129229,-0.16854476928710938,-0.043099913746118546,1.0736567974090576,-15.11416244506836,-30.857376098632812,-11.121235847473145,1.0694465637207031,2.521373987197876,5.06524658203125,-0.13623279333114624,-0.9114576578140259,1.3255974054336548
385,129236,129239,-0.09731698781251907,-0.09178334474563599,1.086374044418335,-13.694918632507324,-35.78119659423828,-13.869688034057617,1.0694465637207031,2.5333733558654785,5.062246799468994,0.20359478890895844,-1.0769927501678467,1.2066147327423096
386,129246,129249,-0.10089809447526932,-0.139836847782135,1.108682632446289,-12.462939262390137,-41.99756622314453,-17.58016014099121,1.0784460306167603,2.5273735523223877,5.068246364593506,0.7261979579925537,-1.220677137374878,1.0462347269058228
387,129256,129259,-0.012427729554474354,-0.12402870506048203,1.0614300966262817,-6.828912258148193,-44.379154205322266,-19.561500549316406,1.0844457149505615,2.5513722896575928,5.083245754241943,1.0982304811477661,-1.2235355377197266,0.8692729473114014
388,129266,129269,-0.051800329238176346,-0.07213010638952255,1.083591103553772,4.854011058807373,-44.14455795288086,-17.833942413330078,1.0964452028274536,2.5273735523223877,5.074246406555176,1.7529356479644775,-1.2196096181869507,0.6609157919883728
389,129276,129279,-0.11471999436616898,-0.012275529094040394,1.1907694339752197,16.93369483947754,-33.11745071411133,-13.795276641845703,1.087445616722107,2.5303733348846436,5.074246406555176,1.787961483001709,-1.0074694156646729,0.5443750619888306
390,129286,129289,-0.09418640285730362,-0.0373561717569828,1.150578260421753,22.283891677856445,-18.861492156982422,-9.399069786071777,1.0934453010559082,2.521373987197876,5.044247627258301,2.1437714099884033,-0.7478392124176025,0.4132308065891266
391,129296,129299,-0.08259725570678711,-0.037037529051303864,1.1047495603561401,24.64403533935547,-0.33496198058128357,-5.139101982116699,1.0949451923370361,2.5018749237060547,5.045747756958008,2.1556992530822754,-0.5824786424636841,0.36245444416999817
392,129306,129309,-0.14010648429393768,-0.07029972225427628,1.0771431922912598,24.43582534790039,21.342937469482422,-3.5093672275543213,1.0919454097747803,2.5048747062683105,5.036747932434082,1.9644837379455566,-0.25695738196372986,0.3196941912174225
393,129316,129319,-0.17450140416622162,-0.08648812770843506,1.0347083806991577,21.54481315612793,44.19547653198242,-3.3312408924102783,1.0904453992843628,2.494375228881836,5.032248497009277,1.8265271186828613,-0.1663234531879425,0.29131072759628296
394,129326,129329,-0.1004922017455101,-0.05641808360815048,0.9585943222045898,9.479120254516602,63.04536056518555,-6.699405670166016,1.0904453992843628,2.5063745975494385,5.038248062133789,1.0496206283569336,-0.059200502932071686,0.28783494234085083
395,129336,129339,-0.048350028693675995,0.052802711725234985,0.9657113552093506,-4.791641712188721,65.66329193115234,-9.068862915039062,1.085945725440979,2.5048747062683105,5.039747714996338,0.6182909607887268,-0.015526391565799713,0.179723858833313
396,129346,129349,-0.056720614433288574,0.0867156982421875,0.9528364539146423,-10.379382133483887,50.20818328857422,-9.715980529785156,1.0769461393356323,2.492875337600708,5.0277485847473145,-0.006091463845223188,-0.22836890816688538,0.11462626606225967
397,129356,129359,-0.10209127515554428,0.0687183067202568,0.9927423000335693,-4.624534606933594,20.22256851196289,-11.541316986083984,1.0889455080032349,2.4988749027252197,5.039747714996338,-0.2841113209724426,-0.2664279639720917,-0.011128509417176247
398,129366,129369,-0.06595994532108307,0.0002834468032233417,1.029354214668274,4.740118980407715,-7.332929611206055,-14.753008842468262,1.0769461393356323,2.4988749027252197,5.036747932434082,-0.30006659030914307,-0.24427852034568787,-0.15748922526836395
399,129376,129379,-0.06887173652648926,-0.0926441103219986,0.9809226393699646,1.5750504732131958,-25.750446319580078,-15.909152030944824,1.0784460306167603,2.4823758602142334,5.041247844696045,-0.009531543590128422,-0.16627448797225952,-0.3275517225265503
400,129386,129389,-0.07491473853588104,-0.10978791117668152,0.9792860150337219,-12.126371383666992,-34.1827507019043,-22.03493309020996,1.0829458236694336,2.5018749237060547,5.060746669769287,0.4066024720668793,-0.24098998308181763,-0.5085163116455078
401,129396,129399,0.014997565187513828,-0.011982983909547329,1.0507726669311523,-21.300867080688477,-32.7017707824707,-26.100311279296875,1.0784460306167603,2.5093743801116943,5.047247409820557,0.843135416507721,-0.3111492097377777,-0.7751106023788452
402,129406,129409,0.017945414409041405,0.001546950195915997,1.107405185699463,-20.84566307067871,-22.687877655029297,-28.113473892211914,1.0754462480545044,2.521373987197876,5.056247234344482,1.0764260292053223,-0.6632314324378967,-1.029283046722412
403,129416,129419,-0.025325171649456024,-0.020399296656250954,1.0909008979797363,-6.441054344177246,-9.206338882446289,-22.50946807861328,1.0934453010559082,2.518373966217041,5.044247627258301,1.30186128616333,-0.7346505522727966,-1.3091626167297363
404,129426,129429,-0.055179137736558914,-0.0520673431456089,1.0551881790161133,3.547208070755005,14.805285453796387,-16.8819522857666,1.0799460411071777,2.5048747062683105,5.036747932434082,1.205133318901062,-0.8013145923614502,-1.4955531358718872
405,129436,129439,-0.10353191941976547,-0.1147913709282875,1.0368942022323608,9.82018756866455,33.243656158447266,-12.547538757324219,1.0844457149505615,2.5033748149871826,5.029248237609863,0.8857444524765015,-0.6782090663909912,-1.6552308797836304
406,129446,129449,-0.09336154907941818,-0.0744299441576004,0.9971376657485962,8.954421997070312,45.51272201538086,-7.92133903503418,1.073946237564087,2.4988749027252197,5.036747932434082,0.5413464903831482,-0.4944547116756439,-1.7780770063400269
407,129456,129459,-0.11216652393341064,-0.08399362862110138,1.0077513456344604,5.75201416015625,49.58417892456055,-6.210371017456055,1.073946237564087,2.5018749237060547,5.0277485847473145,-0.10297071933746338,-0.36841684579849243,-1.8518075942993164
408,129466,129469,-0.13817811012268066,-0.14084886014461517,1.018307089805603,-4.701239109039307,42.30556869506836,-4.918517112731934,1.073946237564087,2.489875555038452,5.033748149871826,-0.4644469618797302,-0.38778311014175415,-1.916917085647583
409,129476,129479,-0.06410488486289978,-0.09781192243099213,0.9934595823287964,0.6604537963867188,28.85087776184082,-0.8237332105636597,1.0754462480545044,2.494375228881836,5.026248455047607,-0.7093198299407959,-0.5743504166603088,-1.9375858306884766
410,129486,129489,-0.06781104952096939,-0.08519389480352402,1.0041249990463257,12.16269588470459,24.009096145629883,3.121147394180298,1.0589470863342285,2.4778759479522705,5.015748977661133,-0.8306578397750854,-0.45065706968307495,-1.9504365921020508
411,129496,129499,-0.11492312699556351,-0.1361379772424698,0.9979018568992615,33.371131896972656,17.08647346496582,9.838203430175781,1.073946237564087,2.495875120162964,5.03074836730957,-1.0089653730392456,-0.05427297204732895,-1.9244502782821655
412,129506,129509,-0.12220023572444916,-0.1339949369430542,0.9091407060623169,47.467430114746094,2.382523536682129,19.65373992919922,1.0679465532302856,2.492875337600708,5.03074836730957,-1.1225711107254028,0.2853353023529053,-1.774857521057129
413,129516,129519,-0.07172916829586029,-0.06961311399936676,0.9208052158355713,49.74505615234375,-6.942867279052734,29.982133865356445,1.0769461393356323,2.492875337600708,5.048747539520264,-1.1110377311706543,0.886763334274292,-1.5420819520950317
414,129526,129529,-0.04268572852015495,0.012806960381567478,0.9823253750801086,47.80903625488281,-1.390993595123291,36.061134338378906,1.0664466619491577,2.494375228881836,5.0502471923828125,-0.9688637852668762,1.1880334615707397,-1.204280972480774
415,129536,129539,-0.03655298054218292,-0.013145831413567066,0.9284789562225342,34.05014419555664,15.016993522644043,41.74923324584961,1.0694465637207031,2.497375011444092,5.038248062133789,-1.1552244424819946,1.7996996641159058,-0.8104395866394043
416,129546,129549,-0.024422768503427505,-0.07124243676662445,0.9298951029777527,11.331074714660645,30.057262420654297,44.0968017578125,1.070946455001831,2.486875534057617,5.042747974395752,-1.39077889919281,1.8464717864990234,-0.36946648359298706
417,129556,129559,0.011386302299797535,-0.08964680135250092,0.9621515870094299,-16.47072982788086,41.0354118347168,43.73765182495117,1.0634467601776123,2.49137544631958,5.053247451782227,-1.831803321838379,1.7394832372665405,0.08116870373487473
418,129566,129569,0.0020061961840838194,-0.060896895825862885,0.9277371764183044,-45.138736724853516,42.76675033569336,41.31681442260742,1.0634467601776123,2.515374183654785,5.062246799468994,-2.001485586166382,1.3437227010726929,0.528083860874176
419,129576,129579,-0.0089965695515275,-0.049709346145391464,0.9239389896392822,-59.533103942871094,33.26900100708008,38.27125930786133,1.0634467601776123,2.521373987197876,5.059247016906738,-2.5136752128601074,0.7525289058685303,0.9193363785743713
420,129586,129589,0.012248887680470943,-0.040644995868206024,0.9327092170715332,-54.72114944458008,15.832043647766113,35.414878845214844,1.072446346282959,2.5303733348846436,5.071246147155762,-2.6317577362060547,0.2109699845314026,1.3004611730575562
421,129596,129599,-0.02253095805644989,-0.027125557884573936,0.9126323461532593,-36.216552734375,-1.8938146829605103,31.280054092407227,1.0664466619491577,2.5393729209899902,5.071246147155762,-2.6646664142608643,-0.15998795628547668,1.6426947116851807
422,129606,129609,-0.04938330873847008,-0.012737040407955647,0.9319691061973572,-8.42021369934082,-14.866118431091309,26.092870712280273,1.0634467601776123,2.515374183654785,5.053247451782227,-2.4651176929473877,-0.294299453496933,1.9544649124145508
423,129616,129619,-0.03987852483987808,-0.0399097315967083,0.9339640736579895,15.756455421447754,-21.96736717224121,22.281879425048828,1.0664466619491577,2.5093743801116943,5.059247016906738,-2.276843547821045,0.041015975177288055,2.2590479850769043
424,129626,129629,-0.01378092635422945,-0.0220479816198349,0.9620158672332764,31.885528564453125,-24.20402717590332,20.413232803344727,1.0664466619491577,2.5273735523223877,5.071246147155762,-2.2186295986175537,0.32782572507858276,2.4594826698303223
425,129636,129639,0.0408947579562664,-0.0011222038883715868,0.9339610934257507,44.16444778442383,-16.88227081298828,20.082704544067383,1.072446346282959,2.5393729209899902,5.071246147155762,-1.9380508661270142,0.9166145324707031,2.7146568298339844
426,129646,129649,0.05723503977060318,0.03516765311360359,0.9548965692520142,43.95229721069336,-5.389578342437744,15.15899658203125,1.0619468688964844,2.5258736610412598,5.075746059417725,-1.7626670598983765,1.2745710611343384,2.8706531524658203
427,129656,129659,0.07997788488864899,-0.09518691152334213,0.8940264582633972,28.62055015563965,6.105019569396973,8.260910987854004,1.085945725440979,2.5348732471466064,5.081745624542236,-1.9233425855636597,1.5995351076126099,2.957335948944092
428,129666,129669,-0.025299783796072006,-0.17755162715911865,0.902219295501709,7.476441383361816,9.656328201293945,2.542085886001587,1.0634467601776123,2.5303733348846436,5.059247016906738,-2.1119518280029297,1.7410845756530762,2.989626407623291
429,129676,129679,-0.05753108114004135,-0.14359185099601746,0.9436094760894775,-19.629703521728516,4.595270156860352,-1.6186119318008423,1.070946455001831,2.516874074935913,5.063746929168701,-2.2285776138305664,1.5398147106170654,2.946265697479248
430,129686,129689,-0.013838056474924088,-0.06032600626349449,0.952961802482605,-39.53284454345703,-3.995771884918213,-4.467033863067627,1.073946237564087,2.5258736610412598,5.060746669769287,-2.22599720954895,1.1843544244766235,2.8988213539123535
431,129696,129699,0.06035269424319267,-0.02609855681657791,0.9940130710601807,-48.17401885986328,-13.188536643981934,-5.967795372009277,1.070946455001831,2.540872812271118,5.090745449066162,-2.0718209743499756,0.6985135078430176,2.844839334487915
432,129706,129709,0.061999425292015076,-0.05888074263930321,1.0073662996292114,-40.2711067199707,-25.07486915588379,-6.2632832527160645,1.0694465637207031,2.5513722896575928,5.0802459716796875,-1.7487480640411377,0.19300849735736847,2.7850568294525146
433,129716,129719,-0.007736439350992441,-0.06399885565042496,0.9946089386940002,-24.596776962280273,-27.877187728881836,-5.368036270141602,1.0844457149505615,2.548372507095337,5.092245101928711,-1.5966403484344482,-0.10077830404043198,2.713297128677368
434,129726,129729,0.005406203214079142,-0.06259077787399292,0.9700546860694885,-15.25270938873291,-18.18276023864746,-4.789576530456543,1.0694465637207031,2.542372941970825,5.074246406555176,-1.6614582538604736,-0.12533551454544067,2.663336992263794
435,129736,129739,-0.004404929932206869,-0.05512580648064613,0.9832499623298645,-7.967512607574463,3.135946035385132,-4.369435787200928,1.055947184562683,2.5378730297088623,5.081745624542236,-1.5819733142852783,-0.24874216318130493,2.61669921875
436,129746,129749,-0.04357501119375229,-0.039929479360580444,0.9885902404785156,-4.607083797454834,15.24634075164795,-5.060751438140869,1.055947184562683,2.546872615814209,5.072746276855469,-1.7342554330825806,-0.3739733099937439,2.5395967960357666
437,129756,129759,0.015969902276992798,-0.045865144580602646,1.0052814483642578,1.3645411729812622,15.079205513000488,-5.351640224456787,1.0679465532302856,2.5528724193573,5.08474588394165,-1.9644445180892944,-0.33302441239356995,2.4938650131225586
438,129766,129769,0.06044511869549751,-0.1083611398935318,1.0018247365951538,8.452081680297852,5.476382255554199,-4.622775077819824,1.0679465532302856,2.549872398376465,5.08474588394165,-2.021435499191284,-0.24977320432662964,2.462266683578491
439,129776,129779,-0.009705498814582825,-0.08851338922977448,1.0095033645629883,12.732404708862305,-10.372251510620117,-4.404454231262207,1.0634467601776123,2.548372507095337,5.089245319366455,-1.9252314567565918,-0.0749981626868248,2.4472696781158447
440,129786,129789,-0.03956436738371849,-0.04160358011722565,1.0119526386260986,7.32531213760376,-23.534927368164062,-4.476815700531006,1.0769461393356323,2.549872398376465,5.09974479675293,-1.9499870538711548,-0.013470971025526524,2.3665804862976074
441,129796,129799,-0.014867558144032955,-0.017560239881277084,1.0266965627670288,0.003391184378415346,-29.652729034423828,-5.189870357513428,1.0799460411071777,2.543872833251953,5.075746059417725,-1.454769492149353,0.01332113053649664,2.336514949798584
442,129806,129809,-0.05303892120718956,-0.0555221326649189,1.0160022974014282,-6.102879047393799,-29.56769561767578,-5.580242156982422,1.070946455001831,2.5648717880249023,5.1027445793151855,-1.2148975133895874,0.0016262594144791365,2.2814252376556396
443,129816,129819,0.0031892904080450535,-0.03250149264931679,1.0461112260818481,-9.96189022064209,-24.986785888671875,-5.160289287567139,1.0634467601776123,2.5513722896575928,5.101244926452637,-1.0213626623153687,-0.15980134904384613,2.1932642459869385
444,129826,129829,0.020416323095560074,-0.06982976198196411,1.049133539199829,-10.073502540588379,-20.427650451660156,-5.113956928253174,1.0649467706680298,2.546872615814209,5.1057448387146,-0.8570776581764221,-0.20149189233779907,2.158639430999756
445,129836,129839,-0.049949269741773605,-0.04441448673605919,1.0822347402572632,-13.031052589416504,-25.62990951538086,-7.141834735870361,1.0919454097747803,2.5528724193573,5.093745231628418,-0.6475516557693481,-0.40495795011520386,2.0725200176239014
446,129846,129849,-0.020750928670167923,-0.04478897899389267,1.0759077072143555,-17.434350967407227,-28.10338020324707,-10.465934753417969,1.0799460411071777,2.5618717670440674,5.087745666503906,-0.36991143226623535,-0.6047860383987427,1.9764039516448975
447,129856,129859,-0.03513011708855629,-0.04803355410695076,1.1035727262496948,-18.46598243713379,-28.23004722595215,-13.308120727539062,1.087445616722107,2.5573720932006836,5.092245101928711,-0.1487080156803131,-0.6994012594223022,1.883825421333313
448,129866,129869,-0.053926609456539154,-0.038057081401348114,1.1315933465957642,-10.66103458404541,-26.119556427001953,-13.771382331848145,1.087445616722107,2.5513722896575928,5.089245319366455,0.06738131493330002,-0.957787036895752,1.724717617034912
449,129876,129879,-0.07512352615594864,-0.036962006241083145,1.1018812656402588,-1.8406403064727783,-22.87754249572754,-12.749185562133789,1.0919454097747803,2.549872398376465,5.093745231628418,0.38991713523864746,-0.9193882346153259,1.6181683540344238
450,129886,129889,-0.08614890277385712,-0.030555760487914085,1.0937755107879639,16.541915893554688,-14.397461891174316,-10.91972827911377,1.0799460411071777,2.549872398376465,5.08474588394165,0.47198376059532166,-0.8110113143920898,1.5089598894119263
451,129896,129899,-0.08005727827548981,-0.07867772877216339,1.093108057975769,30.782255172729492,0.323559045791626,-9.065723419189453,1.072446346282959,2.545372724533081,5.089245319366455,0.6252503395080566,-0.4789968729019165,1.4216984510421753
452,129906,129909,-0.035068217664957047,-0.05777944251894951,1.0881645679473877,39.07604217529297,9.983688354492188,-7.707980632781982,1.0799460411071777,2.549872398376465,5.081745624542236,0.5046430826187134,-0.18954871594905853,1.3295214176177979
453,129916,129919,-0.014336245134472847,-0.06476081907749176,1.0165244340896606,37.88030242919922,11.755847930908203,-6.907954692840576,1.0844457149505615,2.518373966217041,5.074246406555176,0.3896852731704712,0.28687480092048645,1.2623162269592285
454,129926,129929,-0.021708395332098007,-0.018687093630433083,1.011212706565857,31.16815185546875,14.953125,-7.368399143218994,1.0844457149505615,2.521373987197876,5.06524658203125,0.24272219836711884,0.41258418560028076,1.181001901626587
455,129936,129939,-0.011790086515247822,0.018018731847405434,0.96924889087677,10.317161560058594,27.843612670898438,-7.125572681427002,1.0784460306167603,2.521373987197876,5.059247016906738,-0.058973278850317,0.6741595268249512,1.1115343570709229
456,129946,129949,-0.017596587538719177,-0.060997508466243744,0.9219169616699219,-17.616527557373047,31.991382598876953,-7.591639041900635,1.0814459323883057,2.5123744010925293,5.062246799468994,-0.36167097091674805,0.5102967023849487,1.0378917455673218
457,129956,129959,-0.027094492688775063,-0.046047233045101166,0.9686897993087769,-36.82118225097656,25.869142532348633,-7.402752876281738,1.0784460306167603,2.5333733558654785,5.071246147155762,-0.640666127204895,0.10394597798585892,0.9634914994239807
458,129966,129969,-0.0550384446978569,0.03519991785287857,0.9892567992210388,-42.81593322753906,12.151802062988281,-7.638230800628662,1.073946237564087,2.543872833251953,5.063746929168701,-0.7978048920631409,-0.06555759161710739,0.8902246356010437
459,129976,129979,-0.06863360852003098,0.11550728231668472,1.0165055990219116,-38.3156623840332,-9.201276779174805,-8.625205993652344,1.0829458236694336,2.5288734436035156,5.069746494293213,-0.7066908478736877,-0.6658546328544617,0.8087686896324158
460,129986,129989,-0.04492304474115372,0.04814353957772255,1.0266618728637695,-22.700420379638672,-32.59785842895508,-9.73873233795166,1.0769461393356323,2.5318734645843506,5.063746929168701,-0.40445616841316223,-0.9430192112922668,0.7206805944442749
461,129996,129999,-0.039015695452690125,-0.027960194274783134,1.0322937965393066,-2.7712414264678955,-47.168304443359375,-9.393242835998535,1.0679465532302856,2.5138742923736572,5.072746276855469,0.17101162672042847,-0.982099175453186,0.6291552782058716
462,130006,130009,-0.06155126914381981,-0.056054890155792236,1.0200940370559692,16.849206924438477,-49.60050964355469,-8.049272537231445,1.0844457149505615,2.5273735523223877,5.086245536804199,0.4522704482078552,-0.7756543755531311,0.5482254028320312
463,130016,130019,-0.050406478345394135,-0.04311723634600639,1.0334498882293701,32.48198318481445,-36.66994857788086,-7.093208312988281,1.0769461393356323,2.543872833251953,5.072746276855469,0.8508148193359375,-0.4259222745895386,0.473999947309494
464,130026,130029,-0.04231558367609978,-0.04843843728303909,1.0161144733428955,36.43165969848633,-17.112403869628906,-6.230878829956055,1.0844457149505615,2.5303733348846436,5.0802459716796875,1.04119074344635,-0.07368737459182739,0.41020581126213074
465,130036,130039,-0.05798424780368805,-0.04344778507947922,1.0293524265289307,31.427030563354492,3.315978765487671,-6.504735946655273,1.0814459323883057,2.5273735523223877,5.074246406555176,0.9171221256256104,0.1857362687587738,0.36424973607063293
466,130046,130049,-0.01875508949160576,-0.030626729130744934,1.0160318613052368,22.483474731445312,20.60055923461914,-6.476448059082031,1.0904453992843628,2.524373769760132,5.062246799468994,0.7778671979904175,0.5369052886962891,0.2930718958377838
467,130056,130059,-0.048778876662254333,-0.0349588505923748,0.9905754923820496,13.655255317687988,28.81230354309082,-6.198091506958008,1.0784460306167603,2.524373769760132,5.06524658203125,0.6407873630523682,0.517034649848938,0.24839027225971222
468,130066,130069,-0.016235539689660072,0.03191973268985748,1.0063674449920654,2.0946614742279053,27.150409698486328,-4.633296966552734,1.072446346282959,2.524373769760132,5.062246799468994,0.24872198700904846,0.5523674488067627,0.20544221997261047
469,130076,130079,-0.009115571156144142,-0.030494241043925285,1.0002204179763794,-4.328744888305664,17.036264419555664,-3.6337716579437256,1.0694465637207031,2.5303733348846436,5.056247234344482,0.11293309181928635,0.5210779905319214,0.16719643771648407
470,130086,130089,-0.030641334131360054,-0.057937853038311005,0.9848350286483765,-9.006606101989746,1.2542794942855835,-3.5728437900543213,1.072446346282959,2.524373769760132,5.062246799468994,0.19156208634376526,0.4150228500366211,0.1380748748779297
471,130096,130099,-0.03733968734741211,-0.030069056898355484,1.0022599697113037,-14.144625663757324,-11.472159385681152,-3.4802629947662354,1.0829458236694336,2.5048747062683105,5.048747539520264,0.1376219391822815,0.2954184412956238,0.10192224383354187
472,130106,130109,-0.026840217411518097,0.016085801646113396,0.9955180883407593,-14.745274543762207,-19.995113372802734,-3.3113505840301514,1.0844457149505615,2.5063745975494385,5.056247234344482,0.46889203786849976,0.06261643767356873,0.08431527018547058
473,130116,130119,-0.03167519345879555,-0.003957204055041075,0.9747980833053589,-14.446359634399414,-24.512500762939453,-3.829015016555786,1.0769461393356323,2.5108745098114014,5.060746669769287,0.5438557267189026,0.11153800785541534,0.014120376668870449
474,130126,130129,-0.03056856244802475,-0.03283996880054474,0.978585422039032,-10.998990058898926,-23.217941284179688,-3.686194896697998,1.0904453992843628,2.518373966217041,5.0502471923828125,0.9110220074653625,-0.09653794765472412,-0.009003611281514168
475,130136,130139,-0.031352732330560684,-0.041868988424539566,0.9591924548149109,-7.403879165649414,-20.078264236450195,-3.474313259124756,1.0964452028274536,2.515374183654785,5.053247451782227,0.9575686454772949,-0.1651007980108261,-0.051965124905109406
476,130146,130149,-0.033831894397735596,-0.0419304184615612,0.9592081308364868,-4.845247745513916,-12.89048957824707,-2.999385356903076,1.0844457149505615,2.524373769760132,5.06524658203125,1.1308109760284424,-0.2598259150981903,-0.07884128391742706
477,130156,130159,-0.024787424132227898,-0.0004824317875318229,1.007634162902832,-2.9534950256347656,-7.440625190734863,-2.4210312366485596,1.0904453992843628,2.5123744010925293,5.06524658203125,1.1369391679763794,-0.17979025840759277,-0.1330750286579132
478,130166,130169,-0.020888296887278557,-0.03783271834254265,0.9592421650886536,-0.9359265565872192,-4.071683406829834,-2.0543057918548584,1.0799460411071777,2.5138742923736572,5.054747104644775,1.219115138053894,-0.14735759794712067,-0.16874663531780243
