,timestamp_start,timestamp_end,acc.x,acc.y,acc.z,gyro.x,gyro.y,gyro.z,mag.x,mag.y,mag.z,stabilizer.pitch,stabilizer.roll,stabilizer.yaw
0,152078,152079,-0.00396384485065937,-0.05842212587594986,0.9800496101379395,21.13803482055664,14.436933517456055,-25.478689193725586,1.033448338508606,2.542372941970825,4.954252243041992,-1.2171515226364136,-2.447875738143921,-0.3695940673351288
1,152088,152089,-0.023097895085811615,-0.12488574534654617,0.975641667842865,42.39704895019531,-0.6434540152549744,-27.677152633666992,1.0214488506317139,2.5393729209899902,4.954252243041992,-1.510655164718628,-1.9992179870605469,-0.5684336423873901
2,152098,152099,-0.09524057805538177,-0.11952292919158936,0.9032824635505676,59.41535568237305,-14.694788932800293,-28.96160888671875,1.0349482297897339,2.546872615814209,4.97675085067749,-1.4248100519180298,-1.1705002784729004,-0.8004093170166016
3,152108,152109,-0.09898608922958374,-0.09216586500406265,0.9662226438522339,66.02823638916016,-18.104454040527344,-25.522605895996094,1.042447805404663,2.5513722896575928,4.981250762939453,-1.8286296129226685,-0.26867976784706116,-0.93961101770401
4,152118,152119,-0.06659213453531265,-0.09604767709970474,0.9533932209014893,57.05827713012695,-11.700904846191406,-17.880168914794922,1.0244487524032593,2.5573720932006836,4.990250587463379,-0.1263195127248764,-0.7813642024993896,-1.591957926750183
5,152128,152129,-0.1266782581806183,-0.12144419550895691,0.993610680103302,44.237815856933594,-4.440837860107422,-10.997568130493164,1.0259486436843872,2.5588719844818115,4.991750240325928,-0.0338074192404747,-0.03987303376197815,-1.7435976266860962
6,152138,152139,-0.07080569118261337,-0.10233526676893234,0.9529783725738525,27.305173873901367,8.710494995117188,-7.629238605499268,1.0319483280181885,2.549872398376465,4.98275089263916,-0.10516244173049927,0.3845131993293762,-1.8426899909973145
7,152148,152149,-0.05136914551258087,-0.07515046745538712,0.9608767628669739,13.827852249145508,23.112125396728516,-3.952040195465088,1.048447608947754,2.515374183654785,4.936253070831299,-0.38616135716438293,0.8111422657966614,-1.8857344388961792
8,152158,152159,-0.04112385958433151,-0.06328962743282318,0.9646271467208862,0.2573334574699402,40.34044647216797,-0.8676856160163879,1.048447608947754,2.5063745975494385,4.939252853393555,-0.5490474700927734,0.8135298490524292,-1.9340157508850098
9,152168,152169,-0.04646462947130203,-0.08416858315467834,0.9339854717254639,-10.353652954101562,55.67637634277344,2.7695279121398926,1.0439478158950806,2.4988749027252197,4.940752983093262,-1.1885751485824585,0.7479532957077026,-1.932778000831604
10,152178,152179,-0.0875660628080368,-0.12029583007097244,0.9526935815811157,-17.155933380126953,63.14429473876953,6.6143951416015625,1.0439478158950806,2.5318734645843506,4.943752765655518,-1.751243233680725,0.8828840255737305,-1.8772557973861694
11,152188,152189,-0.08489272743463516,-0.07066990435123444,0.9772002100944519,-23.172391891479492,57.21961975097656,9.460381507873535,1.042447805404663,2.545372724533081,4.9422526359558105,-2.5964205265045166,0.6191924810409546,-1.8175221681594849
12,152198,152199,-0.02635185793042183,-0.06430847942829132,0.9442785978317261,-24.886661529541016,41.42716598510742,11.697897911071777,1.033448338508606,2.5363731384277344,4.951252460479736,-3.077700138092041,0.40817713737487793,-1.7104214429855347
13,152208,152209,-0.02275944873690605,-0.07590188086032867,0.8890187740325928,-20.262393951416016,17.217729568481445,12.689638137817383,1.0289485454559326,2.5348732471466064,4.958752155303955,-3.5559940338134766,0.1273844987154007,-1.6045998334884644
14,152218,152219,-0.061301324516534805,-0.0520484559237957,0.9189693927764893,-9.704556465148926,-16.990171432495117,14.329463958740234,1.0244487524032593,2.5393729209899902,4.9482526779174805,-3.597714424133301,0.022265831008553505,-1.4519532918930054
15,152228,152229,-0.022745121270418167,-0.016901010647416115,0.9651685357093811,8.615141868591309,-51.89456558227539,17.68547248840332,1.0409479141235352,2.519873857498169,4.934752941131592,-3.5021636486053467,0.033582620322704315,-1.2938671112060547
16,152238,152239,-0.05336717888712883,-0.045594897121191025,1.00392746925354,37.338134765625,-74.23821258544922,23.610105514526367,1.0364481210708618,2.5393729209899902,4.960251808166504,-2.9878287315368652,0.31098300218582153,-1.0716581344604492
17,152248,152249,-0.07356082648038864,0.035757679492235184,1.0735883712768555,58.30275344848633,-70.4909439086914,31.14276695251465,1.0439478158950806,2.5528724193573,4.994750022888184,-2.0651695728302,0.7349348068237305,-0.8099174499511719
18,152258,152259,-0.08040330559015274,-0.018378971144557,0.9980506896972656,53.53032684326172,-55.21071243286133,36.58022689819336,1.048447608947754,2.5663716793060303,5.002249717712402,-1.7531602382659912,1.3911885023117065,-0.5296830534934998
19,152268,152269,-0.09591313451528549,-0.12294210493564606,0.9782437086105347,23.211164474487305,-38.00124740600586,39.256778717041016,1.057447075843811,2.5573720932006836,5.008249282836914,-1.0438382625579834,1.9893618822097778,-0.1368999481201172
20,152278,152279,-0.0787363350391388,-0.1072264164686203,0.9411615133285522,-19.37107276916504,-28.75007438659668,37.05637741088867,1.0454477071762085,2.5513722896575928,4.978250980377197,-0.5733038783073425,2.0101795196533203,0.2069825679063797
21,152288,152289,-0.05795983970165253,-0.014419477432966232,0.9509862065315247,-49.28330993652344,-15.679853439331055,35.97279739379883,1.0439478158950806,2.5258736610412598,4.958752155303955,-0.48801329731941223,1.6964818239212036,0.504120945930481
22,152298,152299,-0.12983828783035278,-0.09417068958282471,0.9685431718826294,-67.91151428222656,-0.8996608853340149,36.05358123779297,1.0544472932815552,2.542372941970825,4.96325159072876,-0.3960767984390259,1.1796354055404663,0.8408805727958679
23,152308,152309,-0.13782966136932373,-0.044214241206645966,1.0091201066970825,-71.84455871582031,11.547857284545898,36.03338623046875,1.0544472932815552,2.5363731384277344,4.96325159072876,-0.7572728991508484,0.6226487159729004,1.1334115266799927
24,152318,152319,-0.11663509160280228,-0.0003691652964334935,0.9876483082771301,-65.2518539428711,15.455520629882812,35.77485656738281,1.0514473915100098,2.5543723106384277,4.96925163269043,-0.9127653241157532,-0.24467873573303223,1.461876392364502
25,152328,152329,-0.08642572164535522,0.0004771534295286983,1.0036156177520752,-51.817813873291016,9.667360305786133,34.24446105957031,1.0469475984573364,2.5588719844818115,4.9707512855529785,-1.08843994140625,-0.48377281427383423,1.8660459518432617
26,152338,152339,-0.07663390785455704,0.012608073651790619,0.9710506796836853,-35.68989944458008,-3.6400303840637207,30.326576232910156,1.0469475984573364,2.540872812271118,4.952752113342285,-1.0857622623443604,-1.284487247467041,2.189100503921509
27,152348,152349,-0.025061124935746193,-0.022522760555148125,0.941199004650116,-20.089223861694336,-15.040657043457031,24.673643112182617,1.0619468688964844,2.5288734436035156,4.937753200531006,-1.034167766571045,-1.4736605882644653,2.5160810947418213
28,152358,152359,-0.029547778889536858,-0.011379792355000973,0.9769085645675659,4.313918113708496,-26.635026931762695,19.31951904296875,1.055947184562683,2.516874074935913,4.937753200531006,-0.9974139928817749,-1.5180221796035767,2.7620787620544434
29,152368,152369,-0.041829220950603485,0.0023474881891161203,0.9948524832725525,30.46809959411621,-44.35395050048828,18.269804000854492,1.0499475002288818,2.5318734645843506,4.943752765655518,-0.7482914924621582,-1.391322374343872,2.9656758308410645
30,152378,152379,-0.09184499830007553,-0.0027163352351635695,1.0355844497680664,46.875789642333984,-59.14311599731445,21.86643409729004,1.0544472932815552,2.515374183654785,4.951252460479736,-0.039046723395586014,-0.9379976987838745,3.2028584480285645
31,152388,152389,-0.08977609127759933,0.11227484047412872,1.074988842010498,68.08079528808594,-63.45573043823242,25.934053421020508,1.057447075843811,2.518373966217041,4.966251373291016,0.3020864725112915,-0.6946940422058105,3.392589569091797
32,152398,152399,-0.0883447453379631,0.014509579166769981,1.099982738494873,68.9073715209961,-67.49632263183594,27.287683486938477,1.0589470863342285,2.5318734645843506,4.964751720428467,1.1250783205032349,0.2043588012456894,3.6775906085968018
33,152408,152409,-0.11135430634021759,-0.05823885649442673,1.0732311010360718,35.264991760253906,-82.37874603271484,21.006183624267578,1.0814459323883057,2.545372724533081,4.975251197814941,1.592416524887085,0.592413067817688,3.9195854663848877
34,152418,152419,-0.07748795300722122,-0.04364374279975891,1.1162309646606445,-9.446791648864746,-86.52916717529297,16.193708419799805,1.085945725440979,2.546872615814209,4.9977498054504395,2.6877269744873047,0.7931760549545288,4.144395351409912
35,152428,152429,-0.05668774992227554,-0.0675254836678505,1.0839152336120605,-50.322044372558594,-67.90074157714844,9.576380729675293,1.0904453992843628,2.521373987197876,4.981250762939453,3.312375545501709,0.5293929576873779,4.283019065856934
36,152438,152439,-0.0814606174826622,0.014319638721644878,1.0826681852340698,-78.7005844116211,-38.75746536254883,7.64965295791626,1.0934453010559082,2.5033748149871826,4.951252460479736,4.013881206512451,-0.24853874742984772,4.433055400848389
37,152448,152449,-0.07589434087276459,0.02806549146771431,1.061205506324768,-89.86817169189453,-8.816551208496094,-1.721079707145691,1.1084445714950562,2.497375011444092,4.930253505706787,4.348530292510986,-0.8625980615615845,4.463877201080322
38,152458,152459,-0.09098539501428604,-0.03699760511517525,1.0645233392715454,-67.05665588378906,17.846040725708008,-12.681988716125488,1.1009448766708374,2.519873857498169,4.937753200531006,4.589780330657959,-1.7460535764694214,4.464828014373779
39,152468,152469,-0.11153235286474228,-0.05733703076839447,1.0816855430603027,-13.8944673538208,46.375,-15.656974792480469,1.085945725440979,2.5288734436035156,4.946752548217773,4.428526878356934,-2.1831843852996826,4.263421058654785
40,152478,152479,-0.11764764040708542,-0.10486526787281036,0.9797310829162598,36.75092697143555,69.19842529296875,-12.624109268188477,1.0979450941085815,2.5078744888305664,4.916754245758057,3.7779476642608643,-2.2137582302093506,4.039377212524414
41,152488,152489,-0.09622690826654434,-0.04510394483804703,0.991306722164154,60.56795120239258,76.08601379394531,-11.506168365478516,1.0619468688964844,2.4838757514953613,4.910754203796387,3.3673181533813477,-1.817740559577942,3.8791403770446777
42,152498,152499,-0.08293160796165466,-0.04510953277349472,0.9952947497367859,68.08541870117188,71.65876770019531,-13.674849510192871,1.048447608947754,2.49137544631958,4.924253463745117,2.5321340560913086,-0.9536146521568298,3.6222283840179443
43,152508,152509,-0.12297976016998291,-0.1120244488120079,0.9653371572494507,65.35506439208984,66.51410675048828,-12.611720085144043,1.0544472932815552,2.5003750324249268,4.9182538986206055,2.10620379447937,-0.6251515746116638,3.6479556560516357
44,152518,152519,-0.17938703298568726,-0.14034217596054077,0.8720309734344482,51.54193115234375,60.232139587402344,-12.93994426727295,1.0604469776153564,2.4853756427764893,4.921253681182861,1.2572472095489502,0.12365502119064331,3.4758756160736084
45,152528,152529,-0.09229801595211029,-0.041267696768045425,0.8896592259407043,31.625783920288086,48.57173538208008,-11.363382339477539,1.0649467706680298,2.465876579284668,4.898755073547363,0.7288036346435547,0.4019034504890442,3.4611778259277344
46,152538,152539,-0.15878576040267944,-0.11568243056535721,0.8208602666854858,8.649483680725098,31.91838836669922,-9.95293140411377,1.0379481315612793,2.4508774280548096,4.868756294250488,0.13956040143966675,0.7871297001838684,3.321181535720825
47,152548,152549,-0.13605591654777527,-0.14743509888648987,0.7899240851402283,-14.131006240844727,18.9190731048584,-5.628494739532471,1.0454477071762085,2.4253787994384766,4.861257076263428,0.07107924669981003,0.8654170036315918,3.2389156818389893
48,152558,152559,-0.12563320994377136,-0.08696168661117554,0.8214206099510193,-33.33047103881836,10.55100154876709,-2.8393137454986572,1.0469475984573364,2.432878255844116,4.859756946563721,0.04029987379908562,0.5949708819389343,3.245501756668091
49,152568,152569,-0.14333835244178772,-0.01787450537085533,0.8870729804039001,-47.802490234375,9.711528778076172,-2.534132719039917,1.048447608947754,2.437378168106079,4.876255989074707,-0.1723618060350418,0.2967870235443115,3.2008843421936035
50,152578,152579,-0.1008167415857315,-0.004144943784922361,0.8675289750099182,-59.494468688964844,17.579364776611328,-4.532081127166748,1.0409479141235352,2.462876796722412,4.88075590133667,-0.259586364030838,-0.4965006113052368,3.283952236175537
51,152588,152589,-0.040958255529403687,-0.030353393405675888,0.8709396719932556,-63.18220138549805,24.9880428314209,-8.940177917480469,1.055947184562683,2.471876382827759,4.8897552490234375,-0.42085757851600647,-0.8288742899894714,3.1517698764801025
52,152598,152599,-0.054877471178770065,-0.020361917093396187,0.847916841506958,-47.983211517333984,25.369003295898438,-10.07391357421875,1.042447805404663,2.5033748149871826,4.9182538986206055,-0.7850087881088257,-1.633070945739746,3.106410026550293
53,152608,152609,-0.046405743807554245,-0.0017418130300939083,0.8265427947044373,-22.355697631835938,27.119522094726562,-11.273383140563965,1.0454477071762085,2.4523773193359375,4.882256031036377,-0.937990665435791,-1.890940546989441,2.9450454711914062
54,152618,152619,-0.05451025441288948,-0.0086964201182127,0.8574159145355225,10.345126152038574,26.505905151367188,-12.364770889282227,1.0394480228424072,2.497375011444092,4.8912553787231445,-1.1345900297164917,-2.166215419769287,2.8409860134124756
55,152628,152629,-0.043818652629852295,-0.017916683107614517,0.8332468271255493,40.22163772583008,18.81612777709961,-13.928720474243164,1.0319483280181885,2.4748761653900146,4.886755466461182,-1.4274166822433472,-1.9153691530227661,2.679546356201172
56,152638,152639,-0.031726203858852386,-0.019554421305656433,0.8003823161125183,56.96126937866211,9.321682929992676,-13.757640838623047,1.042447805404663,2.4763760566711426,4.912254333496094,-1.5094330310821533,-1.3855596780776978,2.5116355419158936
57,152648,152649,-0.03375630080699921,-0.05493795871734619,0.8217701315879822,62.96372604370117,-0.1351085752248764,-12.54751968383789,1.0319483280181885,2.4988749027252197,4.925753593444824,-1.5772736072540283,-0.8469507694244385,2.375201940536499
58,152658,152659,-0.04170062392950058,-0.024217531085014343,0.8399434685707092,57.70842742919922,-6.138748645782471,-11.565792083740234,1.048447608947754,2.497375011444092,4.933253288269043,-1.51699960231781,-0.25134173035621643,2.250420093536377
59,152668,152669,-0.012868285179138184,-0.03943921998143196,0.816935658454895,42.96986770629883,-6.483417510986328,-10.363444328308105,1.0319483280181885,2.5078744888305664,4.937753200531006,-1.456527590751648,0.016908977180719376,2.161365509033203
60,152678,152679,-0.016633013263344765,-0.07627686113119125,0.784088671207428,22.844030380249023,-1.9852567911148071,-10.083171844482422,1.0469475984573364,2.5048747062683105,4.9197540283203125,-1.4097108840942383,0.6153680682182312,2.0472536087036133
61,152688,152689,-0.02103986032307148,-0.0518050417304039,0.8257790803909302,1.4900163412094116,4.156518936157227,-9.603398323059082,1.0454477071762085,2.4793760776519775,4.930253505706787,-1.4358903169631958,0.5669417977333069,1.9587289094924927
62,152698,152699,0.020124288275837898,-0.02893238700926304,0.9040254950523376,-16.923974990844727,10.664005279541016,-9.20753288269043,1.0439478158950806,2.489875555038452,4.9197540283203125,-1.5536797046661377,0.5670344829559326,1.8639363050460815
63,152708,152709,0.03349387273192406,-0.07156591862440109,0.9344950318336487,-29.219202041625977,16.156888961791992,-8.55370807647705,1.0394480228424072,2.5033748149871826,4.933253288269043,-1.6393319368362427,0.501448929309845,1.7728643417358398
64,152718,152719,-0.02582704834640026,-0.04914858564734459,0.9014129042625427,-33.371158599853516,18.248455047607422,-7.546000003814697,1.0529472827911377,2.519873857498169,4.931753158569336,-1.934584140777588,0.1795053780078888,1.6849706172943115
65,152728,152729,-0.029447341337800026,-0.03344537317752838,0.9150024056434631,-29.50554656982422,17.509292602539062,-6.966344833374023,1.0439478158950806,2.5138742923736572,4.946752548217773,-2.235058307647705,-0.24920645356178284,1.6013405323028564
66,152738,152739,-0.023550091311335564,-0.022140242159366608,0.9293702840805054,-15.862383842468262,12.496419906616211,-6.060182094573975,1.0319483280181885,2.519873857498169,4.949752330780029,-2.4184298515319824,-0.6276070475578308,1.5245920419692993
67,152748,152749,-0.018918078392744064,-0.02349264919757843,0.9399833679199219,2.039872407913208,5.240666389465332,-5.875831604003906,1.0319483280181885,2.5258736610412598,4.937753200531006,-2.516340494155884,-0.6886882185935974,1.4729349613189697
68,152758,152759,-0.012531546875834465,-0.022124456241726875,0.9643028974533081,21.377042770385742,-4.432876110076904,-6.232905387878418,1.042447805404663,2.5273735523223877,4.930253505706787,-2.5555636882781982,-0.5995908975601196,1.421959638595581
69,152768,152769,-0.034106288105249405,-0.034650035202503204,0.9628233909606934,37.42527770996094,-9.874492645263672,-6.134835243225098,1.0304484367370605,2.521373987197876,4.9482526779174805,-2.5842292308807373,-0.14377038180828094,1.3936090469360352
70,152778,152779,-0.030704418197274208,-0.03519313409924507,0.9549546837806702,48.42692947387695,-7.982804298400879,-5.0069966316223145,1.042447805404663,2.542372941970825,4.96325159072876,-2.4144039154052734,-0.16091787815093994,1.270182728767395
71,152788,152789,-0.02200600877404213,-0.048616014420986176,0.9342818260192871,45.02058410644531,-6.598779201507568,-4.015324115753174,1.033448338508606,2.542372941970825,4.966251373291016,-2.2706549167633057,0.38885605335235596,1.237056851387024
72,152798,152799,-0.02884582243859768,-0.046393848955631256,0.9384970664978027,34.08523178100586,-8.569327354431152,-3.8371763229370117,1.0349482297897339,2.549872398376465,4.967751502990723,-2.3486673831939697,0.6366817951202393,1.1539157629013062
73,152808,152809,-0.04433745518326759,-0.04132545739412308,0.9612935185432434,19.06424331665039,-12.688915252685547,-3.928323745727539,1.0304484367370605,2.5333733558654785,4.96325159072876,-2.302624464035034,1.1884522438049316,1.159849762916565
74,152818,152819,-0.02620093896985054,-0.025276273488998413,0.9710614085197449,4.799158573150635,-12.858820915222168,-5.709225654602051,1.0379481315612793,2.543872833251953,4.958752155303955,-2.416696310043335,1.1289900541305542,1.0496617555618286
75,152828,152829,-0.03470298647880554,0.00602033780887723,0.9921351671218872,-5.68657112121582,-12.582728385925293,-6.913084030151367,1.0439478158950806,2.5318734645843506,4.973751068115234,-2.1505582332611084,1.221827745437622,1.0118861198425293
76,152838,152839,-0.025850718840956688,-0.044251129031181335,0.9844053387641907,-6.205073833465576,-13.306368827819824,-7.951120853424072,1.033448338508606,2.5513722896575928,4.96325159072876,-1.9735912084579468,0.9716750383377075,0.897387683391571
77,152848,152849,-0.012259779497981071,-0.0662585198879242,0.9731202721595764,-2.2097456455230713,-15.426407814025879,-8.02763843536377,1.0439478158950806,2.543872833251953,4.967751502990723,-1.7134147882461548,0.9525715112686157,0.8398672938346863
78,152858,152859,-0.0832267701625824,-0.1125841960310936,1.0173428058624268,9.19986343383789,-22.17413902282715,-7.7134928703308105,1.048447608947754,2.5513722896575928,4.96925163269043,-1.7581843137741089,0.8774189352989197,0.722326934337616
79,152868,152869,-0.16371625661849976,-0.15364626049995422,1.0697171688079834,25.549100875854492,-28.605113983154297,-4.624278545379639,1.0514473915100098,2.5393729209899902,4.9722514152526855,-1.4725180864334106,1.1534932851791382,0.6969719529151917
80,152878,152879,-0.13591773808002472,-0.15758244693279266,1.0626929998397827,37.08635330200195,-30.541168212890625,-0.0693589523434639,1.0409479141235352,2.5318734645843506,4.9707512855529785,-1.5340203046798706,1.3912707567214966,0.5980424284934998
81,152888,152889,-0.03752801939845085,-0.05840475484728813,1.0182095766067505,27.93428611755371,-23.44399642944336,5.578216075897217,1.0499475002288818,2.5648717880249023,4.991750240325928,-1.0643622875213623,1.7422986030578613,0.6139694452285767
82,152898,152899,-0.032286468893289566,-0.050228916108608246,1.0153725147247314,5.005154609680176,-20.97747802734375,9.063121795654297,1.0409479141235352,2.549872398376465,5.003749847412109,-0.9868069887161255,1.793584942817688,0.589866042137146
83,152908,152909,0.023097069934010506,-0.018108749762177467,1.0359214544296265,-12.836709976196289,-21.726341247558594,10.167485237121582,1.055947184562683,2.543872833251953,4.979751110076904,-0.9188917875289917,1.880831003189087,0.6537243127822876
84,152918,152919,0.005647906567901373,-0.0427151620388031,1.0056599378585815,-27.772733688354492,-23.127666473388672,7.7763752937316895,1.0604469776153564,2.5513722896575928,4.9992499351501465,-0.8205956816673279,1.6799219846725464,0.7078683972358704
85,152928,152929,0.015803316608071327,0.0684930831193924,1.0321365594863892,-34.068084716796875,-21.938282012939453,3.133343458175659,1.0529472827911377,2.5618717670440674,5.0007500648498535,-0.36385780572891235,1.265744924545288,0.7987156510353088
86,152938,152939,0.0036542266607284546,0.05221047252416611,1.0398380756378174,-34.08993148803711,-27.47163200378418,-0.22564193606376648,1.0469475984573364,2.5588719844818115,5.009749412536621,-0.40434661507606506,1.2015479803085327,0.816999614238739
87,152948,152949,-0.044332489371299744,-0.03571701794862747,1.0127778053283691,-24.194990158081055,-29.895105361938477,-2.728440046310425,1.055947184562683,2.567871570587158,4.994750022888184,-0.11403273791074753,0.7350034117698669,0.7930074334144592
88,152958,152959,0.011112991720438004,-0.021044516935944557,0.9872627258300781,-5.91588020324707,-28.217920303344727,-3.5251569747924805,1.073946237564087,2.5648717880249023,5.003749847412109,0.066268190741539,0.5340107083320618,0.74073326587677
89,152968,152969,0.014881237410008907,-0.03560202196240425,1.0985097885131836,16.904830932617188,-23.792139053344727,-3.3024802207946777,1.0649467706680298,2.567871570587158,4.97675085067749,0.35308197140693665,0.6427210569381714,0.7212552428245544
90,152978,152979,0.016601668670773506,-0.12083177268505096,1.0705175399780273,38.06595993041992,-25.263864517211914,-2.034013271331787,1.0589470863342285,2.567871570587158,4.988750457763672,0.5149235129356384,0.6936806440353394,0.6586956977844238
91,152988,152989,-0.036763545125722885,-0.05516669154167175,1.0708584785461426,43.53134536743164,-29.642953872680664,1.8798679113388062,1.057447075843811,2.575371265411377,5.002249717712402,0.780128002166748,1.2644585371017456,0.6504794955253601
92,152998,152999,-0.12564143538475037,-0.028578026220202446,1.131420612335205,29.640195846557617,-33.9301643371582,5.700413227081299,1.0769461393356323,2.5798709392547607,5.024748802185059,1.1097959280014038,1.683712363243103,0.6685018539428711
93,153008,153009,-0.09769021719694138,-0.03925091400742531,1.1117959022521973,11.103899955749512,-27.77035140991211,7.381466388702393,1.0754462480545044,2.572371244430542,5.020248889923096,1.3380342721939087,1.908867597579956,0.6924862265586853
94,153018,153019,-0.06733370572328568,-0.06659308075904846,1.087828278541565,-0.8287491202354431,-11.88951301574707,6.670199871063232,1.073946237564087,2.5798709392547607,5.006749629974365,1.4136146306991577,1.8835283517837524,0.7173666954040527
95,153028,153029,-0.08513214439153671,-0.061006590723991394,1.061630368232727,-15.954171180725098,-4.676586627960205,5.897404193878174,1.0754462480545044,2.545372724533081,4.984250545501709,1.7127854824066162,1.862667202949524,0.8210998177528381
96,153038,153039,-0.04749486595392227,-0.032514538615942,1.054633378982544,-30.93597984313965,-5.897059440612793,3.714478015899658,1.0664466619491577,2.548372507095337,4.993250370025635,1.6205570697784424,1.7342829704284668,0.8392805457115173
97,153048,153049,-0.0687899962067604,-0.10647241026163101,1.0215593576431274,-42.49430465698242,-13.905826568603516,-0.9645504355430603,1.0649467706680298,2.549872398376465,4.985750675201416,1.501187801361084,1.3057588338851929,0.8430165648460388
98,153058,153059,-0.04059982672333717,-0.032330505549907684,1.009393334388733,-44.449066162109375,-30.560317993164062,-5.275965213775635,1.0679465532302856,2.546872615814209,4.991750240325928,1.7166943550109863,0.9904857873916626,0.8303431868553162
99,153068,153069,-0.06568344682455063,-0.019630184397101402,0.976888120174408,-29.326921463012695,-45.67216110229492,-11.277291297912598,1.0799460411071777,2.546872615814209,4.9977498054504395,2.2341368198394775,0.4283550977706909,0.849885106086731
100,153078,153079,-0.09043136239051819,-0.017896806821227074,0.9416313171386719,-4.244290351867676,-56.885986328125,-13.82808780670166,1.0754462480545044,2.5573720932006836,4.984250545501709,2.340329170227051,0.2920345962047577,0.6253895163536072
101,153088,153089,-0.04876330494880676,0.03417026251554489,1.0076367855072021,27.670978546142578,-55.97825622558594,-10.000948905944824,1.0844457149505615,2.569371461868286,5.008249282836914,3.1153066158294678,0.36996161937713623,0.5091028809547424
102,153098,153099,-0.03975233435630798,0.006644200533628464,1.053288459777832,48.13758850097656,-42.251895904541016,-6.308603286743164,1.0694465637207031,2.5573720932006836,4.993250370025635,3.532529830932617,0.6593990921974182,0.3723473846912384
103,153108,153109,-0.044822219759225845,-0.054428040981292725,1.028393030166626,45.01285934448242,-19.44666862487793,-3.5646865367889404,1.0814459323883057,2.569371461868286,5.032248497009277,4.264479160308838,1.1984974145889282,0.3463824391365051
104,153118,153119,-0.05933014303445816,-0.04911017045378685,1.0338915586471558,20.468769073486328,-0.6237046718597412,-3.5958662033081055,1.0754462480545044,2.572371244430542,5.023248672485352,4.167072772979736,1.5812406539916992,0.2721461355686188
105,153128,153129,-0.03791959956288338,-0.08252090960741043,1.0194891691207886,-13.394230842590332,13.259259223937988,-3.9288289546966553,1.0829458236694336,2.549872398376465,4.98275089263916,4.217525959014893,1.8329646587371826,0.22603623569011688
106,153138,153139,-0.042939797043800354,-0.08141577243804932,0.9825307726860046,-45.66909408569336,22.69649314880371,-4.825467586517334,1.073946237564087,2.5528724193573,5.003749847412109,4.062823295593262,1.5811189413070679,0.24101769924163818
107,153148,153149,-0.02562403492629528,0.02588479220867157,1.0714489221572876,-56.80193328857422,38.182594299316406,-4.475381374359131,1.0934453010559082,2.548372507095337,4.9992499351501465,3.7158336639404297,1.0995471477508545,0.19259434938430786
108,153158,153159,-0.03365536406636238,-0.019874637946486473,1.085350513458252,-49.683021545410156,36.09563064575195,-4.646656513214111,1.0829458236694336,2.570871353149414,5.0007500648498535,3.2736237049102783,0.5068486928939819,0.1556404083967209
109,153168,153169,-0.020417572930455208,0.002291301963850856,1.09564208984375,-28.565290451049805,26.885719299316406,-6.376034736633301,1.0769461393356323,2.567871570587158,4.994750022888184,2.9652132987976074,0.0048587741330266,0.12785440683364868
110,153178,153179,-0.053362131118774414,-0.03262142464518547,1.122518539428711,-10.788578987121582,8.435688972473145,-10.766507148742676,1.0754462480545044,2.5603718757629395,5.002249717712402,2.697244644165039,-0.3052719831466675,0.07145286351442337
111,153188,153189,-0.046551067382097244,-0.028542250394821167,1.093097448348999,10.977404594421387,-7.082294464111328,-14.735917091369629,1.0814459323883057,2.5513722896575928,4.987250328063965,2.5792953968048096,-0.2124290019273758,-0.14373654127120972
112,153198,153199,-0.13975687325000763,-0.11259977519512177,1.0953606367111206,30.161197662353516,-16.861448287963867,-15.288926124572754,1.0889455080032349,2.5558722019195557,4.9707512855529785,2.883467197418213,-0.00589367188513279,-0.30012398958206177
113,153208,153209,-0.09624715894460678,-0.06965383142232895,1.0404555797576904,44.85433578491211,-17.0598201751709,-14.732264518737793,1.0844457149505615,2.548372507095337,4.981250762939453,3.1485626697540283,0.4886350631713867,-0.5392806529998779
114,153218,153219,-0.05420009419322014,-0.036382079124450684,1.071730375289917,47.27716064453125,-8.9915132522583,-11.551065444946289,1.072446346282959,2.545372724533081,4.975251197814941,3.3804750442504883,0.7438518404960632,-0.5692797899246216
115,153228,153229,0.04739702120423317,-0.04776093363761902,1.0151238441467285,33.681575775146484,2.7206315994262695,-9.615365028381348,1.0649467706680298,2.546872615814209,4.988750457763672,3.463942766189575,1.4806268215179443,-0.8371057510375977
116,153238,153239,-0.0392627939581871,-0.04382165148854256,1.0665028095245361,8.309310913085938,10.109758377075195,-7.84410285949707,1.0829458236694336,2.5348732471466064,4.97675085067749,3.362318277359009,1.6438888311386108,-0.8431582450866699
117,153248,153249,-0.08141431957483292,-0.07693743705749512,1.0842028856277466,-16.030319213867188,15.76474380493164,-8.370083808898926,1.0769461393356323,2.519873857498169,4.955751895904541,3.2371296882629395,1.6962560415267944,-0.9002177119255066
118,153258,153259,-0.11357434839010239,-0.06266342848539352,1.067365288734436,-27.822641372680664,22.82674789428711,-7.086362838745117,1.0814459323883057,2.518373966217041,4.951252460479736,3.0145232677459717,1.397167444229126,-0.9002717137336731
119,153268,153269,-0.17476190626621246,-0.07658502459526062,1.105688452720642,-27.83464241027832,34.51998519897461,-3.669983148574829,1.070946455001831,2.5348732471466064,4.964751720428467,2.7867977619171143,1.1055575609207153,-0.9508256912231445
120,153278,153279,-0.11045914888381958,-0.03954237699508667,1.0380828380584717,-19.02962875366211,45.06879806518555,0.5700399279594421,1.0784460306167603,2.518373966217041,4.960251808166504,2.2191293239593506,0.8391614556312561,-1.0195200443267822
121,153288,153289,-0.08188710361719131,0.07114157825708389,1.0153368711471558,-4.152957439422607,47.475894927978516,3.096243143081665,1.070946455001831,2.5378730297088623,4.961751937866211,1.5290629863739014,0.7267471551895142,-1.0898640155792236
122,153298,153299,-0.048790838569402695,0.07662265747785568,1.031429409980774,11.021081924438477,36.40984344482422,3.3627543449401855,1.0664466619491577,2.524373769760132,4.9482526779174805,1.4938273429870605,0.764635443687439,-1.0355740785598755
123,153308,153309,-0.04047723487019539,-0.02562653459608555,1.021470069885254,23.19505500793457,20.16880226135254,1.8656775951385498,1.0604469776153564,2.515374183654785,4.957252025604248,1.0160937309265137,0.8463601469993591,-1.004701018333435
124,153318,153319,0.006795121356844902,0.018518924713134766,1.0173697471618652,26.73270606994629,3.3796045780181885,1.964369773864746,1.0664466619491577,2.5093743801116943,4.957252025604248,0.807844340801239,1.154278039932251,-1.0238614082336426
125,153328,153329,0.005883948877453804,0.01061268150806427,0.992892861366272,21.306140899658203,-22.224185943603516,3.4406964778900146,1.0619468688964844,2.5138742923736572,4.946752548217773,0.9035779237747192,1.5599303245544434,-1.0517998933792114
126,153338,153339,-0.006223759148269892,0.005824047606438398,0.9823662638664246,5.246862411499023,-41.272064208984375,5.516908645629883,1.0634467601776123,2.5093743801116943,4.9422526359558105,1.399322748184204,1.6893714666366577,-0.9509045481681824
127,153348,153349,-0.0710441917181015,-0.023267658427357674,0.9693282246589661,-19.045034408569336,-36.41594696044922,5.468198299407959,1.0634467601776123,2.5033748149871826,4.96925163269043,1.8814997673034668,1.5917409658432007,-0.8376685976982117
128,153358,153359,-0.031199108809232712,-0.005303286947309971,1.0130223035812378,-36.679508209228516,-19.1429500579834,2.5083279609680176,1.070946455001831,2.5108745098114014,4.958752155303955,2.271336555480957,1.1966397762298584,-0.7078722715377808
129,153368,153369,-0.038620177656412125,-0.03835931420326233,0.9692324995994568,-42.75658416748047,2.4739952087402344,1.1797988414764404,1.073946237564087,2.5018749237060547,4.937753200531006,2.2208144664764404,0.9919894337654114,-0.7893604636192322
130,153378,153379,-0.10845772922039032,-0.037186212837696075,0.9914584159851074,-36.13338088989258,30.87118911743164,4.01770544052124,1.0919454097747803,2.5108745098114014,4.940752983093262,2.1658127307891846,0.5221326947212219,-0.7605303525924683
131,153388,153389,-0.05759672075510025,-0.0405416414141655,0.9436280131340027,-25.349044799804688,48.18416976928711,7.758167743682861,1.0619468688964844,2.516874074935913,4.937753200531006,1.7399080991744995,0.042725883424282074,-0.6877990961074829
132,153398,153399,-0.042432788759469986,-0.024380851536989212,0.9553783535957336,-16.177717208862305,52.30274200439453,9.484402656555176,1.0469475984573364,2.516874074935913,4.940752983093262,1.3750700950622559,-0.06250649690628052,-0.6526914238929749
133,153408,153409,-0.034292567521333694,-0.02479870803654194,0.9758303761482239,-6.726054668426514,51.79255676269531,10.17336654663086,1.0694465637207031,2.5123744010925293,4.9482526779174805,0.6107387542724609,0.11373243480920792,-0.7086337208747864
134,153418,153419,-0.00812804140150547,-0.030316127464175224,0.9520518183708191,0.8928734660148621,42.89786911010742,8.800653457641602,1.0649467706680298,2.519873857498169,4.931753158569336,-0.0948612242937088,-0.008942944929003716,-0.6100469827651978
135,153428,153429,-0.01462121307849884,-0.01394741889089346,0.9689276814460754,11.147445678710938,25.5827579498291,5.623348236083984,1.0604469776153564,2.515374183654785,4.936253070831299,-0.4010647237300873,0.01926766335964203,-0.5187740921974182
136,153438,153439,0.030219092965126038,-0.01105575729161501,0.9515488147735596,21.4781436920166,4.864818096160889,3.354647159576416,1.0589470863342285,2.516874074935913,4.943752765655518,-0.6781949400901794,0.21785882115364075,-0.4860154092311859
137,153448,153449,-0.03250451758503914,-0.030627179890871048,0.9648209810256958,28.05732536315918,-26.49569320678711,1.9324074983596802,1.0409479141235352,2.492875337600708,4.943752765655518,-0.4957110285758972,0.4264909029006958,-0.4388076066970825
138,153458,153459,-0.08401655405759811,-0.06081102788448334,0.9506179690361023,23.135412216186523,-43.02107620239258,1.7282832860946655,1.0544472932815552,2.5033748149871826,4.951252460479736,-0.1847306787967682,0.8247454166412354,-0.44150248169898987
139,153468,153469,-0.06540291011333466,-0.07045304775238037,0.9388127326965332,10.96834659576416,-43.8968505859375,2.572777509689331,1.0544472932815552,2.5303733348846436,4.966251373291016,0.3361247181892395,0.8967603445053101,-0.40150323510169983
140,153478,153479,-0.05112072080373764,-0.07589800655841827,0.9956177473068237,-5.083647727966309,-33.87910842895508,2.8330252170562744,1.0604469776153564,2.524373769760132,4.960251808166504,0.8942059278488159,0.9829682111740112,-0.373845636844635
141,153488,153489,-0.013719788752496243,-0.03569519892334938,0.9676629900932312,-23.076875686645508,-18.550159454345703,2.40775990486145,1.070946455001831,2.516874074935913,4.955751895904541,1.2318590879440308,0.7895079851150513,-0.33164042234420776
142,153498,153499,-0.025491831824183464,-0.04523274302482605,0.9816608428955078,-40.33673095703125,-8.089200973510742,0.5222352147102356,1.0649467706680298,2.519873857498169,4.952752113342285,1.2004624605178833,0.45144832134246826,-0.3106667697429657
143,153508,153509,-0.10602445900440216,-0.07657831162214279,0.9892130494117737,-51.26618576049805,4.995253086090088,-1.77772057056427,1.073946237564087,2.522873878479004,4.940752983093262,1.2982531785964966,0.08365330845117569,-0.31039273738861084
144,153518,153519,-0.04096924886107445,-0.0524061918258667,0.9778874516487122,-49.9603157043457,17.776731491088867,-4.202866077423096,1.070946455001831,2.5138742923736572,4.946752548217773,1.1694492101669312,-0.6340000629425049,-0.30699852108955383
145,153528,153529,-0.021733608096837997,-0.03183068335056305,0.9508935213088989,-31.50946617126465,30.459651947021484,-4.641978740692139,1.0664466619491577,2.5333733558654785,4.951252460479736,0.9760094285011292,-0.9010157585144043,-0.3807765245437622
146,153538,153539,0.03948467969894409,0.0016888997051864862,0.9844877123832703,-6.144082546234131,30.612077713012695,-3.9913644790649414,1.0754462480545044,2.5363731384277344,4.966251373291016,0.5650923252105713,-1.2110776901245117,-0.4330841302871704
147,153548,153549,0.0189162939786911,-0.02001154236495495,1.0702509880065918,20.488977432250977,22.41699981689453,-4.027609825134277,1.072446346282959,2.548372507095337,4.9482526779174805,0.32256636023521423,-1.1729815006256104,-0.4901174306869507
148,153558,153559,-0.05487806722521782,-0.04145362228155136,1.0112025737762451,39.455299377441406,11.11702823638916,-3.642993927001953,1.0529472827911377,2.5318734645843506,4.964751720428467,0.09401606023311615,-0.8502470850944519,-0.5433239340782166
149,153568,153569,-0.07313340902328491,-0.11823578178882599,1.0184688568115234,44.91086196899414,1.8326987028121948,-1.9543943405151367,1.0439478158950806,2.5348732471466064,4.952752113342285,-0.2090582251548767,-0.5566743016242981,-0.5627782344818115
150,153578,153579,0.01492248009890318,-0.0609285943210125,0.9945911169052124,37.93244171142578,-6.160708427429199,0.34663790464401245,1.0454477071762085,2.5303733348846436,4.978250980377197,-0.20837604999542236,0.05374152585864067,-0.5921118855476379
151,153588,153589,-0.0034036210272461176,-0.036813072860240936,0.9533114433288574,22.351816177368164,-8.433836936950684,2.2752203941345215,1.0619468688964844,2.5348732471466064,4.961751937866211,-0.0001058789566741325,0.08942312747240067,-0.589653491973877
152,153598,153599,0.04343144968152046,-0.011144386604428291,0.9056603908538818,-1.0782397985458374,-6.519871711730957,2.756711959838867,1.0544472932815552,2.524373769760132,4.96325159072876,0.002701162826269865,0.27353811264038086,-0.5597189664840698
153,153608,153609,-0.012070517055690289,-0.024915343150496483,0.9602909684181213,-21.816617965698242,-6.561468124389648,2.4316468238830566,1.0544472932815552,2.518373966217041,4.945252418518066,0.064425989985466,0.16297166049480438,-0.5313636064529419
154,153618,153619,-0.03494764864444733,-0.03572626784443855,0.9826380014419556,-33.98986053466797,-6.767871379852295,3.3603529930114746,1.0589470863342285,2.519873857498169,4.940752983093262,0.1330394595861435,-0.046366944909095764,-0.5056596398353577
155,153628,153629,-0.022900069132447243,-0.058678872883319855,0.9695080518722534,-36.96477508544922,-6.8578715324401855,2.507425308227539,1.0649467706680298,2.543872833251953,4.958752155303955,0.2160462886095047,-0.48656579852104187,-0.4742988348007202
156,153638,153639,0.07106446474790573,0.014978673309087753,0.9493260979652405,-27.952138900756836,-3.1484742164611816,0.7504492998123169,1.0604469776153564,2.5363731384277344,4.951252460479736,0.19828954339027405,-0.7811340689659119,-0.4425358176231384
157,153648,153649,0.0152276661247015,0.04609907791018486,1.0250154733657837,-10.506708145141602,3.4727039337158203,-1.0484360456466675,1.0664466619491577,2.521373987197876,4.9422526359558105,0.18686245381832123,-0.9702441096305847,-0.43013325333595276
158,153658,153659,-0.017832711338996887,-0.024559801444411278,1.0021289587020874,9.067875862121582,5.648945331573486,-2.384615182876587,1.0589470863342285,2.519873857498169,4.931753158569336,0.1622445285320282,-1.068839430809021,-0.441226065158844
159,153668,153669,-0.09880593419075012,-0.07173503935337067,0.9707862138748169,29.391319274902344,13.0905179977417,-3.3622655868530273,1.055947184562683,2.4988749027252197,4.943752765655518,0.07416126132011414,-0.9893130660057068,-0.46306973695755005
160,153678,153679,-0.02032741904258728,-0.051664821803569794,0.9451457262039185,44.97463607788086,19.22850227355957,-3.6264164447784424,1.048447608947754,2.5123744010925293,4.930253505706787,-0.1430073082447052,-0.5853862166404724,-0.4842970371246338
161,153688,153689,-0.035677868872880936,-0.04579698294401169,0.8451545834541321,45.34183883666992,17.83844757080078,-3.649338960647583,1.055947184562683,2.5138742923736572,4.952752113342285,-0.2236218899488449,-0.13737913966178894,-0.5370385050773621
162,153698,153699,-0.02114279195666313,-0.052590664476156235,0.8351362347602844,32.17999267578125,12.065107345581055,-4.171361923217773,1.0634467601776123,2.524373769760132,4.951252460479736,-0.6825441718101501,0.25860124826431274,-0.5405207872390747
163,153708,153709,-0.04474034532904625,-0.07906514406204224,0.897685170173645,10.850476264953613,2.3482072353363037,-3.296996593475342,1.0529472827911377,2.5108745098114014,4.943752765655518,-0.5833294987678528,0.5370602607727051,-0.6104653477668762
164,153718,153719,-0.029336677864193916,-0.062433622777462006,0.9187875390052795,-10.220658302307129,-11.723493576049805,-0.7989292144775391,1.0364481210708618,2.5093743801116943,4.933253288269043,-0.5117626786231995,0.6141120791435242,-0.6520748734474182
165,153728,153729,-0.015577778220176697,-0.01812688261270523,0.9472455978393555,-28.71206283569336,-23.909645080566406,1.2205357551574707,1.0589470863342285,2.5048747062683105,4.937753200531006,-0.4316691756248474,0.3577675223350525,-0.6706441044807434
166,153738,153739,0.031329236924648285,-0.003908864222466946,0.9532573819160461,-38.1223258972168,-28.89509391784668,3.678537130355835,1.057447075843811,2.521373987197876,4.954252243041992,-0.047321148216724396,0.06216859072446823,-0.6716722249984741
167,153748,153749,-0.030223660171031952,-0.015601558610796928,0.965724766254425,-37.948204040527344,-27.449054718017578,6.65116548538208,1.0649467706680298,2.5318734645843506,4.967751502990723,0.3115782141685486,-0.4204334020614624,-0.6509405970573425
168,153758,153759,-0.016218222677707672,-0.03388427570462227,0.9449828267097473,-29.91147804260254,-20.81865692138672,9.22785472869873,1.0589470863342285,2.5378730297088623,4.964751720428467,0.267353355884552,-0.7114891409873962,-0.5437502861022949
169,153768,153769,0.04024941846728325,0.03207717835903168,0.9958999156951904,-14.19159984588623,-10.710700988769531,10.650731086730957,1.070946455001831,2.5558722019195557,4.964751720428467,0.615906298160553,-1.0072269439697266,-0.4625958204269409
170,153778,153779,0.011645431630313396,-0.021995898336172104,1.0577194690704346,7.8338236808776855,-0.0744546502828598,12.786876678466797,1.0649467706680298,2.5258736610412598,4.952752113342285,0.48779425024986267,-1.052541732788086,-0.32220467925071716
171,153788,153789,-0.05311514437198639,-0.028611894696950912,0.9996964335441589,24.640844345092773,7.342771053314209,12.188931465148926,1.0679465532302856,2.5378730297088623,4.961751937866211,0.49991118907928467,-0.834221363067627,-0.18532980978488922
172,153798,153799,-0.08273138105869293,-0.1054699495434761,0.9498963952064514,31.232498168945312,9.523296356201172,9.730082511901855,1.0604469776153564,2.542372941970825,4.960251808166504,0.34040963649749756,-0.6198385953903198,-0.05531137064099312
173,153808,153809,-0.06165071204304695,-0.028104357421398163,0.9691015481948853,26.377391815185547,2.693950891494751,5.497719764709473,1.0694465637207031,2.5543723106384277,4.978250980377197,0.33089426159858704,-0.1306414157152176,0.04652051627635956
174,153818,153819,-0.02224171906709671,0.0031695691868662834,0.9554911851882935,17.468505859375,-4.9576897621154785,3.032702684402466,1.0679465532302856,2.540872812271118,4.967751502990723,0.3491242229938507,-0.09457450360059738,0.07598736137151718
175,153828,153829,-0.008047078736126423,-0.007005548570305109,0.9268242716789246,5.311233997344971,-13.199670791625977,1.026114821434021,1.070946455001831,2.522873878479004,4.9707512855529785,0.4235791862010956,0.013045045547187328,0.09672786295413971
176,153838,153839,0.009384110569953918,-0.012873274274170399,0.9656174778938293,-8.921247482299805,-20.71942710876465,-0.8721940517425537,1.073946237564087,2.5378730297088623,4.9707512855529785,0.7173731327056885,-0.0263071171939373,0.07954095304012299
177,153848,153849,0.038330014795064926,0.03653432056307793,0.9323982000350952,-18.919048309326172,-23.223722457885742,-1.9984186887741089,1.0694465637207031,2.521373987197876,4.975251197814941,0.6609501242637634,-0.057385340332984924,0.10561349987983704
178,153858,153859,-0.0051648616790771484,-0.048164382576942444,0.9464720487594604,-22.272319793701172,-27.606765747070312,-4.653940677642822,1.0754462480545044,2.5273735523223877,4.9722514152526855,0.967777669429779,-0.23443947732448578,0.07626278698444366
179,153868,153869,-0.03364754095673561,-0.03351207822561264,0.9500526189804077,-14.171517372131348,-30.811962127685547,-6.274410247802734,1.0694465637207031,2.545372724533081,4.978250980377197,1.258183479309082,-0.3541505038738251,0.0354762002825737
180,153878,153879,-0.018755387514829636,-0.04092038795351982,0.9980040788650513,5.212231636047363,-26.95456314086914,-6.54973030090332,1.085945725440979,2.549872398376465,4.988750457763672,1.432448387145996,-0.5034923553466797,-0.011811596341431141
181,153888,153889,-0.016807543113827705,-0.016880836337804794,1.0191563367843628,25.800567626953125,-13.701751708984375,-5.304065227508545,1.0589470863342285,2.5618717670440674,4.97675085067749,1.8532814979553223,-0.3126305341720581,-0.08955342322587967
182,153898,153899,-0.025934401899576187,0.008349191397428513,1.0950483083724976,33.062355041503906,-4.010476112365723,-5.542693138122559,1.0844457149505615,2.5513722896575928,4.987250328063965,2.136242628097534,-0.1427079737186432,-0.15816162526607513
183,153908,153909,-0.011533962562680244,-0.03510536998510361,1.041075348854065,25.331653594970703,1.9194464683532715,-6.927602291107178,1.0829458236694336,2.5558722019195557,4.98275089263916,2.0568315982818604,0.301942378282547,-0.20609839260578156
184,153918,153919,-0.06113317981362343,-0.06527132540941238,1.0624403953552246,8.078834533691406,11.43991470336914,-6.900389671325684,1.0664466619491577,2.5573720932006836,4.9992499351501465,1.8613982200622559,0.4305644929409027,-0.25175973773002625
185,153928,153929,-0.047451555728912354,-0.03683064877986908,1.080757975578308,-13.177611351013184,24.53693962097168,-7.444797515869141,1.0769461393356323,2.5588719844818115,4.98275089263916,1.6580708026885986,0.46156761050224304,-0.3093126714229584
186,153938,153939,-0.04533473029732704,-0.03014535829424858,1.0670747756958008,-25.19255256652832,37.20774459838867,-8.559515953063965,1.0649467706680298,2.5618717670440674,4.98275089263916,1.5283522605895996,0.26682111620903015,-0.3873291015625
187,153948,153949,-0.06709785759449005,-0.1224774643778801,1.0075263977050781,-22.16966438293457,43.12808609008789,-7.442224025726318,1.057447075843811,2.572371244430542,4.996250152587891,0.9157311916351318,-0.12855389714241028,-0.4416940212249756
188,153958,153959,-0.0371338352560997,-0.05233021825551987,1.053171157836914,-10.316852569580078,31.289310455322266,-5.374238014221191,1.070946455001831,2.5648717880249023,4.9977498054504395,0.3077087700366974,-0.27661558985710144,-0.5086304545402527
189,153968,153969,-0.011947470717132092,-0.01717645488679409,1.056718111038208,1.5161285400390625,3.4156103134155273,-4.155419826507568,1.0604469776153564,2.578371047973633,4.993250370025635,0.11936716735363007,-0.31316080689430237,-0.5730493664741516
190,153978,153979,-0.0493595115840435,-0.04410350322723389,1.052076816558838,15.470759391784668,-27.622661590576172,-3.2334554195404053,1.055947184562683,2.5528724193573,4.97675085067749,0.18124549090862274,-0.20972712337970734,-0.6223035454750061
191,153988,153989,-0.03525629639625549,0.1032496839761734,1.0774519443511963,26.164531707763672,-53.87705993652344,-2.2316198348999023,1.0649467706680298,2.5378730297088623,4.973751068115234,0.6924875378608704,-0.062228403985500336,-0.6703052520751953
192,153998,153999,-0.08030258119106293,-0.017778795212507248,1.0956270694732666,30.750648498535156,-74.68197631835938,-0.36314594745635986,1.0649467706680298,2.543872833251953,4.985750675201416,0.985349714756012,0.18406300246715546,-0.6738694310188293
193,154008,154009,-0.0466238372027874,-0.040407322347164154,1.0948197841644287,29.534456253051758,-79.21895599365234,3.1000559329986572,1.0649467706680298,2.5648717880249023,5.006749629974365,1.9165925979614258,0.5588499903678894,-0.6963355541229248
194,154018,154019,-0.03931600600481033,-0.007991161197423935,1.1548364162445068,19.459983825683594,-66.1668930053711,7.60322904586792,1.0979450941085815,2.567871570587158,5.015748977661133,2.8888726234436035,0.7904262542724609,-0.6794310212135315
195,154028,154029,-0.03910986706614494,-0.043743766844272614,1.2232869863510132,12.549640655517578,-37.4915885925293,10.319013595581055,1.0889455080032349,2.5648717880249023,5.012749195098877,3.404252290725708,0.9439565539360046,-0.6041640639305115
196,154038,154039,-0.058515988290309906,-0.027154259383678436,1.170551061630249,2.417494773864746,8.176854133605957,12.036344528198242,1.0829458236694336,2.549872398376465,4.9977498054504395,3.703664779663086,1.1080896854400635,-0.5127219557762146
197,154048,154049,-0.03144996985793114,-0.025580797344446182,1.1014617681503296,-3.3931918144226074,49.544395446777344,11.271702766418457,1.0994449853897095,2.545372724533081,4.981250762939453,3.4527668952941895,1.115686297416687,-0.38776329159736633
198,154058,154059,-0.022834546864032745,-0.048513222485780716,1.0166107416152954,-4.259029388427734,76.96634674072266,8.020767211914062,1.085945725440979,2.5288734436035156,4.955751895904541,2.8963229656219482,1.0489287376403809,-0.26173123717308044
199,154068,154069,-0.02446557953953743,-0.04342161491513252,1.0195695161819458,0.42623206973075867,78.61588287353516,4.684564113616943,1.0589470863342285,2.5318734645843506,4.943752765655518,1.7999316453933716,0.9963806867599487,-0.17245237529277802
200,154078,154079,-0.029278269037604332,-0.06561680138111115,0.9919064044952393,2.9863991737365723,72.32171630859375,1.3490538597106934,1.0694465637207031,2.5633718967437744,4.990250587463379,1.2183955907821655,1.0189820528030396,-0.11255983263254166
201,154088,154089,-0.009190848097205162,-0.08649035543203354,0.9741807579994202,9.832999229431152,52.680030822753906,0.3064081072807312,1.0784460306167603,2.542372941970825,4.96925163269043,0.4703459143638611,1.0807048082351685,-0.09196672588586807
202,154098,154099,-0.03085746057331562,-0.06033288314938545,0.9884894490242004,23.67354393005371,15.20118522644043,0.026817141100764275,1.0634467601776123,2.524373769760132,4.960251808166504,-0.12482735514640808,1.2239080667495728,-0.08931656181812286
203,154108,154109,-0.021698858588933945,-0.035825952887535095,0.962202250957489,30.46329689025879,-20.61020278930664,3.055816650390625,1.0469475984573364,2.5048747062683105,4.958752155303955,-0.10859055817127228,1.5715383291244507,-0.09028322249650955
204,154118,154119,-0.013014370575547218,-0.04327336698770523,0.9368757605552673,16.05080795288086,-45.87406539916992,6.576422691345215,1.0664466619491577,2.5063745975494385,4.957252025604248,0.36845695972442627,1.791951298713684,-0.03713665157556534
205,154128,154129,-0.05111777037382126,-0.060135748237371445,0.9370337724685669,-13.667120933532715,-53.38481903076172,8.517349243164062,1.0634467601776123,2.518373966217041,4.9722514152526855,0.8778051137924194,1.911943793296814,0.021372992545366287
206,154138,154139,-0.11463788896799088,-0.11447746306657791,0.9552916884422302,-49.30323791503906,-53.52443313598633,6.965905666351318,1.070946455001831,2.5288734436035156,4.952752113342285,1.3414523601531982,1.6915740966796875,0.0896192118525505
207,154148,154149,-0.06968406587839127,-0.07688676565885544,0.973422646522522,-80.36600494384766,-50.42843246459961,3.199244976043701,1.0829458236694336,2.5318734645843506,4.97675085067749,2.1342172622680664,1.013043999671936,0.1965586096048355
208,154158,154159,-0.08169017732143402,-0.03979942202568054,1.0218950510025024,-92.5799789428711,-40.649688720703125,-1.0020604133605957,1.0814459323883057,2.5363731384277344,4.981250762939453,2.9205503463745117,0.4934592545032501,0.22158963978290558
209,154168,154169,-0.05160151422023773,-0.04568951204419136,0.9886972904205322,-79.67301177978516,-15.188324928283691,-4.366633892059326,1.0829458236694336,2.546872615814209,4.97675085067749,3.291126251220703,-0.5725674033164978,0.23298339545726776
210,154178,154179,-0.016720211133360863,-0.08834447711706161,0.9170438647270203,-51.169097900390625,7.269543647766113,-7.851790428161621,1.0754462480545044,2.5393729209899902,4.96325159072876,3.4818501472473145,-1.1511497497558594,0.15390269458293915
211,154188,154189,-0.032515816390514374,-0.04638237506151199,1.0046488046646118,-15.744586944580078,25.715532302856445,-10.242795944213867,1.0769461393356323,2.546872615814209,4.964751720428467,3.16473126411438,-1.7144272327423096,0.0667450875043869
212,154198,154199,-0.04729562997817993,-0.03944935277104378,1.035637378692627,11.214254379272461,31.981294631958008,-11.67514419555664,1.0664466619491577,2.521373987197876,4.9482526779174805,2.9629290103912354,-1.7512294054031372,-0.06988150626420975
213,154208,154209,-0.06734368950128555,0.049023985862731934,1.0367645025253296,31.588699340820312,36.40752410888672,-11.694563865661621,1.0619468688964844,2.5288734436035156,4.961751937866211,2.4020683765411377,-1.5204007625579834,-0.23101834952831268
214,154218,154219,-0.07589046657085419,-0.02294013649225235,1.0665473937988281,43.824642181396484,40.184024810791016,-12.69414234161377,1.070946455001831,2.5528724193573,4.9707512855529785,1.9054092168807983,-1.3369718790054321,-0.3213319480419159
215,154228,154229,-0.05565911531448364,-0.03264595940709114,1.0800589323043823,57.46454620361328,40.958580017089844,-11.881606101989746,1.070946455001831,2.543872833251953,4.961751937866211,1.7848318815231323,-0.7306370735168457,-0.5027188658714294
216,154238,154239,-0.03285682573914528,-0.09114492684602737,1.046037197113037,59.112125396728516,39.247352600097656,-8.904434204101562,1.0679465532302856,2.519873857498169,4.973751068115234,1.4901421070098877,-0.22374016046524048,-0.6115373969078064
217,154248,154249,-0.052651941776275635,-0.08525877445936203,1.0021138191223145,33.989009857177734,27.446748733520508,-10.049853324890137,1.0799460411071777,2.543872833251953,4.979751110076904,0.8611367344856262,0.39777693152427673,-0.7005741596221924
218,154258,154259,0.017964301630854607,0.044484686106443405,1.0034273862838745,4.018874645233154,29.851829528808594,-11.35397720336914,1.0634467601776123,2.49137544631958,4.936253070831299,0.6561599373817444,0.6775571703910828,-0.7886075377464294
219,154268,154269,0.1143498569726944,0.05175825580954552,0.9807695746421814,-25.329872131347656,35.91773986816406,-11.816963195800781,1.055947184562683,2.495875120162964,4.922753810882568,0.4456079602241516,0.5503294467926025,-0.8674114346504211
220,154278,154279,0.12715351581573486,0.09842205792665482,0.961212158203125,-46.66992950439453,35.215328216552734,-9.893028259277344,1.0529472827911377,2.5078744888305664,4.92875337600708,0.027465786784887314,0.25665080547332764,-0.9706692099571228
221,154288,154289,0.023204239085316658,0.10823303461074829,1.0050609111785889,-55.230857849121094,24.189319610595703,-9.367531776428223,1.0529472827911377,2.522873878479004,4.934752941131592,-0.40431222319602966,-0.19455717504024506,-1.069093108177185
222,154298,154299,-0.007423381321132183,-0.03092343732714653,0.9916602969169617,-51.83405303955078,7.647458076477051,-8.990337371826172,1.0604469776153564,2.5123744010925293,4.927253723144531,-0.7005933523178101,-1.019600749015808,-1.134541630744934
223,154308,154309,-0.10791600495576859,-0.10699062049388885,0.975724995136261,-36.26284408569336,-7.070065021514893,-8.581418991088867,1.055947184562683,2.5108745098114014,4.922753810882568,-0.7963407039642334,-1.38643217086792,-1.2353217601776123
224,154318,154319,-0.0602809339761734,-0.04948019981384277,0.9574561715126038,-6.369390487670898,-5.433250904083252,-6.100522041320801,1.0619468688964844,2.519873857498169,4.937753200531006,-0.7149689197540283,-1.6514482498168945,-1.3199470043182373
225,154328,154329,0.014167187735438347,-0.06454000622034073,0.9830449819564819,26.989973068237305,4.830702781677246,-2.921816349029541,1.055947184562683,2.5108745098114014,4.9197540283203125,-0.6827901005744934,-1.5777064561843872,-1.3783913850784302
226,154338,154339,-0.018732216209173203,-0.02844475768506527,0.9674038290977478,49.46097946166992,17.615930557250977,-1.3241451978683472,1.0469475984573364,2.5108745098114014,4.925753593444824,-0.7726829648017883,-1.1245648860931396,-1.4021191596984863
227,154348,154349,0.03747127950191498,-0.06628280133008957,0.8865332007408142,56.79823684692383,25.046443939208984,-1.7279912233352661,1.0439478158950806,2.516874074935913,4.949752330780029,-0.9046328663825989,-0.7297276854515076,-1.4282687902450562
228,154358,154359,0.03467265143990517,-0.041605547070503235,0.89143967628479,46.84709167480469,24.090852737426758,-1.6548246145248413,1.0469475984573364,2.522873878479004,4.946752548217773,-1.333674430847168,0.002369715366512537,-1.4117395877838135
229,154368,154369,-0.035329945385456085,-0.006659664213657379,0.9111711978912354,26.65178108215332,18.595888137817383,-1.2676315307617188,1.0409479141235352,2.519873857498169,4.946752548217773,-1.5812718868255615,0.2502901554107666,-1.4513601064682007
230,154378,154379,-0.05437653884291649,0.018457891419529915,0.9677500128746033,0.8532610535621643,6.09084939956665,0.1505902260541916,1.057447075843811,2.515374183654785,4.9422526359558105,-1.8475842475891113,0.5819042921066284,-1.4448083639144897
231,154388,154389,-0.04623013362288475,-0.03491846099495888,0.9621543884277344,-19.48983383178711,-7.2903218269348145,1.378138780593872,1.0379481315612793,2.5078744888305664,4.931753158569336,-1.7520357370376587,0.4241529405117035,-1.485224723815918
232,154398,154399,-0.024387607350945473,-0.03039313480257988,1.0489078760147095,-30.938554763793945,-18.222261428833008,1.7359800338745117,1.048447608947754,2.518373966217041,4.9422526359558105,-1.6722772121429443,0.12532566487789154,-1.4946327209472656
233,154408,154409,0.03574459254741669,-0.08967194706201553,0.9937037825584412,-31.805456161499023,-25.370344161987305,1.5657083988189697,1.0544472932815552,2.5363731384277344,4.954252243041992,-1.358092188835144,-0.0981002151966095,-1.4691015481948853
234,154418,154419,-0.019078442826867104,-0.05119914561510086,0.9729436039924622,-27.417022705078125,-25.114482879638672,1.046730637550354,1.048447608947754,2.5393729209899902,4.954252243041992,-1.0303455591201782,-0.46949586272239685,-1.4716212749481201
235,154428,154429,-0.05686342716217041,-0.06811030954122543,0.9325028657913208,-15.393564224243164,-20.216285705566406,1.535538911819458,1.057447075843811,2.542372941970825,4.966251373291016,-0.7320365309715271,-0.66176837682724,-1.4408297538757324
236,154438,154439,-0.05949854478240013,0.036183856427669525,0.9657767415046692,1.841260552406311,-13.45395278930664,2.437873601913452,1.0529472827911377,2.516874074935913,4.949752330780029,-0.588493287563324,-0.7946154475212097,-1.4133328199386597
237,154448,154449,-0.011549597606062889,0.015566384419798851,1.0020720958709717,18.536945343017578,-1.958612084388733,4.079026699066162,1.0469475984573364,2.5348732471466064,4.946752548217773,-0.5794941782951355,-0.6978044509887695,-1.3565094470977783
238,154458,154459,-0.08530166000127792,-0.046541616320610046,1.0265733003616333,24.73267936706543,9.492591857910156,5.181299686431885,1.055947184562683,2.519873857498169,4.949752330780029,-0.5935993194580078,-0.44815680384635925,-1.2960479259490967
239,154468,154469,-0.032116539776325226,-0.056740377098321915,0.998264729976654,18.56029510498047,18.09197235107422,5.845501899719238,1.048447608947754,2.5333733558654785,4.954252243041992,-0.7881056070327759,-0.2903340756893158,-1.258209466934204
240,154478,154479,-0.02748786471784115,-0.049485303461551666,0.9559319019317627,10.29954719543457,19.031782150268555,7.514686584472656,1.0514473915100098,2.518373966217041,4.9422526359558105,-1.0162913799285889,-0.030794573947787285,-1.1756000518798828
241,154488,154489,0.03248151019215584,0.03635150566697121,0.9652152061462402,1.5674482583999634,14.721171379089355,8.620672225952148,1.0454477071762085,2.515374183654785,4.9422526359558105,-1.3097529411315918,0.029381820932030678,-1.1053271293640137
242,154498,154499,-0.021322958171367645,-0.013325587846338749,0.9627016186714172,-12.177618026733398,5.557562351226807,9.492697715759277,1.0529472827911377,2.5288734436035156,4.958752155303955,-1.3603395223617554,-0.00442270003259182,-1.0412832498550415
243,154508,154509,-0.004972507245838642,0.02314072847366333,0.9245238304138184,-23.091934204101562,-7.295994758605957,10.156058311462402,1.057447075843811,2.5093743801116943,4.951252460479736,-1.3935091495513916,-0.1849367618560791,-0.9672327637672424
244,154518,154519,-0.03837260231375694,-0.02739240601658821,0.9434351325035095,-20.931766510009766,-12.800776481628418,10.03417682647705,1.0529472827911377,2.522873878479004,4.946752548217773,-1.2487136125564575,-0.553098738193512,-0.917765736579895
245,154528,154529,-0.04310331493616104,-0.03255441039800644,0.9831997156143188,-16.316862106323242,-12.705188751220703,10.078707695007324,1.0529472827911377,2.519873857498169,4.946752548217773,-1.0471519231796265,-0.6568164229393005,-0.788211464881897
246,154538,154539,-0.013450446538627148,-0.02004518359899521,0.9827118515968323,-8.966582298278809,-12.48952579498291,7.611301898956299,1.055947184562683,2.5078744888305664,4.955751895904541,-1.0593398809432983,-0.8301655054092407,-0.6823837757110596
247,154548,154549,-0.03607720881700516,-0.02762681059539318,0.9729188680648804,1.5407671928405762,-11.544971466064453,5.789413928985596,1.057447075843811,2.518373966217041,4.9422526359558105,-0.8526291847229004,-0.8632495403289795,-0.594109058380127
248,154558,154559,-0.03380587697029114,0.014188134111464024,0.9528976082801819,11.559392929077148,-9.772963523864746,4.161921501159668,1.0544472932815552,2.524373769760132,4.954252243041992,-0.7357178330421448,-0.8713648915290833,-0.543607234954834
249,154568,154569,-0.022494131699204445,-0.01192506868392229,0.9649533033370972,17.418153762817383,-9.392574310302734,2.742323398590088,1.0469475984573364,2.5258736610412598,4.943752765655518,-0.7836628556251526,-0.7231313586235046,-0.47623172402381897
250,154578,154579,-0.016467105597257614,-0.03406678885221481,0.9626196622848511,18.298856735229492,-11.082661628723145,2.0019919872283936,1.0544472932815552,2.518373966217041,4.966251373291016,-0.6072763800621033,-0.4269108474254608,-0.41777873039245605
251,154588,154589,0.03451991453766823,0.0030637874733656645,0.8993070721626282,11.748831748962402,-13.303088188171387,1.8247153759002686,1.057447075843811,2.5303733348846436,4.951252460479736,-0.47385555505752563,-0.365955650806427,-0.43655040860176086
252,154598,154599,0.058893512934446335,-0.00012663750385399908,0.9399032592773438,-1.2153959274291992,-12.296648025512695,1.5741130113601685,1.0694465637207031,2.5273735523223877,4.966251373291016,-0.2570086419582367,-0.20872963964939117,-0.41450297832489014
253,154608,154609,-0.03231991082429886,-0.08834289014339447,1.0129992961883545,-15.68059253692627,-11.937602996826172,0.5336260795593262,1.0619468688964844,2.543872833251953,4.97675085067749,-0.31580933928489685,-0.3473084568977356,-0.4194571375846863
254,154618,154619,-0.007745064795017242,-0.04896651953458786,0.9730921983718872,-24.43504524230957,-3.1261086463928223,1.2741903066635132,1.0619468688964844,2.540872812271118,4.979751110076904,-0.13858537375926971,-0.4910892844200134,-0.4144625961780548
255,154628,154629,-0.13831745088100433,-0.09548695385456085,1.0063257217407227,-25.575857162475586,4.527632713317871,1.4341955184936523,1.0619468688964844,2.5588719844818115,4.97675085067749,-0.029411420226097107,-0.7410171031951904,-0.4103476107120514
256,154638,154639,-0.10016607493162155,-0.07409323751926422,0.9456464648246765,-17.250080108642578,11.55675983428955,1.066194772720337,1.0604469776153564,2.5633718967437744,4.984250545501709,-0.05515442416071892,-1.0514060258865356,-0.41249701380729675
257,154648,154649,-0.036298759281635284,0.06367594748735428,0.9835476875305176,-2.9169728755950928,14.76163387298584,1.198256254196167,1.0604469776153564,2.5633718967437744,4.975251197814941,-0.2578246295452118,-1.2024630308151245,-0.38961344957351685
258,154658,154659,0.06523572653532028,0.06561407446861267,0.9649128317832947,14.614617347717285,14.037222862243652,1.737281084060669,1.0679465532302856,2.573871374130249,4.994750022888184,-0.626723051071167,-1.181447148323059,-0.3451595902442932
259,154668,154669,-0.027454065158963203,-0.015083516016602516,1.0126945972442627,28.8193416595459,8.535815238952637,3.2379109859466553,1.0499475002288818,2.567871570587158,4.991750240325928,-0.6609140038490295,-0.8650974631309509,-0.30122625827789307
260,154678,154679,-0.13977870345115662,-0.02179710939526558,1.0266354084014893,32.924171447753906,0.1272077113389969,4.588316440582275,1.0529472827911377,2.576871156692505,5.003749847412109,-0.7367135286331177,-0.6601238250732422,-0.2901889979839325
261,154688,154689,-0.16775164008140564,-0.007168016862124205,1.0314258337020874,28.957197189331055,-4.863227367401123,5.339639186859131,1.0634467601776123,2.5873706340789795,5.005249500274658,-0.9741523861885071,-0.2645632326602936,-0.19870097935199738
262,154698,154699,-0.07818353176116943,-0.04515010491013527,1.0270872116088867,17.514970779418945,-12.461665153503418,5.393871784210205,1.0499475002288818,2.5588719844818115,4.994750022888184,-0.5501951575279236,-0.1074765995144844,-0.22039321064949036
263,154708,154709,-0.046870168298482895,-0.045080073177814484,1.0534119606018066,3.265268087387085,-22.982282638549805,6.670134544372559,1.048447608947754,2.5603718757629395,4.990250587463379,-0.84603351354599,0.1360049843788147,-0.1031474694609642
264,154718,154719,-0.00950111448764801,-0.059356361627578735,1.057355284690857,-8.901636123657227,-33.30215072631836,5.161066055297852,1.0679465532302856,2.567871570587158,4.991750240325928,-0.5297855734825134,0.1495456099510193,-0.053257979452610016
265,154728,154729,-0.03808535635471344,-0.051728326827287674,1.09648597240448,-17.86876106262207,-41.562259674072266,-1.3728801012039185,1.073946237564087,2.5558722019195557,4.979751110076904,-0.19695183634757996,-0.0255522932857275,-0.027687011286616325
266,154738,154739,0.030470553785562515,0.008800660260021687,1.0753568410873413,-20.21903419494629,-53.641395568847656,-4.061009407043457,1.0754462480545044,2.5633718967437744,4.9992499351501465,0.42452487349510193,-0.24261726438999176,-0.06392287462949753
267,154748,154749,-0.023623473942279816,-0.017446711659431458,1.0929360389709473,-11.147725105285645,-54.218143463134766,-4.182598114013672,1.073946237564087,2.5618717670440674,5.0007500648498535,0.8429362177848816,-0.5220336318016052,-0.10890225321054459
268,154758,154759,-0.11795423924922943,-0.015501243062317371,1.174402117729187,4.326904296875,-37.39904022216797,-2.5132243633270264,1.0634467601776123,2.578371047973633,5.01724910736084,1.3656904697418213,-0.5547500848770142,-0.13193577527999878
269,154768,154769,-0.05700574815273285,-0.04552611708641052,1.0652339458465576,17.616962432861328,-5.674149036407471,-1.8013064861297607,1.0754462480545044,2.5513722896575928,4.984250545501709,1.810559630393982,-0.40908172726631165,-0.14692917466163635
270,154778,154779,-0.14259447157382965,-0.09668159484863281,1.090327262878418,26.700929641723633,16.911312103271484,-2.395411491394043,1.0784460306167603,2.5573720932006836,4.984250545501709,1.8432749509811401,-0.21211515367031097,-0.16087937355041504
271,154788,154789,-0.05514858290553093,-0.06557286530733109,1.0416100025177002,24.589658737182617,35.43383026123047,-4.05109167098999,1.0919454097747803,2.543872833251953,4.985750675201416,1.5259875059127808,0.08418649435043335,-0.17237210273742676
272,154798,154799,-0.033733490854501724,-0.05529540777206421,1.0155104398727417,14.208562850952148,43.04193878173828,-6.249485015869141,1.0619468688964844,2.540872812271118,4.979751110076904,1.0145689249038696,0.1743312031030655,-0.20770640671253204
273,154808,154809,0.04832269251346588,0.01026378944516182,0.9605206251144409,0.48328015208244324,34.08049392700195,-7.433174133300781,1.0679465532302856,2.546872615814209,4.98275089263916,0.37684014439582825,0.23712337017059326,-0.25874754786491394
274,154818,154819,-0.029076388105750084,-0.05590319260954857,1.0052684545516968,-7.150677680969238,8.490062713623047,-7.267502307891846,1.0544472932815552,2.5663716793060303,4.975251197814941,0.19088609516620636,0.31309664249420166,-0.3357558250427246
275,154828,154829,0.0027622415218502283,-0.14163972437381744,1.031964898109436,-8.527922630310059,-20.482864379882812,-5.416015148162842,1.0649467706680298,2.543872833251953,4.9707512855529785,0.2727287709712982,0.14250589907169342,-0.4126070737838745
276,154838,154839,-0.031019695103168488,-0.0722435787320137,1.0400350093841553,-7.49603796005249,-47.372196197509766,-3.573211431503296,1.0814459323883057,2.545372724533081,4.96325159072876,0.5617436766624451,0.03366423398256302,-0.46811339259147644
277,154848,154849,-0.03884419426321983,-0.047325629740953445,1.0293692350387573,-4.650071144104004,-55.47496032714844,-3.6771321296691895,1.0664466619491577,2.548372507095337,4.978250980377197,1.345831036567688,-0.03309321030974388,-0.5086556077003479
278,154858,154859,-0.03488028421998024,-0.012052778154611588,1.0586882829666138,-2.2629024982452393,-44.80696105957031,-3.174384832382202,1.0754462480545044,2.5573720932006836,4.987250328063965,2.1470720767974854,-0.0013219647808000445,-0.549034833908081
279,154868,154869,-0.027628928422927856,0.0295909121632576,1.057907223701477,4.552712917327881,-23.942420959472656,-2.050750732421875,1.0814459323883057,2.5513722896575928,4.987250328063965,2.2361419200897217,0.0029192008078098297,-0.57872474193573
280,154878,154879,-0.016253801062703133,0.01595711149275303,1.1342554092407227,11.048863410949707,4.094277858734131,-1.8741397857666016,1.0784460306167603,2.5333733558654785,4.9722514152526855,2.255970001220703,0.05049208551645279,-0.5994572639465332
281,154888,154889,-0.04027213528752327,-0.044294144958257675,1.0719964504241943,17.65591812133789,28.224397659301758,-1.627793550491333,1.0934453010559082,2.515374183654785,4.957252025604248,2.10735821723938,0.2817825973033905,-0.632440447807312
282,154898,154899,-0.019912611693143845,-0.019863147288560867,1.0569870471954346,21.469711303710938,46.06458282470703,-0.6275748014450073,1.073946237564087,2.543872833251953,4.964751720428467,1.682861328125,0.4692944288253784,-0.6480944156646729
283,154908,154909,0.0004103699466213584,-0.08925054967403412,0.9360582828521729,17.126710891723633,54.918975830078125,-1.1227492094039917,1.0679465532302856,2.5288734436035156,4.967751502990723,1.0697236061096191,0.6784929037094116,-0.6520683765411377
284,154918,154919,-0.013704677112400532,-0.04847705364227295,0.92777019739151,8.260132789611816,48.717201232910156,-2.2986643314361572,1.0619468688964844,2.5348732471466064,4.967751502990723,0.6583265662193298,0.7278387546539307,-0.6363821029663086
285,154928,154929,-0.007063149008899927,-0.025582168251276016,0.9877687096595764,-1.0376858711242676,30.043813705444336,-4.1302409172058105,1.0589470863342285,2.540872812271118,4.961751937866211,0.2571978271007538,0.7732077240943909,-0.6470737457275391
286,154938,154939,-0.00017458088404964656,0.06053154915571213,0.9874386191368103,-8.839950561523438,6.605557441711426,-5.34335470199585,1.0664466619491577,2.5123744010925293,4.936253070831299,-0.18238866329193115,0.7465305924415588,-0.689941942691803
287,154948,154949,-0.010476388037204742,-0.00847769808024168,0.9865286350250244,-13.453822135925293,-14.812623977661133,-6.773069381713867,1.055947184562683,2.5048747062683105,4.92875337600708,-0.10118484497070312,0.6000351309776306,-0.7272557020187378
288,154958,154959,-0.01890159398317337,-0.03974665328860283,0.9846792817115784,-8.284965515136719,-32.57499313354492,-9.043448448181152,1.0664466619491577,2.497375011444092,4.945252418518066,0.022371217608451843,0.4887034296989441,-0.7998784780502319
289,154968,154969,-0.032489512115716934,-0.044438257813453674,0.9787294268608093,5.6399126052856445,-43.10218048095703,-8.894168853759766,1.0604469776153564,2.497375011444092,4.936253070831299,0.6197383403778076,0.5718896389007568,-0.8857528567314148
290,154978,154979,-0.08250994980335236,-0.06334369629621506,1.0319671630859375,19.20941162109375,-41.892242431640625,-6.996735095977783,1.0694465637207031,2.497375011444092,4.9422526359558105,1.0624092817306519,0.7273641228675842,-0.9853861927986145
291,154988,154989,-0.025801919400691986,-0.041674453765153885,0.987401008605957,24.47308921813965,-27.693361282348633,-2.9804093837738037,1.0694465637207031,2.5033748149871826,4.957252025604248,1.6103543043136597,0.9356563687324524,-1.048478603363037
292,154998,154999,-0.035882219672203064,-0.04201555997133255,0.9917691349983215,16.929641723632812,-10.801660537719727,0.468654602766037,1.072446346282959,2.515374183654785,4.954252243041992,1.8549612760543823,1.0986697673797607,-1.0765146017074585
293,155008,155009,-0.02576429769396782,-0.03677641972899437,0.9845514297485352,2.2471823692321777,9.066498756408691,3.1712422370910645,1.087445616722107,2.494375228881836,4.933253288269043,1.8893059492111206,1.256023645401001,-1.0784395933151245
294,155018,155019,-0.047250889241695404,-0.047259170562028885,0.9677430391311646,-12.689555168151855,28.9057559967041,5.475973606109619,1.072446346282959,2.497375011444092,4.939252853393555,1.7232005596160889,1.233152151107788,-1.044201135635376
295,155028,155029,-0.027983032166957855,-0.022114699706435204,0.9922177195549011,-22.11008644104004,45.51401138305664,6.406538486480713,1.0769461393356323,2.5018749237060547,4.931753158569336,1.2408534288406372,0.9831096529960632,-0.9888284206390381
296,155038,155039,-0.014648067764937878,-0.0430837906897068,0.970452606678009,-25.19266128540039,52.91905975341797,6.644965648651123,1.0619468688964844,2.522873878479004,4.949752330780029,0.6741470694541931,0.7598040103912354,-0.9324617385864258
297,155048,155049,-0.03499169647693634,-0.03195388615131378,0.9891651272773743,-23.888639450073242,48.614593505859375,7.168705940246582,1.055947184562683,2.522873878479004,4.952752113342285,-0.009665008634328842,0.4283882975578308,-0.8717824220657349
298,155058,155059,-0.10025326162576675,-0.08670967817306519,0.9829050898551941,-11.982731819152832,38.554683685302734,7.873907566070557,1.0649467706680298,2.522873878479004,4.961751937866211,-0.3859628736972809,0.3150428235530853,-0.7983425855636597
299,155068,155069,-0.07152295857667923,-0.12769253551959991,0.902661144733429,0.8941795229911804,20.643312454223633,7.963223457336426,1.0514473915100098,2.5333733558654785,4.966251373291016,-0.6456291675567627,0.3209516406059265,-0.7145721912384033
300,155078,155079,-0.014560243114829063,-0.05999034643173218,0.9305271506309509,8.995412826538086,-1.7995067834854126,7.0045671463012695,1.0604469776153564,2.515374183654785,4.9422526359558105,-0.7282048463821411,0.3654837906360626,-0.6220538020133972
301,155088,155089,-0.008691697381436825,-0.050851039588451385,0.9573007225990295,13.194936752319336,-21.984142303466797,6.316416263580322,1.0589470863342285,2.5108745098114014,4.946752548217773,-0.5936353206634521,0.4575727581977844,-0.5398557186126709
302,155098,155099,0.00020733935525640845,-0.0427665151655674,0.9470342397689819,14.28479290008545,-40.117401123046875,5.749872207641602,1.0694465637207031,2.5093743801116943,4.933253288269043,-0.35584577918052673,0.6095172762870789,-0.48111194372177124
303,155108,155109,-0.012494281865656376,-0.03450959920883179,0.9988806843757629,8.329131126403809,-49.415889739990234,4.1724982261657715,1.0649467706680298,2.5318734645843506,4.952752113342285,0.33985644578933716,0.6798716187477112,-0.3902319371700287
304,155118,155119,0.09692079573869705,-0.01123051531612873,0.9991766810417175,4.473961353302002,-40.40632247924805,3.1973090171813965,1.0784460306167603,2.5303733348846436,4.96925163269043,0.6836317181587219,0.7345658540725708,-0.370050847530365
305,155128,155129,0.04859216511249542,-0.03356742486357689,0.9545878767967224,6.130548477172852,-21.25271224975586,1.8379420042037964,1.0784460306167603,2.5363731384277344,4.984250545501709,1.1990067958831787,0.8145447373390198,-0.32970497012138367
306,155138,155139,-0.023634936660528183,-0.015439208596944809,1.0079509019851685,5.7315473556518555,2.323809862136841,0.5369047522544861,1.0754462480545044,2.521373987197876,4.96925163269043,1.0001102685928345,0.9112960696220398,-0.3689952790737152
307,155148,155149,-0.04064704477787018,-0.07104767858982086,0.9566489458084106,5.563845157623291,23.505136489868164,0.26451727747917175,1.073946237564087,2.519873857498169,4.955751895904541,0.8867555260658264,0.8557464480400085,-0.3685363233089447
308,155158,155159,-0.036087505519390106,-0.04677453637123108,0.9773974418640137,2.5083467960357666,35.98772048950195,-0.7986413836479187,1.0619468688964844,2.519873857498169,4.958752155303955,0.7427096962928772,0.9340900182723999,-0.35267990827560425
309,155168,155169,-0.03913914039731026,-0.09033066779375076,0.947672426700592,-4.249722003936768,40.495548248291016,-1.1438884735107422,1.0634467601776123,2.5273735523223877,4.9722514152526855,0.1392252892255783,0.9532486796379089,-0.3883695900440216
310,155178,155179,-0.029375886544585228,-0.06022462248802185,0.9654094576835632,-14.669177055358887,32.63972091674805,-0.8428249359130859,1.0409479141235352,2.5288734436035156,4.958752155303955,-0.1181536316871643,0.9028067588806152,-0.37137937545776367
311,155188,155189,-0.010940926149487495,-0.029090695083141327,0.9860885143280029,-16.322221755981445,18.58806610107422,-0.037869326770305634,1.0544472932815552,2.524373769760132,4.96325159072876,-0.4420778453350067,0.6474080681800842,-0.3725461959838867
312,155198,155199,-0.020206332206726074,0.01488794106990099,0.9417188167572021,-10.035727500915527,-2.9154465198516846,1.630395531654358,1.048447608947754,2.521373987197876,4.9422526359558105,-0.6619870662689209,0.6150672435760498,-0.37789425253868103
313,155208,155209,-0.008595965802669525,-0.008667804300785065,0.9867921471595764,-0.5323336124420166,-27.823505401611328,3.406930446624756,1.0514473915100098,2.521373987197876,4.945252418518066,-0.5606950521469116,0.5553828477859497,-0.3528120517730713
314,155218,155219,-0.08543969690799713,0.008915186859667301,0.9621978998184204,8.550312042236328,-47.582672119140625,5.684659004211426,1.0694465637207031,2.524373769760132,4.978250980377197,-0.1578555554151535,0.5654251575469971,-0.30392223596572876
315,155228,155229,-0.051454488188028336,-0.02529025636613369,0.9739753603935242,11.680070877075195,-46.77037048339844,9.247539520263672,1.0649467706680298,2.540872812271118,4.98275089263916,0.47989562153816223,0.7110625505447388,-0.2252320945262909
316,155238,155239,-0.004796591587364674,-0.024638468399643898,0.9774557948112488,7.929575443267822,-28.367189407348633,11.606863975524902,1.0649467706680298,2.5378730297088623,4.98275089263916,0.7395004630088806,0.7967846989631653,-0.16519176959991455
317,155248,155249,-0.06449668854475021,-0.05019215866923332,0.9783811569213867,-1.8905519247055054,-4.774399757385254,12.528003692626953,1.0664466619491577,2.545372724533081,4.981250762939453,1.1041008234024048,0.8698482513427734,-0.04068920388817787
318,155258,155259,-0.04596280679106712,-0.02264205738902092,0.9910391569137573,-15.475997924804688,8.534791946411133,11.52850341796875,1.070946455001831,2.5138742923736572,4.961751937866211,1.1190561056137085,0.8279680013656616,0.07756814360618591
319,155268,155269,-0.028153464198112488,-0.02774955704808235,0.9908867478370667,-25.576969146728516,9.325223922729492,11.302114486694336,1.0754462480545044,2.515374183654785,4.954252243041992,1.047627329826355,0.5077233910560608,0.19772860407829285
320,155278,155279,-0.04299014061689377,-0.03666352480649948,0.9879446029663086,-27.630603790283203,4.12298059463501,12.875875473022461,1.0799460411071777,2.5288734436035156,4.955751895904541,0.9216941595077515,0.14370839297771454,0.3099190592765808
321,155288,155289,-0.06792504340410233,-0.04355820268392563,1.001927137374878,-26.276472091674805,1.808440923690796,13.309164047241211,1.070946455001831,2.5288734436035156,4.949752330780029,0.8618413209915161,0.04924623668193817,0.4294193387031555
322,155298,155299,-0.04045518860220909,-0.005296314600855112,1.0398013591766357,-18.34292984008789,-1.5368244647979736,13.056241035461426,1.072446346282959,2.515374183654785,4.954252243041992,0.8436747193336487,-0.21528112888336182,0.562739372253418
323,155308,155309,-0.04554560407996178,-0.023497719317674637,1.0210940837860107,-7.859866142272949,-11.971096992492676,11.385358810424805,1.0664466619491577,2.515374183654785,4.945252418518066,0.9677345752716064,-0.3410204350948334,0.7014518976211548
324,155318,155319,-0.07385856658220291,-0.014596537686884403,1.0886121988296509,-4.760959148406982,-24.124231338500977,9.368602752685547,1.0694465637207031,2.521373987197876,4.9422526359558105,1.1943562030792236,-0.39746811985969543,0.8233147263526917
325,155328,155329,0.045443352311849594,-0.0008523226133547723,1.0347614288330078,-9.09864616394043,-34.65575408935547,6.198789596557617,1.070946455001831,2.519873857498169,4.955751895904541,1.3922618627548218,-0.4410193860530853,0.9148579239845276
326,155338,155339,-0.04675956070423126,-0.03425470367074013,1.0641663074493408,-2.4702816009521484,-32.37099075317383,3.0985043048858643,1.0889455080032349,2.5108745098114014,4.952752113342285,1.873716115951538,-0.5829625129699707,0.9914418458938599
327,155348,155349,-0.04746660590171814,-0.004622571170330048,1.0469261407852173,15.524045944213867,-4.367178916931152,1.5308406352996826,1.0844457149505615,2.524373769760132,4.945252418518066,2.133078098297119,-0.5687911510467529,1.018735647201538
328,155358,155359,-0.06336971372365952,-0.02859010174870491,0.981712281703949,31.836990356445312,26.533723831176758,-0.16009114682674408,1.0889455080032349,2.5078744888305664,4.943752765655518,2.0662739276885986,-0.34099337458610535,1.0212453603744507
329,155368,155369,-0.02501332201063633,-0.04488969221711159,0.9856764674186707,37.85606384277344,40.803627014160156,-2.9376182556152344,1.085945725440979,2.5078744888305664,4.955751895904541,1.612696647644043,-0.08208373934030533,1.0231621265411377
330,155378,155379,-0.03425874933600426,-0.04590964689850807,1.002518653869629,23.984729766845703,37.64559555053711,-6.582623481750488,1.0889455080032349,2.5348732471466064,4.952752113342285,1.2272496223449707,0.3966567814350128,0.9750475287437439
331,155388,155389,-0.0708952471613884,-0.05952969938516617,0.9950878620147705,-0.9198047518730164,32.362449645996094,-8.640071868896484,1.0634467601776123,2.515374183654785,4.930253505706787,0.8996437788009644,0.5881965756416321,0.9182780385017395
332,155398,155399,-0.003992208745330572,-0.008776111528277397,0.9271156787872314,-23.953380584716797,28.02580451965332,-10.162715911865234,1.0634467601776123,2.497375011444092,4.9422526359558105,0.5193572640419006,0.3938908576965332,0.8587760329246521
333,155408,155409,0.00540293101221323,-0.012425145134329796,0.9452688694000244,-39.873069763183594,20.516159057617188,-10.628167152404785,1.055947184562683,2.516874074935913,4.937753200531006,0.09716728329658508,0.043506037443876266,0.768132746219635
334,155418,155419,-0.03231252357363701,-0.03333962708711624,0.960811197757721,-42.621822357177734,15.445953369140625,-11.398048400878906,1.0589470863342285,2.522873878479004,4.940752983093262,-0.14467929303646088,-0.420009046792984,0.666915774345398
335,155428,155429,-0.048630744218826294,-0.01868700422346592,0.990574300289154,-29.816139221191406,13.628867149353027,-11.259316444396973,1.057447075843811,2.518373966217041,4.9482526779174805,-0.3142767548561096,-0.7878010272979736,0.5459631085395813
336,155438,155439,-0.022875498980283737,-0.019129587337374687,0.9674714803695679,-11.243842124938965,9.699324607849121,-9.293933868408203,1.0679465532302856,2.5318734645843506,4.946752548217773,-0.442655086517334,-0.9858172535896301,0.426209419965744
337,155448,155449,-0.007326949387788773,-0.0215549785643816,0.9714459776878357,5.178070545196533,0.848060131072998,-6.444932460784912,1.0589470863342285,2.5258736610412598,4.949752330780029,-0.4255116581916809,-1.098176121711731,0.3319978713989258
338,155458,155459,-0.013503994792699814,-0.035809826105833054,0.9700985550880432,13.880725860595703,-12.96198558807373,-6.1805033683776855,1.0604469776153564,2.515374183654785,4.945252418518066,-0.3137453496456146,-0.9769704341888428,0.2608966529369354
339,155468,155469,-0.0042804148979485035,-0.027658063918352127,0.9847829341888428,16.87416648864746,-19.850976943969727,-5.960536479949951,1.0604469776153564,2.521373987197876,4.951252460479736,-0.08472642302513123,-0.7404068112373352,0.19414810836315155
340,155478,155479,-0.026887178421020508,-0.025431618094444275,0.9828779697418213,18.079425811767578,-16.868314743041992,-6.767457008361816,1.0589470863342285,2.5378730297088623,4.964751720428467,0.2187691479921341,-0.5469200611114502,0.12905476987361908
341,155488,155489,-0.12358085066080093,-0.08553867042064667,1.0008256435394287,15.160555839538574,-5.302309989929199,-7.046541690826416,1.0634467601776123,2.518373966217041,4.96325159072876,0.1477164626121521,-0.41715845465660095,0.08222261816263199
342,155498,155499,-0.11637183278799057,-0.1577494889497757,0.9830043315887451,10.862580299377441,10.747432708740234,-6.045973777770996,1.0619468688964844,2.5318734645843506,4.949752330780029,0.23767830431461334,-0.33058223128318787,0.008427608758211136
343,155508,155509,-0.03511035069823265,-0.09950119256973267,0.9137266278266907,4.8416876792907715,23.5584774017334,-5.213172435760498,1.0679465532302856,2.5258736610412598,4.955751895904541,0.4165341258049011,-0.2465641349554062,-0.0773347020149231
344,155518,155519,-0.01885620877146721,-0.034293368458747864,0.9605692028999329,-2.639909505844116,26.451993942260742,-5.103686809539795,1.0529472827911377,2.5258736610412598,4.958752155303955,0.13013608753681183,-0.21211548149585724,-0.12651416659355164
345,155528,155529,-0.0696907564997673,-0.001001708791591227,0.9580973386764526,-5.244652271270752,27.449241638183594,-4.816560745239258,1.0514473915100098,2.521373987197876,4.954252243041992,-0.05274312198162079,-0.1951766461133957,-0.184973806142807
346,155538,155539,-0.04736959561705589,-0.04013317823410034,0.9737488627433777,-1.2929803133010864,24.66233253479004,-5.30517578125,1.0634467601776123,2.518373966217041,4.954252243041992,-0.5263082981109619,-0.27254095673561096,-0.21743738651275635
347,155548,155549,-0.09238249063491821,-0.1619398593902588,0.9973759651184082,6.075428485870361,14.274810791015625,-5.708837032318115,1.0529472827911377,2.5258736610412598,4.949752330780029,-0.6318227648735046,-0.34332868456840515,-0.28523048758506775
348,155558,155559,-0.16707010567188263,-0.20079095661640167,1.0345337390899658,10.640600204467773,1.6306031942367554,-5.710668087005615,1.0649467706680298,2.5348732471466064,4.967751502990723,-0.7203301787376404,-0.2261020541191101,-0.34486424922943115
349,155568,155569,-0.12051460146903992,-0.15953367948532104,1.048383355140686,14.831314086914062,-13.704727172851562,-5.211565017700195,1.0589470863342285,2.5528724193573,4.9707512855529785,-1.0170917510986328,-0.11520103365182877,-0.37794229388237
350,155578,155579,-0.04273847118020058,-0.09570557624101639,0.9851125478744507,20.114273071289062,-22.338430404663086,-5.77677583694458,1.0604469776153564,2.545372724533081,4.978250980377197,-0.5670070648193359,0.06885405629873276,-0.45542481541633606
351,155588,155589,-0.08641809225082397,-0.012724766507744789,0.9692419767379761,18.605871200561523,-21.307235717773438,-5.03546667098999,1.0454477071762085,2.545372724533081,4.978250980377197,-0.5193778872489929,0.24725835025310516,-0.5007529854774475
352,155598,155599,-0.04874676093459129,0.008442175574600697,1.0264524221420288,9.194710731506348,-11.052667617797852,-4.7075700759887695,1.0514473915100098,2.5513722896575928,4.981250762939453,-0.2244270145893097,0.37042275071144104,-0.5650229454040527
353,155608,155609,-0.03524674102663994,-0.03988942131400108,0.9851254820823669,-0.1763913780450821,9.262675285339355,-4.188394546508789,1.0679465532302856,2.540872812271118,4.98275089263916,-0.14076198637485504,0.48733264207839966,-0.6077284216880798
354,155618,155619,-0.03370248153805733,-0.03749966248869896,1.0091696977615356,-9.667160987854004,32.188236236572266,-2.807988405227661,1.0664466619491577,2.545372724533081,4.96925163269043,-0.27705246210098267,0.4353224039077759,-0.6505811214447021
355,155628,155629,-0.05211728811264038,-0.08494783192873001,1.0471373796463013,-16.669536590576172,42.501686096191406,-1.2250710725784302,1.0499475002288818,2.5288734436035156,4.943752765655518,-0.43847987055778503,0.25446707010269165,-0.6929876208305359
356,155638,155639,-0.024201855063438416,-0.1343381255865097,1.0106496810913086,-18.994548797607422,40.37424087524414,0.8242479562759399,1.048447608947754,2.5363731384277344,4.9722514152526855,-1.0923811197280884,-0.019286515191197395,-0.7090768218040466
357,155648,155649,-0.057217054069042206,-0.1361052244901657,0.9829401969909668,-18.258197784423828,29.908044815063477,2.60298752784729,1.0514473915100098,2.545372724533081,4.9722514152526855,-1.4531878232955933,-0.02981523796916008,-0.67652428150177
358,155658,155659,-0.10097029060125351,-0.09304621070623398,0.9837512969970703,-13.119756698608398,15.083581924438477,3.5552713871002197,1.0499475002288818,2.543872833251953,4.9707512855529785,-1.6341501474380493,-0.23582419753074646,-0.6600679159164429
359,155668,155669,-0.10902205109596252,-0.04962211102247238,0.9858276844024658,-8.055872917175293,-5.111286163330078,3.26556396484375,1.055947184562683,2.5378730297088623,4.952752113342285,-1.8404334783554077,-0.21808023750782013,-0.59542316198349
360,155678,155679,-0.06420578062534332,-0.024002360180020332,0.9648939967155457,-6.208861351013184,-25.12565803527832,1.5899747610092163,1.048447608947754,2.5303733348846436,4.960251808166504,-1.716495394706726,-0.35294049978256226,-0.577276349067688
361,155688,155689,-0.014509306289255619,-0.004741563927382231,0.9216669201850891,-4.252410411834717,-39.354026794433594,-0.05116990581154823,1.0634467601776123,2.5363731384277344,4.957252025604248,-1.4930869340896606,-0.3866819441318512,-0.5515613555908203
362,155698,155699,-0.0005903270794078708,0.017392538487911224,0.9531649351119995,4.1076273918151855,-41.122039794921875,-1.2439048290252686,1.057447075843811,2.542372941970825,4.96925163269043,-0.9288733601570129,-0.4430091977119446,-0.5609360337257385
363,155708,155709,0.10483262687921524,-0.004634413868188858,0.9353830814361572,21.23183822631836,-30.510398864746094,-2.032445192337036,1.0664466619491577,2.548372507095337,4.9722514152526855,-0.6688268184661865,-0.4698893427848816,-0.5799081325531006
364,155718,155719,0.06767245382070541,0.008973095566034317,1.0405805110931396,38.78254699707031,-14.781867980957031,-2.416869640350342,1.0514473915100098,2.5393729209899902,4.984250545501709,-0.23347465693950653,-0.06460579484701157,-0.5583207011222839
365,155728,155729,3.426760667935014e-05,-0.05010846257209778,1.029044270515442,46.891536712646484,1.0712240934371948,-2.7271862030029297,1.0589470863342285,2.5348732471466064,4.973751068115234,-0.2810129225254059,0.09823685884475708,-0.6219268441200256
366,155738,155739,-0.0482635460793972,-0.08166110515594482,0.9910033345222473,37.30158233642578,10.993169784545898,-1.8677468299865723,1.0604469776153564,2.5633718967437744,5.008249282836914,-0.3502492904663086,0.7590546011924744,-0.5994789600372314
367,155748,155749,-0.03536821901798248,-0.11145135015249252,0.9785431623458862,18.630523681640625,13.765157699584961,-1.365882396697998,1.0469475984573364,2.5288734436035156,4.97675085067749,-0.2779441475868225,1.0866954326629639,-0.6347063183784485
368,155758,155759,-0.05652477219700813,-0.09732679277658463,0.9647976756095886,-11.479748725891113,15.066537857055664,-0.6569252014160156,1.0499475002288818,2.5318734645843506,4.9707512855529785,-0.45650121569633484,1.2138640880584717,-0.655963659286499
369,155768,155769,-0.06314028799533844,-0.16082294285297394,0.9655861258506775,-34.18701171875,22.786684036254883,1.6840423345565796,1.073946237564087,2.519873857498169,4.958752155303955,-0.7462091445922852,0.9380318522453308,-0.6930429935455322
370,155778,155779,0.02975698560476303,-0.08308501541614532,0.975128710269928,-41.51518249511719,25.853652954101562,4.758617401123047,1.0664466619491577,2.5393729209899902,4.966251373291016,-1.1381587982177734,0.6381374597549438,-0.6687726378440857
371,155788,155789,0.007200314197689295,-0.048898566514253616,0.9173785448074341,-37.9658088684082,20.239402770996094,6.782687664031982,1.0469475984573364,2.546872615814209,4.967751502990723,-1.3991819620132446,0.10842400789260864,-0.6473067402839661
372,155798,155799,-0.02466699667274952,-0.016530025750398636,0.886436939239502,-29.22351837158203,9.108569145202637,8.109270095825195,1.0529472827911377,2.540872812271118,4.955751895904541,-1.6132640838623047,-0.12148506194353104,-0.5457622408866882
373,155808,155809,-0.07879966497421265,0.0038543774280697107,0.9131552577018738,-17.24370002746582,-5.451836109161377,7.49591064453125,1.0499475002288818,2.540872812271118,4.958752155303955,-1.706784725189209,-0.28192341327667236,-0.4332207143306732
374,155818,155819,-0.08042173832654953,0.02515600062906742,0.9527158141136169,-4.113087177276611,-20.74850082397461,5.665417671203613,1.0544472932815552,2.545372724533081,4.978250980377197,-1.5510705709457397,-0.5355663299560547,-0.3770570755004883
375,155828,155829,-0.043661266565322876,-0.029266836121678352,0.9938294291496277,10.072126388549805,-28.354724884033203,4.516240119934082,1.0619468688964844,2.546872615814209,4.97675085067749,-1.3876525163650513,-0.4762900471687317,-0.29122138023376465
376,155838,155839,-0.03784475475549698,-0.025157243013381958,1.025654911994934,15.699593544006348,-34.650779724121094,4.306862831115723,1.0604469776153564,2.548372507095337,4.981250762939453,-1.0212173461914062,-0.3078051209449768,-0.2253471165895462
377,155848,155849,-0.015523523092269897,-0.0067045786418020725,1.098097324371338,18.27262306213379,-36.31315231323242,5.337827205657959,1.0694465637207031,2.545372724533081,4.987250328063965,-0.7295409440994263,-0.06063470244407654,-0.15663273632526398
378,155858,155859,-0.05007825419306755,0.0007646683370694518,1.1532894372940063,18.307592391967773,-43.86083221435547,6.200777530670166,1.0679465532302856,2.549872398376465,4.985750675201416,-0.17659850418567657,0.08508042246103287,-0.11727355420589447
379,155868,155869,-0.041070256382226944,-0.02211708575487137,1.103940486907959,9.662511825561523,-48.00065994262695,6.002676963806152,1.0544472932815552,2.548372507095337,4.990250587463379,0.34583964943885803,0.20576928555965424,-0.07268017530441284
380,155878,155879,-0.10297445952892303,-0.14175036549568176,1.0870696306228638,-5.674388408660889,-38.770660400390625,5.373152732849121,1.0694465637207031,2.5663716793060303,4.996250152587891,0.3804207742214203,0.2983688712120056,-0.010801790282130241
381,155888,155889,-0.05258316546678543,-0.06749965995550156,1.0740686655044556,-28.173486709594727,-20.553829193115234,2.810253620147705,1.087445616722107,2.548372507095337,4.990250587463379,0.9035422205924988,0.11598366498947144,0.014794602058827877
382,155898,155899,-0.0567031130194664,-0.042210280895233154,1.0232917070388794,-47.535396575927734,5.215106964111328,-0.27007389068603516,1.073946237564087,2.5258736610412598,4.979751110076904,1.0939383506774902,-0.2101069539785385,0.03478579968214035
383,155908,155909,-0.001717368490062654,0.02285797894001007,1.0478706359863281,-48.826202392578125,31.32402992248535,-0.8158732652664185,1.0754462480545044,2.5513722896575928,4.987250328063965,0.9269711375236511,-0.7880294322967529,0.01909027248620987
384,155918,155919,0.08509794622659683,-0.04189165309071541,1.0064423084259033,-36.87605285644531,39.18159103393555,-0.6792696118354797,1.073946237564087,2.5648717880249023,4.991750240325928,0.4832700192928314,-1.1185224056243896,0.023501789197325706
385,155928,155929,0.006066463887691498,-0.05515183508396149,1.0671151876449585,-16.459083557128906,36.534236907958984,-1.2665274143218994,1.073946237564087,2.546872615814209,4.973751068115234,0.030115609988570213,-1.4461886882781982,0.013401702977716923
386,155938,155939,-0.01489593368023634,-0.05061629042029381,1.0136449337005615,9.867969512939453,26.60213279724121,-2.2257120609283447,1.055947184562683,2.546872615814209,4.9707512855529785,-0.212402805685997,-1.6203205585479736,-0.014773017726838589
387,155948,155949,-0.04040444642305374,-0.022503264248371124,1.0232832431793213,32.82623291015625,10.072245597839355,-3.758455514907837,1.0604469776153564,2.542372941970825,4.954252243041992,-0.484749972820282,-1.3649433851242065,-0.029904961585998535
388,155958,155959,-0.01863168366253376,-0.03396977484226227,1.0083669424057007,40.76593017578125,-5.5780558586120605,-3.9814062118530273,1.0619468688964844,2.5318734645843506,4.961751937866211,-0.4874357283115387,-0.8731768131256104,-0.06344341486692429
389,155968,155969,0.051235098391771317,-0.022977985441684723,0.9438905715942383,37.61750411987305,-11.960724830627441,-3.635190725326538,1.0649467706680298,2.5348732471466064,4.952752113342285,-0.3672352433204651,-0.45207247138023376,-0.10833567380905151
390,155978,155979,0.05551771819591522,-0.010933160781860352,0.906636118888855,27.791658401489258,-18.381622314453125,-4.2993903160095215,1.055947184562683,2.5138742923736572,4.955751895904541,-0.2033262848854065,-0.3126808702945709,-0.16985851526260376
391,155988,155989,0.026953961700201035,-0.030787833034992218,0.9160720109939575,16.503694534301758,-19.99378776550293,-4.232113361358643,1.0529472827911377,2.5138742923736572,4.961751937866211,-0.02769426442682743,0.09014865756034851,-0.2007373422384262
392,155998,155999,0.02111979015171528,-0.07019797712564468,0.9497075080871582,8.272541999816895,-18.510122299194336,-4.122138977050781,1.0649467706680298,2.5138742923736572,4.961751937866211,0.2354954332113266,0.24919605255126953,-0.2504315674304962
393,156008,156009,0.06705348193645477,0.011717941612005234,0.9548177123069763,-3.0315568447113037,-17.285579681396484,-3.456522226333618,1.0544472932815552,2.515374183654785,4.9422526359558105,0.41171795129776,0.3332899510860443,-0.29074394702911377
394,156018,156019,0.021282745525240898,0.029521731659770012,0.9317746162414551,-16.244726181030273,-8.94481086730957,-1.414703130722046,1.070946455001831,2.5138742923736572,4.943752765655518,0.4720258116722107,0.2179495245218277,-0.3206690549850464
395,156028,156029,-0.061976514756679535,-0.026156285777688026,1.0171682834625244,-28.766220092773438,1.473387598991394,0.3975740969181061,1.0664466619491577,2.524373769760132,4.954252243041992,0.5955440998077393,-0.021182740107178688,-0.3404275178909302
396,156038,156039,-0.0651366114616394,-0.11205007135868073,1.0211395025253296,-38.31527328491211,4.868313789367676,3.171175479888916,1.070946455001831,2.522873878479004,4.949752330780029,0.568622350692749,-0.3155512809753418,-0.3350631296634674
397,156048,156049,-0.1251671314239502,-0.12784159183502197,1.051275610923767,-38.35207748413086,3.07869553565979,3.827817678451538,1.073946237564087,2.5378730297088623,4.958752155303955,0.5052304267883301,-0.7337564826011658,-0.3045235276222229
398,156058,156059,-0.05240366607904434,-0.035966381430625916,1.066870927810669,-26.030397415161133,2.1243937015533447,1.7539345026016235,1.0664466619491577,2.545372724533081,4.960251808166504,0.46826764941215515,-1.1033456325531006,-0.2674245834350586
399,156068,156069,-0.03290768340229988,0.08117685467004776,1.063819408416748,-7.574414253234863,-0.8571767210960388,-0.6884806156158447,1.0649467706680298,2.5348732471466064,4.961751937866211,0.45801490545272827,-1.389070749282837,-0.2513286769390106
400,156078,156079,-0.04110075533390045,0.11383234709501266,1.0810737609863281,8.789234161376953,-1.9966552257537842,-3.3709278106689453,1.072446346282959,2.521373987197876,4.945252418518066,0.49583348631858826,-1.4615836143493652,-0.26165175437927246
401,156088,156089,-0.045204125344753265,-0.012585494667291641,1.0195194482803345,27.064807891845703,-2.064772844314575,-5.136504173278809,1.0634467601776123,2.518373966217041,4.9482526779174805,0.5439422726631165,-1.233633279800415,-0.3013822138309479
402,156098,156099,-0.09082816541194916,-0.053890030831098557,1.033400535583496,44.86841583251953,3.182964563369751,-6.231574058532715,1.0514473915100098,2.518373966217041,4.957252025604248,0.5702850222587585,-0.8736544847488403,-0.3573141098022461
403,156108,156109,-0.020191887393593788,-0.10036227107048035,0.939966082572937,55.01017379760742,6.318987846374512,-5.859659671783447,1.057447075843811,2.524373769760132,4.96325159072876,0.5043863654136658,-0.24354012310504913,-0.42371341586112976
404,156118,156119,-0.042502857744693756,-0.07500191032886505,0.9531362056732178,55.226287841796875,-0.8642834424972534,-2.944464921951294,1.055947184562683,2.5288734436035156,4.958752155303955,0.43952080607414246,0.06659391522407532,-0.4670271873474121
405,156128,156129,0.006918295286595821,0.012033524923026562,0.9277848601341248,53.332767486572266,-3.75968337059021,1.7967876195907593,1.0514473915100098,2.515374183654785,4.966251373291016,0.5360846519470215,0.8214040994644165,-0.5181624889373779
406,156138,156139,0.029009917750954628,0.06306593865156174,0.9468149542808533,38.79603576660156,-4.651954650878906,5.620642185211182,1.0649467706680298,2.5078744888305664,4.952752113342285,0.6703770160675049,0.9929544925689697,-0.4864915609359741
407,156148,156149,0.10354213416576385,0.07937733829021454,0.9629928469657898,17.58795928955078,-1.7962558269500732,6.283710956573486,1.0844457149505615,2.497375011444092,4.927253723144531,0.7266440987586975,1.543967843055725,-0.4438297152519226
408,156158,156159,0.08593723177909851,0.054233916103839874,0.915437638759613,-3.1306464672088623,7.74270486831665,3.8374507427215576,1.0754462480545044,2.494375228881836,4.936253070831299,0.7238554954528809,1.7597150802612305,-0.3848060667514801
409,156168,156169,0.1025203987956047,0.022843986749649048,0.9310564994812012,-30.684396743774414,16.091323852539062,0.7154415249824524,1.0619468688964844,2.5048747062683105,4.931753158569336,0.5546696782112122,1.596937894821167,-0.33362674713134766
410,156178,156179,0.01155458576977253,0.008365915156900883,0.9640119075775146,-54.14535140991211,18.3669490814209,-3.0155177116394043,1.0604469776153564,2.49137544631958,4.933253288269043,0.3558005392551422,1.2155888080596924,-0.31872648000717163
411,156188,156189,0.002618346828967333,0.0011707815574482083,0.9755500555038452,-58.73926544189453,18.817724227905273,-5.643126487731934,1.0694465637207031,2.521373987197876,4.957252025604248,0.18864470720291138,0.6591696739196777,-0.34427744150161743
412,156198,156199,-0.13365140557289124,-0.07061456143856049,0.993755578994751,-47.10957717895508,14.68051528930664,-5.119789123535156,1.0754462480545044,2.518373966217041,4.951252460479736,0.026306821033358574,0.16671222448349,-0.4046054780483246
413,156208,156209,-0.09193246811628342,-0.056966155767440796,0.9966797232627869,-19.131942749023438,19.678665161132812,-3.6391851902008057,1.0634467601776123,2.518373966217041,4.939252853393555,-0.25156280398368835,-0.35035863518714905,-0.457579106092453
414,156218,156219,-0.1066446378827095,-0.07125204056501389,1.0234078168869019,10.755566596984863,20.46288299560547,-1.602250099182129,1.0589470863342285,2.5018749237060547,4.9197540283203125,-0.5618821978569031,-0.40492844581604004,-0.5081381797790527
415,156228,156229,-0.015695106238126755,-0.07470529526472092,0.9955807328224182,27.93758773803711,18.549026489257812,0.43982890248298645,1.0499475002288818,2.4988749027252197,4.916754245758057,-0.8782498240470886,-0.17188945412635803,-0.5353667736053467
416,156238,156239,0.014499410055577755,-0.04088130593299866,0.9478550553321838,31.39146614074707,6.747241020202637,1.6962262392044067,1.0529472827911377,2.5018749237060547,4.92875337600708,-0.9721887111663818,0.06829079240560532,-0.5275360345840454
417,156248,156249,0.045209404081106186,-0.057523924857378006,0.8613265752792358,28.879276275634766,-4.094627857208252,3.0543289184570312,1.0679465532302856,2.5018749237060547,4.940752983093262,-0.9576650261878967,0.4816972017288208,-0.5081608295440674
418,156258,156259,0.019130611792206764,-0.07672625780105591,0.8560330867767334,21.201736450195312,-13.686126708984375,3.9323740005493164,1.057447075843811,2.497375011444092,4.939252853393555,-0.9792555570602417,0.6264671087265015,-0.4825601875782013
419,156268,156269,0.017963070422410965,-0.01734815537929535,0.8577075600624084,8.836751937866211,-20.959793090820312,4.905972480773926,1.0529472827911377,2.5108745098114014,4.931753158569336,-0.709438681602478,0.9106240272521973,-0.4370434880256653
420,156278,156279,-0.008765418082475662,-0.022023487836122513,0.8963552713394165,-3.0586297512054443,-25.827350616455078,5.279737949371338,1.0589470863342285,2.5048747062683105,4.940752983093262,-0.3364258408546448,0.9851722121238708,-0.3836993873119354
421,156288,156289,-0.048134490847587585,-0.041116438806056976,0.9386664628982544,-14.0335111618042,-24.89795684814453,5.6840128898620605,1.0649467706680298,2.519873857498169,4.946752548217773,0.005711799021810293,0.8651486039161682,-0.33271366357803345
422,156298,156299,-0.022700589150190353,-0.02921709418296814,0.958095371723175,-22.31498908996582,-19.922365188598633,5.642277240753174,1.070946455001831,2.5288734436035156,4.949752330780029,0.311682790517807,0.581678032875061,-0.27942928671836853
423,156308,156309,-0.017753304913640022,-0.0433383509516716,0.952832043170929,-23.30202293395996,-11.636844635009766,5.575865268707275,1.0514473915100098,2.521373987197876,4.96325159072876,0.3753666281700134,0.41221883893013,-0.2358463704586029
424,156318,156319,-0.004194892942905426,-0.011272785253822803,1.0351746082305908,-19.541719436645508,-3.227180242538452,5.323810577392578,1.0619468688964844,2.5288734436035156,4.964751720428467,0.527144730091095,0.033007945865392685,-0.17943306267261505
425,156328,156329,-0.012372849509119987,-0.05920931324362755,1.006285309791565,-12.13956069946289,-0.1958598792552948,5.124815940856934,1.0649467706680298,2.5378730297088623,4.964751720428467,0.5637590885162354,0.08475663512945175,-0.1264466643333435
426,156338,156339,-0.08854414522647858,-0.056346096098423004,1.0144981145858765,-6.268004417419434,1.3102352619171143,5.581707000732422,1.0679465532302856,2.540872812271118,4.9707512855529785,0.48341408371925354,-0.10780277103185654,-0.08107835054397583
427,156348,156349,-0.09021315723657608,-0.08467189967632294,0.9537553191184998,3.865924596786499,7.152956962585449,6.519471645355225,1.070946455001831,2.5378730297088623,4.9707512855529785,0.43026766180992126,-0.1894683539867401,-0.027149543166160583
428,156358,156359,-0.02323041297495365,-0.08897978812456131,0.8810177445411682,11.419163703918457,7.39647912979126,7.713782787322998,1.057447075843811,2.542372941970825,4.960251808166504,0.30521783232688904,0.03016514889895916,0.02985849790275097
429,156368,156369,-0.0032354649156332016,-0.04534725844860077,0.9090473055839539,13.244973182678223,8.890756607055664,8.019402503967285,1.055947184562683,2.5348732471466064,4.964751720428467,0.18420463800430298,0.12528640031814575,0.10413966327905655
430,156378,156379,0.02964261919260025,-0.01689234748482704,0.9426854848861694,10.77993106842041,10.569389343261719,6.322501182556152,1.0634467601776123,2.548372507095337,4.975251197814941,0.11438889056444168,0.30391925573349,0.18285995721817017
431,156388,156389,0.011225501075387001,0.005369937513023615,0.9640112519264221,5.504485130310059,14.24822998046875,3.4063282012939453,1.0664466619491577,2.5363731384277344,4.960251808166504,0.08404819667339325,0.2919537127017975,0.2522564232349396
432,156398,156399,0.003327416954562068,-0.022869860753417015,0.9465543031692505,-4.855714797973633,23.219331741333008,-0.36221182346343994,1.0634467601776123,2.542372941970825,4.984250545501709,-0.18721602857112885,0.3159904181957245,0.27836278080940247
433,156408,156409,0.0027564445044845343,-0.05151524022221565,0.9509164690971375,-15.711697578430176,25.281391143798828,-2.719243288040161,1.0619468688964844,2.543872833251953,4.988750457763672,-0.5738512277603149,0.24029874801635742,0.2653465270996094
434,156418,156419,-0.04696964472532272,-0.05333806946873665,0.9725065231323242,-22.165586471557617,20.30156135559082,-2.370205879211426,1.0454477071762085,2.569371461868286,5.005249500274658,-0.9478646516799927,0.07757709175348282,0.23235851526260376
435,156428,156429,-0.061587896198034286,-0.04411813244223595,0.9943341612815857,-21.303083419799805,6.131789207458496,-1.0543692111968994,1.057447075843811,2.575371265411377,4.990250587463379,-1.124207615852356,-0.1640552431344986,0.21097147464752197
436,156438,156439,0.004391850437968969,-0.06560420244932175,1.0116060972213745,-11.743431091308594,-15.160861015319824,-0.44504913687705994,1.048447608947754,2.578371047973633,4.9992499351501465,-1.0414824485778809,-0.49413028359413147,0.20308078825473785
437,156448,156449,0.03945406153798103,-0.10756463557481766,1.0427948236465454,-1.9035184383392334,-33.27606201171875,-0.9895849823951721,1.0619468688964844,2.573871374130249,5.0007500648498535,-0.9877115488052368,-0.5200527906417847,0.19917652010917664
438,156458,156459,0.005992154125124216,-0.15721546113491058,1.0616025924682617,8.31143856048584,-46.99245834350586,-0.27185988426208496,1.0604469776153564,2.575371265411377,5.014249324798584,-0.4032687246799469,-0.5263999700546265,0.20118694007396698
439,156468,156469,-0.014825400896370411,-0.04080675169825554,1.0949786901474,15.064520835876465,-52.13261795043945,0.9770441055297852,1.072446346282959,2.596370220184326,5.035248279571533,0.3448598384857178,-0.43695783615112305,0.2075258046388626
440,156478,156479,-0.033871911466121674,-0.06211429089307785,1.066969633102417,13.356454849243164,-43.717899322509766,4.609988212585449,1.0649467706680298,2.594870090484619,5.039747714996338,1.1520671844482422,-0.2056358903646469,0.22818897664546967
441,156488,156489,-0.11879164725542068,-0.13618436455726624,1.094020962715149,8.227056503295898,-28.01100730895996,7.988377571105957,1.072446346282959,2.578371047973633,5.023248672485352,1.066061019897461,-0.10117016732692719,0.27765217423439026
442,156498,156499,-0.09815548360347748,-0.1075822040438652,1.0970020294189453,1.4737335443496704,-4.84666109085083,10.864155769348145,1.0844457149505615,2.575371265411377,5.008249282836914,1.3509800434112549,-0.017550185322761536,0.36118507385253906
443,156508,156509,-0.09016022831201553,-0.04793912172317505,1.1157004833221436,-10.412620544433594,10.538056373596191,9.261270523071289,1.0604469776153564,2.5543723106384277,4.996250152587891,1.2912417650222778,0.0005873342743143439,0.46613770723342896
444,156518,156519,-0.05396290123462677,-0.09035816788673401,1.1201837062835693,-24.345947265625,17.61800193786621,6.541175365447998,1.072446346282959,2.548372507095337,4.987250328063965,1.0984464883804321,-0.2604789733886719,0.562710702419281
445,156528,156529,-0.026531638577580452,-0.07861547917127609,1.1072449684143066,-30.48383331298828,13.044371604919434,3.269153356552124,1.0604469776153564,2.5513722896575928,4.978250980377197,0.9249138832092285,-0.42757922410964966,0.6169352531433105
446,156538,156539,-0.09512341767549515,-0.0764477327466011,1.083479404449463,-29.209009170532227,8.835759162902832,2.043628454208374,1.072446346282959,2.5543723106384277,4.9722514152526855,0.8264469504356384,-0.8130885362625122,0.653559684753418
447,156548,156549,-0.09011521190404892,-0.027318989858031273,1.1224769353866577,-17.128854751586914,9.517446517944336,2.2297146320343018,1.0544472932815552,2.5513722896575928,4.978250980377197,0.7479690909385681,-1.1007663011550903,0.6709731817245483
448,156558,156559,0.011787905357778072,-0.024920819327235222,1.0695784091949463,-4.724447727203369,6.156123638153076,3.5084688663482666,1.0634467601776123,2.5393729209899902,4.957252025604248,0.619255006313324,-1.2760065793991089,0.6944495439529419
449,156568,156569,0.05682582035660744,-0.0797039344906807,1.0133060216903687,15.682175636291504,1.090745449066162,3.7478082180023193,1.0679465532302856,2.5258736610412598,4.955751895904541,0.7244865298271179,-1.133453130722046,0.7039334774017334
450,156578,156579,0.03809245303273201,-0.09463581442832947,0.9796265959739685,27.307823181152344,-0.7920812368392944,1.8361423015594482,1.070946455001831,2.5258736610412598,4.952752113342285,0.682209312915802,-0.9012062549591064,0.7357940673828125
451,156588,156589,-0.008338825777173042,-0.04537806287407875,1.0001189708709717,21.18265151977539,4.490085601806641,0.4743013381958008,1.0664466619491577,2.524373769760132,4.960251808166504,0.6961750984191895,-0.6391376852989197,0.7523155808448792
452,156598,156599,0.029727714136242867,0.08975771069526672,1.0199306011199951,11.095175743103027,-0.5636639595031738,-1.2749042510986328,1.0769461393356323,2.5108745098114014,4.955751895904541,0.7179752588272095,-0.4309277832508087,0.7473732233047485
453,156608,156609,-0.03212510049343109,0.11555261164903641,1.0464081764221191,5.040678977966309,-10.357597351074219,-2.6404855251312256,1.0544472932815552,2.515374183654785,4.954252243041992,0.8448672294616699,-0.30335649847984314,0.721186637878418
454,156618,156619,0.053781915456056595,0.12988238036632538,1.0527467727661133,3.305478572845459,-12.127586364746094,-3.242353916168213,1.0664466619491577,2.5063745975494385,4.936253070831299,1.0187419652938843,-0.23380659520626068,0.6872124075889587
455,156628,156629,-0.023153075948357582,-0.020836669951677322,0.9889803528785706,-4.473693370819092,0.9078283905982971,-2.3635361194610596,1.0634467601776123,2.497375011444092,4.9422526359558105,1.0094306468963623,-0.2330113798379898,0.6715769171714783
456,156638,156639,0.017185520380735397,-0.0029722738545387983,0.9925287961959839,-7.941189289093018,20.362550735473633,-2.063450813293457,1.0694465637207031,2.494375228881836,4.930253505706787,0.9868581295013428,-0.34375399351119995,0.6571746468544006
457,156648,156649,0.008550740778446198,-0.002842735033482313,1.0086140632629395,-6.196854591369629,40.53115463256836,-0.912964403629303,1.0544472932815552,2.518373966217041,4.9482526779174805,0.6911264061927795,-0.3383786678314209,0.6308069229125977
458,156658,156659,-0.06117256358265877,0.002045802306383848,0.9927766919136047,-9.13996410369873,47.53476333618164,-1.6956753730773926,1.0544472932815552,2.521373987197876,4.9422526359558105,-0.022081807255744934,-0.5361937284469604,0.6621042490005493
459,156668,156669,-0.04599554091691971,-0.021915970370173454,0.9800973534584045,-6.5035624504089355,42.40379333496094,-2.1139864921569824,1.0589470863342285,2.546872615814209,4.958752155303955,-0.14481781423091888,-0.6077726483345032,0.6085577607154846
460,156678,156679,-0.026896821334958076,-0.037068791687488556,0.9827760457992554,0.6405457258224487,24.919641494750977,-0.853743314743042,1.0664466619491577,2.5363731384277344,4.951252460479736,-0.7028167843818665,-0.6901662349700928,0.5987467169761658
461,156688,156689,-0.032737620174884796,-0.04482199251651764,0.9721525311470032,4.928135395050049,6.003522872924805,0.8280564546585083,1.0634467601776123,2.524373769760132,4.939252853393555,-0.7483893036842346,-0.6648444533348083,0.5691530704498291
462,156698,156699,0.0038790968246757984,-0.05224648490548134,0.9706542491912842,5.302129745483398,-8.150810241699219,1.4959194660186768,1.057447075843811,2.524373769760132,4.945252418518066,-0.7175658941268921,-0.5858461856842041,0.5668339729309082
463,156708,156709,-0.005104465410113335,-0.0511198528110981,0.9436719417572021,0.5310686826705933,-23.22322654724121,2.5249476432800293,1.0604469776153564,2.5123744010925293,4.9422526359558105,-0.5889855623245239,-0.5254086256027222,0.5802873373031616
464,156718,156719,-0.016813695430755615,-0.03915137052536011,0.9266043305397034,-9.78229808807373,-34.40766906738281,3.241452217102051,1.072446346282959,2.524373769760132,4.957252025604248,-0.31709370017051697,-0.5677606463432312,0.6061671376228333
465,156728,156729,0.020548788830637932,-0.014327408745884895,0.9409311413764954,-21.430097579956055,-37.04636001586914,3.263747453689575,1.0634467601776123,2.5303733348846436,4.975251197814941,0.09760095179080963,-0.7080298662185669,0.6365686655044556
466,156738,156739,-0.013032927177846432,-0.04425008222460747,0.9314977526664734,-30.877840042114258,-31.18255043029785,2.389899730682373,1.0784460306167603,2.5303733348846436,4.96325159072876,0.5838773846626282,-0.9659218788146973,0.661906361579895
467,156748,156749,-0.022688686847686768,-0.03418629243969917,0.9483240246772766,-33.032657623291016,-18.13470458984375,0.9955250024795532,1.085945725440979,2.522873878479004,4.961751937866211,0.7919344902038574,-1.1280361413955688,0.6963896155357361
468,156758,156759,-0.03465308994054794,-0.038331858813762665,0.9735445976257324,-24.83293342590332,0.23275980353355408,0.14094313979148865,1.0679465532302856,2.5378730297088623,4.952752113342285,0.9782381057739258,-1.6366448402404785,0.7171117663383484
469,156768,156769,-0.028208201751112938,-0.02863284945487976,0.9852641820907593,-7.552419662475586,20.12544059753418,-0.2631898522377014,1.0664466619491577,2.5393729209899902,4.96325159072876,0.9227561354637146,-1.816963791847229,0.7200763821601868
470,156778,156779,-0.03127792850136757,-0.02571232244372368,1.0002542734146118,12.902556419372559,37.36543273925781,-1.0782740116119385,1.0694465637207031,2.5303733348846436,4.957252025604248,0.6260737776756287,-1.7769089937210083,0.7154423594474792
471,156788,156789,-0.010109733790159225,0.06405271589756012,1.0005100965499878,25.893341064453125,39.30101776123047,-2.375565767288208,1.048447608947754,2.545372724533081,4.984250545501709,0.04728430137038231,-1.5104871988296509,0.7194127440452576
472,156798,156799,0.03308286890387535,0.07939139753580093,1.018316388130188,26.001798629760742,22.852100372314453,-5.115647315979004,1.0514473915100098,2.5513722896575928,4.984250545501709,-0.20060794055461884,-1.2101714611053467,0.6593950390815735
473,156808,156809,-0.008797953836619854,-0.012917067855596542,1.0130165815353394,13.580729484558105,-0.6764966249465942,-8.155752182006836,1.0619468688964844,2.546872615814209,4.958752155303955,-0.41377678513526917,-1.1306959390640259,0.6097903847694397
474,156818,156819,-0.0899844765663147,-0.08348242938518524,1.0061548948287964,7.900740146636963,-15.426424026489258,-10.429688453674316,1.070946455001831,2.5288734436035156,4.952752113342285,-0.3689107298851013,-0.998149037361145,0.5206671953201294
475,156828,156829,-0.08190260827541351,-0.13946105539798737,1.0149837732315063,8.929730415344238,-16.650531768798828,-11.047821998596191,1.0694465637207031,2.5273735523223877,4.96325159072876,-0.15447686612606049,-1.000293493270874,0.4070844054222107
476,156838,156839,-0.09802854806184769,-0.1628778576850891,1.0020732879638672,16.384370803833008,-15.730791091918945,-11.062515258789062,1.0604469776153564,2.521373987197876,4.96925163269043,0.06938797235488892,-0.8909412622451782,0.2870596945285797
