,timestamp_start,timestamp_end,acc.x,acc.y,acc.z,gyro.x,gyro.y,gyro.z,mag.x,mag.y,mag.z,stabilizer.pitch,stabilizer.roll,stabilizer.yaw
0,40146,40147,-0.05664155259728432,-0.0485624261200428,0.9104536175727844,23.82834243774414,-6.487532615661621,9.164525985717773,1.0829458236694336,2.4448776245117188,4.973751068115234,1.4368104934692383,-0.5855127573013306,-0.8425635695457458
1,40156,40157,-0.09015867859125137,-0.035764429718256,0.8040433526039124,9.918644905090332,-1.4167271852493286,1.6945511102676392,1.0904453992843628,2.440377950668335,4.984250545501709,1.4935823678970337,-0.47628673911094666,-0.785190224647522
2,40166,40167,-0.08248792588710785,-0.057967692613601685,0.820131778717041,-1.5399693250656128,11.019220352172852,-6.06837272644043,1.085945725440979,2.441877841949463,4.961751937866211,1.365736722946167,-0.5400603413581848,-0.823070228099823
3,40176,40177,-0.10115182399749756,-0.16008245944976807,0.7560172080993652,-14.982892036437988,21.28437614440918,-10.589947700500488,1.0754462480545044,2.443377733230591,4.954252243041992,1.0645215511322021,-0.7833225727081299,-0.9029668569564819
4,40186,40187,-0.06226857006549835,-0.12140950560569763,0.8104022145271301,-30.783872604370117,28.225797653198242,-12.414230346679688,1.0799460411071777,2.4238786697387695,4.952752113342285,0.9565111398696899,-0.7525686621665955,-1.0381829738616943
5,40196,40197,-0.04948050528764725,-0.10479757189750671,0.8583993315696716,-46.6122932434082,28.038204193115234,-12.449865341186523,1.0784460306167603,2.434378147125244,4.9482526779174805,0.7227357625961304,-1.4261083602905273,-1.169613003730774
6,40206,40207,-0.06810401380062103,-0.039930351078510284,0.831568717956543,-52.27395248413086,21.25286102294922,-10.836993217468262,1.0754462480545044,2.443377733230591,4.9482526779174805,-0.12619678676128387,-2.059946060180664,-1.2339280843734741
7,40216,40217,-0.1003478392958641,-0.033827729523181915,0.816228985786438,-45.3112678527832,8.877650260925293,-8.892069816589355,1.072446346282959,2.4523773193359375,4.9482526779174805,-0.20771905779838562,-2.7780938148498535,-1.3503695726394653
8,40226,40227,-0.09853072464466095,-0.037040263414382935,0.8258304595947266,-27.8909854888916,-4.001610279083252,-8.846797943115234,1.070946455001831,2.4598770141601562,4.964751720428467,-0.28634482622146606,-2.9425339698791504,-1.4213740825653076
9,40236,40237,-0.08233915269374847,-0.03558900207281113,0.8358634114265442,-4.42252779006958,-14.435202598571777,-11.988652229309082,1.070946455001831,2.4448776245117188,4.949752330780029,-0.11486883461475372,-3.2411842346191406,-1.5390024185180664
10,40246,40247,-0.10736194252967834,-0.034365054219961166,0.7460781931877136,22.486509323120117,-25.067365646362305,-15.473166465759277,1.0784460306167603,2.4493775367736816,4.954252243041992,0.08593397587537766,-3.122274398803711,-1.6628743410110474
11,40256,40257,-0.11047911643981934,-0.040962398052215576,0.7888181805610657,42.936580657958984,-31.769309997558594,-19.03934669494629,1.0814459323883057,2.446377754211426,4.954252243041992,0.2842385172843933,-2.815871000289917,-1.8008769750595093
12,40266,40267,-0.08221506327390671,-0.04409302771091461,0.8104725480079651,62.463985443115234,-34.565391540527344,-18.682125091552734,1.0769461393356323,2.4568769931793213,4.964751720428467,0.5644572377204895,-2.265249252319336,-1.9599542617797852
13,40276,40277,-0.07629629224538803,-0.08523725718259811,0.7689616680145264,71.30857849121094,-31.778400421142578,-16.18352508544922,1.0799460411071777,2.468876600265503,4.979751110076904,1.033388376235962,-1.5261359214782715,-2.160410165786743
14,40286,40287,-0.07520288974046707,-0.10063041001558304,0.7967982292175293,63.41745376586914,-22.248729705810547,-13.544994354248047,1.0889455080032349,2.4568769931793213,4.979751110076904,1.1259331703186035,-0.8823211789131165,-2.2448840141296387
15,40296,40297,-0.06070643663406372,-0.09494849294424057,0.7156087756156921,46.29484939575195,-9.70873737335205,-11.371118545532227,1.0979450941085815,2.4568769931793213,4.97675085067749,1.293664813041687,-0.3172418177127838,-2.369316577911377
16,40306,40307,-0.07735814154148102,-0.06919850409030914,0.827332079410553,24.071121215820312,-6.783463001251221,-8.323515892028809,1.0904453992843628,2.4553771018981934,4.975251197814941,1.2075905799865723,0.05735102668404579,-2.4132373332977295
17,40316,40317,-0.09513715654611588,-0.060545071959495544,0.8017703890800476,-8.073143005371094,-11.378072738647461,-7.8287129402160645,1.072446346282959,2.440377950668335,4.975251197814941,1.4436758756637573,0.11059939861297607,-2.536517858505249
18,40326,40327,-0.10783341526985168,0.0006547621451318264,0.8418391346931458,-41.03779983520508,-9.850813865661621,-9.749642372131348,1.0889455080032349,2.4448776245117188,4.98275089263916,1.3629465103149414,-0.3517035245895386,-2.5712685585021973
19,40336,40337,-0.07401251792907715,-0.04212910309433937,0.7877940535545349,-60.36500930786133,-3.9900858402252197,-11.22028636932373,1.0904453992843628,2.467376470565796,4.981250762939453,1.5982015132904053,-0.9100988507270813,-2.7273213863372803
20,40346,40347,-0.06515747308731079,-0.048134710639715195,0.8252160549163818,-66.591064453125,-2.7270681858062744,-10.817587852478027,1.087445616722107,2.494375228881836,5.014249324798584,1.4369229078292847,-1.6174389123916626,-2.790120840072632
21,40356,40357,-0.1273159682750702,-0.034615401178598404,0.7529219388961792,-61.76173782348633,-8.033400535583496,-10.493461608886719,1.0919454097747803,2.495875120162964,5.018748760223389,1.6086481809616089,-2.3123092651367188,-2.925710916519165
22,40366,40367,-0.08126939833164215,-0.03508658707141876,0.7725993990898132,-43.46659469604492,-17.686914443969727,-10.358292579650879,1.1009448766708374,2.5048747062683105,5.012749195098877,1.6265757083892822,-2.7337377071380615,-2.9941067695617676
23,40376,40377,-0.06611595302820206,-0.04017030820250511,0.8132312297821045,-18.329164505004883,-28.07413101196289,-11.475532531738281,1.0964452028274536,2.497375011444092,5.011249542236328,2.081517457962036,-3.066387891769409,-3.1499462127685547
24,40386,40387,-0.07151010632514954,-0.06689084321260452,0.8706595301628113,10.429805755615234,-33.25522994995117,-11.107877731323242,1.087445616722107,2.5123744010925293,5.014249324798584,2.118788242340088,-3.079721450805664,-3.170814275741577
25,40396,40397,-0.08261024206876755,-0.056431420147418976,0.8231273889541626,36.4772834777832,-30.09147071838379,-9.97156810760498,1.1129443645477295,2.5138742923736572,5.03074836730957,2.6289548873901367,-2.6172187328338623,-3.325770854949951
26,40406,40407,-0.08883322030305862,-0.05843883007764816,0.6975295543670654,57.600894927978516,-18.47490119934082,-6.141934871673584,1.0949451923370361,2.5018749237060547,5.036747932434082,2.8572874069213867,-2.0900075435638428,-3.3947792053222656
27,40416,40417,-0.08172623068094254,-0.06058245524764061,0.7497989535331726,66.3025131225586,-8.857240676879883,-1.8036282062530518,1.0949451923370361,2.540872812271118,5.0517473220825195,2.786025047302246,-1.466045618057251,-3.35591197013855
28,40426,40427,-0.07509833574295044,-0.060442518442869186,0.791659414768219,56.70199203491211,4.645623683929443,-3.5651159286499023,1.0949451923370361,2.5378730297088623,5.063746929168701,2.7839412689208984,-0.8875411748886108,-3.3653197288513184
29,40436,40437,-0.06273257732391357,-0.12523303925991058,0.7464655637741089,42.70535659790039,14.076993942260742,-7.093844413757324,1.0919454097747803,2.5378730297088623,5.066746711730957,2.5982470512390137,-0.511701762676239,-3.377692461013794
30,40446,40447,-0.0545148067176342,-0.0838588997721672,0.7659987211227417,26.944110870361328,14.937090873718262,-7.474215030670166,1.0889455080032349,2.5318734645843506,5.0517473220825195,2.4862780570983887,-0.1753567010164261,-3.4673655033111572
31,40456,40457,-0.09099230170249939,-0.05724848806858063,0.7474424839019775,15.457686424255371,14.244720458984375,-4.7067790031433105,1.1069446802139282,2.540872812271118,5.063746929168701,2.2332603931427,-0.10633689165115356,-3.476940155029297
32,40466,40467,-0.09731868654489517,-0.008687049150466919,0.8462246656417847,-2.629103660583496,6.5841569900512695,-1.4825173616409302,1.085945725440979,2.5348732471466064,5.069746494293213,2.1425962448120117,-0.06887350976467133,-3.5088701248168945
33,40476,40477,-0.11792534589767456,-0.018370304256677628,0.8266251683235168,-21.699792861938477,-3.675908088684082,0.3199123740196228,1.0979450941085815,2.549872398376465,5.075746059417725,2.0594375133514404,-0.34018367528915405,-3.469822883605957
34,40486,40487,-0.10036914795637131,-0.05040639266371727,0.8635364174842834,-32.09177017211914,-12.143567085266113,-0.28143393993377686,1.0844457149505615,2.5573720932006836,5.074246406555176,2.2055819034576416,-0.775809109210968,-3.460787057876587
35,40496,40497,-0.09693965315818787,-0.06566838175058365,0.9239451289176941,-27.926259994506836,-21.28733253479004,-1.2156537771224976,1.0934453010559082,2.5873706340789795,5.089245319366455,2.4043326377868652,-0.8785305023193359,-3.5082170963287354
36,40506,40507,-0.046159528195858,-0.041668638586997986,0.9334444999694824,-4.216247081756592,-25.55916976928711,1.9743839502334595,1.0934453010559082,2.5873706340789795,5.104244709014893,2.658646821975708,-1.0093480348587036,-3.514331579208374
37,40516,40517,-0.04643244668841362,-0.10638857632875443,0.9097426533699036,12.602009773254395,-31.45523452758789,6.903530120849609,1.087445616722107,2.578371047973633,5.107244491577148,2.9020211696624756,-0.8611185550689697,-3.473942995071411
38,40526,40527,-0.06049579754471779,-0.13027910888195038,0.9111654758453369,22.470563888549805,-33.95797348022461,8.631458282470703,1.109944462776184,2.5798709392547607,5.1027445793151855,3.413203001022339,-0.5426372289657593,-3.4566471576690674
39,40536,40537,-0.12857043743133545,-0.1590007245540619,0.9458447694778442,33.9141845703125,-39.434356689453125,8.60499382019043,1.1084445714950562,2.5903704166412354,5.104244709014893,3.5007832050323486,-0.46830490231513977,-3.2653377056121826
40,40546,40547,-0.18834562599658966,-0.045696839690208435,0.9383589029312134,44.78826141357422,-34.328956604003906,10.782062530517578,1.1054446697235107,2.599370002746582,5.122243881225586,3.802351474761963,0.027529411017894745,-3.17421555519104
41,40556,40557,-0.2477848082780838,-0.08062779903411865,1.0510127544403076,46.05668258666992,-26.95484733581543,13.440651893615723,1.1024448871612549,2.5843708515167236,5.125243663787842,3.998591423034668,0.30153703689575195,-2.986349582672119
42,40566,40567,-0.24426306784152985,-0.1484173983335495,1.079432487487793,44.10212707519531,-16.919939041137695,13.17541790008545,1.111444354057312,2.5903704166412354,5.125243663787842,4.232629776000977,0.9253822565078735,-2.9054372310638428
43,40576,40577,-0.20808711647987366,-0.0961797684431076,1.0017125606536865,32.72074508666992,-5.082688808441162,12.52302360534668,1.1054446697235107,2.5903704166412354,5.11924409866333,4.350200176239014,1.2030893564224243,-2.758744955062866
44,40586,40587,-0.14125539362430573,-0.06907736510038376,1.0180593729019165,9.323586463928223,-4.438976764678955,11.587502479553223,1.1024448871612549,2.5873706340789795,5.125243663787842,4.4583611488342285,1.3520482778549194,-2.6388227939605713
45,40596,40597,-0.12878480553627014,-0.07053913176059723,1.041424036026001,-12.684535026550293,-4.991121292114258,11.893969535827637,1.1144442558288574,2.5663716793060303,5.098245143890381,4.430172920227051,1.221022129058838,-2.484252452850342
46,40606,40607,-0.20001457631587982,-0.14388103783130646,1.0187455415725708,-30.825233459472656,-2.260608434677124,11.488903045654297,1.1144442558288574,2.575371265411377,5.11324405670166,4.230460166931152,0.8508270382881165,-2.2963390350341797
47,40616,40617,-0.12743671238422394,-0.17201276123523712,0.9849434494972229,-40.69402313232422,4.198176860809326,9.95052719116211,1.1144442558288574,2.575371265411377,5.11924409866333,4.225675582885742,0.6178544163703918,-2.242828369140625
48,40626,40627,-0.1251358985900879,-0.09937483817338943,0.9478912949562073,-42.994319915771484,2.5739076137542725,8.780187606811523,1.1189440488815308,2.576871156692505,5.126743793487549,4.286888599395752,0.014186002314090729,-2.096363067626953
49,40636,40637,-0.17028936743736267,-0.031719524413347244,0.9897561073303223,-41.81245040893555,6.153594970703125,7.994129180908203,1.1129443645477295,2.5918703079223633,5.114744186401367,4.040863990783691,-0.29322031140327454,-2.0501046180725098
50,40646,40647,-0.10069883614778519,-0.02788686752319336,1.0501813888549805,-24.646909713745117,12.186176300048828,9.676400184631348,1.1024448871612549,2.599370002746582,5.122243881225586,3.9631409645080566,-0.6441939473152161,-1.9615726470947266
51,40656,40657,-0.0439530611038208,-0.10279492288827896,1.0110903978347778,2.255661725997925,6.048771381378174,12.796104431152344,1.1144442558288574,2.578371047973633,5.122243881225586,3.8490657806396484,-0.7570266723632812,-1.8482962846755981
52,40666,40667,-0.02212769165635109,-0.07601027190685272,0.9924352765083313,22.695220947265625,-4.600464820861816,13.839091300964355,1.1084445714950562,2.575371265411377,5.11324405670166,3.975243330001831,-0.3836859166622162,-1.8056633472442627
53,40676,40677,-0.08511440455913544,-0.10491582006216049,1.0220880508422852,26.28348159790039,-9.391488075256348,15.673900604248047,1.1189440488815308,2.573871374130249,5.120743751525879,4.121002674102783,-0.16028237342834473,-1.6521931886672974
54,40686,40687,-0.1090439185500145,-0.037523165345191956,1.0701818466186523,25.618436813354492,0.4791654944419861,17.028749465942383,1.1159441471099854,2.573871374130249,5.1327433586120605,4.1107659339904785,-0.01129736378788948,-1.4453423023223877
55,40696,40697,-0.058871082961559296,-0.0325983464717865,1.057749629020691,24.131147384643555,19.511211395263672,15.477124214172363,1.111444354057312,2.593370199203491,5.110244274139404,3.907243251800537,0.34065884351730347,-1.3207993507385254
56,40706,40707,-0.037603382021188736,-0.08696015924215317,0.9842278361320496,14.044466018676758,38.687469482421875,9.140978813171387,1.1024448871612549,2.5813708305358887,5.11924409866333,3.473057985305786,0.6468361020088196,-1.237579584121704
57,40716,40717,0.011097130365669727,-0.07152360677719116,0.9660157561302185,4.5076093673706055,44.21495819091797,1.6671279668807983,1.1054446697235107,2.5903704166412354,5.107244491577148,3.0776331424713135,0.6280517578125,-1.1461601257324219
58,40726,40727,-0.02940334565937519,-0.01279685739427805,0.977165937423706,-2.3472020626068115,41.62836456298828,-4.754538059234619,1.1009448766708374,2.5918703079223633,5.114744186401367,2.5362870693206787,0.49567335844039917,-1.1079304218292236
59,40736,40737,-0.03391249105334282,-0.03381462022662163,0.9829888343811035,3.2200260162353516,27.46286964416504,-5.2158098220825195,1.0994449853897095,2.593370199203491,5.110244274139404,2.2766096591949463,0.5383855104446411,-1.1769042015075684
60,40746,40747,-0.08869452774524689,-0.02141335792839527,0.9814363121986389,5.832371711730957,4.294780254364014,-2.6769309043884277,1.0934453010559082,2.5813708305358887,5.11324405670166,2.2150137424468994,0.5792269706726074,-1.208964228630066
61,40756,40757,-0.0008683166815899312,0.028518762439489365,1.0126210451126099,9.764039039611816,-9.860837936401367,1.8413625955581665,1.1039447784423828,2.5828707218170166,5.117743968963623,2.1737256050109863,0.8149973154067993,-1.2651875019073486
62,40766,40767,0.04276915639638901,-0.029922304674983025,0.9975467920303345,10.058854103088379,-8.951186180114746,7.511258602142334,1.1009448766708374,2.5918703079223633,5.117743968963623,2.3555455207824707,1.0027066469192505,-1.2444573640823364
63,40776,40777,0.07304028421640396,0.05532236397266388,1.0917528867721558,2.927428722381592,-0.04355185478925705,10.161360740661621,1.1054446697235107,2.5843708515167236,5.128243446350098,2.293421745300293,1.0318467617034912,-1.1446080207824707
64,40786,40787,-0.019009079784154892,0.03380561247467995,1.0524288415908813,-4.755841255187988,13.987543106079102,10.653228759765625,1.1054446697235107,2.572371244430542,5.125243663787842,2.2201099395751953,1.0022565126419067,-1.0313056707382202
65,40796,40797,-0.05992154777050018,-0.008856452070176601,1.0694776773452759,-15.31993579864502,20.66307830810547,10.827973365783691,1.0994449853897095,2.5843708515167236,5.11924409866333,2.1165974140167236,0.8965809345245361,-0.9155021905899048
66,40806,40807,-0.02270025946199894,-0.05560482665896416,1.0857073068618774,-26.711395263671875,18.480348587036133,11.469482421875,1.1069446802139282,2.5828707218170166,5.114744186401367,1.8453987836837769,0.5365215539932251,-0.7641362547874451
67,40816,40817,-0.06277964264154434,-0.06453955173492432,1.0153943300247192,-32.97029113769531,6.3317060470581055,9.914374351501465,1.0934453010559082,2.578371047973633,5.11924409866333,1.712363362312317,0.24982213973999023,-0.6615815758705139
68,40826,40827,-0.11727450042963028,-0.040047165006399155,1.0405638217926025,-27.167720794677734,-11.30575942993164,8.55095386505127,1.0979450941085815,2.576871156692505,5.117743968963623,1.7632092237472534,-0.16662590205669403,-0.5436591506004333
69,40836,40837,-0.05179668962955475,0.0044413679279387,1.0877858400344849,-18.49258804321289,-22.240978240966797,7.051218032836914,1.1039447784423828,2.5648717880249023,5.09974479675293,1.639024257659912,-0.13629114627838135,-0.5362170934677124
70,40846,40847,-0.03233973681926727,-0.03144882991909981,1.0492092370986938,-11.3753023147583,-19.828203201293945,3.0146303176879883,1.1084445714950562,2.569371461868286,5.110244274139404,1.9754573106765747,-0.3618733286857605,-0.4620177745819092
71,40856,40857,-0.039452262222766876,-0.0021794659551233053,1.0943865776062012,3.012478828430176,-22.97114372253418,0.22418035566806793,1.1009448766708374,2.573871374130249,5.09974479675293,2.028860092163086,-0.19889624416828156,-0.4948355555534363
72,40866,40867,-0.03926774859428406,-0.0454387366771698,1.0567182302474976,25.559762954711914,-25.81776237487793,1.5147606134414673,1.0949451923370361,2.5558722019195557,5.096745014190674,2.511028528213501,-0.0727706328034401,-0.47160133719444275
73,40876,40877,-0.06656798720359802,-0.05537905544042587,1.07952082157135,42.11103439331055,-18.773807525634766,5.546139717102051,1.1129443645477295,2.570871353149414,5.09974479675293,2.4438717365264893,0.17257462441921234,-0.43216368556022644
74,40886,40887,-0.027133379131555557,-0.034509170800447464,1.0853129625320435,46.22480010986328,-7.946356296539307,10.132330894470215,1.1039447784423828,2.573871374130249,5.1057448387146,2.574275016784668,0.6956363320350647,-0.36507678031921387
75,40896,40897,-0.06749408692121506,-0.06516193598508835,1.0709586143493652,38.41770935058594,-5.21021032333374,14.594097137451172,1.1009448766708374,2.576871156692505,5.114744186401367,2.5951273441314697,1.170822262763977,-0.2469829022884369
76,40906,40907,-0.04653872922062874,-0.053401827812194824,1.0907849073410034,19.66657066345215,-15.073732376098633,18.305591583251953,1.111444354057312,2.569371461868286,5.101244926452637,2.7691850662231445,1.443934679031372,-0.08026932179927826
77,40916,40917,-0.051735688000917435,-0.031608838587999344,1.160593032836914,-3.5920941829681396,-33.61880111694336,20.769956588745117,1.1069446802139282,2.5528724193573,5.090745449066162,2.9142706394195557,1.5826307535171509,0.09875505417585373
78,40926,40927,-0.09498604387044907,-0.071947380900383,1.1659754514694214,-35.19996643066406,-52.584590911865234,17.120019912719727,1.1129443645477295,2.5588719844818115,5.1087446212768555,3.3104372024536133,1.162999153137207,0.31030142307281494
79,40936,40937,-0.059826042503118515,-0.03316992521286011,1.1895390748977661,-60.03337860107422,-55.58064651489258,8.505581855773926,1.1219438314437866,2.567871570587158,5.090745449066162,3.5993711948394775,0.5196157097816467,0.42996087670326233
80,40946,40947,-0.08719746023416519,-0.0411788746714592,1.161747932434082,-71.2876205444336,-46.31160354614258,2.731825590133667,1.13994300365448,2.5618717670440674,5.08474588394165,4.339901924133301,-0.16778652369976044,0.5031638741493225
81,40956,40957,-0.11064688116312027,-0.04927433654665947,1.148074984550476,-58.65930938720703,-30.33677864074707,0.9452558159828186,1.1189440488815308,2.546872615814209,5.0787458419799805,4.650173187255859,-1.0257703065872192,0.5477149486541748
82,40966,40967,-0.12158729881048203,-0.02624710462987423,1.0834970474243164,-32.944000244140625,-17.55214500427246,3.5500452518463135,1.124943733215332,2.549872398376465,5.090745449066162,4.981988906860352,-1.2198271751403809,0.5301158428192139
83,40976,40977,-0.1164584681391716,-0.007436744868755341,1.0502028465270996,-4.2348504066467285,-10.604534149169922,9.720992088317871,1.1159441471099854,2.540872812271118,5.072746276855469,4.966510772705078,-1.3235628604888916,0.5713503956794739
84,40986,40987,-0.14150787889957428,-0.03463776409626007,0.9974230527877808,19.888038635253906,8.20421028137207,10.693014144897461,1.124943733215332,2.5138742923736572,5.048747539520264,4.677159786224365,-1.2194896936416626,0.6580641269683838
85,40996,40997,-0.14956490695476532,-0.027436526492238045,1.0033156871795654,34.115421295166016,39.76634979248047,7.5132598876953125,1.1189440488815308,2.5138742923736572,5.039747714996338,4.301948070526123,-0.9688925743103027,0.7497822642326355
86,41006,41007,-0.1685764193534851,-0.05979972705245018,0.9260582327842712,42.82866287231445,70.69454193115234,3.5386598110198975,1.1024448871612549,2.515374183654785,5.053247451782227,3.610590696334839,-0.39314621686935425,0.7419470548629761
87,41016,41017,-0.07786470651626587,-0.042279068380594254,0.887134313583374,40.23564910888672,84.41130828857422,0.837037205696106,1.0994449853897095,2.545372724533081,5.068246364593506,3.145432233810425,-0.08069057762622833,0.7892130017280579
88,41026,41027,-0.10053253918886185,-0.02818138524889946,0.9319656491279602,31.508705139160156,86.78460693359375,-1.9022282361984253,1.1054446697235107,2.5543723106384277,5.095245361328125,2.4365994930267334,0.13639399409294128,0.8210813403129578
89,41036,41037,-0.008222628384828568,-0.016033140942454338,0.9317329525947571,15.694672584533691,85.71751403808594,-2.285649538040161,1.0994449853897095,2.5273735523223877,5.06524658203125,1.4147804975509644,0.5031160712242126,0.7719606161117554
90,41046,41047,-0.001350928912870586,0.01467050053179264,0.9093688130378723,-5.065509796142578,74.23381805419922,-3.3176491260528564,1.0934453010559082,2.515374183654785,5.059247016906738,0.5977538228034973,0.4126332402229309,0.7858322858810425
91,41056,41057,-0.012730004265904427,0.0320311114192009,0.892444372177124,-24.286014556884766,52.0417594909668,-5.063104629516602,1.0799460411071777,2.549872398376465,5.066746711730957,0.14326420426368713,0.1403481811285019,0.7701020836830139
92,41066,41067,0.021526996046304703,0.030060872435569763,0.8973574042320251,-36.376922607421875,22.380287170410156,-6.49911642074585,1.0919454097747803,2.5288734436035156,5.060746669769287,-0.029847068712115288,-0.22875118255615234,0.7218440771102905
93,41076,41077,0.04226242005825043,0.029883772134780884,0.8999899625778198,-38.312957763671875,-13.41278076171875,-9.747264862060547,1.0889455080032349,2.5138742923736572,5.054747104644775,-0.0018276540795341134,-0.7501844167709351,0.6607046723365784
94,41086,41087,-0.037316374480724335,0.019735217094421387,0.9288386106491089,-31.275192260742188,-45.728572845458984,-12.02205753326416,1.0889455080032349,2.519873857498169,5.048747539520264,0.37223225831985474,-0.8611351847648621,0.5302534103393555
95,41096,41097,-0.030576808378100395,0.008822817355394363,0.9738174080848694,-16.09658432006836,-65.54716491699219,-12.000910758972168,1.1009448766708374,2.5318734645843506,5.066746711730957,0.9995518326759338,-1.2069520950317383,0.42689961194992065
96,41106,41107,-0.06876029819250107,-0.05169796943664551,0.9317837953567505,-3.0198910236358643,-65.09663391113281,-10.323898315429688,1.0964452028274536,2.542372941970825,5.089245319366455,1.593536615371704,-1.101844072341919,0.3179020285606384
97,41116,41117,-0.07118837535381317,-0.05689049884676933,0.9013573527336121,8.518136024475098,-42.61724853515625,-8.188484191894531,1.0964452028274536,2.5513722896575928,5.092245101928711,2.175196886062622,-1.0294969081878662,0.23554599285125732
98,41126,41127,-0.07527093589305878,-0.02151024341583252,0.923874020576477,24.064987182617188,-4.646377086639404,-8.021718978881836,1.1054446697235107,2.545372724533081,5.083245754241943,2.204291343688965,-0.8526074886322021,0.16525663435459137
99,41136,41137,-0.03895390406250954,-0.048444412648677826,0.8770328760147095,31.177522659301758,35.37070846557617,-9.664942741394043,1.0949451923370361,2.5378730297088623,5.057746887207031,1.8882577419281006,-0.5775474309921265,0.08267532289028168
100,41146,41147,0.0069100335240364075,0.019084136933088303,0.8226455450057983,30.144054412841797,67.3912124633789,-12.754672050476074,1.0889455080032349,2.540872812271118,5.069746494293213,1.3530163764953613,-0.21134600043296814,-0.03512882441282272
101,41156,41157,-0.0057058981619775295,0.031189516186714172,0.879599928855896,30.302215576171875,79.87692260742188,-15.203386306762695,1.0829458236694336,2.5558722019195557,5.08474588394165,0.26792141795158386,0.08594152331352234,-0.15716390311717987
102,41166,41167,-0.06476729363203049,-0.04224824160337448,0.9282811284065247,27.542892456054688,75.49433135986328,-16.571985244750977,1.0919454097747803,2.570871353149414,5.1057448387146,-0.21635043621063232,0.21624332666397095,-0.33844298124313354
103,41176,41177,-0.08172057569026947,-0.11860843002796173,0.9306910634040833,21.274534225463867,53.396759033203125,-16.36299705505371,1.0814459323883057,2.569371461868286,5.098245143890381,-0.8770009279251099,0.5432190299034119,-0.4970932900905609
104,41186,41187,-0.014842777512967587,-0.13163554668426514,0.9321314096450806,12.735578536987305,20.957719802856445,-15.733175277709961,1.0814459323883057,2.5603718757629395,5.086245536804199,-1.2603884935379028,0.5976380705833435,-0.6599891781806946
105,41196,41197,0.0332571417093277,-0.08404842764139175,0.9441593289375305,4.579930782318115,-17.018564224243164,-14.07091999053955,1.0769461393356323,2.5558722019195557,5.0787458419799805,-1.1798250675201416,0.6655752658843994,-0.816011905670166
106,41206,41207,-0.011326536536216736,-0.043844159692525864,0.9137051701545715,-4.456398963928223,-48.40138244628906,-12.484628677368164,1.0979450941085815,2.5618717670440674,5.096745014190674,-0.8225007653236389,0.6566298007965088,-0.9535940289497375
107,41216,41217,-0.057725973427295685,-0.050006117671728134,0.9204528331756592,-11.606607437133789,-66.97174072265625,-10.991279602050781,1.0964452028274536,2.569371461868286,5.11924409866333,-0.06376437097787857,0.5165160298347473,-1.0882962942123413
108,41226,41227,-0.04151283577084541,-0.0012069015065208077,0.9376398921012878,-16.05548858642578,-64.73452758789062,-9.16633129119873,1.0964452028274536,2.5813708305358887,5.11924409866333,0.34112241864204407,0.2947560250759125,-1.2050633430480957
109,41236,41237,-0.01330951601266861,0.030218545347452164,0.9983460307121277,-17.28009796142578,-52.41564178466797,-7.250702381134033,1.109944462776184,2.5918703079223633,5.1057448387146,1.0996664762496948,0.045578133314847946,-1.3039404153823853
110,41246,41247,-0.054919589310884476,-0.008843762800097466,1.055715560913086,-14.281005859375,-32.097049713134766,-6.205105781555176,1.0949451923370361,2.5798709392547607,5.114744186401367,1.3435769081115723,-0.16714106500148773,-1.3795855045318604
111,41256,41257,-0.03718746080994606,-0.06242348998785019,0.9746915698051453,-9.501405715942383,-5.343490123748779,-5.839093208312988,1.1039447784423828,2.5828707218170166,5.111744403839111,1.2798398733139038,-0.17362730205059052,-1.4187605381011963
112,41266,41267,-0.06545193493366241,-0.059458084404468536,0.9825654029846191,-1.5822347402572632,16.32010269165039,-4.907554626464844,1.0964452028274536,2.578371047973633,5.104244709014893,1.1952846050262451,-0.22537341713905334,-1.4726556539535522
113,41276,41277,-0.061382927000522614,-0.020696202293038368,1.014560341835022,3.522759199142456,39.4831428527832,-2.860060691833496,1.0919454097747803,2.576871156692505,5.1087446212768555,0.9168914556503296,-0.1535807102918625,-1.503528118133545
114,41286,41287,-0.04320693761110306,0.005763762630522251,0.963244616985321,6.211190223693848,48.233604431152344,0.09311402589082718,1.0919454097747803,2.6128692626953125,5.126743793487549,0.2865085303783417,-0.04883018508553505,-1.507277250289917
115,41296,41297,-0.03691402077674866,0.05203493312001228,0.9111409187316895,7.140275001525879,47.07210922241211,3.7370598316192627,1.0934453010559082,2.6113693714141846,5.1312432289123535,-0.1620432734489441,0.013653206638991833,-1.4876476526260376
116,41306,41307,-0.001628416939638555,0.05333877354860306,0.9522562623023987,3.621788501739502,31.18531608581543,6.814001560211182,1.0919454097747803,2.60086989402771,5.126743793487549,-0.5857789516448975,-0.01597600243985653,-1.4505919218063354
117,41316,41317,0.010708826594054699,-0.02077636681497097,0.9839275479316711,-5.888099193572998,4.898547172546387,10.20371150970459,1.0964452028274536,2.6083695888519287,5.125243663787842,-0.7797314524650574,-0.01446273922920227,-1.3603140115737915
118,41326,41327,-0.08638262748718262,-0.07290174067020416,1.0187931060791016,-9.848905563354492,-28.686050415039062,11.215710639953613,1.1009448766708374,2.594870090484619,5.129743576049805,-0.6724645495414734,-0.12757912278175354,-1.2567775249481201
119,41336,41337,-0.14323537051677704,0.012466167099773884,1.121720790863037,-9.89500904083252,-55.59635925292969,12.091717720031738,1.1129443645477295,2.606869697570801,5.141742706298828,-0.010583850555121899,-0.18131166696548462,-1.130127191543579
120,41346,41347,-0.18738703429698944,0.00525037944316864,1.1408787965774536,-9.721240043640137,-65.06494140625,13.212264060974121,1.1159441471099854,2.606869697570801,5.147742748260498,0.42070284485816956,-0.30091163516044617,-1.0047165155410767
121,41356,41357,-0.147860586643219,-0.06357663124799728,1.159373164176941,-11.922781944274902,-53.68014907836914,11.420676231384277,1.109944462776184,2.60086989402771,5.126743793487549,1.0559221506118774,-0.44762057065963745,-0.8853251934051514
122,41366,41367,-0.10952036827802658,-0.14683014154434204,1.0540519952774048,-10.631285667419434,-39.19721603393555,6.172510147094727,1.1054446697235107,2.593370199203491,5.125243663787842,1.478288173675537,-0.47881487011909485,-0.7696791887283325
123,41376,41377,-0.06999742984771729,-0.012324037961661816,1.0670782327651978,7.428264617919922,-18.512042999267578,-0.4215097725391388,1.0994449853897095,2.578371047973633,5.125243663787842,1.559211254119873,-0.6882156133651733,-0.7838760018348694
124,41386,41387,-0.0678480938076973,-0.018455564975738525,1.087281346321106,43.17567443847656,2.596360445022583,-3.4664011001586914,1.1129443645477295,2.573871374130249,5.1087446212768555,1.7166270017623901,-0.44622308015823364,-0.8154730200767517
125,41396,41397,-0.07374364882707596,-0.09146738797426224,1.1612604856491089,82.29267883300781,9.91030502319336,0.0281391404569149,1.1009448766708374,2.597870111465454,5.111744403839111,1.5496660470962524,0.42427685856819153,-0.7885312438011169
126,41406,41407,-0.11867821216583252,-0.06927623599767685,1.2130134105682373,107.53158569335938,-0.7320128679275513,5.625695705413818,1.111444354057312,2.6113693714141846,5.149242401123047,1.4100463390350342,1.2406924962997437,-0.7873196005821228
127,41416,41417,-0.1508706510066986,-0.1446448117494583,1.2124308347702026,119.24337005615234,3.4789366722106934,13.779168128967285,1.0964452028274536,2.6143691539764404,5.155241966247559,1.451411247253418,2.573880910873413,-0.653530478477478
128,41426,41427,-0.15876469016075134,-0.1449834257364273,1.117640733718872,101.12255859375,6.739121913909912,22.234689712524414,1.1144442558288574,2.599370002746582,5.149242401123047,1.429414987564087,3.385359287261963,-0.5181087851524353
129,41436,41437,-0.1552867293357849,-0.18500404059886932,1.044273853302002,31.064733505249023,3.0960769653320312,24.266521453857422,1.1084445714950562,2.5843708515167236,5.149242401123047,1.409459114074707,4.17954158782959,-0.25544610619544983
130,41446,41447,-0.16991902887821198,-0.07448108494281769,1.0292328596115112,-53.10762405395508,2.140763521194458,24.30597496032715,1.1189440488815308,2.546872615814209,5.090745449066162,1.3894251585006714,3.766082763671875,-0.04572001472115517
131,41456,41457,-0.09716413170099258,-0.02422635443508625,1.0284873247146606,-117.27299499511719,12.246759414672852,21.729251861572266,1.1084445714950562,2.5603718757629395,5.107244491577148,1.2416284084320068,2.7693958282470703,0.17054787278175354
132,41466,41467,-0.07898486405611038,-0.029971402138471603,1.057509422302246,-146.5349578857422,14.853459358215332,20.93866729736328,1.1219438314437866,2.5858707427978516,5.135743141174316,1.001733660697937,1.1290994882583618,0.333586186170578
133,41476,41477,-0.026846544817090034,0.018019527196884155,1.063032627105713,-154.66847229003906,5.706210613250732,17.927104949951172,1.1069446802139282,2.597870111465454,5.129743576049805,0.9680907726287842,-0.1913779079914093,0.5727565288543701
134,41486,41487,-0.027393219992518425,-0.021824564784765244,1.0323541164398193,-149.08058166503906,-15.81658935546875,11.933340072631836,1.1159441471099854,2.594870090484619,5.129743576049805,1.02010977268219,-2.0656120777130127,0.6728715896606445
135,41496,41497,-0.016542362049221992,0.04177391156554222,1.0159871578216553,-127.16462707519531,-30.37258529663086,3.751223564147949,1.109944462776184,2.576871156692505,5.1027445793151855,1.4217402935028076,-3.174502372741699,0.8242689371109009
136,41506,41507,0.025249803438782692,0.046673648059368134,1.0708718299865723,-82.5564193725586,-47.84588623046875,-5.673146724700928,1.111444354057312,2.5873706340789795,5.116244316101074,1.798768401145935,-4.288957595825195,0.8232196569442749
137,41516,41517,-0.017420079559087753,0.013833535835146904,1.1709399223327637,-13.427038192749023,-58.172237396240234,-10.303621292114258,1.109944462776184,2.567871570587158,5.09974479675293,2.4134137630462646,-4.250730037689209,0.8316918611526489
138,41526,41527,-0.03481503948569298,-0.02599637769162655,1.1086585521697998,64.07218933105469,-45.16713333129883,-8.04006576538086,1.1294435262680054,2.575371265411377,5.101244926452637,3.2412922382354736,-3.6448915004730225,0.8105102181434631
139,41536,41537,-0.004521066322922707,-0.053197599947452545,1.0615696907043457,124.58151245117188,-13.772018432617188,-1.1360572576522827,1.1174441576004028,2.5903704166412354,5.11324405670166,3.0868148803710938,-2.8485584259033203,0.7756320834159851
140,41546,41547,-0.02593579888343811,-0.08826396614313126,1.0239951610565186,154.46273803710938,28.06427574157715,3.9061734676361084,1.1069446802139282,2.606869697570801,5.141742706298828,2.8752899169921875,-0.8553850054740906,0.8201843500137329
141,41556,41557,-0.07835192233324051,-0.0711323693394661,0.9973901510238647,145.3568878173828,68.11455535888672,4.452642440795898,1.109944462776184,2.60086989402771,5.15374231338501,2.111473321914673,0.26352736353874207,0.8819054365158081
142,41566,41567,-0.07070831209421158,-0.08370033651590347,0.938048779964447,106.83177185058594,86.47673797607422,1.9691174030303955,1.1054446697235107,2.5843708515167236,5.134243011474609,1.1366316080093384,1.5807852745056152,0.9490043520927429
143,41576,41577,-0.05768143758177757,-0.14533470571041107,0.9162749648094177,50.65474319458008,81.90857696533203,-1.1059350967407227,1.0934453010559082,2.578371047973633,5.11924409866333,0.5223369002342224,2.009164571762085,0.94569331407547
144,41586,41587,-0.09428801387548447,-0.12213693559169769,0.9229331016540527,-8.162304878234863,56.669742584228516,-2.363997459411621,1.0964452028274536,2.5633718967437744,5.116244316101074,-0.22934503853321075,2.0433597564697266,0.9521761536598206
145,41596,41597,-0.14221738278865814,-0.07728143036365509,0.9103845953941345,-53.99276351928711,21.644752502441406,-1.361721158027649,1.0964452028274536,2.545372724533081,5.06524658203125,-0.6114437580108643,1.6088248491287231,0.9407340884208679
146,41606,41607,-0.145347461104393,0.030618853867053986,0.9466383457183838,-75.63117218017578,-16.966915130615234,0.2799507975578308,1.085945725440979,2.546872615814209,5.087745666503906,-0.3038618266582489,0.8791536688804626,0.9222334623336792
147,41616,41617,-0.08344818651676178,0.10514853149652481,0.9822953939437866,-73.81910705566406,-50.74845886230469,0.3568340241909027,1.1009448766708374,2.5588719844818115,5.114744186401367,0.1587597280740738,-0.015899136662483215,0.9150264263153076
148,41626,41627,-0.0148304533213377,0.14810119569301605,1.041475772857666,-56.145538330078125,-67.0980224609375,0.03533389791846275,1.1129443645477295,2.549872398376465,5.093745231628418,0.7902353405952454,-0.5621556043624878,0.9255816340446472
149,41636,41637,-0.04795735701918602,0.02023029327392578,0.9951578378677368,-28.338722229003906,-66.23919677734375,1.8573400974273682,1.1069446802139282,2.5648717880249023,5.093745231628418,1.2933275699615479,-0.7724428772926331,0.9565551280975342
150,41646,41647,-0.0676935687661171,0.03001122549176216,1.1152193546295166,-1.4023239612579346,-52.48201370239258,5.266600131988525,1.1084445714950562,2.5543723106384277,5.104244709014893,2.009122610092163,-0.8399391770362854,1.0093541145324707
151,41656,41657,-0.08294586092233658,-0.014397060498595238,1.0539510250091553,21.929128646850586,-23.94939613342285,5.713041305541992,1.1174441576004028,2.5573720932006836,5.095245361328125,2.025069236755371,-0.6407115459442139,1.0764914751052856
152,41666,41667,-0.1029912605881691,0.032996512949466705,0.9769762754440308,35.50393295288086,4.617953300476074,1.474066138267517,1.1174441576004028,2.542372941970825,5.086245536804199,2.193763017654419,-0.3913728892803192,1.111061453819275
153,41676,41677,-0.08329568803310394,0.06526322662830353,0.9726142287254333,45.14291763305664,27.49635887145996,-3.896289825439453,1.109944462776184,2.5318734645843506,5.066746711730957,1.9166786670684814,-0.02402677573263645,1.0952699184417725
154,41686,41687,-0.11391986161470413,0.032402001321315765,1.047150731086731,55.031558990478516,37.24140930175781,-6.678225994110107,1.1129443645477295,2.5318734645843506,5.072746276855469,1.6059250831604004,0.519827127456665,1.0397673845291138
155,41696,41697,-0.17027857899665833,-0.06475251913070679,1.008727788925171,58.924259185791016,42.90393829345703,-6.80630350112915,1.1054446697235107,2.521373987197876,5.062246799468994,1.240407943725586,1.018904447555542,0.9704782366752625
156,41706,41707,-0.1632804274559021,-0.08939705789089203,0.9916961789131165,54.7811279296875,37.93390655517578,-6.068649768829346,1.1129443645477295,2.5318734645843506,5.069746494293213,0.68099445104599,1.8425190448760986,0.9265943169593811
157,41716,41717,-0.1178315207362175,-0.11233866959810257,0.9532089829444885,43.67210006713867,21.772451400756836,-5.096217632293701,1.1069446802139282,2.522873878479004,5.072746276855469,0.4720056354999542,2.013725996017456,0.8683091998100281
158,41726,41727,-0.039887685328722,-0.18815357983112335,0.9403116106987,13.670679092407227,-3.7869150638580322,-5.85490083694458,1.0994449853897095,2.518373966217041,5.06524658203125,0.41796422004699707,2.277851104736328,0.8189241886138916
159,41736,41737,-0.02164364978671074,-0.16929344832897186,0.8756794333457947,-8.438786506652832,-19.15608787536621,-7.897231578826904,1.0904453992843628,2.5123744010925293,5.068246364593506,0.6216695308685303,2.2948083877563477,0.7464416027069092
160,41746,41747,0.005407705903053284,-0.1170511469244957,0.9224028587341309,-14.876069068908691,-24.67884635925293,-11.085646629333496,1.0979450941085815,2.522873878479004,5.066746711730957,0.9594298005104065,2.128200054168701,0.6453487873077393
161,41756,41757,-0.051195114850997925,-0.10240819305181503,0.937065839767456,-22.06460189819336,-18.16261100769043,-13.365124702453613,1.1054446697235107,2.518373966217041,5.062246799468994,1.1134507656097412,1.8642263412475586,0.5023002028465271
162,41766,41767,-0.08724183589220047,-0.0716608539223671,0.905409038066864,-26.318058013916016,-4.355711936950684,-14.063177108764648,1.1024448871612549,2.515374183654785,5.074246406555176,1.2308493852615356,1.5746501684188843,0.3561106026172638
163,41776,41777,-0.08500434458255768,-0.030177609995007515,0.8850569725036621,-20.736469268798828,8.602042198181152,-14.27022933959961,1.1084445714950562,2.5333733558654785,5.077246189117432,0.9892103672027588,1.3732705116271973,0.1890667974948883
164,41786,41787,-0.08924992382526398,-0.01544245332479477,0.8602977991104126,-11.639664649963379,18.364072799682617,-12.689522743225098,1.0904453992843628,2.5363731384277344,5.077246189117432,0.7739320397377014,1.2444151639938354,0.05068185180425644
165,41796,41797,-0.07329398393630981,-0.006992965470999479,0.9560933113098145,-0.9555957913398743,18.537925720214844,-10.938084602355957,1.1024448871612549,2.5393729209899902,5.083245754241943,0.5597579479217529,1.2247302532196045,-0.05975969135761261
166,41806,41807,-0.062114167958498,-0.048103757202625275,1.0707619190216064,5.594882965087891,13.632352828979492,-9.702646255493164,1.0994449853897095,2.542372941970825,5.095245361328125,0.4200822412967682,1.3265942335128784,-0.15391665697097778
167,41816,41817,-0.025526883080601692,-0.11877866834402084,1.0380712747573853,4.059337615966797,16.708791732788086,-7.586517333984375,1.0934453010559082,2.5543723106384277,5.098245143890381,0.21149416267871857,1.3141498565673828,-0.2516663074493408
168,41826,41827,-0.013886253349483013,-0.12316136062145233,1.0151313543319702,1.1626096963882446,25.794504165649414,-4.787334442138672,1.0904453992843628,2.545372724533081,5.086245536804199,-0.023236609995365143,1.3708118200302124,-0.30967047810554504
169,41836,41837,-0.03866282477974892,-0.058872636407613754,0.9657004475593567,5.084238052368164,31.17537498474121,-3.6889963150024414,1.1024448871612549,2.5633718967437744,5.095245361328125,-0.4433116018772125,1.3753185272216797,-0.36765381693840027
170,41846,41847,0.04299518093466759,0.03153759986162186,0.9738379716873169,12.739127159118652,27.9841251373291,-3.5350708961486816,1.0934453010559082,2.5393729209899902,5.089245319366455,-0.7253737449645996,1.4879127740859985,-0.39022257924079895
171,41856,41857,0.1383703052997589,0.1189497858285904,0.9983317255973816,17.2137393951416,11.45112419128418,-3.7205913066864014,1.0964452028274536,2.5633718967437744,5.098245143890381,-0.8521692156791687,1.7211238145828247,-0.4063606858253479
172,41866,41867,0.16076302528381348,0.20797523856163025,0.9985105395317078,19.252601623535156,-13.75643253326416,-2.9157938957214355,1.0979450941085815,2.5648717880249023,5.096745014190674,-0.8780283331871033,1.8355036973953247,-0.45374491810798645
173,41876,41877,0.06166573241353035,0.13562366366386414,1.014097809791565,17.49937629699707,-32.94483184814453,-0.9135088324546814,1.1039447784423828,2.5558722019195557,5.1057448387146,-0.457622230052948,2.0992929935455322,-0.44209134578704834
174,41886,41887,-0.0481795035302639,0.08847203105688095,0.99703449010849,13.374570846557617,-40.71101379394531,0.08679710328578949,1.1024448871612549,2.548372507095337,5.101244926452637,-0.1358071118593216,2.0196340084075928,-0.5103415846824646
175,41896,41897,-0.07002442330121994,0.06853529810905457,1.049417495727539,9.990768432617188,-36.053489685058594,1.3712488412857056,1.1054446697235107,2.548372507095337,5.11324405670166,0.11536961048841476,2.2465505599975586,-0.5211963653564453
176,41906,41907,-0.052976202219724655,-0.0007929138955660164,1.0598835945129395,1.9137401580810547,-24.51935577392578,2.0636322498321533,1.1039447784423828,2.5618717670440674,5.09974479675293,0.6455996036529541,2.2285919189453125,-0.4856050908565521
177,41916,41917,-0.02537940815091133,-0.03408545255661011,1.068062663078308,-8.374897003173828,-9.51303482055664,2.7907140254974365,1.109944462776184,2.5558722019195557,5.096745014190674,0.7961531281471252,2.1955106258392334,-0.4720391035079956
178,41926,41927,-0.0512884259223938,-0.0425567701458931,1.0105177164077759,-15.747599601745605,5.956822395324707,2.8422975540161133,1.1144442558288574,2.5603718757629395,5.101244926452637,0.5463751554489136,2.0744643211364746,-0.49886375665664673
179,41936,41937,-0.08666761964559555,-0.048102445900440216,1.0244823694229126,-21.159767150878906,17.161291122436523,3.793618679046631,1.1024448871612549,2.5573720932006836,5.101244926452637,0.37637031078338623,1.8412718772888184,-0.47946837544441223
180,41946,41947,-0.08510980755090714,-0.06147493049502373,1.0001872777938843,-21.608619689941406,16.031600952148438,5.0610198974609375,1.1024448871612549,2.572371244430542,5.116244316101074,0.015381221659481525,1.6371179819107056,-0.4687725603580475
181,41956,41957,-0.03912556171417236,-0.03147630766034126,1.0173248052597046,-16.721105575561523,5.687057018280029,5.710606575012207,1.109944462776184,2.5528724193573,5.1027445793151855,-0.07332108169794083,1.4150288105010986,-0.41066399216651917
182,41966,41967,0.019033418968319893,-0.057485178112983704,0.9820569753646851,-9.850513458251953,-8.141834259033203,5.3759894371032715,1.1024448871612549,2.569371461868286,5.098245143890381,-0.036937519907951355,1.361560583114624,-0.3329673707485199
183,41976,41977,-0.049641482532024384,-0.06486904621124268,1.0266602039337158,0.44859862327575684,-32.997703552246094,4.04269552230835,1.1084445714950562,2.5573720932006836,5.095245361328125,0.4500086009502411,1.3127729892730713,-0.2309977114200592
184,41986,41987,-0.008230939507484436,0.04524478688836098,1.0621840953826904,10.905606269836426,-43.738059997558594,2.3989875316619873,1.109944462776184,2.5858707427978516,5.123743534088135,0.7492400407791138,1.3588982820510864,-0.23228402435779572
185,41996,41997,-0.029751233756542206,0.06548111885786057,1.0213240385055542,17.753841400146484,-41.488731384277344,1.799854040145874,1.0994449853897095,2.575371265411377,5.104244709014893,1.2543576955795288,1.5641359090805054,-0.19923552870750427
186,42006,42007,-0.021430911496281624,-0.0018363646231591702,1.0524719953536987,8.879132270812988,-25.29380226135254,-0.94937664270401,1.1174441576004028,2.5603718757629395,5.122243881225586,1.1959187984466553,1.7291797399520874,-0.28863951563835144
187,42016,42017,-0.04459763318300247,-0.0601176917552948,1.1363680362701416,-3.686952590942383,-11.124794006347656,-3.004030227661133,1.1279436349868774,2.5618717670440674,5.09974479675293,1.4725853204727173,1.7462667226791382,-0.290731281042099
188,42026,42027,-0.05195086449384689,-0.07013252377510071,1.0620557069778442,-9.888542175292969,-1.5845614671707153,-6.666017055511475,1.1069446802139282,2.573871374130249,5.1057448387146,1.6135913133621216,1.6163313388824463,-0.32998090982437134
189,42036,42037,-0.11494405567646027,-0.11157280206680298,1.023086428642273,-9.799044609069824,6.159636497497559,-7.646258354187012,1.109944462776184,2.5648717880249023,5.1027445793151855,1.481684923171997,1.4517755508422852,-0.4325539767742157
190,42046,42047,-0.0949467122554779,-0.08128149807453156,1.0150312185287476,-9.342805862426758,18.394657135009766,-7.273523330688477,1.1069446802139282,2.5528724193573,5.093745231628418,1.3121497631072998,1.3653978109359741,-0.5114617347717285
191,42056,42057,-0.057753559201955795,-0.10025317221879959,0.9883729219436646,-0.9268935918807983,17.656726837158203,-5.033971309661865,1.1039447784423828,2.570871353149414,5.1057448387146,1.0629225969314575,1.2812341451644897,-0.5819342136383057
192,42066,42067,-0.021066756919026375,-0.06363911926746368,1.0004851818084717,4.9943952560424805,2.910135269165039,-2.7677812576293945,1.1069446802139282,2.573871374130249,5.1027445793151855,0.9380074143409729,1.6023426055908203,-0.6031374931335449
193,42076,42077,-0.07727666944265366,0.04792656749486923,1.0088176727294922,11.414669036865234,-6.776012897491455,1.6491694450378418,1.1054446697235107,2.5663716793060303,5.110244274139404,1.0824382305145264,1.7270140647888184,-0.5862825512886047
194,42086,42087,-0.009934728033840656,0.10320905596017838,1.089933156967163,8.197985649108887,-10.785572052001953,4.8521223068237305,1.1129443645477295,2.5858707427978516,5.126743793487549,0.8091560006141663,1.6467480659484863,-0.6357362866401672
195,42096,42097,0.026905367150902748,0.050378136336803436,1.0928850173950195,4.793024063110352,-15.059223175048828,7.718084812164307,1.1069446802139282,2.567871570587158,5.1027445793151855,0.920467734336853,1.7236530780792236,-0.5820167064666748
196,42106,42107,0.09263395518064499,0.12556453049182892,1.0925098657608032,5.007063865661621,-24.154464721679688,11.013725280761719,1.1084445714950562,2.575371265411377,5.11324405670166,1.2975234985351562,1.7937872409820557,-0.45991504192352295
197,42116,42117,0.0549740344285965,0.11537142097949982,1.0677952766418457,2.6399619579315186,-32.387657165527344,12.786919593811035,1.1084445714950562,2.5663716793060303,5.116244316101074,1.812920093536377,1.8383941650390625,-0.30843085050582886
198,42126,42127,0.0831623300909996,0.08370953053236008,1.0868165493011475,-7.418391227722168,-31.006614685058594,14.576930046081543,1.124943733215332,2.5648717880249023,5.117743968963623,1.718217372894287,1.8437976837158203,-0.25847822427749634
199,42136,42137,0.08003699779510498,0.03749064728617668,1.066961407661438,-23.021085739135742,-21.3851318359375,16.098430633544922,1.1144442558288574,2.569371461868286,5.104244709014893,2.0913286209106445,1.6611711978912354,-0.09252984821796417
200,42146,42147,-0.027142547070980072,-0.012213452719151974,1.0610496997833252,-28.219070434570312,-15.849700927734375,17.807531356811523,1.1309434175491333,2.5618717670440674,5.09974479675293,2.1919515132904053,1.3992174863815308,0.0584995411336422
201,42156,42157,-0.037088118493556976,0.00135065580252558,1.061779499053955,-34.29314041137695,-13.866931915283203,18.784801483154297,1.1129443645477295,2.5618717670440674,5.096745014190674,2.494684934616089,0.9856182336807251,0.27700257301330566
202,42166,42167,0.006894237827509642,0.00996979046612978,1.0450222492218018,-43.90401077270508,-16.396602630615234,17.11026954650879,1.109944462776184,2.5588719844818115,5.1087446212768555,2.664337158203125,0.6483544707298279,0.4603551924228668
203,42176,42177,0.0011532215867191553,0.0014857881469652057,1.0788769721984863,-51.685115814208984,-11.820114135742188,13.886640548706055,1.1129443645477295,2.5648717880249023,5.09974479675293,2.7423641681671143,0.09427176415920258,0.6053075790405273
204,42186,42187,-0.0411667563021183,-0.052172962576150894,1.0925534963607788,-52.80403518676758,-4.712936878204346,12.288000106811523,1.1219438314437866,2.5588719844818115,5.093745231628418,2.7913379669189453,-0.24718530476093292,0.7151328921318054
205,42196,42197,-0.1083144024014473,-0.07775849848985672,1.102665901184082,-34.31162643432617,9.090682983398438,12.73944091796875,1.1069446802139282,2.5618717670440674,5.096745014190674,2.786099433898926,-0.6575930714607239,0.8375280499458313
206,42206,42207,-0.10841580480337143,-0.044413674622774124,1.0712260007858276,-3.258009672164917,32.999473571777344,12.70190143585205,1.1219438314437866,2.5588719844818115,5.087745666503906,2.5259389877319336,-0.8189401030540466,0.9534689784049988
207,42216,42217,-0.12535347044467926,-0.07700784504413605,1.0131099224090576,18.1832275390625,49.97800064086914,13.312177658081055,1.109944462776184,2.5528724193573,5.072746276855469,1.8870298862457275,-0.6978051662445068,1.0483816862106323
208,42226,42227,-0.07165995985269547,-0.05766016244888306,0.9756631851196289,33.090999603271484,55.1185417175293,14.492960929870605,1.109944462776184,2.549872398376465,5.096745014190674,1.3658857345581055,-0.28805941343307495,1.1665021181106567
209,42236,42237,-0.031528763473033905,-0.018526572734117508,0.9793681502342224,36.42667007446289,45.79220199584961,15.782751083374023,1.1009448766708374,2.5618717670440674,5.08474588394165,0.702539324760437,0.02354000136256218,1.3139272928237915
210,42246,42247,0.0311024971306324,-0.029323864728212357,1.000767707824707,28.446733474731445,17.646846771240234,17.73971939086914,1.109944462776184,2.546872615814209,5.081745624542236,0.5436245203018188,0.2726365029811859,1.4964104890823364
211,42256,42257,-0.04386691004037857,-0.019474927335977554,1.019109845161438,13.955021858215332,-23.14899253845215,17.492475509643555,1.1039447784423828,2.5258736610412598,5.08474588394165,0.7816497087478638,0.5405968427658081,1.6676784753799438
212,42266,42267,-0.01801319234073162,-0.07855489104986191,0.9921137094497681,-7.088061809539795,-48.82098388671875,16.11283302307129,1.12644362449646,2.542372941970825,5.095245361328125,1.2891592979431152,0.5080046057701111,1.83846914768219
213,42276,42277,0.004858928266912699,-0.06866420805454254,1.0146690607070923,-36.87346267700195,-62.35306167602539,13.794389724731445,1.123443841934204,2.542372941970825,5.083245754241943,1.9508250951766968,0.020368266850709915,2.0121686458587646
214,42286,42287,0.02481854520738125,-0.06536737084388733,1.0001194477081299,-57.956298828125,-63.22043228149414,8.988426208496094,1.1159441471099854,2.5348732471466064,5.081745624542236,2.6135916709899902,-0.3053629994392395,2.109410524368286
215,42296,42297,0.007154272403568029,-0.05769087374210358,1.0273888111114502,-59.22013854980469,-47.3640022277832,4.466773509979248,1.1429427862167358,2.543872833251953,5.087745666503906,3.4623148441314697,-1.2018365859985352,2.209519386291504
216,42306,42307,-0.025955315679311752,-0.040897712111473083,1.0445044040679932,-47.92102813720703,-14.286947250366211,0.2559518814086914,1.124943733215332,2.540872812271118,5.075746059417725,3.6982192993164062,-1.3928570747375488,2.189573287963867
217,42316,42317,-0.023018641397356987,-0.09769875556230545,1.0413267612457275,-28.046234130859375,19.9949893951416,-1.9644699096679688,1.123443841934204,2.5333733558654785,5.071246147155762,3.574183940887451,-1.8225692510604858,2.1889116764068604
218,42326,42327,-0.03509688377380371,-0.12407448887825012,0.9865266680717468,-11.071353912353516,56.21298599243164,-3.7978992462158203,1.124943733215332,2.549872398376465,5.075746059417725,3.1598687171936035,-1.943074345588684,2.1336112022399902
219,42336,42337,-0.018183128908276558,-0.10908733308315277,0.9372417330741882,1.610550045967102,78.12123107910156,-5.062676906585693,1.1159441471099854,2.5528724193573,5.0787458419799805,2.1026697158813477,-2.053387403488159,2.1157493591308594
220,42346,42347,-0.013932718895375729,-0.06273994594812393,0.876643717288971,9.572205543518066,83.34127044677734,-6.643319129943848,1.0994449853897095,2.5603718757629395,5.0802459716796875,1.2196214199066162,-1.9906609058380127,2.0361320972442627
221,42356,42357,0.008389441296458244,0.02869359217584133,0.8922616839408875,15.593158721923828,73.1427993774414,-7.152677059173584,1.0784460306167603,2.5573720932006836,5.089245319366455,0.4042779803276062,-1.811951756477356,1.935495376586914
222,42366,42367,0.04206318408250809,0.09449822455644608,0.9383194446563721,22.108306884765625,53.8018913269043,-7.814868450164795,1.1129443645477295,2.5528724193573,5.093745231628418,-0.21300144493579865,-1.5893590450286865,1.8354629278182983
223,42376,42377,0.033440373837947845,0.009175336919724941,0.9416654706001282,27.09004020690918,23.400819778442383,-9.04934310913086,1.0904453992843628,2.5393729209899902,5.092245101928711,-0.7296109795570374,-1.2721081972122192,1.7637985944747925
224,42386,42387,0.0014542376156896353,-0.035603441298007965,0.9596876502037048,24.082555770874023,-6.65131139755249,-9.48149299621582,1.0889455080032349,2.546872615814209,5.072746276855469,-0.6776865720748901,-1.1090219020843506,1.65430748462677
225,42396,42397,-0.010095775127410889,-0.028409786522388458,0.9662408232688904,17.39767074584961,-29.031204223632812,-8.303662300109863,1.1009448766708374,2.5588719844818115,5.08474588394165,-0.285445898771286,-0.9606709480285645,1.5281258821487427
226,42406,42407,-0.0005267263040877879,-0.02276751585304737,0.9536730051040649,10.233591079711914,-39.196170806884766,-6.5539631843566895,1.1069446802139282,2.540872812271118,5.093745231628418,0.05022812634706497,-0.8505411148071289,1.4657613039016724
227,42416,42417,-0.021982649341225624,-0.03418237715959549,0.9500572681427002,5.9271063804626465,-38.344688415527344,-5.267301559448242,1.0934453010559082,2.542372941970825,5.107244491577148,0.6443836092948914,-0.7597072720527649,1.3631250858306885
228,42426,42427,-0.058746807277202606,-0.0502108633518219,0.9520470499992371,4.2159271240234375,-28.831838607788086,-4.434988975524902,1.1084445714950562,2.542372941970825,5.098245143890381,0.9099554419517517,-0.8521814346313477,1.3422176837921143
229,42436,42437,-0.05122974514961243,-0.04035961255431175,0.984826922416687,5.529297828674316,-11.952269554138184,-5.0731282234191895,1.1204439401626587,2.5633718967437744,5.095245361328125,1.0829201936721802,-0.7915070056915283,1.3045133352279663
230,42446,42447,-0.0030942698940634727,-0.052590854465961456,0.9416055083274841,9.244564056396484,3.8832027912139893,-4.380217552185059,1.1039447784423828,2.5558722019195557,5.090745449066162,1.1272019147872925,-0.6748586893081665,1.2543365955352783
231,42456,42457,0.0002595535188447684,0.0007715048850513995,0.9516409039497375,14.788634300231934,14.556818962097168,-4.52141809463501,1.111444354057312,2.5543723106384277,5.089245319366455,0.9741397500038147,-0.4841615557670593,1.2244157791137695
232,42466,42467,-0.018478529527783394,-0.005827366374433041,0.9977162480354309,21.761579513549805,10.892437934875488,-4.3108038902282715,1.1129443645477295,2.5648717880249023,5.096745014190674,0.7928044199943542,-0.17678363621234894,1.1941967010498047
233,42476,42477,-0.06852499395608902,-0.0615508109331131,1.0108433961868286,24.797056198120117,0.3916626572608948,-3.007479667663574,1.1069446802139282,2.5558722019195557,5.1057448387146,0.7261818051338196,-0.16539831459522247,1.1564252376556396
234,42486,42487,-0.05176566541194916,-0.04151931777596474,1.04465651512146,19.98555564880371,-11.638676643371582,1.6091387271881104,1.1054446697235107,2.5663716793060303,5.107244491577148,0.855506181716919,0.1913238763809204,1.1341710090637207
235,42496,42497,-0.05342745780944824,-0.037381481379270554,1.0300629138946533,9.069934844970703,-22.761985778808594,5.991964340209961,1.1039447784423828,2.567871570587158,5.09974479675293,0.8965477347373962,0.18138737976551056,1.2071284055709839
236,42506,42507,-0.1058129221200943,-0.056136664003133774,1.0074399709701538,-14.7604341506958,-25.036537170410156,8.728829383850098,1.1204439401626587,2.569371461868286,5.092245101928711,1.314140796661377,0.01272538211196661,1.242402195930481
237,42516,42517,-0.04221101105213165,0.004533900413662195,1.0217829942703247,-42.429840087890625,-19.583759307861328,9.277063369750977,1.1219438314437866,2.5618717670440674,5.096745014190674,1.5356472730636597,-0.3109371066093445,1.3341683149337769
238,42526,42527,-0.07064378261566162,-0.05183125659823418,1.0015902519226074,-62.89192199707031,-5.62665319442749,9.062321662902832,1.1204439401626587,2.575371265411377,5.125243663787842,1.5758119821548462,-1.0331896543502808,1.4452564716339111
239,42536,42537,-0.05335460230708122,-0.012331514619290829,1.0468229055404663,-56.79977798461914,17.554035186767578,8.833283424377441,1.1159441471099854,2.594870090484619,5.114744186401367,1.3491008281707764,-1.4421435594558716,1.5597165822982788
240,42546,42547,-0.06301739066839218,-0.06602814793586731,1.0451282262802124,-37.101715087890625,25.789087295532227,9.812383651733398,1.1189440488815308,2.5918703079223633,5.120743751525879,1.162543773651123,-1.9742779731750488,1.635030746459961
241,42556,42557,-0.03716282919049263,-0.04662168398499489,1.0171794891357422,-14.046538352966309,28.482126235961914,7.764602184295654,1.1159441471099854,2.594870090484619,5.111744403839111,0.7086169719696045,-2.3144474029541016,1.7480638027191162
242,42566,42567,-0.05252337455749512,-0.04916072636842728,0.9662085771560669,4.153757572174072,30.528715133666992,4.551388740539551,1.1129443645477295,2.5858707427978516,5.1087446212768555,0.5373090505599976,-2.354519844055176,1.7703964710235596
243,42576,42577,-0.025908999145030975,-0.03675293177366257,0.9659062027931213,24.3927059173584,31.010236740112305,0.7651000618934631,1.1054446697235107,2.572371244430542,5.122243881225586,0.12692171335220337,-2.051539421081543,1.8071765899658203
244,42586,42587,-0.020767776295542717,-0.01364247314631939,1.0046839714050293,41.49425506591797,27.553905487060547,-1.9727458953857422,1.109944462776184,2.576871156692505,5.114744186401367,-0.3320234417915344,-1.4579976797103882,1.8370360136032104
245,42596,42597,0.00664894562214613,0.009910467080771923,1.0050760507583618,49.466800689697266,15.068201065063477,-5.5357985496521,1.1009448766708374,2.5618717670440674,5.123743534088135,-0.6157036423683167,-1.1175169944763184,1.807193636894226
246,42606,42607,0.07562711834907532,-0.006772520951926708,0.9890074133872986,52.8692741394043,-8.836225509643555,-6.671284198760986,1.111444354057312,2.575371265411377,5.11924409866333,-0.5516051054000854,-0.33114296197891235,1.7369695901870728
247,42616,42617,0.0588134229183197,-0.033425286412239075,1.0006318092346191,46.91568374633789,-37.14427947998047,-3.7052838802337646,1.0889455080032349,2.5528724193573,5.111744403839111,-0.0424572117626667,-0.09629908949136734,1.5957406759262085
248,42626,42627,-0.07271125167608261,-0.043838076293468475,1.0177510976791382,29.963960647583008,-49.47529220581055,0.9005642533302307,1.111444354057312,2.5903704166412354,5.146242618560791,0.46570122241973877,0.3773620128631592,1.5775002241134644
249,42636,42637,-0.037284884601831436,-0.0031961738131940365,1.0236378908157349,-0.2827732264995575,-42.17388153076172,2.6293411254882812,1.1189440488815308,2.576871156692505,5.114744186401367,0.8823903203010559,0.26991334557533264,1.588442087173462
250,42646,42647,-0.06473483890295029,-0.05699729546904564,0.9499789476394653,-28.035417556762695,-23.323638916015625,1.5402615070343018,1.1294435262680054,2.5633718967437744,5.116244316101074,1.2524863481521606,0.11176612973213196,1.5990867614746094
251,42656,42657,-0.03822903335094452,-0.012446843087673187,0.978304922580719,-44.85047149658203,-8.119221687316895,-0.13222920894622803,1.1279436349868774,2.5798709392547607,5.117743968963623,1.2645801305770874,-0.38338249921798706,1.623333215713501
252,42666,42667,-0.042216576635837555,-0.06081200763583183,1.0051931142807007,-39.95663070678711,5.929658889770508,0.268134742975235,1.1144442558288574,2.5573720932006836,5.101244926452637,1.2858312129974365,-0.860744297504425,1.6162880659103394
253,42676,42677,-0.056003354489803314,-0.06048905849456787,1.0064014196395874,-11.636927604675293,20.432146072387695,4.0744547843933105,1.1189440488815308,2.594870090484619,5.1087446212768555,1.058012843132019,-0.9247716069221497,1.66621994972229
254,42686,42687,-0.046371255069971085,-0.02165023423731327,1.0227407217025757,20.244447708129883,30.839672088623047,6.457996368408203,1.1174441576004028,2.578371047973633,5.116244316101074,0.6380193829536438,-0.765533447265625,1.7557224035263062
255,42696,42697,-0.03937387466430664,-0.03465552628040314,1.0091123580932617,40.547950744628906,34.08018112182617,4.906871795654297,1.1069446802139282,2.573871374130249,5.1057448387146,0.2026139348745346,-0.5411525964736938,1.8230860233306885
256,42706,42707,-0.05354943126440048,-0.02015351690351963,1.0068823099136353,45.13203811645508,27.67896842956543,2.892383098602295,1.0979450941085815,2.576871156692505,5.1087446212768555,-0.10375045239925385,-0.006915352772921324,1.8648897409439087
257,42716,42717,-0.03897440433502197,-0.059638459235429764,0.9660148620605469,40.56388854980469,11.529897689819336,1.112703800201416,1.1054446697235107,2.569371461868286,5.104244709014893,-0.34459707140922546,0.41692355275154114,1.8934290409088135
258,42726,42727,-0.04501834884285927,-0.032852739095687866,1.0223335027694702,31.441417694091797,-10.698108673095703,0.44418811798095703,1.1144442558288574,2.572371244430542,5.116244316101074,-0.25221285223960876,0.7928024530410767,1.8866112232208252
259,42736,42737,-0.14243851602077484,-0.05210201442241669,1.0164958238601685,16.949071884155273,-41.8697624206543,-0.42610231041908264,1.1069446802139282,2.546872615814209,5.09974479675293,0.029213080182671547,0.9597489833831787,1.86825430393219
260,42746,42747,-0.23287391662597656,-0.006225069053471088,1.0884907245635986,-3.2649896144866943,-74.49488830566406,-0.05135205760598183,1.1039447784423828,2.5588719844818115,5.09974479675293,0.9311907887458801,1.0389593839645386,1.817502737045288
261,42756,42757,-0.15205369889736176,0.03797876089811325,1.1013339757919312,-16.572071075439453,-77.57807922363281,-0.5538174510002136,1.0964452028274536,2.569371461868286,5.116244316101074,1.647602915763855,0.8585315346717834,1.800034523010254
262,42766,42767,-0.036250028759241104,0.0037845089100301266,1.1080554723739624,-26.778934478759766,-59.062557220458984,-1.0440598726272583,1.123443841934204,2.572371244430542,5.134243011474609,2.325911283493042,0.5090500116348267,1.7741845846176147
263,42776,42777,-0.017774155363440514,-0.05932987853884697,1.0755568742752075,-32.99945831298828,-29.867828369140625,-3.1569302082061768,1.1189440488815308,2.570871353149414,5.123743534088135,2.7190446853637695,0.16511499881744385,1.751064658164978
264,42786,42787,-0.05179351195693016,0.01152555551379919,1.109857439994812,-23.725303649902344,7.827939033508301,-3.361833095550537,1.1324433088302612,2.5573720932006836,5.083245754241943,2.801076889038086,-0.11670190095901489,1.7153215408325195
265,42796,42797,-0.10855437815189362,0.0017886989517137408,1.0864008665084839,-7.531698703765869,33.640602111816406,-2.7302868366241455,1.1174441576004028,2.545372724533081,5.074246406555176,2.3712525367736816,-0.18168021738529205,1.692145586013794
266,42806,42807,-0.05802842602133751,-0.05422758311033249,1.0169603824615479,7.856584072113037,43.76497268676758,-1.6977472305297852,1.109944462776184,2.543872833251953,5.0787458419799805,1.7715469598770142,-0.03112104907631874,1.6802006959915161
267,42816,42817,-0.09717641025781631,-0.06482239812612534,1.0504480600357056,10.782273292541504,39.114158630371094,-4.119354724884033,1.1039447784423828,2.546872615814209,5.087745666503906,1.4383316040039062,0.0021315484773367643,1.6485891342163086
268,42826,42827,-0.05257004126906395,-0.06953895837068558,0.9932829141616821,11.237156867980957,49.86216735839844,-4.231820583343506,1.1159441471099854,2.522873878479004,5.060746669769287,0.8863206505775452,0.12006817013025284,1.6083922386169434
269,42836,42837,0.031096985563635826,-0.07759446650743484,0.9291805624961853,17.084871292114258,56.500083923339844,-5.036610126495361,1.0964452028274536,2.5363731384277344,5.074246406555176,0.3941665589809418,0.2786352336406708,1.564501404762268
270,42846,42847,0.003517745528370142,-0.03824980556964874,0.9633582830429077,23.76836395263672,46.728126525878906,-7.889522552490234,1.1024448871612549,2.5363731384277344,5.0802459716796875,-0.3292858600616455,0.5787502527236938,1.5067059993743896
271,42856,42857,-0.009999693371355534,-0.06057913973927498,0.9108530282974243,27.466161727905273,34.93760299682617,-7.391711711883545,1.0994449853897095,2.524373769760132,5.06524658203125,-0.6440565586090088,0.7298521995544434,1.429386019706726
272,42866,42867,0.029196221381425858,-0.06068098172545433,0.9328171610832214,23.59298324584961,7.984341144561768,-6.2081098556518555,1.0904453992843628,2.5393729209899902,5.074246406555176,-0.8290020227432251,1.1690232753753662,1.368703007698059
273,42876,42877,-0.013499895110726357,-0.0049225566908717155,1.000877857208252,10.544281005859375,-29.932636260986328,-6.203707218170166,1.0889455080032349,2.5318734645843506,5.0787458419799805,-0.5193623304367065,1.1477742195129395,1.2912914752960205
274,42886,42887,-0.029574615880846977,-0.026860300451517105,0.9806349277496338,-5.869359016418457,-64.09841918945312,-4.845719337463379,1.0904453992843628,2.5333733558654785,5.0802459716796875,0.09631065279245377,1.1532593965530396,1.2268863916397095
275,42896,42897,-0.08241648226976395,-0.01630234718322754,0.998359203338623,-16.70249366760254,-80.34698486328125,-4.169332981109619,1.1054446697235107,2.542372941970825,5.095245361328125,1.19218111038208,1.0277457237243652,1.1732497215270996
276,42906,42907,-0.07693158090114594,-0.0212275180965662,1.025825023651123,-32.76416015625,-72.80924987792969,-4.232965469360352,1.1174441576004028,2.5513722896575928,5.104244709014893,1.7192460298538208,0.8170227408409119,1.1156100034713745
277,42916,42917,-0.05777539685368538,-0.041967619210481644,0.997508704662323,-44.56855010986328,-48.94914627075195,-5.578716278076172,1.1354432106018066,2.5573720932006836,5.101244926452637,2.413114070892334,0.2218020260334015,1.0553593635559082
278,42926,42927,-0.08800797909498215,-0.08530125766992569,1.0275304317474365,-40.17827606201172,-3.1533851623535156,-6.773632049560547,1.1324433088302612,2.5513722896575928,5.092245101928711,2.631471633911133,0.021831508725881577,0.9939088225364685
279,42936,42937,-0.07795728743076324,-0.037941012531518936,1.0363593101501465,-31.54205322265625,51.104530334472656,-6.445847988128662,1.1129443645477295,2.5618717670440674,5.075746059417725,2.029432773590088,-0.4673899710178375,0.9028961062431335
280,42946,42947,-0.011705010198056698,0.00817418284714222,0.9689058065414429,-17.668346405029297,80.8503189086914,-5.635575294494629,1.1144442558288574,2.5513722896575928,5.074246406555176,1.1683059930801392,-0.6175523400306702,0.8266273140907288
281,42956,42957,-0.034335892647504807,0.002369168447330594,0.9951568245887756,4.643071174621582,84.55575561523438,-5.564872741699219,1.1129443645477295,2.573871374130249,5.1057448387146,0.24211722612380981,-0.7265485525131226,0.7578957080841064
282,42966,42967,-0.07419941574335098,-0.06348017603158951,1.0276061296463013,25.075851440429688,70.00933074951172,-5.74907112121582,1.0979450941085815,2.5648717880249023,5.1027445793151855,-0.6293025016784668,-0.42356619238853455,0.6878411173820496
283,42976,42977,-0.061809610575437546,-0.05485580489039421,0.9816127419471741,39.768611907958984,39.71348571777344,-6.832209587097168,1.0919454097747803,2.5648717880249023,5.1027445793151855,-0.9305688142776489,0.06686702370643616,0.6318025588989258
284,42986,42987,-0.021758658811450005,-0.05417560786008835,0.9380449652671814,47.44892883300781,1.9937779903411865,-6.990169525146484,1.0949451923370361,2.549872398376465,5.081745624542236,-0.9590319395065308,0.3635895848274231,0.5596989989280701
285,42996,42997,-0.09501556307077408,-0.13746362924575806,0.9619017839431763,46.434932708740234,-36.07823944091797,-6.8550872802734375,1.1009448766708374,2.5618717670440674,5.093745231628418,-0.6017275452613831,0.9831556081771851,0.4978959560394287
286,43006,43007,-0.1349535435438156,-0.14743034541606903,0.9901577830314636,37.78309631347656,-58.49734115600586,-4.883581161499023,1.1084445714950562,2.542372941970825,5.095245361328125,-0.19684435427188873,1.3513222932815552,0.4269532263278961
287,43016,43017,-0.06221975013613701,-0.11115370690822601,1.0036498308181763,24.940258026123047,-62.73842239379883,-1.6693435907363892,1.1159441471099854,2.5528724193573,5.09974479675293,0.6789891719818115,1.6813088655471802,0.3887685239315033
288,43026,43027,-0.08471164107322693,-0.10986097157001495,0.9662341475486755,4.32412052154541,-50.435577392578125,0.7329116463661194,1.1069446802139282,2.5528724193573,5.111744403839111,1.2271617650985718,1.589255452156067,0.35120654106140137
289,43036,43037,-0.04283047094941139,-0.03481893613934517,0.9965882301330566,-21.519424438476562,-24.591747283935547,1.282106876373291,1.1129443645477295,2.546872615814209,5.096745014190674,1.703354001045227,1.4542574882507324,0.3574482500553131
290,43046,43047,-0.04733007028698921,-0.04464995115995407,0.9905405044555664,-43.410953521728516,11.515131950378418,-1.1558184623718262,1.1144442558288574,2.5363731384277344,5.086245536804199,1.1487675905227661,1.0793452262878418,0.3097189664840698
291,43056,43057,-0.046837009489536285,-0.028080610558390617,1.0105373859405518,-46.04587173461914,39.06760787963867,0.6258468627929688,1.1144442558288574,2.5543723106384277,5.092245101928711,0.7422792315483093,0.5330729484558105,0.2906241714954376
292,43066,43067,-0.07469754666090012,-0.04034450650215149,1.031402826309204,-36.0303840637207,45.78376388549805,3.958320140838623,1.1204439401626587,2.5543723106384277,5.089245319366455,0.19281797111034393,0.1751350611448288,0.30824965238571167
293,43076,43077,-0.08998050540685654,-0.046809617429971695,1.012627363204956,-28.302080154418945,37.465606689453125,6.899792194366455,1.1039447784423828,2.549872398376465,5.087745666503906,-0.3164253830909729,-0.18524402379989624,0.35285717248916626
294,43086,43087,-0.06034645065665245,-0.030384032055735588,0.9988679885864258,-22.56438636779785,13.283894538879395,7.683108806610107,1.1144442558288574,2.5513722896575928,5.083245754241943,-0.5556222796440125,-0.3673611879348755,0.4319012463092804
295,43096,43097,-0.03897484391927719,-0.014149722643196583,0.9754123091697693,-20.37799072265625,-13.071672439575195,4.982457160949707,1.1189440488815308,2.5348732471466064,5.08474588394165,-0.4429835379123688,-0.624118983745575,0.5025190711021423
296,43106,43107,-0.05619212985038757,-0.022158605977892876,0.9627102613449097,-19.700029373168945,-32.10121536254883,1.1654046773910522,1.1144442558288574,2.5333733558654785,5.074246406555176,0.09220708906650543,-0.8086564540863037,0.5581064224243164
297,43116,43117,-0.03245202824473381,-0.041780997067689896,0.9114173054695129,-14.730026245117188,-47.42668533325195,-2.978539228439331,1.1219438314437866,2.549872398376465,5.096745014190674,0.5911426544189453,-1.003798246383667,0.5597681403160095
298,43126,43127,-0.03622716665267944,0.005710762459784746,0.9650809168815613,-3.1448209285736084,-52.5994987487793,-5.92882776260376,1.111444354057312,2.5513722896575928,5.098245143890381,1.2277604341506958,-1.0501298904418945,0.5323424935340881
299,43136,43137,-0.03279029205441475,-0.021288666874170303,1.0189101696014404,11.281682014465332,-41.40110778808594,-6.654573440551758,1.1144442558288574,2.545372724533081,5.095245361328125,1.7924511432647705,-0.8029866218566895,0.495425820350647
300,43146,43147,-0.04862276837229729,-0.010017432272434235,1.069961428642273,25.933006286621094,-11.17601490020752,-6.3039093017578125,1.1069446802139282,2.5528724193573,5.096745014190674,1.5674999952316284,-0.5969696044921875,0.42655232548713684
301,43156,43157,-0.06264607608318329,-0.039630256593227386,1.0368822813034058,31.312923431396484,9.199064254760742,-6.308059215545654,1.124943733215332,2.5528724193573,5.096745014190674,1.562880277633667,-0.2594093978404999,0.366423100233078
302,43166,43167,-0.037622321397066116,-0.03349614143371582,1.0183589458465576,32.158607482910156,22.16178321838379,-5.920015335083008,1.1144442558288574,2.5513722896575928,5.095245361328125,1.367630958557129,0.04338301718235016,0.3046191930770874
303,43176,43177,-0.1006564125418663,0.04027797654271126,1.0132486820220947,28.619380950927734,23.522336959838867,-4.98597526550293,1.109944462776184,2.546872615814209,5.093745231628418,1.1365506649017334,0.25670942664146423,0.24781560897827148
304,43186,43187,-0.05691914260387421,0.027904139831662178,1.0379685163497925,28.838382720947266,19.699901580810547,-2.908203125,1.1009448766708374,2.5558722019195557,5.1027445793151855,0.9301877021789551,0.5904698371887207,0.21083751320838928
305,43196,43197,0.010851825587451458,0.015782728791236877,1.0057661533355713,27.232742309570312,7.862144470214844,1.028244137763977,1.111444354057312,2.5573720932006836,5.089245319366455,0.7459362745285034,0.7706111669540405,0.20195993781089783
306,43206,43207,-0.02216462790966034,-0.03283319249749184,0.9697850346565247,17.053224563598633,-4.4381632804870605,7.3074798583984375,1.1159441471099854,2.5648717880249023,5.093745231628418,0.7581012845039368,0.9903057813644409,0.24930042028427124
307,43216,43217,-0.029358237981796265,-0.03482426330447197,1.0181715488433838,-5.810967922210693,-22.622346878051758,10.253826141357422,1.111444354057312,2.5303733348846436,5.083245754241943,1.0200730562210083,1.0490477085113525,0.33726128935813904
308,43226,43227,-0.02330402471125126,-0.0211643036454916,1.063111662864685,-29.555362701416016,-41.85310745239258,9.150914192199707,1.1144442558288574,2.5543723106384277,5.086245536804199,1.396552324295044,0.6995330452919006,0.43368253111839294
309,43236,43237,-0.09430349618196487,-0.052166879177093506,1.0304075479507446,-33.05796432495117,-30.00324249267578,5.025979042053223,1.124943733215332,2.5558722019195557,5.1057448387146,1.9351305961608887,0.304805725812912,0.5056016445159912
310,43246,43247,-0.057733017951250076,-0.027319109067320824,1.028727650642395,-17.04697608947754,3.6231141090393066,2.996638298034668,1.124943733215332,2.5558722019195557,5.096745014190674,2.075775146484375,0.06815312802791595,0.5446087718009949
311,43256,43257,-0.04298153519630432,-0.05852094665169716,1.0266804695129395,3.6446094512939453,32.068756103515625,1.172383427619934,1.1294435262680054,2.569371461868286,5.104244709014893,1.7002716064453125,0.017025461420416832,0.5599801540374756
312,43266,43267,-0.06223912909626961,-0.022174211218953133,1.0228151082992554,22.95147132873535,58.483314514160156,-2.4174153804779053,1.111444354057312,2.5603718757629395,5.101244926452637,1.0179365873336792,0.22710148990154266,0.5455690026283264
313,43276,43277,-0.03985825181007385,-0.0365871861577034,0.941814124584198,31.937847137451172,69.7506103515625,-4.784446716308594,1.1039447784423828,2.567871570587158,5.120743751525879,0.15524834394454956,0.7070956826210022,0.5011194944381714
314,43286,43287,-0.018281444907188416,-0.07923618704080582,0.9693778157234192,32.31786346435547,65.83856201171875,-6.9403533935546875,1.1024448871612549,2.5843708515167236,5.128243446350098,-0.454635888338089,0.951267421245575,0.4582066237926483
315,43296,43297,0.014065667986869812,-0.05024460703134537,0.9777249693870544,23.166635513305664,41.282161712646484,-8.953283309936523,1.0919454097747803,2.5918703079223633,5.123743534088135,-1.1382092237472534,1.3125544786453247,0.3829076290130615
316,43306,43307,-0.014735843986272812,-0.036360856145620346,0.955122172832489,7.103034496307373,1.1357686519622803,-11.010967254638672,1.087445616722107,2.5633718967437744,5.107244491577148,-1.0466864109039307,1.2528131008148193,0.2975687086582184
317,43316,43317,-0.022617178037762642,-0.037602949887514114,0.9883241653442383,-12.701766014099121,-39.135841369628906,-11.025655746459961,1.0979450941085815,2.5618717670440674,5.120743751525879,-0.6513901352882385,1.175948143005371,0.19000451266765594
318,43326,43327,-0.03643370792269707,-0.04026259854435921,1.0055426359176636,-33.384735107421875,-62.77149200439453,-11.78499984741211,1.1129443645477295,2.5618717670440674,5.1027445793151855,-0.038839489221572876,0.9070833325386047,0.07138880342245102
319,43336,43337,-0.014474601484835148,-0.061622340232133865,0.9865309596061707,-43.54056930541992,-63.2974853515625,-13.24137020111084,1.1054446697235107,2.575371265411377,5.110244274139404,1.002825379371643,0.46176135540008545,-0.037131618708372116
320,43346,43347,-0.052780866622924805,-0.039025746285915375,1.0254733562469482,-43.5571174621582,-50.507904052734375,-14.302477836608887,1.1054446697235107,2.572371244430542,5.1312432289123535,0.9767031073570251,0.10626138746738434,-0.22729526460170746
321,43356,43357,-0.019709458574652672,0.010350454598665237,1.0480626821517944,-33.442535400390625,-35.354827880859375,-12.960558891296387,1.123443841934204,2.5603718757629395,5.104244709014893,1.7020583152770996,-0.2869059145450592,-0.3423325717449188
322,43366,43367,-0.0014847541460767388,0.05294245108962059,1.04684579372406,-12.158886909484863,-13.557052612304688,-8.29970932006836,1.1159441471099854,2.576871156692505,5.09974479675293,1.875826358795166,-0.45434820652008057,-0.4499066174030304
323,43376,43377,-0.054967060685157776,-0.016042476519942284,1.0544817447662354,8.606084823608398,7.945207118988037,-2.4444758892059326,1.1219438314437866,2.546872615814209,5.090745449066162,1.8004605770111084,-0.44351640343666077,-0.5149847865104675
324,43386,43387,-0.06472963839769363,-0.01143092941492796,1.0541956424713135,23.70159339904785,32.45497512817383,2.02827787399292,1.1069446802139282,2.5648717880249023,5.087745666503906,1.6065914630889893,-0.2060517519712448,-0.5135469436645508
325,43396,43397,-0.06811068952083588,-0.029240308329463005,1.018180251121521,28.4550724029541,44.51493835449219,3.790285587310791,1.1084445714950562,2.5633718967437744,5.11324405670166,0.9241595268249512,0.22458365559577942,-0.49473315477371216
326,43406,43407,-0.06931765377521515,-0.017296170815825462,1.0299972295761108,26.716764450073242,39.92613220214844,4.438282489776611,1.1069446802139282,2.549872398376465,5.096745014190674,0.4497683644294739,0.3807537257671356,-0.449257493019104
327,43416,43417,-0.07623650878667831,-0.053518153727054596,1.0026257038116455,21.37925910949707,27.54336929321289,4.394121170043945,1.0994449853897095,2.5393729209899902,5.089245319366455,0.15288490056991577,0.7618319392204285,-0.40267688035964966
328,43426,43427,-0.0402909480035305,-0.03607186675071716,1.0031218528747559,5.913509845733643,13.255973815917969,4.612595558166504,1.0949451923370361,2.546872615814209,5.090745449066162,-0.07421806454658508,0.8102935552597046,-0.35379937291145325
329,43436,43437,-0.025514334440231323,-0.03077865019440651,1.0048528909683228,-12.91652774810791,0.6528168320655823,4.4166669845581055,1.1144442558288574,2.545372724533081,5.086245536804199,-0.14126841723918915,0.7053087949752808,-0.31063777208328247
330,43446,43447,-0.045516110956668854,-0.05369967222213745,0.9732581973075867,-30.79197883605957,-3.459848165512085,3.287285804748535,1.109944462776184,2.543872833251953,5.096745014190674,-0.02213970199227333,0.38164597749710083,-0.26527178287506104
331,43456,43457,-0.049983829259872437,-0.050950367003679276,0.9824622869491577,-43.54907989501953,-5.04683780670166,-0.19247528910636902,1.0964452028274536,2.5603718757629395,5.098245143890381,0.13755787909030914,0.015128709375858307,-0.24500228464603424
332,43466,43467,-0.04346888139843941,-0.034638646990060806,1.0196199417114258,-45.91481018066406,2.8651530742645264,-4.153499126434326,1.1009448766708374,2.549872398376465,5.090745449066162,0.06496831774711609,-0.5967516303062439,-0.2785068154335022
333,43476,43477,-0.04490634426474571,-0.031282201409339905,1.0224323272705078,-40.6897087097168,6.562402248382568,-5.162410736083984,1.109944462776184,2.567871570587158,5.093745231628418,-0.0264412984251976,-0.9995762705802917,-0.32717251777648926
334,43486,43487,-0.00611198041588068,0.04202324524521828,0.9427877068519592,-25.60567283630371,8.592734336853027,-4.979890823364258,1.1039447784423828,2.549872398376465,5.087745666503906,-0.009222903288900852,-1.2535316944122314,-0.374022513628006
335,43496,43497,-0.04246680811047554,0.04459800571203232,0.9705510139465332,1.9863300323486328,-1.6323497295379639,-2.0618770122528076,1.1039447784423828,2.543872833251953,5.087745666503906,0.0821402370929718,-1.2360782623291016,-0.4027526378631592
336,43506,43507,-0.02452564798295498,-7.678366819163784e-05,0.9725955724716187,16.874086380004883,-7.552267074584961,2.5969135761260986,1.109944462776184,2.5558722019195557,5.087745666503906,0.1523410528898239,-1.028173565864563,-0.3908274173736572
337,43516,43517,-0.12075971812009811,0.038156215101480484,0.9998298287391663,18.321687698364258,-14.317933082580566,7.840762138366699,1.1009448766708374,2.5528724193573,5.0787458419799805,0.279614120721817,-0.8635059595108032,-0.3408966064453125
338,43526,43527,-0.07511388510465622,0.019964339211583138,0.9806176424026489,10.631327629089355,-20.15421485900879,12.097661972045898,1.1129443645477295,2.5588719844818115,5.08474588394165,0.4557775855064392,-0.7072291374206543,-0.237665593624115
339,43536,43537,-0.044060517102479935,-0.037127535790205,0.9357373118400574,-5.9128499031066895,-25.558107376098633,13.15301513671875,1.0979450941085815,2.543872833251953,5.090745449066162,0.8247157335281372,-0.8379842042922974,-0.12345511466264725
340,43546,43547,-0.04792379215359688,-0.0065320576541125774,1.0030635595321655,-20.784988403320312,-21.83503532409668,11.14997386932373,1.1174441576004028,2.548372507095337,5.089245319366455,1.0414499044418335,-1.0217636823654175,0.0045279101468622684
341,43556,43557,-0.04118983820080757,-0.02362755686044693,1.0092047452926636,-29.978492736816406,-13.106904029846191,5.7099432945251465,1.1129443645477295,2.573871374130249,5.096745014190674,1.3440849781036377,-1.2380080223083496,0.08893458545207977
342,43566,43567,-0.034418921917676926,-0.03747580572962761,1.014708161354065,-28.487966537475586,2.5311472415924072,0.02483084239065647,1.1219438314437866,2.576871156692505,5.09974479675293,1.3622682094573975,-1.725343108177185,0.11807098984718323
343,43576,43577,-0.0686846524477005,-0.052538130432367325,1.013632893562317,-8.206480979919434,27.895246505737305,-5.823693752288818,1.1069446802139282,2.5618717670440674,5.096745014190674,0.9652953147888184,-1.7791097164154053,0.11222968995571136
344,43586,43587,-0.059140224009752274,-0.02593166194856167,1.0648454427719116,26.796724319458008,48.866493225097656,-9.28999137878418,1.1039447784423828,2.573871374130249,5.1087446212768555,0.4084627628326416,-1.497071385383606,0.051803406327962875
345,43596,43597,-0.037875160574913025,-0.01456398330628872,1.0822222232818604,63.588497161865234,55.78131103515625,-11.417280197143555,1.1144442558288574,2.575371265411377,5.107244491577148,-0.20075425505638123,-0.9736265540122986,-0.051313742995262146
346,43606,43607,-0.03768160566687584,-0.04451454058289528,1.0252537727355957,82.03543090820312,48.54450988769531,-12.907129287719727,1.0934453010559082,2.5843708515167236,5.125243663787842,-0.7832277417182922,-0.08465051651000977,-0.1640213429927826
347,43616,43617,-0.06300406157970428,-0.04903659597039223,0.9997286796569824,84.76448059082031,31.121248245239258,-14.450950622558594,1.087445616722107,2.5903704166412354,5.137243270874023,-0.8569846153259277,0.6438846588134766,-0.36030882596969604
348,43626,43627,-0.014856244437396526,-0.05789296701550484,0.948284924030304,75.30242919921875,9.343579292297363,-15.081510543823242,1.1024448871612549,2.5873706340789795,5.122243881225586,-1.1800743341445923,1.585911512374878,-0.4787006676197052
349,43636,43637,-0.023369546979665756,-0.05494168400764465,0.9550555348396301,52.78563690185547,-7.6707024574279785,-14.513291358947754,1.0904453992843628,2.5633718967437744,5.122243881225586,-1.0948002338409424,1.8138971328735352,-0.6760783791542053
350,43646,43647,0.014715397730469704,-0.010678067803382874,0.9691334962844849,19.239748001098633,-13.585545539855957,-14.15208911895752,1.1129443645477295,2.5558722019195557,5.111744403839111,-0.844487726688385,2.3008108139038086,-0.8256827592849731
351,43656,43657,0.10234236717224121,-0.008033722639083862,0.9878332614898682,-9.524930953979492,-21.57806968688965,-14.607644081115723,1.1009448766708374,2.549872398376465,5.090745449066162,-0.681682825088501,2.154144287109375,-0.9960545301437378
352,43666,43667,0.041170522570610046,-0.037506576627492905,1.0073751211166382,-34.708168029785156,-19.70258140563965,-16.278860092163086,1.0994449853897095,2.569371461868286,5.104244709014893,-0.4265858232975006,1.7906291484832764,-1.1786761283874512
353,43676,43677,-0.03692642226815224,-0.052831441164016724,1.0158019065856934,-50.74211502075195,-8.934697151184082,-15.780725479125977,1.1174441576004028,2.575371265411377,5.107244491577148,-0.41331371665000916,1.3937832117080688,-1.3357349634170532
354,43686,43687,-0.026438020169734955,-0.031171292066574097,1.0289232730865479,-51.97459030151367,-3.8968899250030518,-13.514177322387695,1.1084445714950562,2.572371244430542,5.11324405670166,-0.3625766634941101,0.8355069756507874,-1.485586404800415
355,43696,43697,-0.005273621995002031,-0.00496706273406744,1.0751066207885742,-41.522972106933594,-5.604496955871582,-12.073599815368652,1.1129443645477295,2.570871353149414,5.114744186401367,-0.3176328241825104,0.3712283968925476,-1.6130359172821045
356,43706,43707,-0.010593471117317677,-0.05521351471543312,1.033424735069275,-24.295352935791016,-0.9715189933776855,-10.750534057617188,1.1024448871612549,2.572371244430542,5.095245361328125,-0.25744134187698364,-0.02913687750697136,-1.7415074110031128
357,43716,43717,-0.006818491034209728,-0.039471909403800964,1.0454881191253662,-8.36612606048584,9.740720748901367,-9.835078239440918,1.1174441576004028,2.5573720932006836,5.104244709014893,-0.3732450306415558,0.062403079122304916,-1.806344985961914
358,43726,43727,-0.05620986595749855,-0.05610578879714012,1.033053994178772,2.4746909141540527,20.921960830688477,-11.20220947265625,1.0964452028274536,2.5633718967437744,5.092245101928711,-0.5412303805351257,0.03218387812376022,-1.9139249324798584
359,43736,43737,-0.016812704503536224,-0.036196496337652206,1.0072346925735474,14.538278579711914,25.78811264038086,-10.210334777832031,1.111444354057312,2.5573720932006836,5.083245754241943,-0.7507701516151428,0.19126468896865845,-2.0084547996520996
360,43746,43747,-0.04322860762476921,-0.06935352087020874,0.9790206551551819,23.566875457763672,26.152915954589844,-9.532368659973145,1.0964452028274536,2.545372724533081,5.086245536804199,-1.1759159564971924,0.39444613456726074,-2.112354278564453
361,43756,43757,-0.02861623466014862,-0.05410648509860039,0.9921228885650635,19.400493621826172,29.118186950683594,-7.832221508026123,1.1039447784423828,2.540872812271118,5.096745014190674,-1.4395169019699097,0.5983157157897949,-2.199237823486328
362,43766,43767,-0.027725517749786377,-0.03922390937805176,0.9756161570549011,9.225682258605957,17.690540313720703,-4.722390174865723,1.0994449853897095,2.5633718967437744,5.098245143890381,-1.8257408142089844,0.8098906874656677,-2.252169609069824
363,43776,43777,-0.052763763815164566,-0.06460925936698914,0.9631950855255127,-3.1174073219299316,-7.826929569244385,-0.23221173882484436,1.087445616722107,2.542372941970825,5.098245143890381,-1.783919334411621,0.7481176853179932,-2.2905991077423096
364,43786,43787,-0.03129792958498001,-0.043709732592105865,0.9778525233268738,-15.046578407287598,-29.827917098999023,2.615605115890503,1.1009448766708374,2.543872833251953,5.0787458419799805,-1.4190841913223267,0.5711977481842041,-2.292459487915039
365,43796,43797,0.0163151603192091,-0.004872877616435289,0.9931977391242981,-22.8721923828125,-41.126285552978516,4.323448181152344,1.109944462776184,2.5558722019195557,5.087745666503906,-0.8875008225440979,0.3738185465335846,-2.2488715648651123
366,43806,43807,-0.026582971215248108,-0.028589369729161263,0.9661267399787903,-22.389842987060547,-37.31511688232422,5.304738521575928,1.1054446697235107,2.5543723106384277,5.0802459716796875,-0.2831551432609558,0.2695859968662262,-2.1565959453582764
367,43816,43817,-0.03837353736162186,-0.04474928602576256,0.9601246118545532,-18.169048309326172,-26.953569412231445,5.871013164520264,1.1159441471099854,2.5588719844818115,5.1027445793151855,-0.3704664707183838,-0.054889410734176636,-2.1588351726531982
368,43826,43827,-0.03399563953280449,-0.07473912835121155,0.9587255120277405,-14.530059814453125,-9.818127632141113,7.119546890258789,1.1159441471099854,2.543872833251953,5.096745014190674,0.03585083410143852,-0.1141752228140831,-2.0527825355529785
369,43836,43837,-0.06862953305244446,-0.07255241274833679,0.9556209444999695,-8.824048042297363,6.699129104614258,8.34791088104248,1.0934453010559082,2.5543723106384277,5.077246189117432,0.0019499901682138443,-0.11092831194400787,-1.9456813335418701
370,43846,43847,-0.04778551682829857,-0.04616628587245941,0.9449214339256287,-1.4243087768554688,13.49678897857666,9.251422882080078,1.123443841934204,2.548372507095337,5.092245101928711,-0.12938866019248962,-0.18404823541641235,-1.8638571500778198
371,43856,43857,-0.08185923844575882,0.00457153981551528,0.9691717028617859,-3.9266176223754883,15.238636016845703,8.052881240844727,1.1039447784423828,2.549872398376465,5.0787458419799805,-0.38669291138648987,-0.2295248657464981,-1.7879027128219604
372,43866,43867,-0.066660575568676,0.007008540444076061,0.9669085144996643,-10.365081787109375,25.827611923217773,6.967594146728516,1.1039447784423828,2.5348732471466064,5.072746276855469,-0.6197474002838135,-0.2321915477514267,-1.7002991437911987
373,43876,43877,-0.04575112834572792,-0.029711492359638214,0.9520938396453857,-15.647388458251953,23.774343490600586,5.514662742614746,1.0949451923370361,2.5618717670440674,5.093745231628418,-0.9009879231452942,-0.48632603883743286,-1.6644090414047241
374,43886,43887,-0.03267112374305725,-0.03446386009454727,0.9619675278663635,-11.565306663513184,7.264849662780762,3.838402509689331,1.0964452028274536,2.569371461868286,5.092245101928711,-1.0445845127105713,-0.49879562854766846,-1.5924956798553467
375,43896,43897,-0.007390535902231932,-0.026488088071346283,0.9641158580780029,-6.103024959564209,-2.9628853797912598,1.7955676317214966,1.0964452028274536,2.548372507095337,5.086245536804199,-1.0543526411056519,-0.5168634653091431,-1.5487902164459229
376,43906,43907,-0.01934942975640297,-0.010947979986667633,0.9716875553131104,3.7540512084960938,-11.126911163330078,2.434462785720825,1.0949451923370361,2.5528724193573,5.090745449066162,-0.9256911277770996,-0.5343595147132874,-1.5286425352096558
377,43916,43917,0.020830661058425903,-0.01823355257511139,0.9383792877197266,11.022269248962402,-17.415760040283203,4.302202224731445,1.1054446697235107,2.569371461868286,5.098245143890381,-0.6845582723617554,-0.48850491642951965,-1.5031328201293945
378,43926,43927,0.014843557961285114,-0.04039031267166138,0.9338263869285583,13.128283500671387,-33.705692291259766,8.174107551574707,1.1009448766708374,2.5588719844818115,5.09974479675293,-0.46056199073791504,-0.4306042790412903,-1.4515790939331055
379,43936,43937,-0.04089326038956642,-0.026670733466744423,0.9882082343101501,2.5270438194274902,-42.30322265625,10.10545539855957,1.1084445714950562,2.5633718967437744,5.101244926452637,0.10673344880342484,-0.32173261046409607,-1.3557490110397339
380,43946,43947,-0.03479583188891411,-0.02938595786690712,0.9726706743240356,-14.587218284606934,-37.06987380981445,8.895204544067383,1.1039447784423828,2.5888705253601074,5.1027445793151855,0.3899407386779785,-0.48449960350990295,-1.2703609466552734
381,43956,43957,-0.049552809447050095,0.02171189710497856,1.005556583404541,-27.090383529663086,-25.649492263793945,5.665899753570557,1.1129443645477295,2.5798709392547607,5.09974479675293,0.7812891006469727,-0.7981857657432556,-1.2183253765106201
382,43966,43967,-0.023663576692342758,0.05578181520104408,1.0017545223236084,-25.75595474243164,-12.221073150634766,4.403802394866943,1.1189440488815308,2.576871156692505,5.1087446212768555,0.8870884776115417,-1.1029943227767944,-1.169189214706421
383,43976,43977,-0.02406654693186283,-0.015292988158762455,0.9764190912246704,-18.900205612182617,-5.548156261444092,0.7910152673721313,1.1144442558288574,2.5843708515167236,5.11324405670166,0.9949111342430115,-1.3075811862945557,-1.139025092124939
384,43986,43987,-0.028761373832821846,-0.04296272248029709,0.9975013732910156,-11.576650619506836,-2.8650224208831787,-4.413816452026367,1.1009448766708374,2.573871374130249,5.117743968963623,1.0219192504882812,-1.38362717628479,-1.1482782363891602
385,43996,43997,-0.02553490549325943,-0.011376640759408474,1.0530256032943726,-4.961474418640137,-0.6328908801078796,-9.11605453491211,1.1159441471099854,2.570871353149414,5.111744403839111,1.0295573472976685,-1.4232467412948608,-1.2159162759780884
386,44006,44007,-0.03598139435052872,0.011499757878482342,1.0860456228256226,8.199609756469727,4.292023658752441,-13.10331916809082,1.1024448871612549,2.5843708515167236,5.110244274139404,0.973163366317749,-1.3695330619812012,-1.3255375623703003
387,44016,44017,-0.04007819667458534,-0.031531963497400284,1.0521957874298096,24.90508460998535,10.722951889038086,-16.705673217773438,1.1009448766708374,2.5798709392547607,5.114744186401367,0.8156440854072571,-1.060486078262329,-1.4608778953552246
388,44026,44027,-0.03412625566124916,-0.017046896740794182,1.0732442140579224,42.31058883666992,20.52498435974121,-15.63748836517334,1.1084445714950562,2.5903704166412354,5.116244316101074,0.6050524115562439,-0.7590842247009277,-1.6238726377487183
389,44036,44037,-0.0852646753191948,-0.04021754860877991,1.0673556327819824,50.25421142578125,23.805330276489258,-12.901166915893555,1.1129443645477295,2.5858707427978516,5.129743576049805,0.3706801235675812,-0.11182428151369095,-1.7608189582824707
390,44046,44047,-0.041749417781829834,-0.045272499322891235,1.008347511291504,43.22840118408203,24.75929069519043,-12.563398361206055,1.0979450941085815,2.603869676589966,5.144742488861084,0.11383895576000214,0.14573732018470764,-1.890680193901062
391,44056,44057,-0.07029449194669724,-0.06757225096225739,0.9887399077415466,25.20448875427246,22.717845916748047,-10.94095516204834,1.1084445714950562,2.5903704166412354,5.116244316101074,-0.2763649821281433,0.5249517560005188,-1.9851504564285278
392,44066,44067,-0.07802731543779373,-0.05595488101243973,1.0025904178619385,2.926034688949585,16.66105842590332,-8.4913911819458,1.0979450941085815,2.5888705253601074,5.129743576049805,-0.4263986051082611,0.4769604504108429,-2.0912258625030518
393,44076,44077,-0.03334632143378258,-0.0883084312081337,0.9901962280273438,-20.885915756225586,6.7039995193481445,-5.491708755493164,1.0979450941085815,2.5888705253601074,5.126743793487549,-0.38624686002731323,0.2959083616733551,-2.1784908771514893
394,44086,44087,-0.00416374858468771,-0.06479230523109436,1.0171098709106445,-48.09853744506836,-15.78123950958252,-5.50806999206543,1.1054446697235107,2.5843708515167236,5.1312432289123535,-0.2570771872997284,-0.12300767004489899,-2.2392935752868652
395,44096,44097,-0.026425356045365334,0.024044714868068695,1.0669901371002197,-59.81377029418945,-27.151784896850586,-7.649046897888184,1.1039447784423828,2.594870090484619,5.141742706298828,0.10984337329864502,-0.8191598653793335,-2.3205983638763428
396,44106,44107,0.041940100491046906,0.08751121163368225,1.1010669469833374,-49.29674530029297,-30.7735538482666,-8.663318634033203,1.1159441471099854,2.603869676589966,5.135743141174316,0.2843483090400696,-1.176262378692627,-2.38285493850708
397,44116,44117,-0.04699671268463135,-0.008349865674972534,1.0312753915786743,-21.86513900756836,-25.85624122619629,-6.620769023895264,1.123443841934204,2.593370199203491,5.122243881225586,0.7346207499504089,-1.5451823472976685,-2.469552993774414
398,44126,44127,-0.05736184120178223,-0.00733954505994916,1.0555672645568848,4.30815315246582,-13.371603965759277,-2.043670415878296,1.1159441471099854,2.5798709392547607,5.126743793487549,0.7104397416114807,-1.5866135358810425,-2.485852003097534
399,44136,44137,-0.014367845840752125,0.01815817691385746,1.0803873538970947,18.201854705810547,3.1762683391571045,0.4689539670944214,1.1219438314437866,2.576871156692505,5.1327433586120605,0.761425793170929,-1.337985634803772,-2.4870800971984863
400,44146,44147,-0.020777059718966484,0.006582686211913824,1.1013802289962769,18.68604278564453,16.373796463012695,0.07460132986307144,1.1084445714950562,2.5813708305358887,5.107244491577148,0.5404689311981201,-1.0703181028366089,-2.47192120552063
401,44156,44157,-0.04811553657054901,-0.010404003784060478,1.0803797245025635,17.08221435546875,24.702890396118164,-0.3795902132987976,1.111444354057312,2.578371047973633,5.098245143890381,0.30716195702552795,-0.9210399389266968,-2.4760963916778564
402,44166,44167,-0.006798703223466873,-0.0825122818350792,0.9532660841941833,16.87565040588379,26.728551864624023,-0.34902310371398926,1.109944462776184,2.567871570587158,5.09974479675293,-0.03755384311079979,-0.7779380083084106,-2.4706876277923584
403,44176,44177,-0.01497208047658205,-0.06019386649131775,0.9164841175079346,13.308396339416504,18.735532760620117,-1.0220119953155518,1.1039447784423828,2.5528724193573,5.090745449066162,-0.2365802675485611,-0.5971516966819763,-2.4817850589752197
404,44186,44187,-0.04678214713931084,0.019112655892968178,0.94425368309021,9.133820533752441,3.5615074634552,-1.5239231586456299,1.1039447784423828,2.549872398376465,5.075746059417725,-0.19412100315093994,-0.4715302586555481,-2.518764019012451
405,44196,44197,-0.10795377939939499,0.018486836925148964,1.0238579511642456,5.608838081359863,-7.659451007843018,-1.0696723461151123,1.1009448766708374,2.546872615814209,5.081745624542236,-0.15099146962165833,-0.41990602016448975,-2.5358335971832275
406,44206,44207,-0.082830049097538,-0.01801745407283306,1.0627517700195312,10.448124885559082,-6.429429531097412,-0.028822941705584526,1.0949451923370361,2.5618717670440674,5.093745231628418,-0.04682030528783798,-0.41454073786735535,-2.546130895614624
407,44216,44217,-0.011623317375779152,-0.051870282739400864,1.02987539768219,17.8823299407959,0.8244587779045105,1.4975353479385376,1.1024448871612549,2.5603718757629395,5.086245536804199,-0.002123578917235136,-0.22631953656673431,-2.5381057262420654
408,44226,44227,0.018432307988405228,-0.04332694783806801,0.9866771697998047,26.884517669677734,7.3416056632995605,3.088078260421753,1.109944462776184,2.5528724193573,5.08474588394165,-0.04115938022732735,0.04222646728157997,-2.5141568183898926
409,44236,44237,-0.003991251345723867,0.005033113062381744,0.9995781779289246,30.938983917236328,12.587616920471191,4.638728141784668,1.1054446697235107,2.5543723106384277,5.092245101928711,-0.3009503483772278,0.3389512896537781,-2.456684112548828
410,44246,44247,-0.04709632322192192,0.005271741189062595,1.0308542251586914,27.83883285522461,14.334382057189941,5.836086273193359,1.1084445714950562,2.542372941970825,5.092245101928711,-0.4757702052593231,0.5608369708061218,-2.3976752758026123
411,44256,44257,-0.07955792546272278,-0.0727171003818512,1.0736483335494995,9.534767150878906,2.5111234188079834,3.432335615158081,1.1069446802139282,2.5528724193573,5.087745666503906,-0.6099076867103577,0.7106518745422363,-2.3456804752349854
412,44266,44267,-0.06251689791679382,-0.11549176275730133,1.0736013650894165,-8.813040733337402,-14.972404479980469,0.48984992504119873,1.0994449853897095,2.5363731384277344,5.0802459716796875,-0.4481586813926697,0.6834515333175659,-2.335322856903076
413,44276,44277,-0.08161991089582443,-0.13739126920700073,1.0418020486831665,-27.47684669494629,-34.55790328979492,-4.106691360473633,1.109944462776184,2.573871374130249,5.090745449066162,0.024339886382222176,0.4169667065143585,-2.372922897338867
414,44286,44287,-0.10246015340089798,-0.0725075751543045,1.0313892364501953,-29.81688117980957,-49.68718719482422,-10.212621688842773,1.1144442558288574,2.5513722896575928,5.104244709014893,0.5544794797897339,0.16141605377197266,-2.454329252243042
415,44296,44297,-0.11357324570417404,-0.030941808596253395,1.046188235282898,-14.987573623657227,-52.28488540649414,-11.731648445129395,1.1159441471099854,2.5558722019195557,5.09974479675293,1.1002006530761719,-0.023786183446645737,-2.569608449935913
416,44306,44307,-0.1227080300450325,-0.010055012069642544,1.105654001235962,12.848684310913086,-32.543575286865234,-7.782546520233154,1.124943733215332,2.5618717670440674,5.1057448387146,1.532214879989624,0.04847074672579765,-2.66803240776062
417,44316,44317,-0.05267421156167984,-0.0015343326376751065,1.079555630683899,34.18600082397461,2.356947898864746,-3.114351272583008,1.123443841934204,2.548372507095337,5.086245536804199,1.606589674949646,0.43974223732948303,-2.715684175491333
418,44326,44327,-0.013942409306764603,-0.0034427696373313665,1.0132412910461426,39.82114028930664,33.623443603515625,-1.583863615989685,1.1129443645477295,2.543872833251953,5.081745624542236,1.2583972215652466,0.7372732758522034,-2.729329824447632
419,44336,44337,-0.039303265511989594,-0.02872428297996521,1.0119165182113647,29.98467445373535,52.12363052368164,-3.5281059741973877,1.1039447784423828,2.567871570587158,5.09974479675293,0.6234170794487,1.0964839458465576,-2.7467706203460693
420,44346,44347,0.014382581226527691,-0.06808324158191681,0.932677149772644,14.953169822692871,55.45330810546875,-7.031312465667725,1.1069446802139282,2.5378730297088623,5.08474588394165,0.16338634490966797,1.2189295291900635,-2.7860734462738037
421,44356,44357,0.03524404391646385,-0.011696883477270603,0.89444899559021,3.9214882850646973,42.236412048339844,-9.288299560546875,1.1069446802139282,2.546872615814209,5.096745014190674,-0.4478601813316345,1.28944993019104,-2.861903429031372
422,44366,44367,0.09766213595867157,0.09350664168596268,0.9173693656921387,-7.031994819641113,26.742334365844727,-10.457683563232422,1.0994449853897095,2.5363731384277344,5.0802459716796875,-0.47397103905677795,1.2612684965133667,-2.9433043003082275
423,44376,44377,0.11474413424730301,0.02573271468281746,0.9449321627616882,-9.612704277038574,16.600149154663086,-9.402887344360352,1.0964452028274536,2.518373966217041,5.068246364593506,-0.7680469155311584,1.200484275817871,-3.0434298515319824
424,44386,44387,0.04039132967591286,-0.025214381515979767,0.9603478312492371,-2.5392448902130127,6.571197509765625,-7.1858696937561035,1.0994449853897095,2.518373966217041,5.06524658203125,-0.9603104591369629,1.1868869066238403,-3.131591796875
425,44396,44397,-0.04139160364866257,-0.06365111470222473,0.9497142434120178,9.148061752319336,-5.534632682800293,-1.9737411737442017,1.0994449853897095,2.521373987197876,5.071246147155762,-0.8942371606826782,1.2556105852127075,-3.1716997623443604
426,44406,44407,-0.07097793370485306,-0.035417210310697556,0.905200183391571,15.99599838256836,-11.275323867797852,4.871031761169434,1.0949451923370361,2.516874074935913,5.0517473220825195,-0.7539709210395813,1.4215846061706543,-3.1519997119903564
427,44416,44417,-0.07168520987033844,-0.0041423155926167965,0.9089612364768982,8.826142311096191,-10.75536823272705,10.916224479675293,1.1054446697235107,2.5303733348846436,5.059247016906738,-0.5970615148544312,1.6228529214859009,-3.0570321083068848
428,44426,44427,-0.0514121949672699,-0.05756078660488129,0.9303152561187744,-6.922188758850098,1.0340304374694824,13.851679801940918,1.0904453992843628,2.5333733558654785,5.062246799468994,-0.5591782331466675,1.6169148683547974,-2.930412769317627
429,44436,44437,-0.04071486368775368,-0.11742144078016281,0.9262896180152893,-23.32219886779785,14.203824996948242,13.763014793395996,1.0964452028274536,2.5393729209899902,5.0802459716796875,-0.7431527972221375,1.3053957223892212,-2.8104259967803955
430,44446,44447,-0.04542340338230133,-0.08670713007450104,0.9275711178779602,-33.321136474609375,13.309684753417969,12.67488956451416,1.0964452028274536,2.5333733558654785,5.083245754241943,-0.9743852615356445,1.0165631771087646,-2.6920552253723145
431,44456,44457,-0.045930929481983185,-0.04053366929292679,0.9339123964309692,-38.229270935058594,-2.3745152950286865,10.678634643554688,1.0979450941085815,2.5558722019195557,5.090745449066162,-0.8912009000778198,0.47905200719833374,-2.5641160011291504
432,44466,44467,0.0004975716001354158,0.05900369957089424,0.9579088091850281,-33.127994537353516,-9.258599281311035,9.319326400756836,1.0994449853897095,2.5573720932006836,5.095245361328125,-0.7122512459754944,0.12092561274766922,-2.44474720954895
433,44476,44477,-0.010133016854524612,0.10733461380004883,1.0085946321487427,-15.635873794555664,-12.510184288024902,9.360240936279297,1.0949451923370361,2.5558722019195557,5.087745666503906,-0.5487098693847656,0.0588219128549099,-2.3285179138183594
434,44486,44487,-0.07608100771903992,0.004358149133622646,0.972408652305603,2.481771230697632,-3.779419422149658,11.835009574890137,1.0979450941085815,2.549872398376465,5.090745449066162,-0.6052701473236084,0.1451086401939392,-2.2305476665496826
435,44496,44497,-0.09957624226808548,-0.10173157602548599,0.9156752228736877,9.763436317443848,8.246696472167969,12.657910346984863,1.0934453010559082,2.5513722896575928,5.095245361328125,-0.6875827312469482,0.2549780309200287,-2.109983205795288
436,44506,44507,-0.06279494613409042,-0.11849163472652435,0.8758225440979004,13.319701194763184,16.09029769897461,12.76453971862793,1.111444354057312,2.5513722896575928,5.092245101928711,-0.9125390648841858,0.4334593415260315,-1.9893546104431152
437,44516,44517,-0.03957269340753555,-0.060116615146398544,0.9245792627334595,13.222980499267578,13.78093147277832,13.441965103149414,1.087445616722107,2.5663716793060303,5.104244709014893,-1.0905064344406128,0.5660836100578308,-1.8612147569656372
438,44526,44527,-0.004102824721485376,-0.03841274976730347,0.9515608549118042,7.314719200134277,3.9577884674072266,14.296518325805664,1.0934453010559082,2.5603718757629395,5.104244709014893,-1.2303858995437622,0.5620274543762207,-1.7397966384887695
439,44536,44537,0.007220838218927383,-0.05718591436743736,0.9539361596107483,2.2367873191833496,-11.559804916381836,15.89819622039795,1.1084445714950562,2.5633718967437744,5.116244316101074,-0.9943322539329529,0.6800790429115295,-1.5514330863952637
440,44546,44547,-0.04385659843683243,-0.06629633903503418,0.9688100218772888,-2.8290224075317383,-19.866222381591797,18.323867797851562,1.0889455080032349,2.5798709392547607,5.09974479675293,-0.7972902059555054,0.649742841720581,-1.3795443773269653
441,44556,44557,-0.07674278318881989,-0.06265049427747726,0.9862392544746399,-13.945773124694824,-23.714618682861328,18.176319122314453,1.0904453992843628,2.578371047973633,5.11324405670166,-0.5754284858703613,0.46917009353637695,-1.2095462083816528
442,44566,44567,-0.048299793154001236,0.009588327258825302,1.036840558052063,-22.061235427856445,-26.165773391723633,15.317770957946777,1.1084445714950562,2.578371047973633,5.116244316101074,-0.3145730197429657,0.21226051449775696,-1.0520856380462646
443,44576,44577,-0.0774742066860199,0.0463157594203949,1.093260645866394,-20.6555233001709,-20.875612258911133,12.0348482131958,1.1009448766708374,2.576871156692505,5.120743751525879,-0.09609005600214005,0.12219506502151489,-0.9008750915527344
444,44586,44587,-0.09868792444467545,0.0055137379094958305,1.089015245437622,-11.425288200378418,-11.81672191619873,8.528951644897461,1.1159441471099854,2.573871374130249,5.123743534088135,0.07232150435447693,-0.14603014290332794,-0.8153243064880371
445,44596,44597,-0.15349449217319489,-0.10388293117284775,0.9985619783401489,-1.316476821899414,3.8322253227233887,7.613231182098389,1.0994449853897095,2.578371047973633,5.122243881225586,0.08372347801923752,-0.16999298334121704,-0.7331182360649109
446,44606,44607,-0.157739520072937,-0.08139687776565552,1.0446786880493164,10.225001335144043,16.434240341186523,6.222925186157227,1.1144442558288574,2.572371244430542,5.122243881225586,-0.12942904233932495,-0.08735416829586029,-0.6706256866455078
447,44616,44617,-0.026574697345495224,-0.07467703521251678,0.9991220235824585,17.0064697265625,12.62624740600586,4.8896098136901855,1.0934453010559082,2.5663716793060303,5.116244316101074,-0.3634184002876282,0.1494731307029724,-0.6151588559150696
448,44626,44627,0.06128714606165886,-0.077537402510643,0.9853154420852661,9.437376976013184,-6.996462821960449,4.061440467834473,1.1024448871612549,2.575371265411377,5.11324405670166,-0.3463275134563446,0.3393661081790924,-0.5623188018798828
449,44636,44637,0.13661231100559235,-0.04091215506196022,1.0414395332336426,4.469703197479248,-25.095937728881836,3.0780608654022217,1.0949451923370361,2.5558722019195557,5.09974479675293,0.00899178721010685,0.3261396884918213,-0.5240001678466797
450,44646,44647,0.08369778841733932,-0.04143458977341652,1.0048208236694336,8.24946117401123,-31.184444427490234,4.085444450378418,1.1084445714950562,2.5663716793060303,5.125243663787842,0.44865092635154724,0.3528614938259125,-0.4811793863773346
451,44656,44657,0.018686125054955482,0.012043162249028683,0.9336963891983032,1.123733401298523,-24.050413131713867,5.319328308105469,1.109944462776184,2.576871156692505,5.123743534088135,0.6176679730415344,0.39457061886787415,-0.44423002004623413
452,44666,44667,-0.02375863865017891,0.016676882281899452,0.9171326756477356,-0.31304582953453064,2.3948349952697754,4.588254928588867,1.111444354057312,2.575371265411377,5.11924409866333,0.44539526104927063,0.37302166223526,-0.41383275389671326
453,44676,44677,0.0002040702966041863,0.002000008011236787,0.933619499206543,-2.8414926528930664,26.308879852294922,2.5946805477142334,1.0994449853897095,2.578371047973633,5.104244709014893,0.1596290022134781,0.2660854756832123,-0.3913271725177765
454,44686,44687,0.0754411593079567,0.021244099363684654,0.9301897883415222,-10.138446807861328,42.58978271484375,0.592879056930542,1.1024448871612549,2.593370199203491,5.134243011474609,-0.4534919857978821,0.20777329802513123,-0.39150747656822205
455,44696,44697,0.027439812198281288,0.039776984602212906,0.9558861255645752,-13.728873252868652,41.22534942626953,0.7252111434936523,1.1069446802139282,2.594870090484619,5.15374231338501,-0.8433890342712402,0.13529880344867706,-0.3781171441078186
456,44706,44707,-0.0286768339574337,0.01548105850815773,0.9333000183105469,-15.097420692443848,21.208993911743164,1.043413758277893,1.0964452028274536,2.5903704166412354,5.146242618560791,-1.1584471464157104,0.019931944087147713,-0.3673071265220642
457,44716,44717,-0.08527715504169464,-0.0003305250429548323,0.9548353552818298,-10.873917579650879,-9.696831703186035,1.9885952472686768,1.0964452028274536,2.599370002746582,5.128243446350098,-1.1569204330444336,-0.12705884873867035,-0.3505149483680725
458,44726,44727,-0.058065302670001984,0.034730665385723114,1.0298848152160645,-7.448239326477051,-40.501502990722656,3.392256736755371,1.1024448871612549,2.6053695678710938,5.140243053436279,-0.6432558298110962,-0.20267526805400848,-0.30821359157562256
459,44736,44737,0.025360438972711563,0.03335981443524361,1.0404632091522217,-5.180677890777588,-63.7735481262207,4.750260829925537,1.111444354057312,2.6203689575195312,5.152242183685303,-0.054879311472177505,-0.2388250231742859,-0.2603290379047394
460,44746,44747,0.08172740787267685,0.02517453208565712,1.0565611124038696,-2.80548357963562,-70.37464141845703,5.298510551452637,1.1144442558288574,2.6203689575195312,5.1612420082092285,0.9012815952301025,-0.3171321153640747,-0.19730891287326813
461,44756,44757,0.015637340024113655,0.01022346131503582,1.0632456541061401,9.579086303710938,-66.88922119140625,6.876505374908447,1.12644362449646,2.6203689575195312,5.185240745544434,1.7437777519226074,-0.27303025126457214,-0.13157640397548676
462,44766,44767,-0.010933013632893562,0.03204090893268585,1.097486972808838,14.691518783569336,-39.55356979370117,10.055068969726562,1.1354432106018066,2.623368740081787,5.170241355895996,1.9448435306549072,-0.04910575598478317,-0.04790709912776947
463,44776,44777,0.009954763576388359,0.04799487441778183,1.0924402475357056,9.959943771362305,1.6436232328414917,14.505827903747559,1.1324433088302612,2.602369785308838,5.155241966247559,1.8707438707351685,0.05687570199370384,0.07714825868606567
464,44786,44787,-0.028034981340169907,0.03174962103366852,1.094954490661621,-2.6797804832458496,27.29244041442871,16.530988693237305,1.1219438314437866,2.606869697570801,5.129743576049805,1.4691919088363647,0.07564734667539597,0.23477675020694733
465,44796,44797,-0.06022766977548599,0.019264915958046913,1.0977919101715088,-10.875031471252441,36.433380126953125,21.648483276367188,1.1174441576004028,2.602369785308838,5.155241966247559,1.5078295469284058,-0.0867702066898346,0.4346947968006134
466,44806,44807,-0.0059925951063632965,0.02474583499133587,1.0107234716415405,-21.63454246520996,27.531635284423828,21.764244079589844,1.1279436349868774,2.5888705253601074,5.144742488861084,0.9811360239982605,-0.1759313941001892,0.6516315937042236
467,44816,44817,-0.038529254496097565,0.016368836164474487,1.0262972116470337,-28.705839157104492,4.8914079666137695,18.069791793823242,1.1204439401626587,2.5843708515167236,5.125243663787842,0.743132472038269,-0.49544385075569153,0.8608358502388
468,44826,44827,0.014356477186083794,0.10554815083742142,1.11263906955719,-26.071447372436523,-16.86107635498047,13.478520393371582,1.123443841934204,2.5843708515167236,5.116244316101074,0.9997164607048035,-0.826508104801178,1.0163664817810059
469,44836,44837,-0.02361501008272171,0.002578767016530037,1.1035195589065552,-13.85332202911377,-36.43376541137695,11.774382591247559,1.1159441471099854,2.5918703079223633,5.120743751525879,1.461700201034546,-0.9228445291519165,1.1315059661865234
470,44846,44847,-0.009384849108755589,-0.035308241844177246,1.155358076095581,3.158827304840088,-49.198646545410156,12.154077529907227,1.1174441576004028,2.572371244430542,5.125243663787842,1.931711196899414,-1.009434700012207,1.2581517696380615
471,44856,44857,0.02424878440797329,0.0016675784718245268,1.1808857917785645,22.798385620117188,-42.58977127075195,15.683655738830566,1.1324433088302612,2.593370199203491,5.134243011474609,2.4098095893859863,-0.7648947238922119,1.3880797624588013
472,44866,44867,-0.020965304225683212,0.05249481648206711,1.1374074220657349,26.565715789794922,-35.37039566040039,18.793460845947266,1.13994300365448,2.576871156692505,5.129743576049805,2.860788345336914,-0.4129696488380432,1.5505831241607666
473,44876,44877,0.012529810890555382,0.07187868654727936,1.1340336799621582,10.193814277648926,-26.314746856689453,17.07415199279785,1.138443112373352,2.569371461868286,5.107244491577148,3.109769821166992,-0.38472071290016174,1.7720723152160645
474,44886,44887,0.007682594005018473,0.03810170665383339,1.105565071105957,3.1222152709960938,-8.139203071594238,15.34658145904541,1.1429427862167358,2.5618717670440674,5.1027445793151855,3.3485827445983887,-0.32301339507102966,1.9286830425262451
475,44896,44897,0.011192859150469303,0.018761498853564262,1.0201022624969482,-5.801643371582031,25.397083282470703,9.74468994140625,1.1429427862167358,2.5348732471466064,5.093745231628418,3.3139469623565674,-0.4426659047603607,2.08119797706604
476,44906,44907,-0.07792937755584717,0.016771938651800156,1.0353457927703857,-16.227739334106445,65.22970581054688,5.402795791625977,1.1309434175491333,2.543872833251953,5.093745231628418,2.5145413875579834,-0.6564486026763916,2.207915782928467
477,44916,44917,-0.09752777218818665,-0.0013622227124869823,1.0706161260604858,-21.18559455871582,98.34053802490234,1.1739702224731445,1.1204439401626587,2.5513722896575928,5.089245319366455,1.67461097240448,-0.8334627747535706,2.224078416824341
478,44926,44927,-0.09179755300283432,-0.03514055535197258,1.050927996635437,-26.800888061523438,110.41555786132812,-3.493621587753296,1.109944462776184,2.594870090484619,5.114744186401367,-0.06086615473031998,-0.9037586450576782,2.19338059425354
479,44936,44937,-0.06703799962997437,-0.003990564029663801,1.0382168292999268,-26.063823699951172,98.56888580322266,-8.438336372375488,1.1039447784423828,2.60086989402771,5.126743793487549,-0.44063445925712585,-1.148409366607666,2.0351011753082275
480,44946,44947,-0.048915889114141464,0.0191095732152462,1.0122228860855103,-17.92098045349121,61.9888916015625,-13.163947105407715,1.1129443645477295,2.6098694801330566,5.123743534088135,-1.4636107683181763,-1.5089964866638184,1.9717700481414795
481,44956,44957,-0.01812882535159588,0.010327533818781376,0.9731948375701904,-8.210393905639648,18.66731071472168,-16.759721755981445,1.0904453992843628,2.5513722896575928,5.077246189117432,-2.008965253829956,-1.56059992313385,1.8079771995544434
482,44966,44967,-0.028506316244602203,0.016117803752422333,1.0192134380340576,2.2378180027008057,-39.7186164855957,-19.65813446044922,1.0979450941085815,2.546872615814209,5.072746276855469,-1.294766902923584,-1.5721800327301025,1.5476878881454468
