,gyro.x,gyro.y,gyro.z,stabilizer.pitch,stabilizer.roll,stabilizer.yaw,label
0,-0.037012483924627304,-0.10120334476232529,0.00015719833027105778,0.5563121438026428,0.5869930982589722,11.117642402648926,4
1,0.053593896329402924,-0.08328266441822052,0.00570274842903018,0.6307568550109863,0.498532772064209,11.105862617492676,4
2,0.07118938118219376,-0.12824809551239014,0.0027125226333737373,0.6149758696556091,0.4350552260875702,11.095380783081055,4
3,0.05756450816988945,-0.23065981268882751,0.09149426966905594,0.603067934513092,0.45699170231819153,11.084711074829102,4
4,0.10015101730823517,-0.13360299170017242,-0.024233167991042137,0.5954807996749878,0.4748591184616089,11.074376106262207,4
5,-0.0413801483809948,-0.05277954414486885,0.06487155705690384,0.588297426700592,0.4889141917228699,11.06355094909668,4
6,0.03834306076169014,-0.19340650737285614,0.009973902255296707,0.5833911299705505,0.4985511004924774,11.053302764892578,4
7,-0.008445345796644688,-0.16009630262851715,-0.006747957319021225,0.5802375674247742,0.4374655783176422,11.042281150817871,4
8,0.010076973587274551,-0.11938748508691788,-0.07145000249147415,0.5775905251502991,0.5296597480773926,11.030856132507324,4
9,-0.0795302763581276,-0.13090573251247406,-0.051136620342731476,0.5780917406082153,0.5291673541069031,11.019392967224121,4
10,0.023458590731024742,-0.12344221025705338,0.01703711599111557,0.576233446598053,0.5972278714179993,11.007768630981445,4
11,0.008689560927450657,-0.03027639351785183,-0.046421218663454056,0.5736398100852966,0.510840117931366,10.996842384338379,4
12,0.005645634140819311,-0.13250604271888733,-0.07048341631889343,0.5739398002624512,0.510788083076477,10.98527717590332,4
13,0.0005868631415069103,-0.2802349328994751,0.05066419765353203,0.5748986601829529,0.5096687078475952,10.973679542541504,4
14,0.04754195362329483,-0.10457569360733032,0.05255609750747681,0.5744956135749817,0.5808915495872498,10.96347427368164,4
15,4.5735705498373136e-05,-0.052661262452602386,0.05948411300778389,0.573921263217926,0.49581894278526306,10.953073501586914,4
16,-0.004272698424756527,-0.11394920945167542,0.09275491535663605,0.5051475763320923,0.6391841769218445,10.943689346313477,4
17,0.03272566944360733,-0.06286538392305374,0.03215300664305687,0.590302586555481,0.47244974970817566,10.932229042053223,4
18,0.0994085967540741,-0.21170619130134583,-0.06508855521678925,0.5858674049377441,0.5547259449958801,10.922203063964844,4
19,0.12859317660331726,0.03907720744609833,-0.0006164780352264643,0.5151339769363403,0.613932192325592,10.910895347595215,4
20,0.08104018121957779,-0.14983457326889038,-0.09433950483798981,0.529642641544342,0.5910785794258118,10.899771690368652,4
21,0.08098747581243515,-0.20795561373233795,0.06286109238862991,0.5419949293136597,0.5745514631271362,10.888195037841797,4
22,-0.07241056114435196,-0.12601253390312195,-0.028325850144028664,0.5516812205314636,0.495121031999588,10.877117156982422,4
23,-0.08089834451675415,-0.12658904492855072,0.020053822547197342,0.6236653327941895,0.5027868747711182,10.86630916595459,4
24,0.01307981088757515,-0.13638024032115936,-0.06330215185880661,0.5444692969322205,0.5734620690345764,10.856130599975586,4
25,0.06223006173968315,-0.05059392377734184,0.003503182204440236,0.6168485283851624,0.42916759848594666,10.844139099121094,4
26,0.11166989058256149,-0.055619753897190094,0.06956847012042999,0.5385587811470032,0.5877125859260559,10.834991455078125,4
27,0.09180974960327148,-0.1652836799621582,-0.006158531177788973,0.6130536198616028,0.5709801316261292,10.82396411895752,4
28,-0.04102697968482971,-0.04973955079913139,-0.01123618520796299,0.601676881313324,0.49284636974334717,10.813292503356934,4
29,0.03420845791697502,-0.09189927577972412,-0.0847579687833786,0.5920779705047607,0.5015242099761963,10.802781105041504,4
30,-0.012144644744694233,-0.03252846747636795,0.043960269540548325,0.519784152507782,0.57432621717453,10.791980743408203,4
31,0.0672287717461586,-0.15803562104701996,-0.033377889543771744,0.6003386974334717,0.4936599135398865,10.780769348144531,4
32,-0.017922628670930862,-0.253893107175827,-0.015297062695026398,0.5930927991867065,0.501545786857605,10.769824981689453,4
33,-0.02692922204732895,-0.10615117847919464,0.055842239409685135,0.5872032642364502,0.508028507232666,10.759007453918457,4
34,0.015138661488890648,-0.1055118516087532,-0.009278612211346626,0.4468773305416107,0.5126057267189026,10.749909400939941,4
35,0.04833782836794853,-0.07897781580686569,0.015472031198441982,0.5487362742424011,0.6525691747665405,10.73975944519043,4
36,0.04231030493974686,-0.13184456527233124,-0.04979486018419266,0.5548016428947449,0.48336297273635864,10.727313995361328,4
37,0.03876988962292671,-0.019206328317523003,0.059645846486091614,0.6261629462242126,0.49780842661857605,10.716248512268066,4
38,0.13092219829559326,-0.049747902899980545,0.045964352786540985,0.5408556461334229,0.5767572522163391,10.707322120666504,4
39,-0.023839838802814484,-0.021420307457447052,-0.11047933995723724,0.6172712445259094,0.4963831603527069,10.69616985321045,4
40,0.08675037324428558,-0.021651383489370346,-0.011719325557351112,0.6031488180160522,0.5063706040382385,10.684646606445312,4
41,0.046579509973526,-0.14782339334487915,-0.014141186140477657,0.5932685136795044,0.4443444013595581,10.674234390258789,4
42,0.0065155779011547565,-0.095203697681427,-0.04402245208621025,0.5856629610061646,0.6121158599853516,10.663321495056152,4
43,0.0859406366944313,-0.15432143211364746,-0.01707594282925129,0.581331729888916,0.5920050144195557,10.652880668640137,4
44,0.05184948071837425,-0.19102703034877777,-0.009764119051396847,0.5787374377250671,0.578041672706604,10.642257690429688,4
45,0.005850679706782103,-0.13551467657089233,-0.022616885602474213,0.5772265195846558,0.5665985941886902,10.630969047546387,4
46,-0.029067791998386383,-0.1246916726231575,0.04831254854798317,0.5756668448448181,0.4848690330982208,10.62039566040039,4
47,0.07350196689367294,-0.021598605439066887,-0.042601633816957474,0.3537071943283081,0.4972513020038605,10.610511779785156,4
48,-0.08836346864700317,-0.10649699717760086,-0.0037157677579671144,0.48131871223449707,0.5806478261947632,10.600812911987305,4
49,0.04040534794330597,-0.033996399492025375,0.04230846092104912,0.6493341326713562,0.4238869547843933,10.586206436157227,4
50,-0.05592956021428108,-0.02137168124318123,0.06949388980865479,0.6265376210212708,0.4548039734363556,10.576858520507812,4
51,-0.008829780854284763,-0.13317447900772095,-0.024234944954514503,0.6098813414573669,0.5515066385269165,10.567241668701172,4
52,-0.02020302601158619,-0.12179997563362122,0.024409625679254532,0.523535966873169,0.5493360757827759,10.557840347290039,4
53,-0.03217785060405731,-0.1317661851644516,0.10645262151956558,0.5332491993904114,0.6194579601287842,10.547846794128418,4
54,0.05677352473139763,-0.1369064599275589,0.08309073746204376,0.6142238974571228,0.5990205407142639,10.537787437438965,4
55,-0.0021561116445809603,-0.009562206454575062,0.0375630259513855,0.6006976366043091,0.4383047819137573,10.527671813964844,4
56,-0.054648783057928085,-0.15458373725414276,0.06966258585453033,0.5176738500595093,0.5357157588005066,10.518136024475098,4
57,0.06730019301176071,-0.08696965128183365,0.04329584911465645,0.6014413237571716,0.5355618596076965,10.507721900939941,4
58,0.009855660609900951,-0.09248719364404678,0.05031275376677513,0.5201779007911682,0.5359938144683838,10.4983549118042,4
59,0.14842799305915833,-0.18291495740413666,-0.10476959496736526,0.6019825339317322,0.5373348593711853,10.48755931854248,4
60,-0.030156034976243973,-0.07600129395723343,0.03728901222348213,0.5917555093765259,0.5385646224021912,10.476423263549805,4
61,0.044642675668001175,-0.08933410793542862,-0.03301671892404556,0.5833662748336792,0.46805521845817566,10.465959548950195,4
62,-0.025007104501128197,-0.137013241648674,0.04104204848408699,0.5076951384544373,0.5551961064338684,10.456154823303223,4
63,-0.036867786198854446,-0.08604419976472855,0.016554009169340134,0.5212244987487793,0.4810228645801544,10.445216178894043,4
64,-0.03389701992273331,-0.13572335243225098,-0.01826157420873642,0.6008382439613342,0.4956626892089844,10.4337739944458,4
65,-0.0069630746729671955,-0.08987434208393097,0.052725449204444885,0.5902495980262756,0.43721896409988403,10.423545837402344,4
66,0.035755906254053116,-0.05586819723248482,-0.005288032349199057,0.5818113088607788,0.5332517027854919,10.413862228393555,4
67,-0.09253034740686417,-0.13071683049201965,0.003190907184034586,0.582144021987915,0.5329297780990601,10.403639793395996,4
68,-0.041721541434526443,-0.18763506412506104,-0.049278706312179565,0.5090605616569519,0.6721270680427551,10.394620895385742,4
69,0.009042792953550816,-0.15109390020370483,0.0008321174536831677,0.5933763980865479,0.49880969524383545,10.38267707824707,4
70,-0.009689657017588615,-0.12035378813743591,0.03649359568953514,0.5190401673316956,0.5772366523742676,10.373129844665527,4
71,0.003791422350332141,-0.06452783942222595,0.059280965477228165,0.6017996072769165,0.49751830101013184,10.362375259399414,4
72,-0.06370420753955841,-0.16917705535888672,0.09114152938127518,0.5935114622116089,0.5762338638305664,10.35270881652832,4
73,-0.037770483642816544,-0.15264792740345,-0.042556293308734894,0.5887829065322876,0.5646013021469116,10.343013763427734,4
74,0.03762321546673775,-0.03004855290055275,-0.00564622925594449,0.5897582769393921,0.5638951063156128,10.33253002166748,4
75,-0.039072923362255096,-0.09929385036230087,-0.002949600340798497,0.5850644707679749,0.5567999482154846,10.322237968444824,4
76,0.017405370250344276,-0.0832437127828598,0.0544574111700058,0.583224892616272,0.4986351728439331,10.312317848205566,4
77,0.02498619258403778,-0.08661673218011856,-0.049519408494234085,0.5234614610671997,0.6269426345825195,10.302384376525879,4
78,0.03111358731985092,-0.14132145047187805,-0.017529552802443504,0.5393067002296448,0.602814793586731,10.291640281677246,4
79,0.10405898094177246,-0.08752191811800003,-0.0487353540956974,0.4229426085948944,0.5864390730857849,10.279901504516602,4
80,-0.03919630125164986,-0.16508860886096954,-0.019169427454471588,0.4689731001853943,0.5724970102310181,10.269450187683105,4
81,0.00467743631452322,-0.24165375530719757,0.012473927810788155,0.6387989521026611,0.35993459820747375,10.255699157714844,4
82,0.003268477274104953,-0.12564688920974731,0.02559611201286316,0.6308099627494812,0.6108218431472778,10.249011039733887,4
83,0.017600303515791893,-0.012796679511666298,0.08878958225250244,0.6230525374412537,0.5921545624732971,10.239326477050781,4
84,-0.019951611757278442,-0.10125128924846649,0.1015026718378067,0.685490608215332,0.44111213088035583,10.230269432067871,4
85,0.05794104188680649,-0.062892384827137,-0.03514275699853897,0.0,0.0,0.0,4
86,0.1412399709224701,-0.05943123251199722,0.04831361025571823,0.0005466932780109346,0.0010144066764041781,-0.0001995363418245688,4
87,0.03699635714292526,-0.0335887186229229,-0.0024517481215298176,-0.1911868453025818,0.41022780537605286,0.0008394216420128942,4
88,0.007823039777576923,-0.06591953337192535,-0.011245050467550755,-0.007286579813808203,-0.5981274247169495,-0.00040602884837426245,4
89,0.011860020458698273,-0.0927373543381691,-0.036113131791353226,0.615593433380127,-0.9302148222923279,0.002939061261713505,4
90,-0.038123708218336105,-0.03195086494088173,0.019236687570810318,0.5529647469520569,-0.10314425081014633,-0.0033976957201957703,4
91,-0.0031712076161056757,-0.10977945476770401,-0.02915104292333126,0.5174628496170044,-0.04890132322907448,-0.0038122651167213917,4
92,0.03532939776778221,-0.0700356513261795,0.003891671309247613,-0.5618729591369629,1.0698319673538208,-0.001614246517419815,4
93,0.08181016892194748,-0.04311821982264519,-0.029393736273050308,-0.19125328958034515,0.7454010844230652,-0.004441278055310249,4
94,-0.050896480679512024,-0.0675799697637558,0.02126152068376541,0.9998623728752136,0.0709923505783081,0.00020551079069264233,4
95,-0.027470944449305534,-0.09915459156036377,0.0013978949282318354,0.8394851088523865,0.10738057643175125,-0.00027204639627598226,4
96,-0.02415607124567032,-0.053306423127651215,-0.07313217222690582,0.3219292461872101,0.546724259853363,-0.005706716328859329,4
97,-0.03647715970873833,-0.1291811615228653,0.0815577507019043,0.3880477249622345,0.442377507686615,-0.004938459023833275,4
98,-0.04273511469364166,-0.025391876697540283,0.05360705778002739,0.7764256596565247,-0.30868393182754517,0.006700293626636267,4
99,-0.12172093987464905,-0.17850211262702942,0.030665310099720955,0.694215714931488,-0.11697214841842651,0.0035814198199659586,4
100,0.056042201817035675,-0.11018232256174088,0.051043055951595306,0.6378296613693237,0.30718129873275757,-0.002139817690476775,4
101,0.07010354101657867,-0.027180740609765053,-0.01652052439749241,0.0405551940202713,0.31072157621383667,-0.001262728706933558,4
102,-0.024514365941286087,-0.057135045528411865,0.03957739099860191,0.7220108509063721,0.04523201659321785,0.0020380939822643995,4
103,0.06638088077306747,-0.008356976322829723,0.06289960443973541,0.6629698276519775,0.13479816913604736,0.001465715584345162,4
104,-0.015715356916189194,-0.13597288727760315,0.03422321751713753,0.6195813417434692,-0.041540294885635376,0.004551357589662075,4
105,0.12866073846817017,-0.09458910673856735,-0.06948814541101456,-0.10047731548547745,0.7735157608985901,-0.003025364363566041,4
106,-0.050771862268447876,-0.010579261928796768,0.04233495146036148,0.3006381690502167,0.6568447947502136,-0.0021105906926095486,4
107,-0.019219230860471725,-0.19583138823509216,0.0022881764452904463,0.7873156070709229,0.15309777855873108,0.005263638217002153,4
108,0.014811997301876545,-0.1389579176902771,0.007788530085235834,0.7148481011390686,0.22074633836746216,0.004402853548526764,4
109,0.08184999227523804,-0.10704848915338516,-0.006657822523266077,0.6627004742622375,0.27165737748146057,0.0032844918314367533,4
110,0.2214360386133194,-0.10814769566059113,9.373905777465552e-05,0.4405170679092407,0.6826996803283691,-0.003955400083214045,4
111,0.016846423968672752,-0.18413276970386505,0.024984298273921013,0.46811580657958984,0.6044744253158569,-0.0026301697362214327,4
112,0.08861399441957474,-0.04454036429524422,0.0008649732917547226,0.3096942603588104,0.5485051870346069,-0.0034717072267085314,4
113,0.02068282850086689,-0.057751867920160294,0.05458438768982887,0.7040225267410278,0.34692806005477905,0.0037035939749330282,4
114,-0.047373540699481964,-0.051263995468616486,0.04080849140882492,0.49581968784332275,0.5259208083152771,-0.00030657966271974146,4
115,-0.03932105004787445,-0.08780985325574875,0.07997765392065048,0.6564329266548157,0.18977627158164978,0.007013393100351095,4
116,-0.07991893589496613,-0.1408170610666275,0.031772080808877945,0.6198213696479797,0.25684046745300293,0.005583786405622959,4
117,0.0059967124834656715,-0.09762470424175262,0.03547198325395584,0.5940030217170715,0.3083699941635132,0.004782635252922773,4
118,0.03173289820551872,-0.18515650928020477,-0.026363952085375786,0.5753298401832581,0.4863261878490448,0.001566331717185676,4
119,0.005523851606994867,-0.035698454827070236,0.01593288965523243,0.42402487993240356,0.47427672147750854,0.0012300978414714336,4
120,0.019154533743858337,-0.07420315593481064,0.037560246884822845,0.5827459692955017,0.33344414830207825,0.004512405022978783,4
121,-0.047206148505210876,-0.1100265309214592,0.023181216791272163,0.43628793954849243,0.6251485347747803,-0.0005628110957331955,4
122,-0.04243046045303345,-0.016288241371512413,-0.026757434010505676,0.58441561460495,0.3286612033843994,0.0048223999328911304,4
123,-0.04878295212984085,-0.11364148557186127,-0.012425923720002174,0.5663188099861145,0.4880463480949402,0.002583183581009507,4
124,-0.05396302789449692,-0.09866856038570404,-0.01778237894177437,0.5530924797058105,0.48167872428894043,0.0024553081020712852,4
125,-0.05407784879207611,-0.17266331613063812,-0.034076981246471405,0.4279833137989044,0.4777000844478607,0.001701882341876626,4
126,-0.03963637724518776,-0.14646705985069275,-0.00032069775625132024,0.45400482416152954,0.4754325747489929,0.001389318029396236,4
127,-0.019737545400857925,-0.18175485730171204,-0.0017018333310261369,0.5840684175491333,0.36321526765823364,0.0036620968021452427,4
128,0.11817331612110138,-0.08813516795635223,-0.024496935307979584,0.46133971214294434,0.5015212893486023,0.0007684107986278832,4
129,-0.04813028499484062,-0.0935872420668602,0.0218096561729908,0.47936955094337463,0.6001552939414978,0.00034939494798891246,4
130,-0.03565537929534912,-0.1546206921339035,0.036058273166418076,0.38968902826309204,0.5656960606575012,-0.0006267783464863896,4
131,0.04265938326716423,-0.12572617828845978,-0.09596233069896698,0.4288522005081177,0.5406934022903442,5.278724347590469e-05,4
132,-0.01446602214127779,-0.14462865889072418,0.1340562105178833,0.6595507264137268,0.4231691360473633,0.0037403216119855642,4
133,0.016465790569782257,-0.15237203240394592,-0.010410658083856106,0.6285649538040161,0.33899495005607605,0.0051347361877560616,4
134,0.06195773556828499,-0.2314271330833435,-0.032504450529813766,0.6062881946563721,0.37639692425727844,0.004622539971023798,4
135,0.018791211768984795,-0.019203489646315575,0.034826695919036865,0.5901467800140381,0.4043002128601074,0.003733627498149872,4
136,0.061050914227962494,-0.13407562673091888,-0.04000522941350937,0.5770652294158936,0.42591163516044617,0.0035291677340865135,4
137,-0.011958056129515171,-0.09028172492980957,-0.04854394495487213,0.4743685722351074,0.6272677779197693,9.956794383469969e-05,4
138,-0.14947956800460815,-0.17899544537067413,-0.02572653256356716,0.5846940279006958,0.49534285068511963,0.0027442132122814655,4
139,0.010886522009968758,-0.12195313721895218,-0.04914020746946335,0.5746239423751831,0.49034106731414795,0.0024627172388136387,4
140,-0.03029707632958889,-0.14415016770362854,-0.01350690983235836,0.5679429769515991,0.48719143867492676,0.0023030557204037905,4
141,-0.012219620868563652,-0.13862092792987823,0.016427528113126755,0.473826140165329,0.48457100987434387,0.0008996711112558842,4
142,0.005282114259898663,-0.05217958241701126,-0.020879916846752167,0.4051957428455353,0.5703437924385071,-0.00015729610458947718,4
143,-0.01751631498336792,-0.051741138100624084,0.06043168902397156,0.6153857707977295,0.3741110861301422,0.003895225701853633,4
144,0.0659806877374649,-0.1525794118642807,0.006548008881509304,0.5126564502716064,0.4902570843696594,0.0017281525069847703,4
145,0.05586589127779007,-0.007990910671651363,0.0019001018954440951,0.5218366980552673,0.49135977029800415,0.0015981708420440555,4
146,0.034048110246658325,-0.1144581213593483,0.046583205461502075,0.5289651155471802,0.577114462852478,0.001276712166145444,4
147,-0.022393370047211647,-0.16792041063308716,0.04739765077829361,0.5356792211532593,0.47123968601226807,0.002750088693574071,4
148,0.03846004605293274,-0.10005053877830505,0.044848620891571045,0.6249272227287292,0.47782784700393677,0.003907660488039255,4
149,-0.06610032916069031,-0.16067615151405334,0.03170910105109215,0.6063891649246216,0.4827519953250885,0.003775175893679261,4
150,-0.026328139007091522,-0.2211814969778061,0.07271648198366165,0.43035611510276794,0.5681396126747131,0.0011760951019823551,4
151,0.13329297304153442,-0.07445844262838364,-0.04033602029085159,0.5469424724578857,0.3878559172153473,0.0048379916697740555,4
152,-0.016274960711598396,-0.17513667047023773,-0.024562429636716843,0.39076855778694153,0.5782505869865417,0.000998541945591569,4
153,-0.06168896332383156,-0.07971358299255371,-0.030039174482226372,0.4365820586681366,0.39696913957595825,0.0020281749311834574,4
154,-0.025464506819844246,-0.11618350446224213,-0.03455604240298271,0.4697330594062805,0.6592174768447876,0.0013625917490571737,4
155,0.13120706379413605,-0.0683177262544632,0.03299379348754883,0.7296128869056702,0.38080674409866333,0.005649699363857508,4
156,0.009667736478149891,-0.08215071260929108,0.09799963980913162,0.6848389506340027,0.4119752049446106,0.004726540297269821,4
157,-0.046193432062864304,-0.17592161893844604,-0.04969959333539009,0.6515182256698608,0.43568316102027893,0.004941713064908981,4
158,0.07248160243034363,-0.09821934252977371,-0.05131690576672554,0.470247358083725,0.6109985113143921,0.00029387665563263,4
159,0.03318438678979874,0.037510693073272705,0.025267956778407097,0.49291008710861206,0.5837459564208984,0.0004546893760561943,4
160,0.06277382373809814,-0.09916631877422333,-0.04742187634110451,0.5091502666473389,0.5641335844993591,0.0009659117204137146,4
161,0.04809211939573288,-0.08274400979280472,0.05982861667871475,0.677797257900238,0.5491254329681396,0.003125834511592984,4
162,0.024440692737698555,-0.18469487130641937,-0.023328131064772606,0.5678620934486389,0.5382655262947083,0.0020079452078789473,4
163,-0.052153974771499634,-0.1263464391231537,0.09610683470964432,0.5653451681137085,0.4524368941783905,0.0029965597204864025,4
164,0.008062095381319523,-0.15592750906944275,0.0934227779507637,0.5655720829963684,0.5439525842666626,0.002936715492978692,4
165,-0.0314919613301754,-0.08915193378925323,0.017675595358014107,0.6415385007858276,0.3800845444202423,0.006645859219133854,4
166,0.08718729019165039,-0.1893603652715683,0.02859954535961151,0.5436400771141052,0.4913805425167084,0.00411087553948164,4
167,-0.02423025481402874,-0.0673474669456482,0.061272576451301575,0.624776303768158,0.49615004658699036,0.005107469391077757,4
168,0.013415869325399399,-0.0746694877743721,0.04839956760406494,0.5309296250343323,0.5776031613349915,0.0032571551855653524,4
169,0.04054427146911621,-0.11645058542490005,-0.050066251307725906,0.5385397672653198,0.5626840591430664,0.004144951701164246,4
170,0.03468327596783638,-0.054943185299634933,0.0058932979591190815,0.5437623262405396,0.5521944761276245,0.003733267541974783,4
171,0.08340340852737427,-0.16983704268932343,-0.13932682573795319,0.5482764840126038,0.5438991189002991,0.00407475046813488,4
172,-0.03278527781367302,-0.15946771204471588,0.03610984981060028,0.6275144815444946,0.537290096282959,0.004367360845208168,4
173,-0.031909942626953125,-0.0807662382721901,0.017162112519145012,0.6098837852478027,0.5326887965202332,0.004247352946549654,4
174,-0.06582340598106384,-0.10615692287683487,-0.019437970593571663,0.5964199900627136,0.4549444615840912,0.005585810635238886,4
175,-0.04043613746762276,-0.06631046533584595,0.0100373774766922,0.512740433216095,0.5467586517333984,0.003170674666762352,4
176,-0.09036948531866074,-0.040032707154750824,0.17325550317764282,0.599443793296814,0.39058321714401245,0.006498240865767002,4
177,-0.009975001215934753,-0.07025078684091568,0.0910826250910759,0.5888199806213379,0.4246072769165039,0.00683755986392498,4
178,0.06503301858901978,-0.16919656097888947,-0.07158545404672623,0.5080453753471375,0.5257226824760437,0.006769935134798288,4
179,0.0691244974732399,-0.06818138808012009,-0.020908640697598457,0.5950524806976318,0.5269293785095215,0.006614512298256159,4
180,0.02805941365659237,-0.09648473560810089,-0.07304859161376953,0.5115640163421631,0.5271968841552734,0.006066980306059122,4
181,-0.025521710515022278,-0.1817883402109146,-0.03397655859589577,0.5240139961242676,0.6017137169837952,0.005437889602035284,4
182,-0.05260953679680824,-0.06648823618888855,-0.0961463674902916,0.6077603101730347,0.5079452395439148,0.005716332700103521,4
183,0.10447678714990616,-0.11394742131233215,0.1275118738412857,0.5209432244300842,0.5894076824188232,0.003710418241098523,4
184,-0.06253553926944733,-0.11388970911502838,0.11295850574970245,0.5314947962760925,0.5741444230079651,0.004624333698302507,4
185,0.05257513001561165,-0.10026039183139801,-0.05533364787697792,0.6119959354400635,0.41549021005630493,0.0076758842915296555,4
186,-0.05950433015823364,-0.1518542319536209,-0.0026124429423362017,0.5988370180130005,0.5172354578971863,0.006373067386448383,4
187,-0.03827088698744774,-0.1495484858751297,-0.008896125480532646,0.5894954800605774,0.5196548700332642,0.0057328250259160995,4
188,0.17141717672348022,-0.1958916187286377,0.032862525433301926,0.4386635720729828,0.5934334397315979,0.004367895890027285,4
189,-0.014929232187569141,-0.07828445732593536,0.10083917528390884,0.6140769124031067,0.5044846534729004,0.006435935851186514,4
190,0.04085277020931244,-0.10439325869083405,-0.062051571905612946,0.6002514362335205,0.4391911029815674,0.0077649918384850025,4
191,-0.05046926066279411,-0.08480017632246017,-0.059174686670303345,0.5900832414627075,0.4632815718650818,0.007164579350501299,4
192,0.022193877026438713,-0.12112205475568771,-0.059872470796108246,0.5825512409210205,0.4806913435459137,0.006653068121522665,4
193,0.0006828700425103307,-0.010520990937948227,0.07062497735023499,0.5764766335487366,0.49323466420173645,0.005906869191676378,4
194,-0.042284123599529266,-0.10769836604595184,-0.029271263629198074,0.5711027383804321,0.5022059082984924,0.006256289780139923,4
195,0.05337540805339813,-0.15198786556720734,0.06504564732313156,0.4987564980983734,0.6471958756446838,0.004742481745779514,4
196,-0.00886550359427929,-0.16576293110847473,-0.15666478872299194,0.5851657390594482,0.5454211235046387,0.006576277781277895,4
197,-0.0682554617524147,-0.08502107113599777,0.10365340858697891,0.5106093883514404,0.6070894598960876,0.0041546449065208435,4
198,-0.005867029074579477,-0.06924982368946075,-0.06234200298786163,0.593329668045044,0.5145742297172546,0.005565830506384373,4
199,0.016849609091877937,-0.05814278870820999,-0.07018356770277023,0.5849645733833313,0.44596487283706665,0.005822659935802221,4
200,0.059502650052309036,-0.0683567076921463,-0.1486513763666153,0.5782778859138489,0.5356361865997314,0.004303265828639269,4
201,0.03500554338097572,-0.06607642769813538,0.044824693351984024,0.5030247569084167,0.5329666137695312,0.002689108718186617,4
202,0.10267888009548187,-0.09457043558359146,-0.16349594295024872,0.5175374746322632,0.6006337404251099,0.001902529620565474,4
203,0.04019097611308098,-0.07948663085699081,-0.025473404675722122,0.5990206003189087,0.4410609006881714,0.0023521219845861197,4
204,-0.020928384736180305,-0.10135549306869507,-0.04919232800602913,0.5881865620613098,0.46307122707366943,0.0013990484876558185,4
205,-0.03360481560230255,-0.10970333218574524,0.018375970423221588,0.5798187255859375,0.479107528924942,0.000941357808187604,4
206,0.07849035412073135,-0.10278519243001938,-0.03352956473827362,0.4335704743862152,0.5619731545448303,0.0004065391840413213,4
207,0.00016398934531025589,-0.0584603026509285,0.018932539969682693,0.6058021783828735,0.5523574352264404,0.0005230754031799734,4
208,-0.07411913573741913,-0.09398610889911652,0.030288562178611755,0.5922327637672424,0.4743008017539978,0.0010683357249945402,4
209,0.0001634354266570881,-0.12152464687824249,-0.03650904819369316,0.5823285579681396,0.4865400791168213,0.0013498502084985375,4
210,-0.009754353202879429,-0.202914297580719,-0.04956250637769699,0.5764672160148621,0.4959565997123718,0.000731472100596875,4
211,-0.07670638710260391,-0.23898188769817352,-0.40088504552841187,0.570142924785614,0.5004665851593018,0.0004855124861933291,4
212,-0.007742221001535654,-0.02765251137316227,0.045339472591876984,0.4930623173713684,0.641593337059021,-0.002540461253374815,4
213,0.1267787665128708,0.15934285521507263,0.49144116044044495,0.5020837783813477,0.604058563709259,-0.0016140135703608394,4
214,0.03939000144600868,-0.3251538872718811,-0.45087459683418274,0.5772728323936462,0.4344961643218994,0.0016977593768388033,4
215,-0.12465149909257889,-0.3626185953617096,-0.4287264943122864,0.49183037877082825,0.5182050466537476,-0.0013044578954577446,4
216,-0.4361879229545593,0.014308780431747437,-0.5647825002670288,0.5610013008117676,0.5069458484649658,0.0008037348743528128,4
217,0.13551859557628632,-0.5032548904418945,0.36653417348861694,0.4821604788303375,0.5661265850067139,0.002821130445227027,4
218,-1.3053135871887207,1.1313682794570923,0.040025245398283005,0.47019559144973755,0.4563562870025635,0.00412820465862751,4
219,-1.9414565563201904,1.8988475799560547,-0.27077722549438477,0.5282427072525024,0.3765910565853119,0.005691584665328264,4
220,-1.4889403581619263,2.734450578689575,-3.197385549545288,0.505145251750946,0.38373661041259766,0.005522618070244789,4
221,1.5452756881713867,0.272876501083374,-1.7029997110366821,0.5106451511383057,0.3465152382850647,-0.019383292645215988,4
222,1.7159011363983154,-4.585425853729248,-0.3644123673439026,0.4970061182975769,0.15499338507652283,-0.03389238566160202,4
223,-0.34583938121795654,-0.42748937010765076,0.19526967406272888,0.47243764996528625,0.10963579267263412,-0.04390140622854233,4
224,-1.6228642463684082,-1.0733349323272705,1.0829733610153198,0.40618887543678284,0.14653299748897552,-0.039802923798561096,4
225,0.92022705078125,-3.3616249561309814,3.8505666255950928,0.8556292057037354,0.15637238323688507,-0.04782349616289139,4
226,-3.4844515323638916,3.3570315837860107,7.1806559562683105,1.0071972608566284,0.13340021669864655,-0.020028935745358467,4
227,5.1157450675964355,-1.3791747093200684,5.049959659576416,1.088716745376587,0.19652362167835236,0.03496822714805603,4
228,-0.04970682039856911,-2.737352132797241,1.8631243705749512,0.9879798889160156,-0.00958879105746746,0.11177955567836761,4
229,4.978198051452637,6.107779502868652,0.46385282278060913,1.261109709739685,0.10394458472728729,0.11834128201007843,4
230,-7.341121196746826,-0.524129331111908,1.0235892534255981,2.1217410564422607,0.6332224011421204,0.03982912749052048,4
231,-1.323707103729248,4.411126136779785,0.1770225316286087,1.8323309421539307,1.0364863872528076,0.005548614077270031,4
232,16.588499069213867,-11.008240699768066,-1.1165889501571655,2.159104108810425,1.2838095426559448,-0.028736935928463936,4
233,-2.0618948936462402,3.7307069301605225,1.577580451965332,2.281536102294922,1.1830391883850098,-0.01696607656776905,4
234,-11.16604232788086,11.028165817260742,2.84112548828125,2.649172067642212,2.002742290496826,-0.147919163107872,4
235,-9.112555503845215,18.31293487548828,4.3549394607543945,2.2493655681610107,1.9688034057617188,-0.16483290493488312,4
236,16.344114303588867,15.152608871459961,8.922327995300293,2.657102346420288,2.3768150806427,-0.15962918102741241,4
237,-0.017594555392861366,33.0848503112793,11.667247772216797,3.01031231880188,2.6104352474212646,-0.03111782670021057,4
238,-37.70231246948242,52.9633903503418,9.74096965789795,2.6729400157928467,2.433114528656006,0.13527467846870422,4
239,-34.5579948425293,28.61878776550293,8.123909950256348,2.9103543758392334,2.947514533996582,0.2140854448080063,4
240,-47.6907958984375,27.439973831176758,6.941280841827393,2.2071807384490967,2.661334276199341,0.19042998552322388,4
241,-77.98795318603516,48.669898986816406,6.213326930999756,1.622556447982788,2.800872325897217,-0.025820735841989517,4
242,-106.84255981445312,73.89055633544922,9.617218017578125,0.56219083070755,2.598832368850708,-0.22030547261238098,4
243,-112.03958129882812,90.2096939086914,12.106820106506348,-0.25704720616340637,1.0645110607147217,-0.12430460751056671,4
244,-93.97109985351562,95.88926696777344,11.488633155822754,-0.09042882919311523,0.4928756654262543,0.18909820914268494,4
245,-67.66983032226562,90.7908935546875,9.925405502319336,-1.28643000125885,-1.408989667892456,0.2055218666791916,4
246,-41.18674850463867,87.42149353027344,6.674310207366943,-1.9538301229476929,-2.7409708499908447,0.2524239718914032,4
247,-10.865117073059082,71.76396179199219,7.169299602508545,-2.891031265258789,-3.8654472827911377,0.16423237323760986,4
248,10.346014022827148,50.6230354309082,7.534974098205566,-4.662294387817383,-4.293761253356934,0.35892021656036377,4
249,17.92936897277832,41.968780517578125,9.001897811889648,-8.456317901611328,-5.062685966491699,1.2262698411941528,4
250,28.145645141601562,34.23353576660156,10.122841835021973,-8.802331924438477,-5.306506633758545,0.9315710663795471,4
251,28.990036010742188,9.505656242370605,13.444892883300781,-8.72939682006836,-3.093701124191284,2.4253287315368652,4
252,27.526290893554688,-24.153759002685547,12.20254898071289,-9.082521438598633,-4.347838878631592,1.0003823041915894,4
253,24.196807861328125,-53.052860260009766,21.680727005004883,-9.411171913146973,-3.517547607421875,2.039809465408325,4
254,20.037996292114258,-77.610595703125,21.700830459594727,-8.697613716125488,-3.97976016998291,1.2389743328094482,4
255,16.213768005371094,-100.86279296875,27.171249389648438,-9.084953308105469,-4.907909393310547,0.7476748824119568,4
256,14.132587432861328,-124.27767944335938,31.60348129272461,-8.288904190063477,-5.66856575012207,0.008701111190021038,4
257,25.602956771850586,-149.411376953125,37.522308349609375,-6.890047073364258,-5.2723469734191895,0.49920734763145447,4
258,35.3592414855957,-160.11354064941406,35.2568473815918,-5.894086837768555,-5.357088088989258,0.854761004447937,4
259,57.10258865356445,-157.90505981445312,33.558128356933594,-3.94266414642334,-4.64412784576416,1.3888436555862427,4
260,82.91545104980469,-139.01849365234375,29.411073684692383,-3.1012685298919678,-4.65302038192749,1.8745720386505127,4
261,104.89689636230469,-115.28191375732422,22.600011825561523,-1.226725697517395,-3.659785032272339,2.0697181224823,4
262,119.39308166503906,-87.78945922851562,17.081296920776367,-0.47814640402793884,-2.880095958709717,2.554859161376953,4
263,113.19769287109375,-61.11235809326172,9.960515975952148,0.31803420186042786,-2.2488183975219727,2.637763738632202,4
264,84.9728775024414,-43.66163635253906,3.2802135944366455,1.7311145067214966,-0.6133878827095032,2.48642635345459,4
265,52.010231018066406,-38.44624328613281,1.431223750114441,2.6247212886810303,0.25226250290870667,2.3658790588378906,4
266,20.847652435302734,-33.61064529418945,-1.359052062034607,3.6643147468566895,1.4417625665664673,2.1654107570648193,4
267,0.511463463306427,-24.878217697143555,-5.155725002288818,4.209072113037109,1.6477009057998657,2.1677119731903076,4
268,-15.422533988952637,-9.851790428161621,-8.888453483581543,5.024423122406006,2.2284085750579834,1.932114839553833,4
269,-26.3260498046875,5.4863457679748535,-10.869882583618164,5.423919200897217,2.419543743133545,1.7349286079406738,4
270,-25.326793670654297,19.451650619506836,-10.192511558532715,5.59791374206543,2.459954023361206,1.5227386951446533,4
271,-19.480836868286133,28.100154876708984,-10.074772834777832,5.851119518280029,2.399484634399414,1.4285051822662354,4
272,-15.058133125305176,25.90325927734375,-9.61695671081543,5.809551239013672,2.3874664306640625,1.2892707586288452,4
273,-10.29833984375,30.323205947875977,-8.99063491821289,5.4076433181762695,2.422907829284668,0.9922916293144226,4
274,-0.02614925429224968,38.45115661621094,-6.191816806793213,5.7263593673706055,2.7818288803100586,0.7795758843421936,4
275,12.13985824584961,39.65248489379883,-3.473074436187744,5.074603080749512,2.743652820587158,0.6236628293991089,4
276,20.513511657714844,41.77967834472656,-0.11569570004940033,5.216690540313721,3.1674349308013916,0.5719992518424988,4
277,28.12428855895996,44.71183395385742,3.494469165802002,5.884207248687744,3.4196617603302,1.034935474395752,4
278,21.67910385131836,46.789825439453125,2.434265613555908,5.335497856140137,4.0275421142578125,0.7325155138969421,4
279,3.5777742862701416,54.75370788574219,1.6423715353012085,4.668368816375732,4.246323585510254,0.7005749940872192,4
280,-23.585721969604492,69.50247192382812,2.3241076469421387,4.704789638519287,4.598894119262695,0.8415643572807312,4
281,-64.1156005859375,72.76367950439453,3.552269697189331,3.546567916870117,4.147784233093262,0.8051460981369019,4
282,-94.05895233154297,67.03072357177734,2.140678644180298,3.532090663909912,4.6440839767456055,0.5881633758544922,4
283,-94.74781036376953,60.89215850830078,0.32760682702064514,3.207456350326538,4.630675315856934,0.35199305415153503,4
284,-89.00053405761719,60.649837493896484,1.9635359048843384,2.4925382137298584,3.4311108589172363,0.4552193880081177,4
285,-63.98868942260742,59.707828521728516,2.165408134460449,2.5439276695251465,3.344254732131958,0.542392909526825,4
286,-51.81705856323242,55.124778747558594,0.08630464226007462,1.7805012464523315,2.5161125659942627,0.5451078414916992,4
287,-49.43767166137695,51.49303436279297,0.0005793702439405024,2.108633279800415,2.3278980255126953,0.8713063597679138,4
288,-56.649051666259766,44.415611267089844,-1.115559697151184,1.2308999300003052,1.5654805898666382,0.8128116726875305,4
289,-57.82149124145508,52.1734733581543,0.9731834530830383,1.253296971321106,1.4195340871810913,0.8792313933372498,4
290,-51.0665168762207,63.57706069946289,2.8741636276245117,0.09658507257699966,0.9402244687080383,0.6889914274215698,4
291,-59.55298614501953,79.08951568603516,4.248363018035889,-1.3958863019943237,0.1944231390953064,0.5505263805389404,4
292,-59.94536590576172,102.7574462890625,2.5788722038269043,-3.4243216514587402,-1.590911626815796,0.3535284399986267,4
293,-62.987998962402344,114.36917114257812,4.571796417236328,-5.230184078216553,-3.2310867309570312,0.1179460883140564,4
294,-54.70305633544922,101.08984375,10.171510696411133,-9.062539100646973,-6.094871997833252,-0.5019917488098145,4
295,-38.576622009277344,69.22701263427734,15.628278732299805,-10.751055717468262,-7.777863025665283,-1.0051325559616089,4
296,-16.933210372924805,37.33357620239258,19.672691345214844,-11.379705429077148,-8.24078369140625,-1.1004250049591064,4
297,15.597566604614258,-9.771764755249023,20.368803024291992,-11.478309631347656,-8.442928314208984,-1.2731869220733643,4
298,46.568443298339844,-73.1603012084961,16.154067993164062,-10.87221622467041,-8.439119338989258,-1.7348122596740723,4
299,71.1157455444336,-123.64865112304688,12.660470962524414,-9.355752944946289,-7.991716384887695,-2.3321309089660645,4
300,96.61659240722656,-164.48114013671875,12.964686393737793,-8.12075424194336,-6.873194694519043,-1.6227184534072876,4
301,120.99201202392578,-176.07261657714844,12.78576374053955,-5.7482428550720215,-5.276650905609131,-1.2989296913146973,4
302,130.06312561035156,-172.8320770263672,14.176533699035645,-4.447421073913574,-3.952406883239746,-0.46626925468444824,4
303,122.21434020996094,-163.03866577148438,17.83902931213379,-3.0128238201141357,-2.5903797149658203,0.10439490526914597,4
304,104.90694427490234,-142.23841857910156,23.980079650878906,-0.920397162437439,-0.9921000599861145,0.30914628505706787,4
305,75.93661499023438,-107.29258728027344,31.058246612548828,-0.06528756022453308,-0.08706434816122055,0.8103176355361938,4
306,37.03847885131836,-72.2756118774414,30.82590675354004,1.4307870864868164,0.8950568437576294,1.0142261981964111,4
307,1.8325390815734863,-40.41293716430664,25.174007415771484,1.7474308013916016,1.423408031463623,1.4917266368865967,4
308,-21.711917877197266,-13.168456077575684,16.618688583374023,2.370427370071411,1.4876102209091187,1.7174713611602783,4
309,-43.78717803955078,16.376548767089844,10.926915168762207,2.825955867767334,1.6277010440826416,1.8653894662857056,4
310,-57.59541702270508,49.62627029418945,5.953027725219727,2.5323843955993652,1.242384910583496,1.9526787996292114,4
311,-58.52619934082031,70.05265045166016,3.2296810150146484,2.280940055847168,1.1027981042861938,1.9303951263427734,4
312,-48.925254821777344,82.95915985107422,1.2487605810165405,1.6350858211517334,0.39212408661842346,2.0212135314941406,4
313,-31.622631072998047,79.8428955078125,-1.1099549531936646,1.074620008468628,0.44681382179260254,1.8681223392486572,4
314,-10.866026878356934,59.32778549194336,-0.2799179255962372,0.6184778809547424,0.33732539415359497,1.8443516492843628,4
315,6.23401403427124,28.32552719116211,-0.13444387912750244,0.10350704193115234,-0.07132314145565033,1.9489350318908691,4
316,12.937400817871094,3.570042610168457,0.09606478363275528,0.07385072857141495,0.20734544098377228,1.9249706268310547,4
317,10.524423599243164,-17.357614517211914,-1.0490264892578125,-0.22202527523040771,0.12734459340572357,1.937841773033142,4
318,7.956439018249512,-33.99761199951172,-1.4917250871658325,0.04589373990893364,0.46906277537345886,1.9001177549362183,4
319,-5.003454685211182,-35.9451789855957,-0.8735942840576172,0.32317692041397095,0.41943788528442383,1.899596929550171,4
320,-22.946903228759766,-31.687551498413086,0.08736751228570938,0.6012977361679077,0.5102704167366028,1.8590006828308105,4
321,-36.338218688964844,-21.304832458496094,2.0884132385253906,0.8247392177581787,0.10201365500688553,1.8780220746994019,4
322,-55.08344650268555,-5.9690656661987305,4.647087574005127,1.0453062057495117,-0.05572552978992462,1.8594145774841309,4
323,-58.92061996459961,9.354958534240723,6.109032154083252,1.013314127922058,-0.24709491431713104,1.8146532773971558,4
324,-54.55158996582031,18.493881225585938,4.793849468231201,1.0683374404907227,-1.1622430086135864,1.9596383571624756,4
325,-42.1152458190918,26.804901123046875,1.3270224332809448,1.0029264688491821,-1.16592538356781,1.8872721195220947,4
326,-38.14458084106445,39.361793518066406,-0.74422287940979,0.6728600859642029,-1.9195873737335205,1.9668612480163574,4
327,-36.29374694824219,45.83539581298828,-5.380743503570557,0.4592297077178955,-1.9697790145874023,1.8589786291122437,4
328,-30.307594299316406,42.8762321472168,-7.6521735191345215,-0.1371833086013794,-2.489856719970703,1.8401762247085571,4
329,-27.415294647216797,27.695985794067383,-11.803812026977539,-0.26648327708244324,-2.5645229816436768,1.660813331604004,4
330,-22.52056121826172,13.580610275268555,-12.763496398925781,-0.6522626876831055,-3.1212494373321533,1.5738918781280518,4
331,-13.156865119934082,1.6794217824935913,-12.470443725585938,-0.712367057800293,-3.145232677459717,1.4021245241165161,4
332,-8.73917293548584,-6.787911415100098,-9.456011772155762,-0.6835470795631409,-3.426521062850952,1.2600936889648438,4
333,-11.834391593933105,-10.174674034118652,-6.9899444580078125,-0.4777134358882904,-3.422029495239258,1.1173161268234253,4
334,-13.719696998596191,-7.92085075378418,-4.912251949310303,-0.47396761178970337,-3.434502124786377,1.0884342193603516,4
335,-3.341946840286255,1.3624956607818604,-0.2530335485935211,-0.36000850796699524,-3.7791836261749268,1.030043601989746,4
336,5.733727931976318,12.464407920837402,3.520601987838745,-0.46953150629997253,-3.520512819290161,1.074765682220459,4
337,17.555646896362305,23.251239776611328,6.441339492797852,-0.7350080609321594,-3.8137059211730957,1.1556932926177979,4
338,32.74761199951172,24.054283142089844,8.260266304016113,-0.6796767115592957,-3.7339894771575928,1.078377366065979,4
339,39.18985366821289,22.41322898864746,10.26591968536377,-1.044842004776001,-3.2657485008239746,1.2056137323379517,4
340,30.76736068725586,18.49094009399414,11.384908676147461,-1.1366890668869019,-2.989799737930298,1.22941255569458,4
341,13.146515846252441,9.590075492858887,7.221808433532715,-1.3805623054504395,-2.840949296951294,1.3391038179397583,4
342,-5.539227485656738,-3.4582080841064453,0.4232746362686157,-1.305536150932312,-2.6525368690490723,1.3465962409973145,4
343,-13.013118743896484,-16.29839324951172,-7.314590930938721,-1.4055551290512085,-2.8365156650543213,1.3812521696090698,4
344,-13.306465148925781,-23.146087646484375,-9.362421989440918,-1.1422665119171143,-2.932558536529541,1.2933053970336914,4
345,-9.477267265319824,-25.680492401123047,-10.40472412109375,-0.9391674995422363,-2.6665265560150146,1.275559902191162,4
346,-4.9686479568481445,-18.163055419921875,-12.715054512023926,-0.7324062585830688,-2.9026405811309814,1.182125449180603,4
347,-7.3858866691589355,-13.415661811828613,-16.079225540161133,-0.4044542908668518,-2.9213342666625977,1.0318920612335205,4
348,-10.130172729492188,-7.526246547698975,-19.036672592163086,-0.31785649061203003,-2.8369483947753906,0.9097425937652588,4
349,-17.51871681213379,11.642590522766113,-22.087507247924805,-0.3120642304420471,-2.843557357788086,0.7534430623054504,4
350,-18.744585037231445,27.02161407470703,-26.579835891723633,-0.5458154082298279,-3.1997873783111572,0.566081702709198,4
351,-15.699117660522461,39.88398361206055,-33.01184844970703,-0.77222740650177,-3.528285264968872,0.28184008598327637,4
352,1.9880776405334473,43.40760040283203,-32.66884231567383,-1.155336856842041,-3.277730703353882,-0.03602832183241844,4
353,15.826963424682617,31.44072914123535,-29.299766540527344,-1.4636991024017334,-3.2014734745025635,-0.40727463364601135,4
354,15.729484558105469,11.424874305725098,-21.018470764160156,-1.5153672695159912,-3.0369303226470947,-0.7920048832893372,4
355,15.95484447479248,-5.726993083953857,-12.180177688598633,-1.5218857526779175,-2.9838039875030518,-1.0554614067077637,4
356,16.429962158203125,-10.831889152526855,-8.46298599243164,-1.5420215129852295,-2.8926520347595215,-1.1755197048187256,4
357,13.133787155151367,-9.87926959991455,-8.95939826965332,-1.5372545719146729,-2.703670024871826,-1.2265905141830444,4
358,0.4945504069328308,-9.467635154724121,-9.547472953796387,-1.3711938858032227,-2.4734082221984863,-1.3111143112182617,4
359,-8.09272575378418,-3.6210618019104004,-8.564485549926758,-1.3723393678665161,-2.611607313156128,-1.4043023586273193,4
360,-11.858391761779785,9.517356872558594,-3.6640329360961914,-0.916076123714447,-2.8921091556549072,-1.6045961380004883,4
361,-8.032254219055176,20.60420036315918,1.41056489944458,-1.2123491764068604,-3.001769542694092,-1.6057153940200806,4
362,4.924596309661865,35.081329345703125,1.7613886594772339,-1.4600279331207275,-2.944857120513916,-1.5796836614608765,4
363,23.58020782470703,40.755558013916016,-3.2127113342285156,-1.8841842412948608,-2.8266959190368652,-1.5404481887817383,4
364,29.703073501586914,30.785507202148438,-4.907578468322754,-2.0880355834960938,-2.541409969329834,-1.6099109649658203,4
365,31.50733184814453,14.658002853393555,-3.1716434955596924,-2.3698861598968506,-2.2332475185394287,-1.6786290407180786,4
366,37.71397018432617,-7.04019832611084,-3.1792304515838623,-2.5766425132751465,-1.7310506105422974,-1.674357533454895,4
367,43.91872787475586,-21.877296447753906,-3.307281970977783,-2.445080518722534,-1.3579362630844116,-1.7143141031265259,4
368,40.86497116088867,-30.35955810546875,-4.286412715911865,-2.2365822792053223,-0.7130224704742432,-1.68772554397583,4
369,32.40011978149414,-39.682621002197266,-5.055392265319824,-1.9355905055999756,-0.2291206270456314,-1.7062214612960815,4
370,19.65375518798828,-44.4619140625,-6.888396263122559,-1.3555655479431152,0.23811998963356018,-1.7230185270309448,4
371,-0.10845281183719635,-32.34648513793945,-8.489709854125977,-0.7917742729187012,-0.1807190477848053,-1.92147958278656,4
372,-31.96822738647461,-10.61204719543457,-4.841320991516113,-0.5970365405082703,-0.23002159595489502,-2.0318703651428223,4
373,-56.48551940917969,8.93040943145752,-0.9386082291603088,-0.5756793022155762,-0.38968679308891296,-2.0866122245788574,4
374,-60.0369758605957,24.505931854248047,4.635317325592041,-0.6903049349784851,-0.45684507489204407,-2.0649914741516113,4
375,-39.70005416870117,38.75188064575195,11.729337692260742,-0.9807601571083069,-1.2791119813919067,-2.063570499420166,4
376,-4.544240474700928,40.23081588745117,16.110666275024414,-1.3642067909240723,-1.350968599319458,-1.9387911558151245,4
377,22.551002502441406,30.73354148864746,19.184785842895508,-1.8848373889923096,-1.437184453010559,-1.8071354627609253,4
378,33.9914436340332,11.755833625793457,21.897350311279297,-2.0658583641052246,-1.0759421586990356,-1.5919620990753174,4
379,30.206167221069336,-13.389433860778809,22.41031265258789,-2.2052788734436035,-0.7327995300292969,-1.3779879808425903,4
380,19.658763885498047,-31.062231063842773,25.008010864257812,-1.9827446937561035,-0.4350142478942871,-1.1450859308242798,4
381,4.213968753814697,-30.78174591064453,25.352231979370117,-1.5491747856140137,-0.18536686897277832,-0.8779744505882263,4
382,-10.15722942352295,-24.62273597717285,23.38656997680664,-1.1354657411575317,-0.04444057494401932,-0.5987606048583984,4
383,-7.431308269500732,-17.78237533569336,25.5428466796875,-0.9011893272399902,-0.08009300380945206,-0.36265069246292114,4
384,-6.902424335479736,-7.68048095703125,28.05499839782715,-0.7685546278953552,-1.6286958456039429,-0.2844797670841217,4
385,-3.426604747772217,7.8057122230529785,30.804922103881836,-0.7365982532501221,-1.559142827987671,-0.0024247390683740377,4
386,3.9326884746551514,31.118175506591797,31.27605628967285,-0.8355584144592285,-1.3582680225372314,0.31353649497032166,4
387,7.290581703186035,47.17643737792969,31.33087730407715,-1.186255931854248,-1.2230616807937622,0.6217420101165771,4
388,11.623584747314453,53.15599060058594,30.792234420776367,-1.899453043937683,-0.9795364737510681,0.9104701280593872,4
389,16.98954200744629,43.74561309814453,30.58883285522461,-2.4957573413848877,-0.7613773941993713,1.2121143341064453,4
390,24.045373916625977,24.618709564208984,29.98252296447754,-3.271609306335449,-0.46671977639198303,1.4967559576034546,4
391,26.49485969543457,0.49254485964775085,30.339502334594727,-3.609348773956299,-0.21505776047706604,1.795146107673645,4
392,23.472131729125977,-31.13726043701172,31.549009323120117,-3.406689405441284,0.20735608041286469,2.153029203414917,4
393,25.85881996154785,-53.337345123291016,32.09342956542969,-2.8102314472198486,0.6006758809089661,2.537013053894043,4
394,18.629150390625,-63.53138732910156,32.590065002441406,-2.07322359085083,0.40811431407928467,2.7710509300231934,4
395,7.660099506378174,-58.11382293701172,33.06922149658203,-1.398808479309082,1.2976772785186768,3.259884834289551,4
396,-2.593205213546753,-48.334327697753906,32.774173736572266,0.021113961935043335,-0.017594607546925545,3.4686131477355957,4
397,-18.684091567993164,-31.16863441467285,32.22230529785156,0.5845293998718262,0.05978066846728325,3.822634220123291,4
398,-26.838340759277344,-9.588122367858887,26.73485565185547,0.717773973941803,0.2108532041311264,4.120759010314941,4
399,-9.065400123596191,18.638273239135742,21.692174911499023,0.7022757530212402,0.11959180235862732,4.365551948547363,4
400,7.4189653396606445,43.422706604003906,16.38414192199707,0.4012533724308014,0.34186872839927673,4.546001434326172,4
401,17.716739654541016,52.958919525146484,10.96810245513916,-0.20680850744247437,0.4725736081600189,4.661820411682129,4
402,17.788860321044922,56.242591857910156,6.761861801147461,-0.6805377006530762,0.9996386766433716,4.770619869232178,4
403,12.422784805297852,45.65983581542969,1.8980900049209595,-1.569529414176941,1.1947864294052124,4.76993465423584,4
404,-1.7405871152877808,23.6085262298584,-0.8742300271987915,-1.7834179401397705,1.256141185760498,4.871347427368164,4
405,-6.517125606536865,-10.285470962524414,-4.115497589111328,-1.9706631898880005,1.4255216121673584,4.889670372009277,4
406,2.496673822402954,-42.92057418823242,-6.207868576049805,-1.901618242263794,1.4075357913970947,4.851564884185791,4
407,14.529242515563965,-54.898677825927734,-5.022519111633301,-1.3853522539138794,1.5418980121612549,4.818875312805176,4
408,20.098617553710938,-50.52484130859375,-0.703536868095398,-1.0915495157241821,1.764215350151062,4.677567481994629,4
409,18.67599105834961,-39.91694641113281,4.064726829528809,-0.7128363847732544,2.03352952003479,4.606288909912109,4
410,7.817561149597168,-28.430110931396484,6.942887783050537,-0.28818291425704956,2.2132272720336914,4.636621475219727,4
411,-8.572762489318848,-16.526124954223633,9.033299446105957,-0.11887187510728836,2.413635492324829,4.646398544311523,4
412,-29.5242977142334,-8.232916831970215,10.370101928710938,0.03577761352062225,2.312379837036133,4.715892791748047,4
413,-44.17762756347656,-1.4144518375396729,11.820971488952637,0.050307467579841614,2.0252089500427246,4.780575275421143,4
414,-53.65564727783203,4.1673359870910645,13.300350189208984,0.041449595242738724,1.8639389276504517,4.862748146057129,4
415,-51.70299530029297,8.738797187805176,18.476282119750977,0.026200126856565475,1.1729817390441895,5.0173187255859375,4
416,-43.39215850830078,8.942541122436523,22.416614532470703,0.018181297928094864,0.8950760364532471,5.205249786376953,4
417,-42.94956970214844,10.332734107971191,26.936494827270508,-0.06874123960733414,0.30978256464004517,5.435020923614502,4
418,-52.535823822021484,15.645086288452148,30.696598052978516,-0.05984322726726532,0.06722614914178848,5.711978435516357,4
419,-65.13514709472656,12.308606147766113,34.13790512084961,-0.18300771713256836,-0.6981167793273926,6.0511040687561035,4
420,-75.21894073486328,-4.387266159057617,33.64643096923828,-0.15269869565963745,-1.2096543312072754,6.418491840362549,4
421,-77.17665100097656,-24.3543758392334,30.064441680908203,0.06967659294605255,-2.2223830223083496,6.8712358474731445,4
422,-65.71263122558594,-31.2496337890625,27.06831932067871,0.3862549066543579,-2.4747092723846436,7.136246681213379,4
423,-54.61856460571289,-24.5214786529541,25.418386459350586,0.6785276532173157,-3.310547113418579,7.444826602935791,4
424,-43.0543212890625,-14.928467750549316,19.594608306884766,0.9238199591636658,-3.6621551513671875,7.6793437004089355,4
425,-24.092884063720703,0.9974173307418823,13.630196571350098,0.9755060076713562,-4.157416343688965,7.8943586349487305,4
426,-0.22504845261573792,22.190357208251953,10.604002952575684,0.8519264459609985,-4.247161865234375,8.003683090209961,4
427,16.462364196777344,44.23335647583008,12.085503578186035,0.4358088970184326,-4.337505340576172,8.130419731140137,4
428,24.728914260864258,51.81985855102539,10.682791709899902,-0.17061284184455872,-4.106667518615723,8.227278709411621,4
429,21.963722229003906,43.56687545776367,4.968632698059082,-0.686876654624939,-3.7794888019561768,8.285422325134277,4
430,5.723769664764404,28.90329933166504,0.42038753628730774,-1.110674262046814,-3.713092565536499,8.328741073608398,4
431,-13.204352378845215,13.674261093139648,-3.487212896347046,-1.21369469165802,-3.678694009780884,8.269916534423828,4
432,-26.656015396118164,15.01648235321045,-7.780300140380859,-1.3831959962844849,-3.971547842025757,8.251279830932617,4
433,-32.58733367919922,18.46663475036621,-13.528482437133789,-1.5564836263656616,-4.302032470703125,8.181498527526855,4
434,-29.799299240112305,9.341712951660156,-18.679712295532227,-1.7154796123504639,-4.899826526641846,8.05456256866455,4
435,-11.170273780822754,-8.09584903717041,-15.99621868133545,-1.6236158609390259,-4.757211208343506,7.785309791564941,4
436,-5.934985637664795,-15.997329711914062,-6.477825164794922,-1.5272537469863892,-4.993152618408203,7.624538898468018,4
437,-16.734350204467773,-10.309915542602539,4.181138515472412,-1.3663231134414673,-4.982730865478516,7.567435264587402,4
438,-26.894927978515625,-3.3522377014160156,9.436970710754395,-1.23777437210083,-5.362644672393799,7.6013288497924805,4
439,-34.8365364074707,-0.6015426516532898,10.848626136779785,-1.2693116664886475,-5.644014358520508,7.720580101013184,4
440,-33.968589782714844,7.824031829833984,11.835569381713867,-1.2995615005493164,-5.46609354019165,7.852113246917725,4
441,-19.581026077270508,29.36548614501953,11.146240234375,-1.6063998937606812,-6.085199356079102,8.059423446655273,4
442,3.66436505317688,53.77645492553711,9.798331260681152,-1.8814561367034912,-6.037465572357178,8.153183937072754,4
443,27.22321891784668,67.75631713867188,7.431131362915039,-2.6672215461730957,-6.047466278076172,8.336479187011719,4
444,35.19795608520508,65.04093170166016,4.150257110595703,-3.2001514434814453,-5.899902820587158,8.257821083068848,4
445,34.118343353271484,52.261322021484375,3.57023549079895,-3.7436444759368896,-5.520956516265869,8.1867094039917,4
446,18.511367797851562,28.239967346191406,1.2017111778259277,-4.351916313171387,-5.23136043548584,8.198107719421387,4
447,-2.8476295471191406,-3.5144760608673096,-3.6140387058258057,-4.635996341705322,-5.082535266876221,8.16507339477539,4
448,-9.043976783752441,-26.440471649169922,-5.369168758392334,-4.462873935699463,-5.193382740020752,8.01032543182373,4
449,-7.941677093505859,-53.59084701538086,-8.667469024658203,-4.22156286239624,-5.217296123504639,8.001409530639648,4
450,1.5258177518844604,-63.83484649658203,-13.27411937713623,-3.3929450511932373,-5.481403827667236,7.740360260009766,4
451,17.199758529663086,-64.37025451660156,-15.515453338623047,-2.748940944671631,-5.3289265632629395,7.7051897048950195,4
452,38.5654182434082,-46.18156433105469,-14.82950496673584,-1.6694241762161255,-4.9701714515686035,7.437175750732422,4
453,62.127052307128906,-18.898962020874023,-10.249709129333496,-1.7226643562316895,-4.847337245941162,7.580685615539551,4
454,79.26380920410156,5.9701151847839355,-9.345770835876465,-1.579707145690918,-3.9845759868621826,7.609430313110352,4
455,89.09855651855469,26.835786819458008,-9.228854179382324,-1.661985993385315,-3.2394444942474365,7.542506694793701,4
456,86.07177734375,43.12642288208008,-6.26624059677124,-1.948906660079956,-2.5792596340179443,7.4156341552734375,4
457,82.03179931640625,48.109561920166016,-0.8925239443778992,-2.447957754135132,-1.4807100296020508,7.434202194213867,4
458,62.763423919677734,44.758399963378906,0.2693850100040436,-3.141902446746826,-0.993306040763855,7.426916599273682,4
459,32.67884063720703,36.18391418457031,-0.023439453914761543,-3.667685031890869,-0.32633525133132935,7.463038921356201,4
460,-2.7668001651763916,19.14828872680664,3.6380951404571533,-3.8855299949645996,-0.018605180084705353,7.39303731918335,4
461,-35.78540802001953,-2.150519609451294,5.9160871505737305,-4.016770362854004,-0.16263347864151,7.361486911773682,4
462,-54.107666015625,-20.531320571899414,8.705099105834961,-3.904989242553711,-0.6899725198745728,7.32876443862915,4
463,-59.435733795166016,-31.622331619262695,13.732219696044922,-3.591719150543213,-1.2332210540771484,7.3806867599487305,4
464,-37.24492263793945,-37.13499450683594,15.904873847961426,-3.3033175468444824,-1.6610530614852905,7.572061061859131,4
465,1.1346321105957031,-30.28300666809082,15.436870574951172,-2.8328771591186523,-1.952022910118103,7.756099224090576,4
466,37.003814697265625,-18.9338436126709,15.502996444702148,-2.875711679458618,-1.7577120065689087,8.031458854675293,4
467,49.16445541381836,-8.424120903015137,14.42191219329834,-2.774550437927246,-1.34968900680542,8.225717544555664,4
468,37.986045837402344,-8.338991165161133,12.716890335083008,-2.5571045875549316,-0.7547896504402161,8.39410400390625,4
469,28.316938400268555,-7.775500297546387,6.710343360900879,-2.4366629123687744,-0.6478921175003052,8.434198379516602,4
470,29.41510772705078,-23.17226791381836,2.837214708328247,-2.1664085388183594,-0.06630877405405045,8.58773422241211,4
471,18.94710922241211,-39.07811737060547,-0.26739493012428284,-1.9733107089996338,0.028959833085536957,8.563055992126465,4
472,14.948192596435547,-50.10649871826172,-0.42514142394065857,-1.2935761213302612,0.3095594048500061,8.594172477722168,4
473,17.846269607543945,-46.292781829833984,0.19259165227413177,-1.2832996845245361,0.2586270868778229,8.510446548461914,4
474,25.34005355834961,-34.539146423339844,1.4626322984695435,-0.5675228834152222,0.6633234620094299,8.57837963104248,4
475,26.025936126708984,-19.57805824279785,0.4681490361690521,-0.3612334728240967,0.9149433970451355,8.57124137878418,4
476,17.514984130859375,1.5961297750473022,-0.8526269197463989,-0.36209654808044434,1.0539597272872925,8.528579711914062,4
477,12.412806510925293,19.422916412353516,-2.632488965988159,-0.364590585231781,1.4544181823730469,8.547704696655273,4
478,1.5869524478912354,28.087594985961914,-6.676016330718994,-0.6991962790489197,1.5173046588897705,8.489542007446289,4
479,-13.564282417297363,21.00851058959961,-13.212812423706055,-0.9627960920333862,1.5325114727020264,8.434062957763672,4
480,-17.593524932861328,-4.294057369232178,-19.54350471496582,-1.1977896690368652,1.261584997177124,8.307555198669434,4
481,-17.33359146118164,-31.427249908447266,-24.4252872467041,-0.8646417856216431,1.0824476480484009,8.222405433654785,4
482,-17.99393653869629,-55.681610107421875,-30.465091705322266,-0.7959816455841064,1.0567208528518677,7.924888610839844,4
483,-23.957761764526367,-64.07929229736328,-33.0651969909668,0.02020661160349846,0.7630875110626221,7.7085137367248535,4
484,-33.066463470458984,-61.37228775024414,-34.30324172973633,0.4729408919811249,0.740006685256958,7.310276031494141,4
485,-43.200923919677734,-47.55887985229492,-34.94330596923828,1.0577833652496338,0.48352545499801636,6.953474521636963,4
486,-41.95372009277344,-26.3582820892334,-32.38818359375,1.7007955312728882,-0.04887259751558304,6.666128635406494,4
487,-24.071861267089844,3.7172584533691406,-27.189510345458984,1.7543811798095703,-0.18817386031150818,6.21853494644165,4
488,-2.4501800537109375,34.4143180847168,-22.07616424560547,1.6814539432525635,-0.4939667880535126,5.920551300048828,4
489,9.65532398223877,56.43517303466797,-17.908687591552734,1.2966115474700928,-0.6494837999343872,5.674309730529785,4
490,7.663222312927246,69.50245666503906,-14.678942680358887,0.49335014820098877,-0.4833701252937317,5.3836212158203125,4
491,-7.360384464263916,66.1875991821289,-10.903965950012207,-0.22384993731975555,-0.47867920994758606,5.236940860748291,4
492,-25.774003982543945,45.82634735107422,-7.037252426147461,-0.9478774666786194,-0.658279299736023,5.123697757720947,4
493,-39.0405387878418,9.610405921936035,-4.021183490753174,-1.3931190967559814,-0.8055218458175659,5.0335822105407715,4
494,-49.69294357299805,-27.71811294555664,-2.594766139984131,-1.2638570070266724,-1.4098269939422607,5.093807220458984,4
495,-46.96250915527344,-58.75728225708008,-2.7299177646636963,-0.8461880087852478,-1.953473448753357,5.125650882720947,4
496,-30.57942008972168,-77.58076477050781,-1.4825268983840942,-0.4986042082309723,-1.9898709058761597,5.007933139801025,4
497,-8.173357009887695,-83.43672180175781,-2.302811622619629,0.7970798015594482,-2.2474660873413086,5.122021198272705,4
498,15.396944046020508,-72.39642333984375,-5.087978839874268,1.2183451652526855,-2.2538599967956543,5.0419511795043945,4
499,35.80569076538086,-50.985801696777344,-6.052115440368652,2.3680810928344727,-1.9893652200698853,5.062031269073486,4
500,55.62726974487305,-19.79290771484375,-6.9968791007995605,2.4520812034606934,-1.8204267024993896,4.998500823974609,4
501,62.62825393676758,16.986190795898438,-5.711292266845703,2.622095823287964,-1.2074122428894043,4.913934707641602,4
502,58.60959243774414,48.81068801879883,-5.031258583068848,2.458094358444214,-0.5829411149024963,4.852325439453125,4
503,31.83188819885254,62.00154495239258,-6.274169445037842,1.7604244947433472,-0.009233454242348671,4.78187370300293,4
504,8.278961181640625,53.788883209228516,-9.642966270446777,1.1833935976028442,0.06535575538873672,4.815095901489258,4
505,-15.20592212677002,25.135738372802734,-13.47214412689209,0.6810194849967957,0.1473766267299652,4.7380242347717285,4
506,-34.62873840332031,-11.492128372192383,-17.458995819091797,0.6079639792442322,-0.13864766061306,4.690840244293213,4
507,-41.20585632324219,-42.7789306640625,-20.433605194091797,0.7168019413948059,-0.6705103516578674,4.5951762199401855,4
508,-42.179779052734375,-61.94114685058594,-22.25356101989746,1.4440572261810303,-1.212725043296814,4.49077033996582,4
509,-34.35298538208008,-65.9277572631836,-23.216796875,1.8799394369125366,-1.705492377281189,4.287219524383545,4
510,-21.434476852416992,-54.95963668823242,-22.18515968322754,2.7811262607574463,-2.047919511795044,4.109611988067627,4
511,-5.783065319061279,-39.48063659667969,-20.358699798583984,3.4799954891204834,-2.010599136352539,3.8327672481536865,4
512,13.985401153564453,-18.28813362121582,-18.571317672729492,4.345641613006592,-1.8666115999221802,3.5987210273742676,4
513,23.91106414794922,4.494755268096924,-16.601327896118164,3.7251956462860107,-2.0438528060913086,3.4820635318756104,4
514,27.51091957092285,26.48226547241211,-16.350887298583984,3.67467999458313,-1.7801355123519897,3.3027429580688477,4
515,27.084867477416992,34.558326721191406,-16.64956283569336,3.333632230758667,-1.264525055885315,3.0167758464813232,4
516,20.703840255737305,43.003822326660156,-16.328508377075195,2.9140422344207764,-1.5052660703659058,3.0998218059539795,4
517,15.308796882629395,45.35347366333008,-17.407527923583984,2.380230188369751,-1.0970996618270874,2.8279364109039307,4
518,15.944503784179688,37.644649505615234,-17.130332946777344,1.8565560579299927,-1.1023095846176147,2.727219581604004,4
519,20.861248016357422,22.457866668701172,-17.41846466064453,1.4389839172363281,-0.6552473902702332,2.4106438159942627,4
520,24.24606704711914,3.649308443069458,-16.23284339904785,1.2858046293258667,-0.9355882406234741,2.4738569259643555,4
521,29.557754516601562,-12.042269706726074,-15.984882354736328,1.364919900894165,-0.6497690677642822,2.3010222911834717,4
522,35.4605712890625,-21.60580825805664,-15.079862594604492,1.4292371273040771,-0.34269148111343384,2.139279842376709,4
523,36.1197624206543,-23.167844772338867,-13.9279146194458,1.9344083070755005,0.19568504393100739,1.9325239658355713,4
524,39.17182922363281,-15.319642066955566,-13.023024559020996,2.150250196456909,0.2719653248786926,1.9192538261413574,4
525,45.956871032714844,-2.5198419094085693,-14.062439918518066,2.2271528244018555,0.8273955583572388,1.7135822772979736,4
526,52.84766387939453,15.567444801330566,-13.416525840759277,2.1336467266082764,1.1842831373214722,1.6101016998291016,4
527,59.44895935058594,27.900720596313477,-10.299236297607422,1.908953070640564,1.4135162830352783,1.6007366180419922,4
528,66.28278350830078,23.54885482788086,-8.634316444396973,1.6342285871505737,2.257084846496582,1.4043534994125366,4
529,67.48429107666016,5.868452072143555,-5.6334967613220215,1.425397515296936,2.7043404579162598,1.4199864864349365,4
530,53.61430740356445,-9.448074340820312,-3.958343982696533,1.4325488805770874,3.639472484588623,1.275465488433838,4
531,30.681753158569336,-5.059858798980713,1.0317729711532593,1.4241271018981934,4.121280193328857,1.2291744947433472,4
532,6.592060565948486,-1.667086124420166,7.214414596557617,1.439005732536316,4.046138763427734,1.3638966083526611,4
533,-18.585952758789062,1.785062313079834,9.637777328491211,1.471415638923645,3.906049966812134,1.5076700448989868,4
534,-41.45578384399414,-3.8593177795410156,12.055293083190918,1.473534107208252,3.6630709171295166,1.630104422569275,4
535,-42.03668212890625,-21.409330368041992,11.779189109802246,1.476802945137024,3.196422815322876,1.7496492862701416,4
536,-20.4764461517334,-37.17184829711914,10.397238731384277,1.7079062461853027,2.908384323120117,1.8176897764205933,4
537,2.7961955070495605,-45.763206481933594,7.63683557510376,2.535365581512451,3.1447291374206543,1.9602817296981812,4
538,17.75282096862793,-48.35174560546875,2.9613780975341797,2.461226224899292,2.7594707012176514,1.9073163270950317,4
539,32.82181930541992,-36.31297302246094,-1.9725996255874634,3.0792641639709473,2.909106969833374,1.9883514642715454,4
540,36.30259704589844,-14.279814720153809,-9.524446487426758,3.568610191345215,3.4029767513275146,1.9545705318450928,4
541,33.58362579345703,4.366313457489014,-15.530652046203613,3.310258388519287,3.6901721954345703,1.6925848722457886,4
542,27.07501792907715,20.039865493774414,-22.622360229492188,3.182037353515625,3.9316649436950684,1.5392653942108154,4
543,18.679014205932617,35.34660720825195,-29.366186141967773,2.8429713249206543,4.504724979400635,1.154880166053772,4
544,11.453977584838867,55.15829086303711,-32.53440856933594,2.475287675857544,4.162012577056885,1.105432391166687,4
545,11.0193510055542,81.02980041503906,-33.66598129272461,1.8679008483886719,4.272261142730713,0.8142845630645752,4
546,25.010841369628906,97.07572174072266,-32.01148223876953,0.6634986996650696,4.53080415725708,0.276001513004303,4
547,31.15829849243164,104.86024475097656,-28.422636032104492,-0.16599486768245697,4.793213844299316,0.12250245362520218,4
548,27.98357582092285,98.04964447021484,-27.762741088867188,-1.5305149555206299,5.267838478088379,-0.2927512526512146,4
549,18.118070602416992,84.52915954589844,-26.241527557373047,-2.3208870887756348,5.553852558135986,-0.34856364130973816,4
550,7.6726298332214355,59.10280990600586,-25.778362274169922,-3.2534196376800537,5.822388648986816,-0.578894853591919,4
551,1.0470613241195679,16.917491912841797,-23.712726593017578,-3.903510093688965,5.847374439239502,-0.7698903679847717,4
552,-7.134411334991455,-30.795604705810547,-23.807771682739258,-3.748793840408325,5.773575305938721,-0.7235879898071289,4
553,-17.45615577697754,-59.14997100830078,-21.630264282226562,-3.47017240524292,5.689075469970703,-0.9455447793006897,4
554,-30.146272659301758,-82.97117614746094,-19.149831771850586,-2.8067731857299805,5.531830310821533,-1.1485077142715454,4
555,-43.20010757446289,-90.25545501708984,-15.922002792358398,-1.6290725469589233,4.850448131561279,-1.1918853521347046,4
556,-41.36560821533203,-88.54900360107422,-11.570788383483887,-0.9066264629364014,4.735729217529297,-1.4905354976654053,4
557,-24.880128860473633,-67.34182739257812,-5.439731121063232,0.2933335304260254,4.337724208831787,-1.4237176179885864,4
558,-2.2012016773223877,-32.307777404785156,-4.1884894371032715,0.26197487115859985,4.101346969604492,-2.0071568489074707,4
559,23.96226692199707,10.331555366516113,-0.20990227162837982,0.6817472577095032,4.096439838409424,-1.9918330907821655,4
560,39.9067497253418,34.08237075805664,3.1734097003936768,0.4765312373638153,4.533846378326416,-2.048558473587036,4
561,49.8399658203125,37.98249816894531,6.481728553771973,0.06297213584184647,5.115386009216309,-2.0256333351135254,4
562,54.876853942871094,33.14031982421875,7.313737392425537,-0.2752007842063904,5.901440620422363,-1.8716766834259033,4
563,40.468963623046875,32.29257583618164,9.207587242126465,-0.7172369956970215,6.1902947425842285,-1.8707079887390137,4
564,7.474465370178223,29.082250595092773,10.474812507629395,-1.1205061674118042,6.064553737640381,-1.8808143138885498,4
565,-41.82799530029297,31.736623764038086,8.120793342590332,-1.426512360572815,6.184401512145996,-1.7568739652633667,4
566,-89.7579345703125,25.419260025024414,4.3213043212890625,-1.7095997333526611,5.612875938415527,-1.6528667211532593,4
567,-112.92889404296875,11.277780532836914,-1.515734314918518,-1.9061514139175415,4.796887397766113,-1.5514247417449951,4
568,-105.46446228027344,-2.4770772457122803,-7.776268482208252,-1.8918534517288208,3.3106846809387207,-1.5423963069915771,4
569,-82.07745361328125,-18.758228302001953,-11.364713668823242,-1.6439597606658936,2.520833969116211,-1.4071587324142456,4
570,-56.522674560546875,-31.424697875976562,-13.8085355758667,-1.3172662258148193,1.644373893737793,-1.439372181892395,4
571,-43.08403778076172,-33.962589263916016,-13.376618385314941,-0.9500789642333984,1.2410119771957397,-1.529830813407898,4
572,-32.712894439697266,-25.120258331298828,-13.681340217590332,-0.5682156085968018,0.8586079478263855,-1.6280924081802368,4
573,-26.08405303955078,-4.646965980529785,-13.350332260131836,-0.40346759557724,0.4679095149040222,-1.8163408041000366,4
574,-21.620800018310547,15.055241584777832,-12.793176651000977,-0.409217894077301,0.34722357988357544,-1.9328422546386719,4
575,-25.792720794677734,30.765830993652344,-13.796576499938965,-0.7597135305404663,0.3136920630931854,-2.1006152629852295,4
576,-32.77634048461914,30.151573181152344,-12.764999389648438,-1.2754671573638916,0.17450179159641266,-2.2881968021392822,4
577,-42.64679718017578,16.6307315826416,-11.11939525604248,-1.5890932083129883,-0.5027435421943665,-2.498387336730957,4
578,-50.417598724365234,5.781036376953125,-7.921082496643066,-1.6787333488464355,-1.1647289991378784,-2.6409833431243896,4
579,-44.855010986328125,-2.2947354316711426,-2.8665435314178467,-1.6796278953552246,-1.4007349014282227,-2.640716075897217,4
580,-18.924570083618164,-2.794670820236206,2.9312241077423096,-1.6708329916000366,-1.6871458292007446,-2.630825996398926,4
581,19.173444747924805,-14.321845054626465,9.470891952514648,-1.5252490043640137,-1.7774021625518799,-2.5626046657562256,4
582,53.250694274902344,-26.207225799560547,16.14606285095215,-1.2426817417144775,-1.5231021642684937,-2.440687417984009,4
583,74.91165924072266,-26.022994995117188,22.951536178588867,-0.7657709121704102,-0.5432965755462646,-2.152263879776001,4
584,88.03114318847656,-22.175931930541992,28.757495880126953,-1.0967888832092285,0.057840827852487564,-1.9598467350006104,4
585,77.76576232910156,-13.932363510131836,34.23102951049805,-0.8515042662620544,1.206095576286316,-1.6011016368865967,4
586,56.24955749511719,-2.930054187774658,35.9423828125,-0.6907049417495728,1.712346076965332,-1.321701169013977,4
587,18.199779510498047,4.910460472106934,35.221927642822266,-0.6938059329986572,2.2279438972473145,-0.9653133749961853,4
588,-32.04892349243164,2.5393197536468506,33.03737258911133,-0.6923405528068542,1.9242345094680786,-0.7074679136276245,4
589,-85.1399154663086,-5.106494426727295,32.12150573730469,-0.7661001682281494,1.461729884147644,-0.3965737819671631,4
590,-115.67237854003906,-9.919419288635254,35.63546371459961,-0.6302286982536316,0.10930207371711731,-0.1708560585975647,4
591,-125.70220184326172,-11.585344314575195,38.976871490478516,-0.8124231696128845,-0.7577625513076782,0.249753937125206,4
592,-121.061279296875,-33.71072006225586,39.54020309448242,-0.4936262369155884,-2.1322202682495117,0.6155198216438293,4
593,-101.92900085449219,-61.80012893676758,36.851322174072266,-0.08054561167955399,-3.148259401321411,1.053979516029358,4
594,-63.798828125,-89.60397338867188,32.041866302490234,0.868725061416626,-4.208330154418945,1.4162489175796509,4
595,-23.257877349853516,-105.95610809326172,26.57904624938965,1.7293184995651245,-4.5007195472717285,1.8456318378448486,4
596,25.603391647338867,-105.37628936767578,24.084402084350586,3.0152721405029297,-4.728879928588867,2.1401453018188477,4
597,68.81181335449219,-83.13683319091797,17.0626163482666,4.137150764465332,-3.9646873474121094,2.4388716220855713,4
598,102.32471466064453,-48.947933197021484,10.169041633605957,4.795719623565674,-3.073643922805786,2.6858649253845215,4
599,117.7574234008789,-11.870628356933594,10.624762535095215,5.360988616943359,-2.0272367000579834,2.7663140296936035,4
600,125.5980224609375,26.790857315063477,14.203042030334473,5.263479709625244,-0.5377868413925171,2.893618583679199,4
601,119.01119995117188,72.34735107421875,19.27521514892578,4.643588066101074,0.588765025138855,3.1864843368530273,4
602,82.88130187988281,110.26053619384766,26.018774032592773,3.6358683109283447,1.8189074993133545,3.4624385833740234,4
603,32.567012786865234,122.42703247070312,31.053964614868164,2.1129653453826904,1.9954185485839844,4.060982704162598,4
604,-27.502267837524414,109.57925415039062,34.18796920776367,0.863747239112854,1.9978270530700684,4.499917030334473,4
605,-91.5726089477539,73.23794555664062,33.22764205932617,-0.08557391166687012,1.2040026187896729,4.955637454986572,4
606,-139.19911193847656,31.192014694213867,27.554780960083008,-0.707514226436615,-0.18250130116939545,5.359592914581299,4
607,-157.81753540039062,-17.072784423828125,19.739103317260742,-0.8530634641647339,-1.467941164970398,5.577633857727051,4
608,-147.65975952148438,-59.49371337890625,7.141688823699951,-0.4391648769378662,-3.129251718521118,5.737795352935791,4
609,-114.91512298583984,-87.1751708984375,-5.80251932144165,0.29951605200767517,-4.282858848571777,5.768415451049805,4
610,-78.94469451904297,-99.97537231445312,-14.833633422851562,1.5870429277420044,-5.746635913848877,5.718881130218506,4
611,-39.825721740722656,-95.59075164794922,-24.213972091674805,2.2519829273223877,-6.22575044631958,5.739794731140137,4
612,13.379073143005371,-73.69522857666016,-33.76079177856445,3.5554616451263428,-6.329855442047119,5.413205623626709,4
613,72.84210205078125,-32.39107894897461,-38.492088317871094,4.138691425323486,-6.245959281921387,5.245108604431152,4
614,123.99675750732422,4.4013142585754395,-43.13548278808594,4.453587055206299,-4.764449596405029,4.726934909820557,4
615,161.8233642578125,31.202247619628906,-43.28800582885742,4.090044021606445,-3.7587010860443115,4.5649638175964355,4
616,180.9474334716797,50.401939392089844,-44.506656646728516,3.5632669925689697,-2.210408926010132,4.2849297523498535,4
617,178.26641845703125,61.292240142822266,-43.52781677246094,3.0942463874816895,0.4215567111968994,3.547363042831421,4
618,156.3209228515625,75.16482543945312,-42.22233963012695,2.295677423477173,1.5984543561935425,3.431161403656006,4
619,113.33927154541016,87.77664947509766,-42.89726257324219,1.3225462436676025,2.900925874710083,3.2163171768188477,4
620,68.67032623291016,82.84910583496094,-39.67631149291992,0.34936827421188354,4.0929718017578125,2.851687431335449,4
621,31.681278228759766,68.48175811767578,-37.538429260253906,-0.463192880153656,4.332639217376709,2.63210391998291,4
622,-8.080355644226074,52.182273864746094,-37.459842681884766,-0.9365297555923462,4.6199188232421875,2.2400693893432617,4
623,-45.60973358154297,24.34192657470703,-33.364173889160156,-1.5577366352081299,4.1864142417907715,1.9955084323883057,4
624,-76.65357971191406,0.020928336307406425,-30.0338134765625,-1.7291944026947021,3.726975440979004,1.663810133934021,4
625,-95.58543395996094,-27.063119888305664,-27.437036514282227,-1.455191969871521,2.451922655105591,1.4043470621109009,4
626,-84.62140655517578,-44.64773178100586,-28.832406997680664,-0.8732123970985413,2.0108587741851807,1.062705159187317,4
627,-39.30564498901367,-59.10607147216797,-29.13146209716797,-0.46989426016807556,1.7689228057861328,0.7207796573638916,4
628,0.2675105929374695,-68.00340270996094,-31.278244018554688,0.4395864009857178,1.6824249029159546,0.39932698011398315,4
629,29.702167510986328,-60.98103332519531,-30.619600296020508,0.9088709950447083,1.8593031167984009,0.057602182030677795,4
630,46.2556266784668,-41.38233184814453,-32.910701751708984,1.5657052993774414,2.3521728515625,-0.2810402512550354,4
631,30.400747299194336,-27.302806854248047,-34.306068420410156,1.749496340751648,2.9805397987365723,-0.653386652469635,4
632,10.424345016479492,-8.721086502075195,-34.148834228515625,2.1564152240753174,3.1410508155822754,-0.9847899675369263,4
633,-13.953546524047852,17.08808135986328,-32.468990325927734,2.168558359146118,3.0573856830596924,-1.315121054649353,4
634,-20.196552276611328,37.410118103027344,-24.671384811401367,1.7902015447616577,2.8150217533111572,-1.630127191543579,4
635,-40.14271926879883,44.91403579711914,-16.357425689697266,1.2291945219039917,2.5987203121185303,-1.8756673336029053,4
636,-50.909912109375,21.121623992919922,-9.744503021240234,0.6194241642951965,1.9258272647857666,-2.0187015533447266,4
637,-54.943904876708984,8.618844032287598,-10.993488311767578,0.4517696499824524,1.7484025955200195,-2.1469552516937256,4
638,-41.37823486328125,-0.6445011496543884,-13.315845489501953,0.35170695185661316,1.2972214221954346,-2.265409469604492,4
639,-40.52873229980469,-19.269901275634766,-15.417926788330078,0.5662705898284912,0.592529296875,-2.3436992168426514,4
640,-50.747215270996094,-26.545284271240234,-16.145418167114258,0.6373153328895569,0.5670858025550842,-2.550395965576172,4
641,-44.800384521484375,-16.07352638244629,-16.938081741333008,0.9683213233947754,-0.2274775207042694,-2.681835174560547,4
642,-23.705425262451172,4.84578275680542,-17.30124282836914,1.140089750289917,-0.33070462942123413,-2.8677217960357666,4
643,3.3176584243774414,14.337388038635254,-18.301557540893555,0.9964773654937744,-0.590271532535553,-3.04888653755188,4
644,29.639467239379883,13.111895561218262,-16.99982261657715,0.8484624028205872,-0.2456480860710144,-3.249985694885254,4
645,48.43742752075195,14.342536926269531,-12.425106048583984,0.7213698029518127,0.2840953767299652,-3.4269113540649414,4
646,40.50235366821289,35.3211669921875,-8.042491912841797,0.4465257227420807,0.6139785051345825,-3.544426679611206,4
647,20.667972564697266,56.254310607910156,-1.9024848937988281,-0.11995383352041245,1.0128743648529053,-3.6181118488311768,4
648,-13.845854759216309,73.83348846435547,2.239586114883423,-0.778745710849762,1.088623285293579,-3.622755527496338,4
649,-28.841726303100586,72.98512268066406,7.767291069030762,-1.5499424934387207,0.9499945044517517,-3.581167459487915,4
650,-45.31829833984375,48.83464431762695,10.397098541259766,-2.324113130569458,0.3192787766456604,-3.5129122734069824,4
651,-52.60557556152344,15.20335865020752,9.977632522583008,-2.5467307567596436,0.016364766284823418,-3.3833346366882324,4
652,-59.1806755065918,-24.27419090270996,7.79705286026001,-2.482604503631592,-1.0167336463928223,-3.3510096073150635,4
653,-57.3965950012207,-52.04314422607422,7.735950946807861,-2.2744383811950684,-0.8516262769699097,-3.1361420154571533,4
654,-39.723785400390625,-76.35145568847656,8.845545768737793,-1.3945002555847168,-1.4772348403930664,-3.0639753341674805,4
655,-18.09585952758789,-97.3102798461914,10.855161666870117,-0.37572604417800903,-2.0631377696990967,-3.0020713806152344,4
656,0.009086044505238533,-102.25849914550781,13.454102516174316,0.37690165638923645,-1.7079349756240845,-2.7374489307403564,4
657,37.109779357910156,-66.74610900878906,18.42362403869629,0.8413159847259521,-1.4732048511505127,-2.4839324951171875,4
658,62.24114990234375,-5.220892429351807,25.518030166625977,1.4122051000595093,-1.0161752700805664,-2.2624332904815674,4
659,62.521244049072266,55.46345520019531,29.176860809326172,1.2386308908462524,-0.28376057744026184,-1.9660950899124146,4
660,57.521095275878906,101.22926330566406,32.850135803222656,0.5184394717216492,0.2793874442577362,-1.6561106443405151,4
661,35.31804275512695,128.02679443359375,35.380455017089844,-0.8183284401893616,0.8253629207611084,-1.2721079587936401,4
662,0.5606586933135986,133.3621368408203,37.49810028076172,-2.1577227115631104,0.7729313969612122,-0.9460597038269043,4
663,-44.44639587402344,113.51322937011719,39.893341064453125,-3.998274326324463,0.4514899253845215,-0.5543521642684937,4
664,-93.95555114746094,77.45834350585938,40.466087341308594,-4.30076265335083,0.1899634450674057,-0.18118758499622345,4
665,-123.20413208007812,30.802785873413086,36.48383712768555,-5.055610656738281,-1.428815245628357,0.0024659198243170977,4
666,-134.2732696533203,-21.818870544433594,27.45526695251465,-5.1729631423950195,-2.5307071208953857,0.37148910760879517,4
667,-109.33857727050781,-78.22946166992188,16.555152893066406,-4.815520286560059,-3.371767282485962,0.8240411877632141,4
668,-47.85635757446289,-137.9757080078125,9.751590728759766,-3.4771552085876465,-4.41275691986084,0.9497968554496765,4
669,14.689497947692871,-163.61422729492188,9.720967292785645,-2.5169837474823,-4.608736038208008,1.356192946434021,4
670,62.913551330566406,-163.06300354003906,10.848840713500977,-0.12088347226381302,-4.189493179321289,1.4883685111999512,4
671,112.80301666259766,-141.03286743164062,14.536840438842773,1.1373074054718018,-3.3387248516082764,1.8765482902526855,4
672,129.83200073242188,-98.57364654541016,17.232397079467773,2.677994966506958,-2.0149993896484375,2.094939708709717,4
673,125.1991958618164,-50.49276351928711,20.39556312561035,3.499884605407715,-0.7065190076828003,2.3481507301330566,4
674,102.1474380493164,-5.908317565917969,21.91790771484375,3.761788845062256,0.35417550802230835,2.598219394683838,4
675,71.52133178710938,35.884796142578125,21.73756217956543,3.6188137531280518,1.3212790489196777,2.873410701751709,4
676,28.325986862182617,70.78863525390625,20.44759750366211,3.0796496868133545,2.0569229125976562,3.1480844020843506,4
677,-14.72325325012207,82.08785247802734,17.39298439025879,2.181591272354126,2.1630489826202393,3.417069673538208,4
678,-49.285011291503906,75.53401947021484,16.143320083618164,1.0626988410949707,1.7339940071105957,3.673250436782837,4
679,-86.4191665649414,66.3445816040039,15.41981029510498,0.0826873630285263,0.8938278555870056,3.8838083744049072,4
680,-105.1979751586914,50.52605438232422,15.934898376464844,0.12318405508995056,0.38273122906684875,3.9721505641937256,4
681,-105.77558898925781,36.77643966674805,15.79636287689209,-0.38175052404403687,-1.12996244430542,4.120944023132324,4
682,-100.21565246582031,18.96665382385254,13.339479446411133,-0.6356551647186279,-1.8297210931777954,4.2675371170043945,4
683,-81.3994369506836,6.8137006759643555,9.651471138000488,-0.7620909214019775,-2.804305076599121,4.383988380432129,4
684,-64.0232162475586,-11.134746551513672,0.25728318095207214,-0.7468341588973999,-3.6371383666992188,4.454524993896484,4
685,-46.995765686035156,-25.874025344848633,-6.736417770385742,-0.3590823709964752,-4.175973892211914,4.4183878898620605,4
686,-28.113765716552734,-34.78348159790039,-11.114836692810059,-0.06537271291017532,-4.555504322052002,4.367615222930908,4
687,-16.03806495666504,-31.53988265991211,-17.650259017944336,0.27977466583251953,-4.595132827758789,4.289271831512451,4
688,-12.898051261901855,-21.5540828704834,-17.269886016845703,0.8506790995597839,-4.713991165161133,4.065406322479248,4
689,-17.537511825561523,-7.670184135437012,-13.570127487182617,1.0640817880630493,-4.915510177612305,3.9034276008605957,4
690,-20.454999923706055,6.669514179229736,-10.790894508361816,1.1588090658187866,-5.242625713348389,3.7603464126586914,4
691,-38.722320556640625,21.413673400878906,-12.720159530639648,0.8365151882171631,-5.581964492797852,3.725473165512085,4
692,-35.53818893432617,26.95574378967285,-15.613065719604492,0.5206013917922974,-6.237422466278076,3.6170029640197754,4
693,-3.4779562950134277,27.697696685791016,-16.70536994934082,0.36314719915390015,-6.028132915496826,3.362391710281372,4
694,23.584909439086914,23.408390045166016,-12.910453796386719,-0.06069955974817276,-5.852936744689941,3.2609241008758545,4
695,25.02075958251953,36.22838592529297,-6.796453952789307,-0.34732186794281006,-5.570610046386719,3.148428440093994,4
696,17.909236907958984,55.26192092895508,-5.479593276977539,-0.9027061462402344,-5.237007141113281,3.101769208908081,4
697,12.727662086486816,49.744293212890625,-5.023940563201904,-1.5541812181472778,-5.135437965393066,3.0625555515289307,4
698,12.721498489379883,25.064939498901367,-7.102626323699951,-1.7403364181518555,-4.9897565841674805,2.841848611831665,4
699,23.87335968017578,3.425877094268799,-4.6978654861450195,-2.0093116760253906,-4.818641662597656,2.8283772468566895,4
700,37.69514846801758,-2.463881731033325,0.7473208904266357,-1.876740574836731,-4.461653709411621,2.7282614707946777,4
701,41.8599739074707,-3.002915143966675,5.161888122558594,-1.806491494178772,-3.98856782913208,2.7412168979644775,4
702,32.754493713378906,-13.548981666564941,3.718693971633911,-1.7994977235794067,-3.4090468883514404,2.8587803840637207,4
703,19.312692642211914,-19.835956573486328,-2.4247729778289795,-1.4840484857559204,-3.0321450233459473,2.8056907653808594,4
704,11.63681697845459,-40.667903900146484,-4.12820291519165,-1.208319902420044,-3.034985303878784,2.7553484439849854,4
705,-1.814589500427246,-46.433837890625,-6.352509021759033,-0.4989812970161438,-3.2995269298553467,2.518359899520874,4
706,-12.017598152160645,-33.658355712890625,-6.696059226989746,-0.03179635480046272,-3.601961612701416,2.42565655708313,4
707,-13.229876518249512,-11.825065612792969,-4.164816856384277,0.29070258140563965,-3.576735496520996,2.373029947280884,4
708,-23.93006706237793,16.76719856262207,-1.5905503034591675,0.1242956817150116,-3.860121250152588,2.437631607055664,4
709,-32.67655563354492,29.769731521606445,3.9198086261749268,-0.14444123208522797,-4.2603678703308105,2.4301793575286865,4
710,-34.07597351074219,32.906524658203125,8.952444076538086,-0.59274822473526,-4.795914649963379,2.513831615447998,4
711,-20.380630493164062,28.99277114868164,12.200051307678223,-0.7919166684150696,-5.121706485748291,2.52384352684021,4
712,-3.2991819381713867,13.718159675598145,16.285381317138672,-1.1813809871673584,-5.261667728424072,2.7062487602233887,4
713,12.706865310668945,-0.6621151566505432,16.773128509521484,-1.4273020029067993,-5.047889232635498,2.96596622467041,4
714,21.141286849975586,-2.7742843627929688,17.678224563598633,-1.1590759754180908,-4.720874786376953,3.0112459659576416,4
715,43.341278076171875,-5.885272026062012,17.36166763305664,-1.2270715236663818,-4.372567176818848,3.2560980319976807,4
716,62.28942108154297,-7.052669048309326,13.74613094329834,-1.0467166900634766,-3.521596670150757,3.398134708404541,4
717,77.73751831054688,-19.777063369750977,9.6273193359375,-0.9329381585121155,-2.8499059677124023,3.5077905654907227,4
718,65.8324203491211,-33.53250503540039,6.047529220581055,-1.0234144926071167,-2.2428224086761475,3.7516465187072754,4
719,30.077646255493164,-44.06135177612305,5.281470775604248,-0.41841208934783936,-1.5056471824645996,3.762770652770996,4
720,3.8838181495666504,-53.17539978027344,1.3567439317703247,0.21279746294021606,-1.5014580488204956,3.713733196258545,4
721,13.175883293151855,-47.10177993774414,-0.27095213532447815,0.7896350622177124,-1.4153743982315063,3.709442138671875,4
722,27.098215103149414,-34.351287841796875,-1.68569815158844,0.8496447205543518,-1.3286608457565308,3.8422513008117676,4
723,26.227142333984375,-18.846466064453125,-4.403651714324951,1.2489365339279175,-0.8772730231285095,3.787043333053589,4
724,25.54978370666504,-19.873096466064453,-3.9823577404022217,1.436062216758728,-0.7713258862495422,3.73730206489563,4
725,18.85390281677246,-6.57406759262085,-2.5846588611602783,1.4641811847686768,-0.42444735765457153,3.749328851699829,4
726,14.68538761138916,9.330714225769043,-2.900526762008667,1.25629460811615,-0.4681917726993561,3.777294158935547,4
727,-0.09177171438932419,34.724273681640625,-3.5176563262939453,1.0869193077087402,-0.2906002104282379,3.7348880767822266,4
728,-0.6287461519241333,40.45418930053711,-2.7358558177948,0.555003821849823,-0.40777596831321716,3.7318778038024902,4
729,8.051177978515625,30.453649520874023,-3.492263078689575,0.12612181901931763,-0.29443681240081787,3.7017319202423096,4
730,10.370137214660645,18.23457145690918,-4.359644889831543,-0.0683693066239357,-0.08180779218673706,3.650104522705078,4
731,6.804672718048096,3.924870491027832,-4.505038738250732,-0.12679940462112427,-0.09990841895341873,3.601552963256836,4
732,1.0574638843536377,-4.665234565734863,-3.3190770149230957,-0.07363826781511307,0.0403045229613781,3.5566956996917725,4
733,-6.557694435119629,-13.070372581481934,-2.254877805709839,0.21178318560123444,-0.02765449322760105,3.5261006355285645,4
734,-11.821465492248535,-23.379291534423828,-2.3502070903778076,0.49272406101226807,-0.15062828361988068,3.499744176864624,4
735,-13.678557395935059,-18.86794662475586,-0.13068287074565887,0.5712247490882874,-0.2957878112792969,3.48370361328125,4
736,-8.583209991455078,-17.26126480102539,-0.6982169151306152,0.9188253879547119,-0.43583202362060547,3.494527816772461,4
737,1.0401275157928467,-4.053694725036621,-2.2981271743774414,1.0573375225067139,-0.438970148563385,3.4781060218811035,4
738,6.282965660095215,4.772371768951416,-1.8010154962539673,1.1737892627716064,-0.3063662052154541,3.4553539752960205,4
739,0.7273223996162415,16.815824508666992,-0.7013111114501953,1.096872329711914,-0.18524861335754395,3.43873929977417,4
740,11.656896591186523,27.501461029052734,-1.7624224424362183,0.32886800169944763,-0.20781569182872772,3.3733572959899902,4
741,34.565311431884766,39.198760986328125,-2.470795154571533,-0.08429070562124252,0.048448026180267334,3.3320717811584473,4
742,47.7659797668457,36.0706672668457,3.6122210025787354,-0.5612832307815552,0.650526225566864,3.2995808124542236,4
743,40.09703826904297,34.852901458740234,14.453383445739746,-0.8062462210655212,1.1080976724624634,3.403210163116455,4
744,-0.42297643423080444,33.80537796020508,18.435077667236328,-1.2325023412704468,1.2130082845687866,3.5680980682373047,4
745,-25.617008209228516,26.09566879272461,13.182160377502441,-1.63727605342865,1.0088233947753906,3.7336056232452393,4
746,-25.33910369873047,-2.4471983909606934,8.601140975952148,-1.6061561107635498,0.770521879196167,3.8876829147338867,4
747,-21.890901565551758,-35.034488677978516,3.2941746711730957,-1.1266944408416748,0.6688826084136963,4.019883155822754,4
748,-17.104812622070312,-65.75733947753906,0.8924670815467834,-0.43568190932273865,0.5252822041511536,4.089272975921631,4
749,-13.35035228729248,-79.41194152832031,6.352355003356934,0.38627374172210693,0.2900944650173187,4.13763952255249,4
750,0.4853695333003998,-76.78437805175781,9.900980949401855,1.6571407318115234,0.22357313334941864,4.350772857666016,4
751,16.164426803588867,-64.05297088623047,13.018096923828125,1.9547964334487915,0.3716624081134796,4.339619159698486,4
752,21.596073150634766,-36.54964065551758,15.965205192565918,2.7060084342956543,0.739109218120575,4.542895793914795,4
753,26.9744873046875,-7.9308648109436035,19.700700759887695,3.1275570392608643,1.03009831905365,4.774264812469482,4
754,21.54578971862793,18.81697654724121,18.79790496826172,3.075758218765259,1.4490958452224731,4.94698429107666,4
755,2.8634748458862305,44.3570556640625,16.254318237304688,2.578457832336426,1.3987081050872803,5.097064971923828,4
756,-4.056674957275391,74.38055419921875,12.514581680297852,1.5835249423980713,1.3956750631332397,5.124151229858398,4
757,-8.432095527648926,77.73477935791016,8.556572914123535,0.6570001840591431,1.2748993635177612,5.207888603210449,4
758,-7.377000331878662,65.06169128417969,7.807337284088135,-0.12141450494527817,1.1307239532470703,5.325915336608887,4
759,-9.499011993408203,38.27473068237305,5.326708793640137,-0.6118487119674683,0.9886003732681274,5.416568279266357,4
760,1.4628459215164185,0.05674489960074425,0.1330300122499466,-0.7142335772514343,0.9040783643722534,5.478372573852539,4
761,4.573422908782959,-35.74789047241211,-5.298852920532227,-0.3243779242038727,0.968575119972229,5.5090179443359375,4
762,3.9545228481292725,-65.63397216796875,-9.489068031311035,0.37800106406211853,1.065458059310913,5.484448432922363,4
763,3.3759891986846924,-79.34674072265625,-10.713250160217285,1.6336835622787476,1.1168162822723389,5.556913375854492,4
764,4.153662204742432,-76.58374786376953,-13.162515640258789,2.4437901973724365,1.0999882221221924,5.434633731842041,4
765,4.726657390594482,-55.31733322143555,-16.776824951171875,2.768730878829956,0.7971438765525818,5.196598529815674,4
766,-9.574747085571289,-22.9655704498291,-19.227428436279297,3.0809855461120605,0.7784525156021118,4.989795684814453,4
767,-5.186075687408447,17.22124481201172,-19.003963470458984,3.072120189666748,0.693062424659729,4.797194004058838,4
768,-9.456958770751953,51.191768646240234,-22.24493408203125,2.443796396255493,0.6196768879890442,4.500646591186523,4
769,-34.39286804199219,83.45386505126953,-21.244260787963867,1.5137712955474854,0.33295994997024536,4.21950626373291,4
770,-50.702754974365234,101.80465698242188,-17.60455322265625,0.2618918716907501,-0.23831553757190704,3.947150707244873,4
771,-61.27414321899414,106.6593246459961,-13.05695629119873,-0.5228250026702881,-0.7178418040275574,3.862295389175415,4
772,-62.2064208984375,91.89061737060547,-8.69965934753418,-1.8291531801223755,-1.684578776359558,3.693571090698242,4
773,-59.126373291015625,61.80714797973633,-3.050827741622925,-2.590027332305908,-2.1873748302459717,3.592867136001587,4
774,-47.86292266845703,25.978912353515625,-0.8911994099617004,-2.59621524810791,-2.5470938682556152,3.6626157760620117,4
775,-25.989362716674805,-27.6787109375,-1.6645065546035767,-2.418484687805176,-3.0872182846069336,3.7067549228668213,4
776,-9.434704780578613,-58.729530334472656,-3.6363637447357178,-1.569173812866211,-3.0054969787597656,3.7856252193450928,4
777,24.481182098388672,-66.81221008300781,-7.170916557312012,-0.8056779503822327,-2.914539337158203,3.7780003547668457,4
778,50.276336669921875,-65.46566772460938,-9.957414627075195,-0.41959887742996216,-2.239938259124756,3.6835429668426514,4
779,68.5284423828125,-43.22377395629883,-9.952199935913086,0.36685019731521606,-1.5645841360092163,3.625385284423828,4
780,83.81108856201172,-3.828251838684082,-11.599394798278809,0.4971589744091034,-0.8996191024780273,3.509873628616333,4
781,80.7031021118164,30.502872467041016,-15.885583877563477,0.23288163542747498,0.30437174439430237,3.377107858657837,4
782,75.75242614746094,73.4677734375,-21.38765525817871,-0.40539246797561646,1.0233584642410278,3.19112229347229,4
783,60.34806823730469,87.3542251586914,-28.07508659362793,-1.7385060787200928,1.693630576133728,2.9445695877075195,4
784,34.58883285522461,81.68474578857422,-33.1271858215332,-2.7452774047851562,2.4472765922546387,2.6796741485595703,4
785,11.044672012329102,61.07807159423828,-35.92292785644531,-3.1451010704040527,2.117846727371216,2.3384296894073486,4
786,-4.163532257080078,37.18946838378906,-34.99681091308594,-3.5501506328582764,1.963710904121399,1.9944654703140259,4
787,-11.055668830871582,5.443511009216309,-31.7857723236084,-3.560030221939087,1.9228507280349731,1.6984806060791016,4
788,-12.671713829040527,-27.43248176574707,-27.68857765197754,-3.207601547241211,1.734950304031372,1.4228088855743408,4
789,-9.645553588867188,-41.52090835571289,-25.164722442626953,-3.035051107406616,1.6447168588638306,1.1238410472869873,4
790,-1.3762414455413818,-33.30445098876953,-23.4445858001709,-2.4552114009857178,1.4373008012771606,0.8737819194793701,4
791,2.077695608139038,-23.164796829223633,-22.445205688476562,-2.110039234161377,1.5459651947021484,0.6877389550209045,4
792,1.6186423301696777,-20.288883209228516,-22.877361297607422,-1.7974783182144165,1.5125439167022705,0.4684958755970001,4
793,-10.903182029724121,-7.900552749633789,-22.399246215820312,-1.5429033041000366,1.5292550325393677,0.2877208888530731,4
794,-16.449684143066406,5.796384334564209,-18.770376205444336,-1.5431510210037231,1.2428051233291626,0.02350977435708046,4
795,-29.109851837158203,13.210552215576172,-15.857065200805664,-1.800898790359497,1.2922253608703613,-0.11284051090478897,4
796,-56.239112854003906,4.1982808113098145,-17.916927337646484,-1.8450303077697754,0.5348716974258423,-0.36805811524391174,4
797,-63.870479583740234,-2.7502729892730713,-19.59751319885254,-2.0517659187316895,-0.36450543999671936,-0.703985333442688,4
798,-32.75032043457031,0.0900997668504715,-19.62347412109375,-1.4696831703186035,-1.1281622648239136,-0.8364402651786804,4
799,11.857943534851074,-4.386631965637207,-16.4925537109375,-1.450576663017273,-0.8517159223556519,-0.9012647271156311,4
800,60.278526306152344,-2.4601633548736572,-15.966976165771484,-1.331058144569397,-0.34266436100006104,-1.0034668445587158,4
801,88.78825378417969,-1.3353629112243652,-15.453272819519043,-1.2647370100021362,0.9690618515014648,-0.9782288074493408,4
802,99.35814666748047,-5.4649248123168945,-16.213985443115234,-1.1007016897201538,1.971113681793213,-1.0973143577575684,4
803,93.49711608886719,-12.296832084655762,-14.634435653686523,-0.8775773644447327,3.4512736797332764,-1.0836260318756104,4
804,72.13036346435547,-8.389236450195312,-13.106718063354492,0.009132836014032364,5.520247936248779,-0.7236769199371338,4
805,37.389739990234375,-14.28770637512207,-16.10181427001953,0.010945363901555538,6.283934593200684,-0.8377729654312134,4
806,5.191981792449951,-9.527856826782227,-16.788658142089844,-0.4178519546985626,6.422854423522949,-1.1822291612625122,4
807,-43.13847732543945,-5.704537868499756,-14.663951873779297,-0.07358107715845108,5.870828628540039,-1.332410216331482,4
808,-99.79569244384766,4.233935356140137,-11.962787628173828,-0.07377886027097702,4.852917194366455,-1.5059213638305664,4
809,-140.72348022460938,-2.289275646209717,-11.93980884552002,0.11964087188243866,2.88938307762146,-1.645851731300354,4
810,-158.8089141845703,-2.5059292316436768,-11.660259246826172,0.0525968000292778,0.6730325222015381,-1.910940408706665,4
811,-157.62469482421875,-11.114968299865723,-9.07978630065918,0.0013709247577935457,-0.5723282694816589,-2.0336265563964844,4
812,-141.3673858642578,-19.162513732910156,-4.293619155883789,-0.18855276703834534,-2.257814884185791,-2.305210590362549,4
813,-78.95193481445312,-18.529151916503906,1.1273974180221558,-0.25171488523483276,-3.2517430782318115,-2.4208180904388428,4
814,-18.328453063964844,-11.187606811523438,5.169409275054932,-0.14646798372268677,-3.794989585876465,-2.4087510108947754,4
815,35.21211624145508,6.314857482910156,3.2760231494903564,-0.13817431032657623,-3.2846906185150146,-2.3219552040100098,4
816,63.08272171020508,17.06303596496582,2.4435646533966064,-0.36467212438583374,-3.178516149520874,-2.3694827556610107,4
817,82.75645446777344,30.555410385131836,4.257386207580566,-0.7306084036827087,-2.575299024581909,-2.3865747451782227,4
818,80.75267028808594,33.74882507324219,7.070366382598877,-1.0898172855377197,-2.065659761428833,-2.3996307849884033,4
819,73.30899047851562,33.98927688598633,9.426168441772461,-1.4272234439849854,-0.9158253073692322,-2.310227155685425,4
820,55.752891540527344,26.301769256591797,9.18151569366455,-2.041731357574463,-0.18291595578193665,-2.244389057159424,4
821,15.731335639953613,23.267728805541992,12.197250366210938,-2.3351447582244873,-0.045451804995536804,-2.225309133529663,4
822,-33.2081413269043,14.252017974853516,16.42921257019043,-2.6187186241149902,0.03004799224436283,-2.153656244277954,4
823,-70.82783508300781,1.5939130783081055,17.394607543945312,-2.769253969192505,-0.5792800784111023,-2.073615074157715,4
824,-88.95079803466797,-11.083280563354492,16.854839324951172,-2.99208927154541,-1.138283371925354,-1.8935810327529907,4
825,-84.2696304321289,-20.41771697998047,15.7385892868042,-2.6689276695251465,-1.8605270385742188,-1.6890270709991455,4
826,-62.07948303222656,-37.07587814331055,13.611567497253418,-2.310426950454712,-2.768270254135132,-1.5374575853347778,4
827,-33.24181365966797,-47.666873931884766,13.219600677490234,-2.3527493476867676,-2.9856789112091064,-1.2435617446899414,4
828,-5.713260650634766,-42.53333282470703,13.058181762695312,-1.8501293659210205,-3.4756205081939697,-1.1192253828048706,4
829,9.459238052368164,-30.813844680786133,14.359415054321289,-1.1952682733535767,-3.629836320877075,-0.9935356974601746,4
830,14.195870399475098,-20.00194549560547,15.58531379699707,-0.5992154479026794,-3.457155227661133,-0.8431445956230164,4
831,15.523770332336426,-8.441167831420898,14.76585865020752,-0.9497652053833008,-3.140554904937744,-0.5224185585975647,4
832,9.46819019317627,-7.414893627166748,11.803605079650879,-0.9121412038803101,-2.9140124320983887,-0.3431151807308197,4
833,-3.323636293411255,-7.0504889488220215,9.721290588378906,-0.7210853695869446,-2.8126204013824463,-0.248818039894104,4
834,-7.444413661956787,4.464253902435303,11.747809410095215,-0.6756089329719543,-2.8766098022460938,-0.15275052189826965,4
835,0.9476816654205322,19.518659591674805,15.575551986694336,-0.804463267326355,-3.123068332672119,-0.039818618446588516,4
836,19.813386917114258,36.13994598388672,21.27788734436035,-0.8909065127372742,-3.036022424697876,0.09032019227743149,4
837,41.11299514770508,40.7850227355957,24.15020751953125,-1.3734935522079468,-2.7700512409210205,0.34204867482185364,4
838,52.46836471557617,33.69991683959961,23.807676315307617,-1.899438738822937,-2.272125482559204,0.6231861710548401,4
839,45.77425003051758,19.844758987426758,25.11627960205078,-2.261645555496216,-1.9676685333251953,0.809664785861969,4
840,28.884550094604492,0.683555006980896,25.48999786376953,-2.3644373416900635,-1.7089990377426147,0.9534761309623718,4
841,19.719112396240234,-32.16513442993164,22.65668487548828,-2.424381971359253,-1.1959682703018188,1.244788646697998,4
842,14.097570419311523,-61.314369201660156,20.20468521118164,-2.1499874591827393,-1.0628135204315186,1.438770055770874,4
843,19.31446647644043,-75.84133911132812,19.045631408691406,-1.6441192626953125,-1.2087616920471191,1.5912303924560547,4
844,23.904706954956055,-76.3521957397461,20.07245445251465,-0.7631105184555054,-1.1929055452346802,1.7089331150054932,4
845,27.69969940185547,-65.31013488769531,18.559144973754883,0.08542368561029434,-0.7696350812911987,1.9377824068069458,4
846,24.043943405151367,-48.96153259277344,12.885497093200684,0.8068816065788269,-0.5790785551071167,2.10768985748291,4
847,7.195441722869873,-33.97427749633789,8.667353630065918,1.282698631286621,-0.34424492716789246,2.262207269668579,4
848,-14.085956573486328,-15.865609169006348,8.941239356994629,1.5559241771697998,-0.3018198013305664,2.378329038619995,4
849,-27.09446144104004,7.520663261413574,9.943140983581543,1.8275747299194336,-0.48449358344078064,2.4471795558929443,4
850,-32.7495002746582,21.560531616210938,8.923333168029785,1.8108179569244385,-0.8156890869140625,2.541718006134033,4
851,-7.273190975189209,28.489274978637695,7.650259494781494,1.5602389574050903,-1.00185227394104,2.6351535320281982,4
852,22.033052444458008,22.263093948364258,1.9346742630004883,1.2597819566726685,-0.9503371119499207,2.702824354171753,4
853,33.68404769897461,15.6787109375,-1.0657322406768799,1.0487239360809326,-0.8028334379196167,2.7290074825286865,4
854,47.76214599609375,1.6920809745788574,-1.9720313549041748,0.8307191133499146,-0.32771381735801697,2.719816207885742,4
855,58.09740447998047,-11.89387035369873,-4.734025478363037,0.8266327977180481,-0.20715750753879547,2.736220359802246,4
856,53.61918258666992,-19.112489700317383,-6.675924301147461,1.0178256034851074,0.6601433753967285,2.6369826793670654,4
857,40.307315826416016,-26.6134090423584,-8.263818740844727,1.204210638999939,1.1068077087402344,2.585775852203369,4
858,26.053016662597656,-27.174226760864258,-9.791711807250977,1.4074656963348389,1.2675501108169556,2.555471181869507,4
859,16.636112213134766,-13.125162124633789,-8.428831100463867,1.8583543300628662,1.7711209058761597,2.4046385288238525,4
860,9.703508377075195,1.1814908981323242,-5.021569728851318,1.8273197412490845,1.9455204010009766,2.3174891471862793,4
861,-0.4852445423603058,16.63091468811035,1.8976365327835083,1.7752411365509033,2.1341192722320557,2.2388410568237305,4
862,-7.981076240539551,25.686656951904297,8.242439270019531,1.5872704982757568,2.159018039703369,2.2439398765563965,4
863,-23.423620223999023,36.355960845947266,14.061333656311035,1.2350773811340332,1.924957275390625,2.3549318313598633,4
864,-40.964481353759766,41.49595642089844,18.66556739807129,0.8377271294593811,1.66728937625885,2.500758647918701,4
865,-46.63298416137695,40.48000717163086,21.997535705566406,0.304082989692688,1.035101294517517,2.7310338020324707,4
866,-52.4915657043457,34.877620697021484,23.43439483642578,0.0367465503513813,0.6957566738128662,2.944730281829834,4
867,-51.44472122192383,15.950139999389648,22.37661361694336,-0.3141295313835144,0.2032374143600464,3.179523468017578,4
868,-41.42080307006836,-3.5317275524139404,19.431686401367188,-0.5226748585700989,-0.10396461933851242,3.359342575073242,4
869,-22.90921974182129,-23.34868621826172,14.452898025512695,-0.5646975636482239,-0.6189095377922058,3.563436269760132,4
870,-11.542074203491211,-59.554161071777344,10.45297622680664,0.02694009244441986,-0.835103452205658,3.776096820831299,4
871,-2.6948485374450684,-81.65790557861328,8.283159255981445,0.38528209924697876,-0.651466965675354,3.824657678604126,4
872,-3.1611135005950928,-92.45255279541016,5.7560625076293945,1.5166523456573486,-0.6213732957839966,3.9496078491210938,4
873,6.725588321685791,-85.73955535888672,4.663802146911621,2.2910687923431396,-0.6016121506690979,4.0026116371154785,4
874,7.4924635887146,-61.37321472167969,2.900714635848999,3.4166319370269775,-0.5727652311325073,4.081425189971924,4
875,5.291562557220459,-22.772859573364258,1.8317384719848633,4.048347473144531,-0.44820788502693176,4.101700305938721,4
876,-0.4688357710838318,23.546066284179688,-0.17529256641864777,4.075080394744873,-0.608971118927002,4.173341274261475,4
877,-14.950791358947754,62.675262451171875,-1.2908146381378174,4.026469707489014,-0.5602823495864868,4.16746187210083,4
878,-35.63105392456055,72.9132308959961,-0.4534536898136139,3.0713186264038086,-0.7840961217880249,4.173945903778076,4
879,-46.803062438964844,71.85450744628906,0.283727765083313,2.2040042877197266,-1.1292846202850342,4.164522171020508,4
880,-39.528995513916016,57.63017272949219,-0.6422069072723389,1.4232035875320435,-1.592063546180725,4.150717258453369,4
881,-11.833426475524902,41.53459167480469,-1.331076741218567,0.863142728805542,-2.0908596515655518,4.1587748527526855,4
882,14.027987480163574,24.874208450317383,0.0781368836760521,0.4988844096660614,-2.158829927444458,4.07755708694458,4
883,26.93910026550293,3.7888708114624023,2.7084550857543945,0.20375065505504608,-1.8460184335708618,3.9761176109313965,4
884,28.63824462890625,-13.448989868164062,5.499258041381836,0.16259507834911346,-1.6697584390640259,4.0189208984375,4
885,18.122385025024414,-20.968814849853516,5.412837982177734,0.5232669711112976,-1.3348532915115356,4.036217212677002,4
886,4.3487629890441895,-18.48393440246582,5.4498748779296875,0.797848641872406,-1.321446180343628,4.158819675445557,4
887,-2.889782428741455,-18.87079429626465,4.026024341583252,1.0482853651046753,-1.2031184434890747,4.199700832366943,4
888,3.302797794342041,-16.22353744506836,1.3634601831436157,1.1991839408874512,-1.3083618879318237,4.277487754821777,4
889,19.355743408203125,-5.431664943695068,1.425827980041504,1.4886589050292969,-1.1917078495025635,4.2593841552734375,4
890,49.371177673339844,6.820634365081787,4.460331439971924,1.516319751739502,-0.8966184258460999,4.237545967102051,4
891,61.21457290649414,14.499463081359863,9.322093963623047,1.306136131286621,-0.7723777890205383,4.383068561553955,4
892,47.56731033325195,19.978336334228516,10.751493453979492,1.1961963176727295,0.0062080081552267075,4.407872200012207,4
893,11.671850204467773,24.01478385925293,13.016229629516602,0.8489562273025513,0.22855322062969208,4.61309814453125,4
894,-10.3677978515625,31.687110900878906,12.355203628540039,0.4994219243526459,0.306930810213089,4.780999183654785,4
895,-21.13948631286621,37.58324432373047,10.43535041809082,0.1895160675048828,0.19361060857772827,4.918947219848633,4
896,-14.761398315429688,30.517974853515625,7.356833457946777,-0.14751891791820526,0.051294904202222824,5.013577938079834,4
897,-10.350129127502441,18.210519790649414,5.95949649810791,-0.5328280925750732,-0.1750081330537796,5.108527660369873,4
898,-9.69472885131836,5.849852561950684,4.683048248291016,-0.7096988558769226,-0.2567784786224365,5.163249969482422,4
899,-7.5038347244262695,-12.99770736694336,5.206454753875732,-0.6448455452919006,-0.333857923746109,5.202982425689697,4
900,-8.791397094726562,-35.40399169921875,3.7276430130004883,-0.5670046806335449,-0.5284870266914368,5.268927574157715,4
901,-3.170940399169922,-43.306114196777344,3.0560271739959717,0.05575088411569595,-0.5429742932319641,5.303169250488281,4
902,-1.8278963565826416,-51.57886505126953,0.9569928050041199,0.4382568895816803,-0.6667445302009583,5.34236478805542,4
903,-0.19633711874485016,-45.00200653076172,1.0266718864440918,1.2470396757125854,-0.5794764757156372,5.350759029388428,4
904,-6.364996910095215,-36.17441940307617,-1.7350636720657349,1.3304334878921509,-0.6786603927612305,5.380321979522705,4
905,-11.948227882385254,-25.620880126953125,-3.741116762161255,1.824249267578125,-0.8461655974388123,5.387634754180908,4
906,-17.098894119262695,-16.026962280273438,-5.287276744842529,2.042020559310913,-0.8813156485557556,5.350653171539307,4
907,5.504063606262207,-7.076281547546387,-4.934365272521973,2.259531021118164,-0.9493921995162964,5.285674571990967,4
908,33.2280387878418,8.939115524291992,0.86869215965271,2.301377773284912,-0.8911906480789185,5.225993633270264,4
909,59.425899505615234,30.565832138061523,11.297586441040039,2.036661148071289,-0.6030124425888062,5.221737384796143,4
910,86.21920013427734,52.25071716308594,19.853532791137695,1.5919407606124878,0.12434195727109909,5.280900001525879,4
911,104.73567199707031,69.73150634765625,28.08901596069336,1.0458520650863647,1.0143184661865234,5.449615001678467,4
912,113.79244995117188,86.0203628540039,34.51124572753906,0.28846481442451477,2.0289292335510254,5.731101989746094,4
913,105.91875457763672,106.94338989257812,40.86853790283203,-0.5015182495117188,2.8358020782470703,6.153459072113037,4
914,83.0220947265625,117.23062896728516,47.029510498046875,-1.796842336654663,4.255046844482422,6.549046039581299,4
915,52.44499206542969,107.88422393798828,51.46182632446289,-3.156568765640259,4.778886795043945,7.094918727874756,4
916,12.250088691711426,81.78142547607422,51.34715270996094,-4.198795795440674,5.332090854644775,7.698732852935791,4
917,-24.70813751220703,25.016935348510742,48.408782958984375,-4.591945648193359,5.483564853668213,8.400362968444824,4
918,-53.6558723449707,-43.36546325683594,42.40020751953125,-4.5976762771606445,5.113941669464111,8.997405052185059,4
919,-71.78282165527344,-97.06427764892578,36.662174224853516,-3.931917667388916,4.688780307769775,9.548197746276855,4
920,-72.81929779052734,-138.28504943847656,30.8868350982666,-3.1269190311431885,4.204537391662598,9.863382339477539,4
921,-71.0008316040039,-163.3665771484375,27.129636764526367,-1.473391056060791,3.374248743057251,10.239346504211426,4
922,-59.13993835449219,-171.95443725585938,20.75421714782715,0.0025171986781060696,2.6956565380096436,10.375118255615234,4
923,-50.768798828125,-170.0297393798828,14.131002426147461,2.5129940509796143,2.0182793140411377,10.94376277923584,4
924,-35.03586196899414,-150.19346618652344,4.252765655517578,3.574305772781372,1.5933760404586792,10.71196174621582,4
925,-22.1135196685791,-122.47391510009766,-0.5665391683578491,5.604287147521973,1.165954828262329,10.999628067016602,4
926,-0.8163666129112244,-87.2068862915039,-6.1870222091674805,6.316655158996582,1.0349225997924805,10.670984268188477,4
927,26.561195373535156,-39.28752136230469,-8.970162391662598,7.335535526275635,1.188938856124878,10.609012603759766,4
928,35.61076354980469,16.787242889404297,-12.529400825500488,7.5830302238464355,1.378609299659729,10.402148246765137,4
929,25.934438705444336,61.94696044921875,-16.126811981201172,7.340251922607422,1.8373843431472778,10.163310050964355,4
930,-5.061423301696777,105.14808654785156,-15.519476890563965,6.500431537628174,1.862848162651062,10.024576187133789,4
931,-45.453338623046875,137.61312866210938,-15.257043838500977,5.617335796356201,1.7607495784759521,10.00154972076416,4
932,-87.8774642944336,150.56536865234375,-14.570765495300293,3.7862548828125,1.1957814693450928,9.772621154785156,4
933,-116.57367706298828,158.00332641601562,-14.353253364562988,2.618825912475586,0.4798615872859955,9.740057945251465,4
934,-116.35079193115234,143.8152313232422,-19.795583724975586,0.6845709681510925,-0.9756031632423401,9.619962692260742,4
935,-74.25640106201172,109.0832290649414,-26.567394256591797,-0.6537143588066101,-1.8876533508300781,9.30105972290039,4
936,-16.374805450439453,55.3712158203125,-26.83634376525879,-1.8212990760803223,-2.7814626693725586,9.018671035766602,4
937,39.883522033691406,15.188443183898926,-25.38410758972168,-2.4647603034973145,-2.7341504096984863,8.595258712768555,4
938,84.45915222167969,-8.10161304473877,-21.5374813079834,-2.4139153957366943,-2.3344483375549316,8.339269638061523,4
939,109.96102142333984,-17.346025466918945,-19.372961044311523,-2.2658956050872803,-1.1734061241149902,8.05916690826416,4
940,118.97732543945312,-22.74476432800293,-14.995732307434082,-1.90089750289917,-0.3544767498970032,7.910804748535156,4
941,116.09002685546875,-15.484500885009766,-12.123700141906738,-1.528843641281128,1.0997893810272217,7.740065574645996,4
942,108.33412170410156,-3.0772645473480225,-10.905184745788574,-1.6073209047317505,2.17021107673645,7.606866836547852,4
943,89.98003387451172,8.895246505737305,-8.668927192687988,-1.5722026824951172,3.420219898223877,7.493193626403809,4
944,62.2490234375,24.85799217224121,-6.01501989364624,-1.7686729431152344,4.017101764678955,7.382601737976074,4
945,26.577173233032227,32.48540496826172,-4.127124786376953,-2.0833632946014404,4.662968635559082,7.325146198272705,4
946,-11.165013313293457,23.510536193847656,-4.513827323913574,-2.509103775024414,4.844198226928711,7.267549514770508,4
947,-45.82974624633789,10.63648509979248,-6.9043097496032715,-2.5282533168792725,4.557018280029297,7.261785984039307,4
948,-77.1077651977539,-16.68994140625,-7.448072910308838,-2.730214834213257,4.015232563018799,7.155899524688721,4
949,-93.66525268554688,-56.39735794067383,-15.115330696105957,-2.4907939434051514,3.2314136028289795,7.105576515197754,4
950,-91.18080139160156,-71.06731414794922,-19.880165100097656,-1.5861104726791382,2.1663575172424316,7.060029983520508,4
951,-70.33995056152344,-69.5682601928711,-26.06024742126465,-0.9224694967269897,1.4735134840011597,6.903568267822266,4
952,-45.96360778808594,-54.47566604614258,-30.590124130249023,-0.3319070041179657,0.7321279644966125,6.58697509765625,4
953,-22.940412521362305,-38.12765884399414,-33.079345703125,0.11272140592336655,0.3803980350494385,6.267698764801025,4
954,-10.303165435791016,-27.8714656829834,-32.18309020996094,0.6262708306312561,0.1187162846326828,5.9728803634643555,4
955,4.6330647468566895,-15.873361587524414,-32.976688385009766,0.8676524758338928,0.09175509214401245,5.653012275695801,4
956,42.124752044677734,20.81243896484375,-34.44080352783203,0.8943943977355957,0.387768030166626,5.338015556335449,4
957,64.97239685058594,66.00679779052734,-33.01371765136719,0.37682265043258667,0.9498224854469299,4.94583797454834,4
958,71.72847747802734,93.953857421875,-33.94012451171875,-0.30647391080856323,1.3164328336715698,4.5691680908203125,4
959,70.59166717529297,112.7201919555664,-30.553699493408203,-1.4893227815628052,2.4860634803771973,4.2882280349731445,4
960,71.7671890258789,124.80908203125,-26.846845626831055,-2.338796854019165,2.7731382846832275,4.012286186218262,4
961,68.37632751464844,125.38558197021484,-25.020126342773438,-4.19253396987915,3.77252197265625,3.7437589168548584,4
962,57.30373001098633,96.01996612548828,-27.078250885009766,-5.060780048370361,4.343245029449463,3.6512324810028076,4
963,35.879154205322266,53.422264099121094,-27.560226440429688,-6.17260217666626,4.834348201751709,3.4115006923675537,4
964,3.7832956314086914,5.770475387573242,-29.052202224731445,-6.4481282234191895,5.1252312660217285,3.265698194503784,4
965,-30.67704963684082,-37.523780822753906,-30.455781936645508,-6.516068458557129,4.921590805053711,2.8818845748901367,4
966,-50.59501266479492,-83.80574035644531,-31.928422927856445,-5.872596263885498,4.701953887939453,2.750556707382202,4
967,-67.18415069580078,-115.58970642089844,-35.393821716308594,-4.473029136657715,3.9093611240386963,2.478184461593628,4
968,-85.57289123535156,-122.29662322998047,-32.72290802001953,-3.821394920349121,3.5455660820007324,2.069849967956543,4
969,-106.99779510498047,-100.16162109375,-24.669727325439453,-2.839059829711914,2.8974685668945312,1.725562572479248,4
970,-114.79144287109375,-75.23786926269531,-21.12198829650879,-1.5234720706939697,1.4146353006362915,1.2704757452011108,4
971,-100.19140625,-34.67612075805664,-18.199398040771484,-0.8617690801620483,0.7205727100372314,1.2879775762557983,4
972,-63.779083251953125,-0.855171799659729,-15.970093727111816,-0.5071958303451538,-0.5948365926742554,0.8895587921142578,4
973,-15.821311950683594,13.567981719970703,-13.302550315856934,-0.4094407260417938,-1.0711320638656616,0.8662717342376709,4
974,22.32522201538086,14.938361167907715,-15.512114524841309,-0.5856263041496277,-1.2105555534362793,0.7456985116004944,4
975,48.128692626953125,8.013973236083984,-12.779685974121094,-0.8289132714271545,-0.8383678793907166,0.668491780757904,4
976,43.84321975708008,5.636329650878906,-9.991280555725098,-0.816547691822052,-0.2639901638031006,0.6141791939735413,4
977,29.712011337280273,3.2236108779907227,-4.221510410308838,-0.9199301600456238,0.2122986614704132,0.5155459642410278,4
978,10.17904281616211,-8.110715866088867,-1.0148138999938965,-0.8540012240409851,0.42743542790412903,0.439100444316864,4
979,-11.948612213134766,-29.93206214904785,1.7972066402435303,-0.7043465375900269,0.47063329815864563,0.4035280644893646,4
980,-33.66609191894531,-36.084075927734375,1.516361951828003,-0.8205938935279846,0.3237292170524597,0.37638425827026367,4
981,-54.8429069519043,-30.503097534179688,2.31595516204834,-0.3175503611564636,-0.19007398188114166,0.3246632218360901,4
982,-76.81027221679688,-24.528247833251953,2.8304519653320312,-0.055091410875320435,-0.4665142595767975,0.42347437143325806,4
983,-84.9859848022461,-23.895315170288086,3.8124406337738037,0.35277214646339417,-1.5059512853622437,0.37091201543807983,4
984,-84.43572998046875,-14.798885345458984,7.874216079711914,0.38645923137664795,-2.1833817958831787,0.46497032046318054,4
985,-57.3628044128418,6.243093013763428,10.978300094604492,0.5196183919906616,-3.086940050125122,0.536738932132721,4
