,gyro.x,gyro.y,gyro.z,stabilizer.pitch,stabilizer.roll,stabilizer.yaw,label
0,-0.04478984698653221,-0.0019112004665657878,0.017354140058159828,0.245248943567276,0.4863358438014984,-7.390218257904053,4
1,-0.020656229928135872,0.01967489905655384,-0.10167219489812851,0.287195086479187,0.4786075949668884,-7.383055210113525,4
2,0.04817069321870804,0.024410391226410866,0.06306289881467819,0.5136009454727173,0.47313645482063293,-7.375850200653076,4
3,0.0019708003383129835,0.019113920629024506,0.10479122400283813,0.3519989848136902,0.47032812237739563,-7.36748743057251,4
4,0.0046517266891896725,0.030543146654963493,-0.09994719177484512,0.2972152531147003,0.33497777581214905,-7.360724449157715,4
5,-0.059958867728710175,0.03665412589907646,-0.07766254991292953,0.3242352306842804,0.4356207847595215,-7.3536810874938965,4
6,-0.0021563346963375807,0.0058934190310537815,-0.005878474097698927,0.5443463325500488,0.3756272792816162,-7.350229263305664,4
7,-0.010573898442089558,-0.023159952834248543,0.0019446316873654723,0.30362263321876526,0.39954978227615356,-7.339205265045166,4
8,-0.1026211827993393,0.0873296856880188,-0.021938305348157883,0.601265013217926,0.4166034758090973,-7.336911201477051,4
9,-0.0025808634236454964,0.028993451967835426,0.07825558632612228,0.4767112135887146,0.7052255868911743,-7.3301167488098145,4
10,-0.03736623749136925,-0.028911959379911423,0.1319219321012497,0.3174716830253601,0.5029218792915344,-7.320263385772705,4
11,-0.014248210936784744,0.06263972818851471,-0.01988351158797741,0.3381200134754181,0.6309365630149841,-7.312253952026367,4
12,-0.026347870007157326,0.08367104083299637,-0.06966640055179596,0.35242152214050293,0.44621387124061584,-7.305239677429199,4
13,0.10184953361749649,-0.0901707336306572,-0.04972125217318535,0.013101473450660706,0.3092084228992462,-7.301595687866211,4
14,-0.03929363191127777,0.04075292870402336,0.019838761538267136,0.11514461785554886,0.3510218560695648,-7.293493270874023,4
15,0.10758916288614273,-0.06072544679045677,-0.03682960569858551,0.19215542078018188,0.38164398074150085,-7.286240577697754,4
16,-0.08272121846675873,-0.030878527089953423,0.0018653824226930737,0.18022577464580536,0.403862327337265,-7.277682304382324,4
17,0.028630536049604416,-0.06684413552284241,-0.04772215336561203,0.24467404186725616,0.42075902223587036,-7.2708539962768555,4
18,0.089405857026577,0.027266019955277443,-0.04069328308105469,0.7268058061599731,0.4344325363636017,-7.272561550140381,4
19,0.026362428441643715,-0.0025014455895870924,0.026225654408335686,0.7940022945404053,0.5159432291984558,-7.265911102294922,4
20,-0.028267161920666695,-0.06448803842067719,-0.052957549691200256,0.19923873245716095,0.5025972127914429,-7.25278377532959,4
21,0.06540018320083618,0.0017739486647769809,0.034417878836393356,0.47450870275497437,0.4940509796142578,-7.246934413909912,4
22,-0.024507170543074608,-0.022259753197431564,-0.15130163729190826,0.25054416060447693,0.4877725839614868,-7.2392258644104,4
23,-0.056585319340229034,-0.039078351110219955,0.06907886266708374,0.4409160614013672,0.2697606682777405,-7.2332048416137695,4
24,0.0427071638405323,0.024538859724998474,-0.026624256744980812,0.5817892551422119,0.3230607807636261,-7.22823429107666,4
25,0.08053885400295258,-0.08643962442874908,-0.09559853374958038,0.4741055965423584,0.6477004885673523,-7.224409580230713,4
26,-0.09741392731666565,0.028974082320928574,-0.08529588580131531,0.7481268048286438,0.6047271490097046,-7.218864917755127,4
27,0.07179995626211166,-0.011500309221446514,-0.08631511777639389,0.17301981151103973,0.5711811184883118,-7.21306037902832,4
28,0.05455436930060387,0.1331091821193695,0.005803379230201244,0.7335476279258728,0.5486291646957397,-7.200769901275635,4
29,0.011082633398473263,0.1533452421426773,0.009737977758049965,0.5109513998031616,0.3898952901363373,-7.189981937408447,4
30,-0.03588557615876198,-0.04421097785234451,-0.01789950020611286,0.6968083381652832,0.4126134514808655,-7.1832685470581055,4
31,-0.08465757966041565,0.08578702807426453,0.06164581701159477,-0.0022711404599249363,0.43021875619888306,-7.174471378326416,4
32,0.06253229081630707,0.026507288217544556,-0.08970409631729126,0.10769281536340714,0.37452757358551025,-7.168407917022705,4
33,-0.013716046698391438,0.017424581572413445,-0.019430767744779587,0.7446285486221313,0.5407420992851257,-7.166450023651123,4
34,-0.12353245913982391,0.0021265612449496984,0.05918288603425026,0.1755916029214859,0.5227236151695251,-7.155678749084473,4
35,0.04038820043206215,-0.04554855078458786,-0.0964311957359314,0.5169414281845093,0.716787576675415,-7.148767948150635,4
36,-0.017921196296811104,-0.04897749423980713,0.018377840518951416,0.7003597021102905,0.5850980281829834,-7.1385016441345215,4
37,0.10941929370164871,0.019356440752744675,-0.06660587340593338,0.4892980754375458,0.6266446113586426,-7.136850833892822,4
38,-0.03864750638604164,0.033541444689035416,0.10022197663784027,0.12544892728328705,0.31017544865608215,-7.130299091339111,4
39,0.07358981668949127,-0.02053806558251381,-0.07898873090744019,0.5472553372383118,0.6313310265541077,-7.120951175689697,4
40,-0.0009356689406558871,0.03630724176764488,-0.12869900465011597,0.7208222150802612,0.3846055567264557,-7.109729766845703,4
41,0.006225996185094118,0.09915975481271744,-0.013694632798433304,0.6399617791175842,0.40787285566329956,-7.1036481857299805,4
42,-0.005367477890104055,-0.11943256109952927,-0.08109332621097565,0.30732595920562744,0.4265766143798828,-7.0960235595703125,4
43,-0.0010994923068210483,0.02426445297896862,0.02936697006225586,0.3366723954677582,0.4399822950363159,-7.08949089050293,4
44,-0.07641799747943878,-0.07361388951539993,-0.05950162932276726,0.5640433430671692,0.4484403133392334,-7.08534574508667,4
45,-0.0038655539974570274,0.012830039486289024,-0.05341193825006485,0.5928615927696228,0.5243422389030457,-7.080733299255371,4
46,0.02912897616624832,-0.010276732966303825,-0.10260298103094101,0.20356957614421844,0.4432919919490814,-7.069843769073486,4
47,-0.08511106669902802,-0.02226516231894493,0.09117791056632996,0.3963069021701813,0.5882937908172607,-7.065176963806152,4
48,0.07267100363969803,0.04802997037768364,-0.012958747334778309,0.6067765355110168,0.5587636828422546,-7.057497024536133,4
49,0.056969817727804184,0.11832413077354431,-0.06288780272006989,0.2817392349243164,0.4010927677154541,-7.050086975097656,4
50,0.09841044247150421,-0.10010840743780136,0.05386420339345932,0.04162986949086189,0.35267072916030884,-7.042561054229736,4
51,-0.04983743652701378,0.09708752483129501,0.10051979124546051,0.34110331535339355,0.4549127221107483,-7.035595893859863,4
52,0.03576032817363739,-0.034333158284425735,-0.03017757460474968,0.3590439260005951,0.39157623052597046,-7.029989242553711,4
53,0.15820766985416412,0.020248213782906532,0.0038489645812660456,0.3713832199573517,0.41525065898895264,-7.0226945877075195,4
54,0.004557472653687,-0.03847838565707207,-0.01584075205028057,0.711073637008667,0.4312986433506012,-7.0211405754089355,4
55,0.005625437945127487,0.1346394419670105,-0.055110592395067215,0.2985411584377289,0.44198325276374817,-7.006926536560059,4
56,-0.057106588035821915,-0.08663776516914368,-0.04050420969724655,0.13078555464744568,0.45046380162239075,-6.997418403625488,4
57,0.03941049054265022,-0.03632786497473717,-0.09101878106594086,0.1438520848751068,0.4577157497406006,-6.991380214691162,4
58,0.012933773919939995,0.021068409085273743,-0.07367187738418579,0.21785606443881989,0.4628807306289673,-6.986292839050293,4
59,0.061915092170238495,-0.005172831006348133,-0.015356246381998062,0.7944258451461792,0.531400203704834,-6.983945369720459,4
60,-0.06106472387909889,0.017631078138947487,0.09423612803220749,0.4921916127204895,0.5158023834228516,-6.974425315856934,4
61,0.053422652184963226,0.02993297204375267,-0.027766169980168343,0.4677163362503052,0.4380829930305481,-6.967076301574707,4
62,-0.018178321421146393,-0.01629718951880932,-0.034253910183906555,0.18612782657146454,0.4486006498336792,-6.958702087402344,4
63,-0.11216897517442703,-0.01790902018547058,0.015685325488448143,0.7097880840301514,0.5878227353096008,-6.955456256866455,4
64,-0.08220033347606659,0.018594125285744667,-0.039951395243406296,0.496690571308136,0.5556267499923706,-6.948312759399414,4
65,-0.12369976937770844,0.08560774475336075,-0.03612188622355461,0.473016619682312,0.5976900458335876,-6.942698001861572,4
66,-0.033895790576934814,0.038204144686460495,-0.05930602177977562,0.657957911491394,0.35870590806007385,-6.92838191986084,4
67,-0.024631349369883537,-0.035777442157268524,0.07754410803318024,0.5906065106391907,0.5228360891342163,-6.927342891693115,4
68,0.06876177340745926,-0.03255978599190712,0.019246328622102737,-0.09200013428926468,0.6491426229476929,-6.9248528480529785,4
69,0.08698928356170654,0.048768300563097,0.004191388841718435,0.38708728551864624,0.4608561098575592,-6.914901256561279,4
70,-0.056648291647434235,-0.06912906467914581,-0.0813942551612854,0.5321957468986511,0.6043901443481445,-6.906530380249023,4
71,-0.012079168111085892,-0.036794018000364304,-0.02748330496251583,0.3543318510055542,0.2095722109079361,-6.9000983238220215,4
72,0.0365038737654686,0.009124829433858395,0.002926850924268365,0.3650434911251068,0.27734068036079407,-6.893360137939453,4
73,0.07772646099328995,0.057533781975507736,-0.03536602109670639,0.6616551280021667,0.47402507066726685,-6.893528461456299,4
74,-0.11622275412082672,-0.04701380431652069,-0.030831940472126007,0.4469469487667084,0.6927125453948975,-6.885982036590576,4
75,0.0070645068772137165,0.041383177042007446,0.02874652110040188,0.28696706891059875,0.4914803206920624,-6.876073360443115,4
76,0.024986453354358673,0.037361737340688705,-0.009579707868397236,0.530646562576294,0.5625765919685364,-6.869725227355957,4
77,0.008893998339772224,0.03869498148560524,0.09317675977945328,0.5647110939025879,0.5405638217926025,-6.862302780151367,4
78,-0.050200752913951874,-0.08319487422704697,-0.051194220781326294,0.09013084322214127,0.02350860834121704,-6.849991798400879,4
79,-0.03551056608557701,-0.0717376172542572,-0.06524539738893509,0.3100415766239166,0.3555618226528168,-6.845995903015137,4
80,-0.11153490841388702,0.057006336748600006,0.024013591930270195,0.6140813231468201,0.7434264421463013,-6.844501972198486,4
81,-0.044109608978033066,-0.00820380449295044,-0.0669315755367279,0.34526944160461426,0.2493436485528946,-6.833815097808838,4
82,0.05168796703219414,0.010567590594291687,-0.02411126159131527,0.28592899441719055,0.45366472005844116,-6.825626850128174,4
83,0.009655797854065895,-0.05235977843403816,-0.00861723069101572,0.5268164277076721,0.5348992943763733,-6.822675704956055,4
84,0.037348952144384384,-0.01575426012277603,0.023384111002087593,-0.0003815823292825371,0.31191715598106384,-6.80988073348999,4
85,0.01592918112874031,-0.03652474284172058,-0.06887668371200562,0.2421245574951172,0.4310750663280487,-6.805181980133057,4
86,-0.03935763239860535,0.02967456914484501,-0.04018019884824753,0.4239267408847809,0.587030827999115,-6.797495365142822,4
87,-0.09322623908519745,-0.06957264244556427,0.03116217628121376,0.41851702332496643,0.7003734111785889,-6.788198947906494,4
88,0.05172433704137802,-0.07443834841251373,-0.06454387307167053,0.34508857131004333,0.7144289016723633,-6.781713008880615,4
89,0.010426864959299564,-0.008577344007790089,0.010203166864812374,0.566975474357605,0.6545655131340027,-6.7713847160339355,4
90,-0.04982702061533928,0.09030809998512268,0.018578367307782173,0.5916072726249695,0.47128576040267944,-6.763360977172852,4
91,0.026356954127550125,0.023918025195598602,-0.102913498878479,0.26391464471817017,0.4055430293083191,-6.762598037719727,4
92,-0.10875946283340454,-0.0801268219947815,0.08797238022089005,0.0,0.0,0.0,4
93,0.07097027450799942,0.05745344236493111,-0.024021122604608536,0.5761187672615051,-0.0007578161894343793,0.0004089570720680058,4
94,-0.09905975311994553,0.017078125849366188,0.0077070328406989574,0.5752729773521423,-0.0007383142947219312,0.0004288438067305833,4
95,-0.15008802711963654,-0.10010772943496704,-0.011193855665624142,-1.711584448814392,-27.3359317779541,-0.4207158386707306,4
96,0.04622765630483627,0.08546008914709091,-0.05419696494936943,0.05027132108807564,-22.17405128479004,-0.09504514187574387,4
97,-0.048679862171411514,-0.011648495681583881,0.029801765456795692,-0.767197847366333,-14.9384765625,-0.08249623328447342,4
98,-0.005677959881722927,-0.08619580417871475,-0.1180277168750763,-0.8270044326782227,-9.92027473449707,-0.11192324757575989,4
99,0.09591451287269592,0.004913763143122196,-0.013596990145742893,-0.8763659000396729,-0.003772284369915724,0.01910361833870411,4
100,0.049119479954242706,0.08707141131162643,0.0016447575762867928,0.6319249272346497,8.989602088928223,-0.11504513770341873,4
101,-0.0661841481924057,0.01521717943251133,0.013929886743426323,0.9622163772583008,12.006529808044434,-0.23034077882766724,4
102,0.17067113518714905,-0.02518787607550621,0.018067145720124245,0.6046375036239624,18.190752029418945,-0.22373296320438385,4
103,-0.04353364557027817,0.022529780864715576,0.0007319055148400366,-3.6585116386413574,23.177356719970703,0.5414807200431824,4
104,-0.039114292711019516,-0.0444587841629982,-0.020894337445497513,-3.1404831409454346,26.46454429626465,0.5811738967895508,4
105,0.008309445343911648,0.10584227740764618,0.014762700535356998,1.8643585443496704,28.876272201538086,-0.09145423769950867,4
106,-0.004761198069900274,-0.04243885353207588,0.08491123467683792,1.3561614751815796,29.43235206604004,-0.04966478422284126,4
107,-0.035202499479055405,0.14039815962314606,-0.026158159598708153,0.9774874448776245,30.29311752319336,-0.04371735453605652,4
108,0.061863575130701065,-0.018110714852809906,-0.10220683366060257,-2.5964694023132324,29.949161529541016,-0.08453944325447083,4
109,-0.09159659594297409,-0.14289502799510956,-0.011090257205069065,-0.7980250716209412,30.008182525634766,0.03251945599913597,4
110,-0.038008905947208405,0.06643560528755188,-0.003266350831836462,-1.3240420818328857,28.647249221801758,-0.0549757182598114,4
111,0.058432865887880325,-0.015125852078199387,0.02456601709127426,-1.0657836198806763,25.74263572692871,-0.07470715045928955,4
112,0.060889922082424164,-0.04465046152472496,0.07713085412979126,1.4960594177246094,26.277734756469727,0.6089000701904297,4
113,-0.0007427497184835374,0.09199487417936325,-0.09570719301700592,0.5073242783546448,24.650646209716797,0.33522069454193115,4
114,0.06590268760919571,-0.011309575289487839,-0.021191302686929703,0.08945631980895996,23.364160537719727,0.19104254245758057,4
115,-0.0026610521599650383,-0.04895801097154617,-0.12570960819721222,0.24912132322788239,23.356515884399414,0.24909153580665588,4
116,0.05527413636445999,-0.08470526337623596,-0.11444322764873505,0.5546959638595581,22.163312911987305,0.39003127813339233,4
117,-0.049008648842573166,0.013172587379813194,-0.09724368900060654,-1.0340020656585693,21.42359161376953,-0.1924826055765152,4
118,0.043315205723047256,-0.017019255086779594,0.023696595802903175,0.6341727375984192,21.05634880065918,0.4191255569458008,4
119,0.025134753435850143,-0.023615015670657158,-0.10502734780311584,0.46180468797683716,19.64023208618164,0.3900642693042755,4
120,0.0029297710862010717,-0.016741501167416573,0.005794831085950136,0.026636667549610138,19.768417358398438,0.24642397463321686,4
121,0.12297476828098297,-0.084806889295578,0.00942201167345047,0.35513851046562195,19.045650482177734,0.36647728085517883,4
122,0.01144312135875225,0.03822259232401848,-0.09584026783704758,-0.16448025405406952,18.42124366760254,0.23888342082500458,4
123,-0.012582187540829182,0.06080516800284386,-0.01508770789951086,-0.6684510707855225,16.932743072509766,0.13505122065544128,4
124,0.07884841412305832,-0.029405519366264343,-0.0026802963111549616,0.21859753131866455,17.547067642211914,0.3063832223415375,4
125,0.15872624516487122,-0.05105024576187134,-0.0492047555744648,0.055905964225530624,17.03897476196289,0.2842322885990143,4
126,-0.07355935126543045,-0.01776104047894478,-0.014974789693951607,-0.5923224091529846,15.885980606079102,0.2023264616727829,4
127,-0.011736655607819557,0.05024854093790054,0.028633737936615944,-0.3879323899745941,14.697929382324219,0.22027121484279633,4
128,-0.10410676151514053,-0.034608274698257446,0.0014375032624229789,0.9021561145782471,14.672779083251953,0.28055909276008606,4
129,-0.040567733347415924,0.04079335927963257,0.04603901132941246,0.46235406398773193,14.655660629272461,0.2741025984287262,4
130,-0.045722100883722305,0.03807679936289787,-0.1023227646946907,0.6450470685958862,13.877449989318848,0.29152625799179077,4
131,-0.08295585215091705,-0.05502402409911156,0.08546417206525803,0.5497259497642517,13.571512222290039,0.3049485981464386,4
132,-0.06093870848417282,-0.09595073014497757,-0.11997248232364655,0.46185410022735596,12.974364280700684,0.33646687865257263,4
133,0.018555086106061935,0.017982441931962967,-0.03686828166246414,-0.6614115238189697,12.31663990020752,0.4949522018432617,4
134,-0.004582067485898733,-0.01047773752361536,0.014828373678028584,0.0262345839291811,11.98373031616211,0.38494130969047546,4
135,0.07430478185415268,0.160662442445755,0.012733504176139832,0.5405688881874084,11.634936332702637,0.2892181873321533,4
136,-0.0844670906662941,0.017293600365519524,-0.01371642854064703,-0.3243485391139984,11.205183029174805,0.49778902530670166,4
137,0.010751403868198395,-0.09638325870037079,-0.02009468339383602,0.7088527083396912,10.946033477783203,0.22716055810451508,4
138,0.04707106575369835,0.08808863908052444,-0.05591398850083351,0.5820469260215759,10.577103614807129,0.2728707194328308,4
139,-0.003018620889633894,-0.01010048110038042,-0.17048145830631256,-0.0477575957775116,9.845258712768555,0.49762871861457825,4
140,0.015605404041707516,-0.01809391751885414,-0.001711049466393888,0.031560901552438736,9.652070999145508,0.4721405506134033,4
141,-0.021327337250113487,0.0022081793285906315,-0.0660834088921547,0.19326171278953552,9.418950080871582,0.41140127182006836,4
142,0.06737307459115982,0.03248745575547218,0.04640299826860428,0.10855944454669952,8.789509773254395,0.4586314260959625,4
143,0.061970558017492294,-0.20800215005874634,-0.010141474194824696,0.6632624864578247,8.897979736328125,0.20938172936439514,4
144,0.021536722779273987,0.027403224259614944,-0.07308301329612732,0.563890814781189,8.650146484375,0.2630627751350403,4
145,-0.01228912640362978,0.05557956546545029,-0.10506059229373932,-0.3169444501399994,8.381447792053223,0.6988062858581543,4
146,-0.048249680548906326,0.0568111389875412,-0.12179737538099289,-0.26745015382766724,8.111043930053711,0.6759340167045593,4
147,0.05860868841409683,0.06462274491786957,0.06888465583324432,0.7702499032020569,8.189790725708008,0.12558743357658386,4
148,-0.015700114890933037,-0.06418107450008392,-0.06445875763893127,0.15727318823337555,7.790090084075928,0.46532100439071655,4
149,-0.05832932889461517,0.07055085897445679,-0.07718228548765182,0.2958696484565735,7.709872722625732,0.38972094655036926,4
150,-0.01793999783694744,0.018553107976913452,0.047462090849876404,0.2039044201374054,7.416942119598389,0.44787922501564026,4
151,-0.060092128813266754,-0.061695557087659836,-0.03580907732248306,-0.04722103849053383,6.948146343231201,0.6030353307723999,4
152,-0.03357399255037308,0.04043540731072426,0.026387857273221016,0.6955437064170837,6.783347129821777,0.1634107232093811,4
153,-0.04208359867334366,0.024331919848918915,-0.0715387687087059,0.5960829257965088,6.790755748748779,0.22302761673927307,4
154,0.0029623243026435375,-0.012225840240716934,-0.007137855049222708,0.5213422179222107,6.295722961425781,0.2885080873966217,4
155,0.05025998875498772,0.06533767282962799,0.002874221419915557,0.2906683087348938,5.9114155769348145,0.4510110318660736,4
156,0.015522370114922523,-0.047398973256349564,-0.055081747472286224,0.3019128143787384,6.121401786804199,0.43463534116744995,4
157,-0.023804882541298866,0.17243081331253052,-0.09480106830596924,0.47935956716537476,5.964415073394775,0.3214290142059326,4
158,-0.03630584105849266,0.03537983074784279,0.055458083748817444,0.4375273585319519,5.832625389099121,0.3526691794395447,4
159,-0.0029972889460623264,0.012210911139845848,0.026170413941144943,0.1542995721101761,5.704800128936768,0.5492695569992065,4
160,-0.03153671324253082,0.005092752166092396,0.02987533248960972,0.28577232360839844,5.828334331512451,0.4544966220855713,4
161,0.05988546833395958,0.03613856062293053,0.15842966735363007,0.045197200030088425,4.989638328552246,0.6408764123916626,4
162,-0.09427575767040253,0.09982168674468994,-0.001840371871367097,0.12219354510307312,5.329989910125732,0.581409215927124,4
163,0.06099272146821022,-0.06943435221910477,0.034064311534166336,0.5864273309707642,5.222229480743408,0.25748297572135925,4
164,0.06702059507369995,0.022889841347932816,0.0265035480260849,0.35539960861206055,5.40899658203125,0.41421422362327576,4
165,0.03806828334927559,-0.0021414279472082853,-0.1198802962899208,0.2669249176979065,5.071104526519775,0.4843651354312897,4
166,0.02910512313246727,-0.03720933198928833,0.000841362401843071,0.5234771370887756,4.949361801147461,0.30770355463027954,4
167,0.10673554986715317,-0.06617403030395508,0.05429178848862648,0.4680667519569397,4.809895992279053,0.3503491282463074,4
168,0.041857726871967316,0.03436315432190895,0.03847070038318634,0.2732406258583069,4.556698322296143,0.49417969584465027,4
169,0.06248529255390167,0.06298977136611938,-0.0027106450870633125,0.4440295994281769,4.580546855926514,0.37362414598464966,4
170,-0.007232814561575651,0.041985586285591125,-0.13486343622207642,-0.12880410254001617,4.502347946166992,0.7741865515708923,4
171,0.06160346418619156,-0.03713490441441536,0.04685988277196884,0.22327837347984314,4.414682388305664,0.5278242230415344,4
172,0.047157786786556244,0.05139700323343277,-0.0449855700135231,0.3280167877674103,4.335948467254639,0.4559522867202759,4
173,0.048805445432662964,0.019591454416513443,0.02176208421587944,0.5527774095535278,4.332189083099365,0.2993893325328827,4
174,0.0502365417778492,-0.01392917800694704,-0.09988154470920563,0.33619222044944763,3.9308478832244873,0.4575871229171753,4
175,0.008695939555764198,0.06008121371269226,0.05082109197974205,0.5583750605583191,4.1506500244140625,0.29750898480415344,4
176,-0.003654315136373043,0.12709762156009674,-0.05771941319108009,0.4910895526409149,4.066635608673096,0.3458380103111267,4
177,0.0007085729157552123,0.11190462857484818,-0.06199510022997856,-0.16778375208377838,3.752079725265503,0.7991667985916138,4
178,-0.04479064792394638,0.010188872925937176,0.05124945938587189,0.49401161074638367,4.053504943847656,0.34454259276390076,4
179,-0.019398249685764313,-0.007944255135953426,0.006874012760818005,-0.15489204227924347,4.093116283416748,0.7778953313827515,4
180,0.03742234408855438,-0.07280781865119934,-0.04264455288648605,0.28458648920059204,3.4248788356781006,0.4922516644001007,4
181,-0.10167219489812851,-0.04896638169884682,0.02615518681704998,-0.0028463939670473337,3.6009891033172607,0.6793143153190613,4
182,-0.1784379631280899,-0.06795092672109604,0.10359861701726913,0.7703881859779358,3.6434528827667236,0.16951332986354828,4
183,0.07316971570253372,0.051782481372356415,0.08364909142255783,0.05515480414032936,3.7364249229431152,0.6341994404792786,4
184,-0.018202194944024086,0.021344326436519623,-0.005419144406914711,0.138322114944458,3.5324466228485107,0.5829982757568359,4
185,0.07221920788288116,0.03611411526799202,0.11949431896209717,0.20247165858745575,3.4588465690612793,0.5419638156890869,4
186,-0.040325745940208435,-0.006071348208934069,-0.11423080414533615,0.7846470475196838,3.317412853240967,0.1749088168144226,4
187,0.09348484873771667,0.032824546098709106,-0.06206886097788811,0.1319154053926468,3.1774284839630127,0.5878313183784485,4
188,-0.08541043847799301,0.05992286652326584,-0.07922597229480743,0.11858441680669785,3.301926374435425,0.5931284427642822,4
189,-0.06227872148156166,0.006855851039290428,-0.013879679143428802,0.8887908458709717,3.232125997543335,0.1100265309214592,4
190,0.052974581718444824,-0.02959306351840496,-0.014452596195042133,0.5119661092758179,3.3690245151519775,0.33783531188964844,4
191,-0.0203159898519516,-0.07346861809492111,-0.053428005427122116,0.6311038732528687,3.0910093784332275,0.2749808132648468,4
192,0.05965380370616913,-0.04341975972056389,-0.16218465566635132,0.2477724850177765,3.1005773544311523,0.5068424344062805,4
193,0.05433982238173485,0.03711862862110138,-0.06722212582826614,0.6726804375648499,2.867135524749756,0.25602951645851135,4
194,0.001243577222339809,-0.040084972977638245,-0.03529810905456543,-0.040388643741607666,2.5067408084869385,0.6978313326835632,4
195,0.06906276196241379,0.0176128800958395,-0.15813253819942474,-0.011293401010334492,2.7043354511260986,0.6756898760795593,4
196,-0.03850904107093811,0.11504996567964554,0.06534359604120255,0.32133737206459045,2.837808609008789,0.46935519576072693,4
197,-0.027289653196930885,-0.0050020115450024605,0.13201934099197388,0.807407796382904,2.832751989364624,0.17433838546276093,4
198,0.03901154175400734,0.13583312928676605,-0.02170844003558159,0.6929702758789062,2.52276873588562,0.25284120440483093,4
199,0.030971134081482887,0.1516052484512329,-0.06405207514762878,0.6046749353408813,2.585756778717041,0.30173876881599426,4
200,-0.01527721993625164,0.029025470837950706,-0.09530241787433624,0.5283008813858032,2.609222173690796,0.3435966968536377,4
201,-0.0428134985268116,-0.22224074602127075,-0.025983788073062897,-0.14667457342147827,2.4728918075561523,0.7455272078514099,4
202,-0.0010760558070614934,0.011353254318237305,0.018132230266928673,0.5316024422645569,2.4459612369537354,0.3476916253566742,4
203,0.07477506995201111,0.006084390915930271,-0.011625383980572224,-0.13939093053340912,2.4093687534332275,0.7397789359092712,4
204,0.13941600918769836,-0.0560491718351841,-0.027790406718850136,-0.013776596635580063,2.514219284057617,0.665918231010437,4
205,0.01387856062501669,-0.05004832521080971,-0.02528347447514534,0.08239666372537613,2.2098937034606934,0.6078073978424072,4
206,-0.14350706338882446,0.0075909229926764965,-0.0036028942558914423,0.3874795138835907,2.050370931625366,0.43172165751457214,4
207,-0.11578012257814407,-0.06090964376926422,0.09728693217039108,0.7623452544212341,2.370314121246338,0.21437963843345642,4
208,0.024404073134064674,0.10791793465614319,-0.017387941479682922,0.43236592411994934,2.2272181510925293,0.40362879633903503,4
209,-0.004270739387720823,0.06686637550592422,-0.0162051934748888,0.4115714728832245,2.478226661682129,0.40903618931770325,4
210,-0.0035285213962197304,-0.10206275433301926,-0.08821562677621841,0.3956809341907501,2.2089765071868896,0.4226962625980377,4
211,-0.010495412163436413,0.029850827530026436,-0.029125845059752464,0.3853965699672699,2.1532628536224365,0.429185152053833,4
212,-0.1661202609539032,0.04580633342266083,0.09182761609554291,0.30208808183670044,1.9596186876296997,0.47697946429252625,4
213,0.3418844938278198,-0.11515261232852936,-1.0341134071350098,0.5996235609054565,2.019258975982666,0.317477285861969,4
214,-0.15030989050865173,-0.8071856498718262,-2.2747931480407715,0.023704998195171356,1.9201167821884155,0.6207489967346191,4
215,-0.7678272128105164,-0.4222973883152008,1.5596940517425537,0.6042593717575073,1.9801833629608154,0.30513063073158264,4
216,-1.278350591659546,-0.535455584526062,-2.4276766777038574,0.24995361268520355,1.582578420639038,0.5113404989242554,4
217,-0.12276353687047958,0.5670660734176636,2.5034868717193604,0.3429429829120636,1.6308684349060059,0.4466415345668793,4
218,1.3890151977539062,-0.5382919907569885,-0.8261589407920837,0.2663065493106842,1.6548864841461182,0.4968443214893341,4
219,2.596451759338379,-4.976797103881836,-1.0781538486480713,0.3309880793094635,1.5985758304595947,0.4549514651298523,4
220,4.517368316650391,-4.289274215698242,-0.20537035167217255,0.2665780782699585,1.6971887350082397,0.49535244703292847,4
221,-0.10103019326925278,0.8088342547416687,-0.9419850707054138,0.2804340124130249,1.7042362689971924,0.48875507712364197,4
222,2.070114850997925,-2.2676801681518555,-1.6085532903671265,0.3603161871433258,1.8425512313842773,0.42693936824798584,4
223,-5.60397481918335,5.571042060852051,-1.4694335460662842,0.5847188830375671,1.862356424331665,0.3134259879589081,4
224,6.971673488616943,-9.299763679504395,0.4593558609485626,0.5209023356437683,1.890223741531372,0.30549925565719604,4
225,-5.7282633781433105,-7.608578205108643,5.110697269439697,0.5047515630722046,1.9172970056533813,0.34025856852531433,4
226,0.9999351501464844,8.264653205871582,4.007290363311768,0.6834548115730286,1.9861714839935303,0.322527676820755,4
227,-7.714217185974121,1.806400179862976,5.032231330871582,0.5249943733215332,2.577686309814453,0.39436525106430054,4
228,-9.918722152709961,-2.924002170562744,8.402280807495117,0.6412135362625122,3.0268962383270264,0.3642796277999878,4
229,2.6120758056640625,9.405505180358887,7.877692222595215,0.8619599342346191,3.1155574321746826,0.3609391748905182,4
230,-4.0682454109191895,2.9037067890167236,9.893387794494629,0.9048241376876831,3.14670467376709,0.4056259095668793,4
231,-10.03495979309082,-19.37721061706543,11.315279960632324,1.2669321298599243,4.446348667144775,0.29096952080726624,4
232,-12.936400413513184,20.462295532226562,11.241701126098633,1.4101673364639282,4.391383647918701,0.3971894681453705,4
233,-43.66914749145508,11.405108451843262,7.433135509490967,1.5092072486877441,5.088853359222412,0.38667914271354675,4
234,-66.8799819946289,-2.0760560035705566,2.5237839221954346,1.3551937341690063,4.624844074249268,0.4870661497116089,4
235,-106.48309326171875,-4.533310890197754,-3.709547281265259,1.5774602890014648,4.640061378479004,0.4097564220428467,4
236,-109.38579559326172,-5.237585067749023,-1.2161484956741333,2.187443256378174,3.780020236968994,0.3115205764770508,4
237,-116.07788848876953,13.209202766418457,-0.6163583397865295,1.3206509351730347,4.7467241287231445,-0.050152041018009186,4
238,-100.57410430908203,28.03803062438965,3.160226583480835,-0.622156023979187,3.2040488719940186,0.09276488423347473,4
239,-93.68128967285156,32.38046646118164,4.4200968742370605,-4.325601577758789,-0.4030669033527374,0.5590205788612366,4
240,-75.92364501953125,26.638986587524414,2.0021250247955322,-5.392203330993652,-2.105463981628418,0.665992259979248,4
241,-57.27574920654297,12.415997505187988,0.16868168115615845,-6.8687543869018555,-6.308115482330322,0.73732590675354,4
242,-24.46219825744629,-4.504576206207275,-6.450004577636719,-7.433555603027344,-6.579391002655029,1.1483651399612427,4
243,23.435850143432617,-20.215307235717773,-8.621992111206055,-7.193356037139893,-6.349767208099365,0.5303992033004761,4
244,70.53765106201172,-34.27639389038086,-3.7622807025909424,-6.705764293670654,-5.202913761138916,0.6360509991645813,4
245,101.44290924072266,-48.41241455078125,6.849113464355469,-5.254120826721191,-4.670663356781006,-0.6284081935882568,4
246,123.6742935180664,-85.71284484863281,18.783082962036133,-4.623403072357178,-2.7500081062316895,-0.10353310406208038,4
247,126.87699890136719,-120.2710952758789,19.904592514038086,-2.7494328022003174,-1.1277638673782349,-0.7386547923088074,4
248,108.49983978271484,-154.7135009765625,20.017305374145508,-0.06574749201536179,0.5232901573181152,-1.5550323724746704,4
249,74.95706939697266,-173.4534149169922,20.705734252929688,5.514002323150635,2.20088529586792,-4.12470817565918,4
250,33.23983383178711,-178.5235595703125,25.008201599121094,9.3294038772583,2.8370306491851807,-5.500614643096924,4
251,-13.56190299987793,-164.1791229248047,27.865341186523438,12.012042999267578,2.7379603385925293,-5.805327415466309,4
252,-52.11476135253906,-125.00947570800781,28.236915588378906,13.983195304870605,1.9799989461898804,-5.288364887237549,4
253,-77.63504028320312,-68.0460205078125,28.565778732299805,14.733592987060547,1.0411694049835205,-3.971778631210327,4
254,-84.83253479003906,-6.241497993469238,28.130014419555664,15.207515716552734,-0.15759685635566711,-3.085552215576172,4
255,-74.23615264892578,59.3785400390625,29.107406616210938,14.136380195617676,-3.665365219116211,0.9910079836845398,4
256,-45.65669250488281,120.40969848632812,28.999069213867188,13.309283256530762,-4.034938812255859,1.0617172718048096,4
257,-8.431427001953125,161.79576110839844,30.458160400390625,10.594831466674805,-5.293087482452393,3.0151116847991943,4
258,19.701263427734375,182.12547302246094,27.79066276550293,10.148658752441406,-4.914767742156982,1.9440315961837769,4
259,55.744529724121094,186.4276123046875,30.46795654296875,7.816575527191162,-4.010523796081543,1.622118353843689,4
260,84.38671875,182.82244873046875,29.20836639404297,6.46661901473999,-3.175076961517334,0.9923557043075562,4
261,101.61690521240234,171.4224395751953,29.270248413085938,3.8282222747802734,-1.8773738145828247,1.3398451805114746,4
262,109.0123062133789,146.8019256591797,22.36720085144043,2.465402126312256,-0.8743706941604614,1.283994436264038,4
263,98.85342407226562,111.58348846435547,14.85665512084961,0.3496178388595581,0.6142999529838562,1.6389732360839844,4
264,70.11071014404297,76.60179138183594,8.68624210357666,-0.6023187637329102,1.5650625228881836,1.7379627227783203,4
265,44.59681701660156,41.26481628417969,3.585937023162842,-1.2141350507736206,2.216536521911621,1.791907548904419,4
266,23.72304916381836,11.56087589263916,-1.0365086793899536,-2.057619571685791,2.953032970428467,1.9873236417770386,4
267,3.8409667015075684,-15.296537399291992,-4.066171169281006,-2.0785300731658936,3.1788785457611084,1.9472612142562866,4
268,-14.714580535888672,-39.51621627807617,-4.6308465003967285,-2.1959681510925293,3.479405641555786,1.9793246984481812,4
269,-31.98084259033203,-50.63395309448242,-8.378046035766602,-2.040111541748047,3.3050379753112793,1.9320429563522339,4
270,-45.69472885131836,-44.144920349121094,-11.047557830810547,-0.99261075258255,3.3808393478393555,1.8648985624313354,4
271,-60.262115478515625,-24.75188446044922,-12.164315223693848,-0.5154118537902832,2.9760591983795166,1.7401880025863647,4
272,-71.58412170410156,-6.915835857391357,-12.044882774353027,-0.5294233560562134,2.099179267883301,1.5363566875457764,4
273,-66.64623260498047,18.290157318115234,-10.603019714355469,-0.3725317716598511,1.7586398124694824,1.5072908401489258,4
274,-48.117637634277344,50.19757843017578,-4.244847774505615,-0.7533493041992188,1.007809042930603,1.3852431774139404,4
275,-32.974693298339844,71.59841918945312,1.4791275262832642,-0.9497965574264526,0.670890748500824,1.385585069656372,4
276,-17.800342559814453,86.65904998779297,6.72111701965332,-1.4169819355010986,0.39156001806259155,1.4055016040802002,4
277,-3.183641195297241,97.72712707519531,8.313263893127441,-2.273577928543091,0.11665971577167511,1.4463857412338257,4
278,-2.813007116317749,107.68638610839844,8.49660873413086,-3.0968239307403564,0.07531402260065079,1.5185567140579224,4
279,-7.265381813049316,106.12870788574219,7.978277206420898,-4.608845233917236,-0.0004181687254458666,1.644469976425171,4
280,-12.420854568481445,92.43095397949219,5.049357891082764,-5.455183029174805,-0.0012432725634425879,1.7123699188232422,4
281,-15.138368606567383,65.24832153320312,3.1378273963928223,-6.686079502105713,-0.17597278952598572,1.7817610502243042,4
282,-11.79805850982666,30.080411911010742,1.3581632375717163,-6.913031578063965,-0.3022233843803406,1.7301788330078125,4
283,0.8340162038803101,-8.736018180847168,-0.09859626740217209,-7.436875343322754,-0.36662447452545166,1.819406270980835,4
284,8.691263198852539,-45.36766815185547,-0.2132338285446167,-7.1728668212890625,-0.32338929176330566,1.8097193241119385,4
285,10.673063278198242,-63.90336227416992,3.3666255474090576,-6.8070855140686035,-0.2567197382450104,1.8050072193145752,4
286,12.776199340820312,-67.76473999023438,10.192352294921875,-6.082508087158203,-0.11920836567878723,1.8368616104125977,4
287,14.638204574584961,-54.2672119140625,13.231551170349121,-5.296518325805664,-0.025138311088085175,1.8621282577514648,4
288,10.865850448608398,-26.101234436035156,13.973484992980957,-4.817933082580566,0.2628709673881531,2.1210005283355713,4
289,-9.369438171386719,2.1470720767974854,10.706511497497559,-4.442964553833008,0.36917343735694885,2.2254257202148438,4
290,-26.169727325439453,26.46520233154297,8.121326446533203,-4.60748815536499,0.10793352872133255,2.204481840133667,4
291,-36.81633758544922,32.05686569213867,13.72685718536377,-5.128793716430664,-0.3294343650341034,2.164236307144165,4
292,-38.64023208618164,27.812118530273438,16.958436965942383,-5.831124782562256,-1.3194013833999634,1.8539484739303589,4
293,-31.272180557250977,10.387945175170898,19.331811904907227,-4.262079238891602,-0.529298722743988,2.486877202987671,4
294,-14.97516918182373,-2.6176064014434814,17.39409065246582,-4.633133411407471,-1.0310739278793335,2.591611385345459,4
295,5.495549201965332,-2.589933156967163,17.71283721923828,-4.757226943969727,-1.0807979106903076,2.8843796253204346,4
296,22.452119827270508,3.2790205478668213,16.763553619384766,-5.141195297241211,-0.955277681350708,3.244157552719116,4
297,25.31524085998535,6.933160781860352,16.514970779418945,-5.606507301330566,-1.0395187139511108,3.3248493671417236,4
298,19.187423706054688,4.189992427825928,17.861125946044922,-6.316200256347656,-1.7007420063018799,2.9775562286376953,4
299,11.254596710205078,-3.7729060649871826,20.200223922729492,-5.961904525756836,-0.5410854816436768,3.739628791809082,4
300,4.094182968139648,-19.610401153564453,14.576896667480469,-6.067580699920654,-0.9689164161682129,3.5459768772125244,4
301,-1.379709005355835,-36.692100524902344,11.349702835083008,-6.265592575073242,-0.7894245386123657,3.8896114826202393,4
302,7.080024242401123,-56.379032135009766,8.221351623535156,-4.951653480529785,-0.33325284719467163,4.099005222320557,4
303,13.542879104614258,-61.270347595214844,7.205682754516602,-4.256807804107666,-0.6884563565254211,3.8441553115844727,4
304,13.520029067993164,-46.514892578125,6.274022579193115,-3.81453537940979,-0.09080791473388672,4.286403656005859,4
305,4.552663326263428,-26.163043975830078,3.1967344284057617,-3.2621474266052246,0.008475595153868198,4.315935134887695,4
306,-9.105585098266602,-5.372087001800537,4.852029800415039,-3.113232374191284,-1.6115330457687378,3.3229191303253174,4
307,-7.139612674713135,6.514182090759277,10.912359237670898,-3.094446897506714,-1.153860330581665,3.6732563972473145,4
308,7.263613224029541,14.080808639526367,7.781472682952881,-3.312959909439087,-0.9125644564628601,3.9730184078216553,4
309,15.541548728942871,15.983114242553711,3.6726748943328857,-3.4866838455200195,-0.6402167677879333,4.169933795928955,4
310,11.913640022277832,11.015334129333496,-4.191102981567383,-3.7980964183807373,-0.28401580452919006,4.340160846710205,4
311,17.966333389282227,15.713165283203125,-10.594563484191895,-4.477707386016846,-0.09108851104974747,4.479726791381836,4
312,17.1278133392334,10.47903823852539,-12.480761528015137,-4.23841667175293,0.2104818969964981,4.34425163269043,4
313,15.421309471130371,-3.5051205158233643,-13.499797821044922,-4.334202766418457,-0.005003644153475761,4.052198886871338,4
314,24.663869857788086,0.8158405423164368,-14.132779121398926,-4.298501491546631,0.004773719701915979,3.855506658554077,4
315,32.94569396972656,-4.444899559020996,-17.60851287841797,-3.6615731716156006,-0.1109023466706276,3.4539237022399902,4
316,37.19325256347656,-16.322633743286133,-21.17742919921875,-3.635179281234741,0.8532370924949646,3.5407073497772217,4
317,27.79849624633789,-22.18943977355957,-24.2176456451416,-3.482438325881958,1.5913732051849365,3.473771810531616,4
318,8.207328796386719,-26.72850227355957,-28.260263442993164,-3.3746700286865234,2.376650333404541,3.4283154010772705,4
319,-18.481571197509766,-28.026018142700195,-31.94114875793457,-3.0164918899536133,2.2684037685394287,3.0676157474517822,4
320,-41.9144401550293,-35.63182067871094,-34.047576904296875,-2.8731443881988525,2.6744399070739746,2.9204511642456055,4
321,-51.16989517211914,-34.55110168457031,-35.806644439697266,-2.411341905593872,2.366941452026367,2.6031246185302734,4
322,-58.68125534057617,-29.330068588256836,-36.44295883178711,-2.1407833099365234,2.1301369667053223,2.312265634536743,4
323,-53.917808532714844,-25.093082427978516,-36.306915283203125,-1.74203622341156,1.4000086784362793,1.9234716892242432,4
324,-57.18299102783203,-18.623205184936523,-33.60990524291992,-1.8985260725021362,1.421964406967163,1.5855237245559692,4
325,-60.44551467895508,-11.718518257141113,-33.60065841674805,-1.5544699430465698,0.5870050191879272,1.2380907535552979,4
326,-54.752017974853516,-12.683755874633789,-35.444480895996094,-1.27144193649292,0.4103702902793884,0.9465187191963196,4
327,-30.936532974243164,-20.229515075683594,-37.31326675415039,-1.2986408472061157,0.07982758432626724,0.5955357551574707,4
328,-19.255998611450195,-21.558149337768555,-38.52181625366211,-0.8645959496498108,-0.3989247679710388,0.23057156801223755,4
329,-13.777515411376953,-14.781599998474121,-35.730323791503906,-0.6827711462974548,-0.40938758850097656,-0.14955481886863708,4
330,-32.67342758178711,-10.115255355834961,-34.68583679199219,-0.4525054097175598,-0.8582678437232971,-0.48381155729293823,4
331,-49.62994384765625,-4.378591537475586,-33.20439529418945,-0.31108972430229187,-0.9735274314880371,-0.8793373107910156,4
332,-62.171669006347656,6.216431617736816,-30.67611312866211,-0.27699771523475647,-1.6704617738723755,-1.175803542137146,4
333,-66.21016693115234,9.23669147491455,-28.332061767578125,-0.31155869364738464,-2.106644868850708,-1.5110125541687012,4
334,-56.931121826171875,9.17521858215332,-30.022682189941406,-0.4000154733657837,-3.1680800914764404,-1.724181056022644,4
335,-38.917423248291016,5.10875940322876,-29.55815315246582,-0.38979479670524597,-3.3565831184387207,-2.111551523208618,4
336,-19.508325576782227,5.357610702514648,-26.602529525756836,-0.4107210338115692,-3.9680335521698,-2.3666844367980957,4
337,-6.358072757720947,10.503021240234375,-24.771373748779297,-0.4351915121078491,-3.9349164962768555,-2.6849303245544434,4
338,-4.953542232513428,15.994755744934082,-26.171180725097656,-0.5469363331794739,-3.9724466800689697,-2.9324605464935303,4
339,-6.507616996765137,13.658447265625,-25.877225875854492,-0.7223531007766724,-4.298312664031982,-3.130056142807007,4
340,-10.848060607910156,4.932149887084961,-23.72771644592285,-0.9007636904716492,-4.165996074676514,-3.3958420753479004,4
341,-12.55701732635498,2.5851833820343018,-22.42738914489746,-0.9311772584915161,-4.527163505554199,-3.598170757293701,4
342,-12.606718063354492,9.478484153747559,-17.511091232299805,-1.002824068069458,-4.4701247215271,-3.810091495513916,4
343,-12.412410736083984,13.123117446899414,-13.458751678466797,-1.1127899885177612,-4.799186706542969,-3.946611166000366,4
344,-10.631230354309082,5.857067108154297,-11.749921798706055,-1.2457072734832764,-4.647514343261719,-4.108659744262695,4
345,-1.1335277557373047,-11.74942398071289,-10.798857688903809,-1.2221356630325317,-4.809491157531738,-4.259597301483154,4
346,12.370840072631836,-28.821928024291992,-10.536761283874512,-1.0690776109695435,-5.060665130615234,-4.348039150238037,4
347,23.927244186401367,-40.44163131713867,-7.673946380615234,-0.5876410007476807,-4.859044551849365,-4.549273490905762,4
348,26.755126953125,-43.81584930419922,-2.288834810256958,-0.2684153616428375,-4.348642349243164,-4.563797473907471,4
349,18.95701026916504,-29.118911743164062,1.0486387014389038,0.12266864627599716,-4.10590934753418,-4.509029388427734,4
350,-5.799580097198486,0.927913248538971,5.619513988494873,0.25623008608818054,-3.976235866546631,-4.397645950317383,4
351,-27.754690170288086,19.975364685058594,8.482454299926758,0.2034180760383606,-4.199671745300293,-4.304531097412109,4
352,-38.759273529052734,30.537168502807617,14.40911865234375,0.0032715799752622843,-4.637576103210449,-4.212162017822266,4
353,-37.700687408447266,21.963787078857422,17.28262710571289,-0.19758890569210052,-4.761515140533447,-4.190316677093506,4
354,-26.173133850097656,3.9400222301483154,17.74252700805664,-0.25916728377342224,-5.358771324157715,-4.0705485343933105,4
355,-11.027722358703613,-12.466408729553223,17.193315505981445,-0.21629445254802704,-5.5658488273620605,-3.9484198093414307,4
356,2.0696589946746826,-19.673200607299805,18.082002639770508,-0.0006541605107486248,-5.796716213226318,-3.7858383655548096,4
357,18.81304931640625,-13.927105903625488,21.30966567993164,0.20269495248794556,-5.765995979309082,-3.5973451137542725,4
358,40.97456741333008,-3.1388907432556152,25.401403427124023,0.44132837653160095,-5.431328296661377,-3.469031572341919,4
359,59.185394287109375,9.673277854919434,29.33388900756836,0.46288612484931946,-5.7982988357543945,-3.070010185241699,4
360,74.01122283935547,16.31641387939453,31.293682098388672,0.6360940337181091,-5.002211570739746,-3.016231060028076,4
361,75.13121032714844,16.971942901611328,33.7674560546875,0.3010140359401703,-4.087706565856934,-2.6667234897613525,4
362,61.793357849121094,12.605474472045898,32.4376220703125,-0.013852580450475216,-3.608039617538452,-2.2099015712738037,4
363,45.72998809814453,9.332612037658691,25.63843536376953,-0.2376505434513092,-2.7292346954345703,-1.91024911403656,4
364,40.197654724121094,-0.7480190396308899,20.409603118896484,-0.3743147850036621,-2.619534969329834,-1.5686402320861816,4
365,40.366455078125,-22.9005184173584,19.533889770507812,-0.42447328567504883,-2.033331871032715,-1.3635112047195435,4
366,43.566104888916016,-44.20924758911133,22.33970832824707,-0.23743769526481628,-1.7411596775054932,-1.1111925840377808,4
367,45.81387710571289,-52.212398529052734,23.565340042114258,0.345966100692749,-1.0884960889816284,-0.9612899422645569,4
368,43.223548889160156,-44.62723922729492,22.408037185668945,0.6252909898757935,-0.8134219646453857,-0.6190283298492432,4
369,30.5444278717041,-33.2728271484375,18.02869987487793,1.2498515844345093,-0.2734883725643158,-0.46530720591545105,4
370,20.224401473999023,-25.953989028930664,16.114412307739258,1.452028751373291,-0.18118418753147125,-0.2239023596048355,4
371,7.951898574829102,-17.967323303222656,11.239910125732422,1.5624091625213623,-0.08912748098373413,-0.02998855710029602,4
372,-9.756028175354004,-4.760187149047852,7.84828519821167,1.6818677186965942,0.03180733323097229,0.06966496258974075,4
373,-23.442628860473633,8.739960670471191,5.596894264221191,1.590263843536377,-0.22111135721206665,0.18873873353004456,4
374,-26.63996124267578,7.966133117675781,2.6955199241638184,1.4557806253433228,-0.4580199122428894,0.23353280127048492,4
375,-13.991877555847168,0.19507716596126556,3.5879337787628174,1.2960054874420166,-0.6829004883766174,0.2513540983200073,4
376,2.141420364379883,-11.447093963623047,3.0112075805664062,1.4465303421020508,-0.6050363183021545,0.2379620373249054,4
377,20.32562828063965,-15.016139030456543,1.432735800743103,1.7259304523468018,-0.4331434369087219,0.24227274954319,4
378,35.20245361328125,-8.782011032104492,-0.29683130979537964,1.948690414428711,0.010786711238324642,0.19184546172618866,4
379,52.0000114440918,6.779223918914795,-3.2442283630371094,1.799726128578186,0.1725541204214096,0.2368069440126419,4
380,60.94221878051758,29.56595802307129,-7.905388355255127,1.5303279161453247,0.9806481003761292,0.0890277698636055,4
381,61.741912841796875,42.21885681152344,-10.082533836364746,1.2140969038009644,1.5805774927139282,0.019207388162612915,4
382,47.978309631347656,47.688228607177734,-11.093767166137695,0.8738356232643127,2.020005702972412,0.003806504188105464,4
383,27.1148681640625,44.50422286987305,-11.802567481994629,0.3015015423297882,2.6384010314941406,-0.15977399051189423,4
384,2.363224744796753,28.39974021911621,-9.732460975646973,-0.07838080823421478,2.8284966945648193,-0.24038070440292358,4
385,-1.724732756614685,18.885560989379883,-8.299837112426758,-0.38302627205848694,2.9267749786376953,-0.3504473567008972,4
386,-10.917547225952148,3.511726140975952,-5.950440406799316,-0.5703902840614319,2.9360947608947754,-0.43695753812789917,4
387,-19.944568634033203,-13.371732711791992,-4.11431360244751,-0.5222931504249573,2.8543758392333984,-0.4758768677711487,4
388,-30.281770706176758,-25.461585998535156,-3.3920764923095703,-0.2872787415981293,2.5829620361328125,-0.479939341545105,4
389,-24.329439163208008,-33.11737823486328,-0.4481230676174164,-0.022306807339191437,2.2541890144348145,-0.5159343481063843,4
390,-12.761470794677734,-30.273117065429688,5.342633247375488,0.2738030254840851,2.1971588134765625,-0.5685210227966309,4
391,-6.239900588989258,-16.08138084411621,9.596713066101074,0.5776360630989075,2.1478917598724365,-0.5295029878616333,4
392,-12.279386520385742,0.6891032457351685,11.955611228942871,0.5576655268669128,2.367231845855713,-0.5525526404380798,4
393,-16.308698654174805,14.13593864440918,11.011822700500488,0.3627130091190338,2.0135016441345215,-0.48907843232154846,4
394,-16.996023178100586,20.56609535217285,6.361382484436035,0.2174583524465561,1.6940854787826538,-0.36379727721214294,4
395,1.961380958557129,15.414449691772461,1.4459693431854248,-0.03012281283736229,1.5811184644699097,-0.32414600253105164,4
396,15.108383178710938,0.49702826142311096,-1.1322609186172485,-0.09108807146549225,1.771378993988037,-0.2887824475765228,4
397,10.400006294250488,-21.643341064453125,-1.2518199682235718,0.02590978518128395,2.016061305999756,-0.2624233663082123,4
398,7.531091690063477,-38.86857604980469,-3.00290584564209,0.37004512548446655,2.1775057315826416,-0.2504994571208954,4
399,-0.9659415483474731,-34.966922760009766,-0.4308251440525055,0.8302042484283447,2.1189539432525635,-0.24662171304225922,4
400,-18.753801345825195,-26.83534812927246,2.899505138397217,1.2854090929031372,2.0472395420074463,-0.209819033741951,4
401,-32.336002349853516,-17.064411163330078,3.471284866333008,1.7343733310699463,1.7487618923187256,-0.10293961316347122,4
402,-29.997570037841797,-16.450868606567383,4.051088333129883,2.0153424739837646,1.3665375709533691,-0.02123681828379631,4
403,-25.878124237060547,-10.81911849975586,6.238981246948242,1.636216402053833,1.0382115840911865,-0.1873951554298401,4
404,-22.280858993530273,5.504919052124023,8.243797302246094,1.8114066123962402,0.7792283892631531,-0.08875157684087753,4
405,-14.860241889953613,13.565051078796387,8.228923797607422,1.735460638999939,0.575308620929718,-0.015008177608251572,4
406,-2.820324659347534,23.16273307800293,8.577986717224121,1.5313729047775269,0.5042406320571899,0.03371864929795265,4
407,10.170153617858887,32.79673767089844,10.398974418640137,1.2190285921096802,0.4878050982952118,0.10396552830934525,4
408,11.831957817077637,28.105026245117188,8.060754776000977,0.9416022300720215,0.6577031016349792,0.20806922018527985,4
409,5.791738033294678,19.73525619506836,6.233847618103027,0.5292773246765137,0.8055872321128845,0.2453635185956955,4
410,7.844826698303223,11.739429473876953,7.054466247558594,0.33909183740615845,0.8781765103340149,0.30540379881858826,4
411,11.584871292114258,9.7911958694458,9.269708633422852,0.35033437609672546,0.9908636808395386,0.4063301086425781,4
412,12.542031288146973,-1.4142673015594482,13.101530075073242,0.2947624623775482,1.16410231590271,0.5013019442558289,4
413,6.063920974731445,-10.130547523498535,14.404109001159668,0.39053595066070557,1.319292426109314,0.6419793963432312,4
414,-6.962545394897461,-13.212700843811035,15.195863723754883,0.5989551544189453,1.2755876779556274,0.8190526366233826,4
415,-25.12035369873047,-15.259761810302734,16.746530532836914,0.684796929359436,1.140562891960144,0.9645666480064392,4
416,-29.944210052490234,-12.107217788696289,16.472557067871094,0.9733783006668091,0.6829954385757446,1.1869657039642334,4
417,-33.137977600097656,1.8592559099197388,13.31850528717041,1.147354245185852,0.3177171051502228,1.3691637516021729,4
418,-31.633468627929688,19.745948791503906,11.559983253479004,0.6892597079277039,-0.3241187334060669,1.4590158462524414,4
419,-17.305572509765625,35.937591552734375,14.092578887939453,0.6337363719940186,-0.1375008523464203,1.5350338220596313,4
420,1.256178379058838,45.024532318115234,19.134824752807617,0.17501796782016754,-0.3200094997882843,1.6696884632110596,4
421,15.38339614868164,49.39731216430664,20.237075805664062,-0.264760285615921,-0.20190449059009552,1.8499072790145874,4
422,20.4454288482666,54.32468032836914,19.615097045898438,-0.858721137046814,0.17126013338565826,2.0144248008728027,4
423,11.182145118713379,48.068756103515625,17.68401336669922,-1.290487289428711,0.36335453391075134,2.224818468093872,4
424,0.08261081576347351,30.47355079650879,15.037262916564941,-1.5795060396194458,0.4030326008796692,2.4277873039245605,4
425,-5.489141941070557,12.104859352111816,12.966268539428711,-2.0192301273345947,0.3363320529460907,2.565458297729492,4
426,-11.11998462677002,-10.179884910583496,9.48031234741211,-2.1125218868255615,0.3247571289539337,2.6878280639648438,4
427,-27.6662540435791,-24.597816467285156,5.044820785522461,-1.886220932006836,0.18246927857398987,2.786914587020874,4
428,-35.596160888671875,-42.475624084472656,-0.9518280625343323,-1.4455454349517822,-0.2781517803668976,2.8357090950012207,4
429,-32.57151794433594,-48.53202819824219,-6.578345775604248,-0.8645085096359253,-0.537591814994812,2.8406925201416016,4
430,-17.93577766418457,-50.31779098510742,-10.420228004455566,-0.2801242768764496,-0.546451210975647,2.805136203765869,4
431,-15.962517738342285,-42.445594787597656,-11.03475570678711,0.2964545488357544,-0.590454638004303,2.72060227394104,4
432,-21.626893997192383,-21.717241287231445,-8.778393745422363,0.613888680934906,-0.8952504396438599,2.604015588760376,4
433,-22.46385955810547,6.071900367736816,-4.663802623748779,0.7188680171966553,-0.955386221408844,2.5316951274871826,4
434,-13.564824104309082,35.329490661621094,-1.3494179248809814,0.49096134305000305,-1.014877438545227,2.49444317817688,4
435,-3.401608943939209,63.57456588745117,0.5729357004165649,-0.051725149154663086,-1.0712631940841675,2.4777212142944336,4
436,0.13838164508342743,82.13427734375,4.220515251159668,-0.9661431312561035,-1.125637412071228,2.4739508628845215,4
437,-3.7491185665130615,87.68013763427734,8.54619026184082,-1.6869142055511475,-0.9373940229415894,2.5119433403015137,4
438,-14.54765796661377,75.45288848876953,10.654160499572754,-2.7402963638305664,-1.139678716659546,2.57839035987854,4
439,-14.427056312561035,53.16420364379883,9.876651763916016,-3.449281930923462,-1.3970057964324951,2.6538188457489014,4
440,-12.019139289855957,26.687490463256836,9.027682304382324,-3.8813440799713135,-1.5657117366790771,2.732933521270752,4
441,-3.8366003036499023,15.74532413482666,4.112813949584961,-4.040371894836426,-1.4254220724105835,2.8441128730773926,4
442,2.4636595249176025,0.6617420315742493,1.9188432693481445,-4.25388765335083,-1.5530816316604614,2.8596901893615723,4
443,0.8529447317123413,-20.362346649169922,4.845902919769287,-4.1786370277404785,-1.5947495698928833,2.8575735092163086,4
444,-8.62814998626709,-42.79976272583008,6.230450630187988,-3.8575353622436523,-1.5996845960617065,2.9051241874694824,4
445,-21.114564895629883,-46.865150451660156,9.73996353149414,-3.3910045623779297,-1.6423152685165405,2.997760534286499,4
446,-22.416336059570312,-33.838687896728516,14.144698143005371,-2.7595601081848145,-2.0642921924591064,3.022963285446167,4
447,-18.511980056762695,-16.82253074645996,17.525556564331055,-2.6810715198516846,-2.0327367782592773,3.290898084640503,4
448,-11.383387565612793,-1.1301733255386353,20.274768829345703,-2.5574679374694824,-2.2345051765441895,3.464606523513794,4
449,2.7142696380615234,0.5450833439826965,24.84819221496582,-2.645207643508911,-2.219890594482422,3.7216734886169434,4
450,14.773459434509277,1.5892412662506104,28.484573364257812,-2.7338321208953857,-2.1889584064483643,3.977752923965454,4
451,17.0564022064209,-4.063996315002441,29.031631469726562,-2.6874430179595947,-1.9657198190689087,4.294581890106201,4
452,16.158245086669922,-9.485420227050781,27.20033836364746,-2.537616491317749,-1.8900554180145264,4.5246195793151855,4
453,18.003990173339844,-19.019033432006836,24.73654556274414,-2.415480852127075,-1.8007410764694214,4.764091968536377,4
454,12.064631462097168,-24.09894371032715,20.46579933166504,-2.1400146484375,-1.55190110206604,5.018910884857178,4
455,0.05882253125309944,-12.503414154052734,15.42829418182373,-2.1511003971099854,-1.5803221464157104,5.217782497406006,4
456,-14.902645111083984,-2.626101016998291,7.553728103637695,-2.2158210277557373,-1.6677510738372803,5.3680315017700195,4
457,-24.919408798217773,0.26646870374679565,-1.7696548700332642,-2.0785627365112305,-1.9430166482925415,5.371340751647949,4
458,-16.18241310119629,-0.9473292827606201,-7.628192901611328,-2.0649991035461426,-2.3665621280670166,5.273774147033691,4
459,-13.981241226196289,-8.298748970031738,-6.304388999938965,-1.9096969366073608,-2.446998357772827,5.1979851722717285,4
460,-26.465627670288086,-16.152368545532227,-2.977421283721924,-1.7077786922454834,-2.5789129734039307,5.138901710510254,4
461,-30.673858642578125,-17.723690032958984,-3.1574254035949707,-1.710313081741333,-2.9921529293060303,5.114472389221191,4
462,-21.8048152923584,-25.023887634277344,-10.318601608276367,-1.5892046689987183,-3.337538480758667,5.082796573638916,4
463,8.638871192932129,-37.87119674682617,-16.71459197998047,-1.0772533416748047,-3.44144344329834,4.945554256439209,4
464,51.35828399658203,-46.19137954711914,-16.161155700683594,-0.5807909965515137,-3.0835254192352295,4.826810359954834,4
465,81.50533294677734,-37.52907943725586,-12.402987480163574,-0.41798460483551025,-2.225200891494751,4.8306403160095215,4
466,96.74327850341797,-20.955148696899414,-10.158897399902344,-0.10793326795101166,-1.5416985750198364,4.695154666900635,4
467,88.2264633178711,3.3560638427734375,-5.412513732910156,0.18516212701797485,-0.1557721197605133,4.650548934936523,4
468,69.81022644042969,25.201824188232422,0.4391610324382782,0.0006256141932681203,0.2569712996482849,4.564969062805176,4
469,39.657772064208984,37.222801208496094,2.488919734954834,-0.3557519316673279,1.168007254600525,4.636380195617676,4
470,-0.7910009622573853,49.560279846191406,2.9666757583618164,-0.8381729125976562,0.9661741852760315,4.619349002838135,4
471,-26.858562469482422,48.304595947265625,6.425038814544678,-1.3243112564086914,0.858963131904602,4.661904335021973,4
472,-44.288394927978516,28.52421760559082,3.313282012939453,-1.7089734077453613,0.4478074610233307,4.705016136169434,4
473,-49.19597625732422,8.895844459533691,0.7677631378173828,-1.9728131294250488,-0.06418047845363617,4.727601528167725,4
474,-34.5322265625,-24.738521575927734,2.6508100032806396,-1.8742578029632568,-0.4392458200454712,4.740853786468506,4
475,-11.531556129455566,-56.965518951416016,3.8051412105560303,-1.3289411067962646,-0.718934953212738,4.761948108673096,4
476,4.975569248199463,-62.45438766479492,3.310232162475586,-0.7344538569450378,-0.7982028126716614,4.807405471801758,4
477,15.007817268371582,-54.78453826904297,1.1347094774246216,-0.45207467675209045,-0.7077767252922058,4.860864639282227,4
478,21.28391456604004,-42.018184661865234,-2.759816884994507,0.25123125314712524,-0.38789817690849304,4.8751020431518555,4
479,18.07416343688965,-29.00165367126465,-5.2005839347839355,0.655485987663269,-0.1591431349515915,4.843841552734375,4
480,4.719181537628174,-20.52068328857422,-3.6320343017578125,0.9856216311454773,-0.03711418807506561,4.790283203125,4
481,-4.933919429779053,-15.337069511413574,-1.273913860321045,1.0544759035110474,-0.12126424163579941,4.758978366851807,4
482,7.138687610626221,-1.4137276411056519,-2.606170654296875,1.3167932033538818,-0.1357945203781128,4.74263334274292,4
483,20.061756134033203,4.381267070770264,-5.467463493347168,1.4209989309310913,0.14195212721824646,4.7067484855651855,4
484,22.360496520996094,-9.068888664245605,-10.316542625427246,1.4850876331329346,0.43484628200531006,4.641402721405029,4
485,8.682092666625977,-24.077537536621094,-14.423565864562988,1.4166806936264038,0.480135053396225,4.545638561248779,4
486,-14.869956016540527,-39.977622985839844,-14.343568801879883,1.4007253646850586,0.46208372712135315,4.395692825317383,4
487,-27.005842208862305,-31.86943244934082,-11.159102439880371,1.8778703212738037,0.14887738227844238,4.275363445281982,4
488,-28.321077346801758,-7.7693634033203125,-8.827078819274902,2.088804244995117,0.011880733072757721,4.1406474113464355,4
489,-24.398151397705078,13.967957496643066,-6.054760456085205,2.017458200454712,-0.34085339307785034,4.067178726196289,4
490,-15.548196792602539,36.725643157958984,-1.4627891778945923,1.7018693685531616,-0.48594003915786743,3.9958724975585938,4
491,-13.65224552154541,40.88589096069336,2.0233559608459473,1.257163166999817,-0.7249959707260132,3.9961633682250977,4
492,-12.34660816192627,46.4785041809082,3.4341702461242676,0.7558830380439758,-0.7604798078536987,3.9825406074523926,4
493,-15.062280654907227,50.432655334472656,8.74429702758789,0.159139484167099,-0.8867011666297913,4.01455020904541,4
494,-10.774344444274902,46.744571685791016,14.252640724182129,-0.380925714969635,-1.0891194343566895,4.11570405960083,4
495,-20.1033878326416,29.85835075378418,19.562158584594727,-0.695646345615387,-1.24521803855896,4.281872272491455,4
496,-28.260971069335938,11.624554634094238,17.214998245239258,-0.9779942631721497,-1.5170912742614746,4.476139545440674,4
497,-26.603187561035156,-6.854037284851074,14.607144355773926,-1.0041202306747437,-1.8034963607788086,4.63917350769043,4
498,-7.048133850097656,-20.587709426879883,14.560633659362793,-0.6801906824111938,-1.9130710363388062,4.773493766784668,4
499,26.420246124267578,-27.067235946655273,11.8160400390625,-0.37589970231056213,-1.895753026008606,4.921711444854736,4
500,58.33148956298828,-22.23932456970215,10.46924877166748,0.049064505845308304,-1.3078398704528809,5.01177453994751,4
501,82.06339263916016,-14.803881645202637,12.49885082244873,0.3507145345211029,-0.45711567997932434,5.094753742218018,4
502,84.14303588867188,-7.251514434814453,12.784570693969727,0.4347416162490845,0.4204344153404236,5.212839126586914,4
503,58.57313537597656,9.877359390258789,13.31287670135498,0.4988568127155304,1.0698254108428955,5.3564043045043945,4
504,30.28851318359375,12.499255180358887,13.172233581542969,0.32802480459213257,1.6297227144241333,5.491301536560059,4
505,5.473369598388672,8.602928161621094,12.924650192260742,0.19424007833003998,1.6735095977783203,5.6582159996032715,4
506,-14.00984001159668,14.16442584991455,10.178268432617188,0.15702180564403534,1.7018482685089111,5.782398223876953,4
507,-25.854944229125977,12.5794095993042,8.56411075592041,-0.03289245069026947,1.437650203704834,5.896252155303955,4
508,-37.73978042602539,5.388483047485352,5.993701457977295,-0.2800193428993225,0.9625087976455688,5.989863395690918,4
509,-42.680545806884766,-7.1771440505981445,6.007267951965332,-0.289886474609375,0.4819965958595276,6.06252384185791,4
510,-41.40087890625,-22.229413986206055,6.035719871520996,-0.056069426238536835,0.1977132260799408,6.119647026062012,4
511,-38.59516143798828,-30.57523536682129,6.38395357131958,0.37919172644615173,-0.221036896109581,6.2047014236450195,4
512,-44.088069915771484,-28.94747543334961,5.827188968658447,0.362172931432724,-0.716312825679779,6.239317893981934,4
513,-47.12855911254883,-29.890817642211914,7.607820510864258,0.7643863558769226,-1.1230334043502808,6.311164855957031,4
514,-35.419715881347656,-18.94464874267578,11.875102043151855,0.9702511429786682,-1.6121119260787964,6.397205352783203,4
515,-16.703439712524414,6.349041938781738,13.638997077941895,1.2064988613128662,-1.791675329208374,6.516696453094482,4
516,-4.47418737411499,18.852384567260742,14.733515739440918,1.0988086462020874,-1.8198760747909546,6.641785144805908,4
517,-3.212838888168335,23.023435592651367,11.156343460083008,0.8486717343330383,-2.001149892807007,6.791688919067383,4
518,-8.79054069519043,17.823442459106445,4.094271183013916,0.6449777483940125,-1.8795084953308105,6.863839626312256,4
519,-6.439210414886475,8.56210994720459,-3.087991952896118,0.6010259389877319,-2.0825116634368896,6.901554584503174,4
520,1.8759866952896118,4.991326808929443,-9.80790901184082,0.2706961929798126,-2.2037808895111084,6.863607406616211,4
521,11.488554000854492,1.6675266027450562,-16.553815841674805,0.34658530354499817,-2.0603251457214355,6.733863353729248,4
522,12.90404987335205,12.542471885681152,-24.35653305053711,-0.083309106528759,-1.894871711730957,6.553499698638916,4
523,8.7890625,20.817228317260742,-31.875490188598633,-0.28276297450065613,-1.828250527381897,6.293332576751709,4
524,20.57535171508789,16.495752334594727,-31.755496978759766,-0.4749705195426941,-1.5873745679855347,5.95086669921875,4
525,42.538211822509766,-0.3570447266101837,-27.363075256347656,-0.5221014022827148,-1.4168424606323242,5.641180038452148,4
526,58.584312438964844,-6.872464179992676,-24.45833969116211,-0.5620795488357544,-0.954659104347229,5.375956058502197,4
527,70.13224792480469,-9.71043872833252,-20.43107032775879,-0.3949744701385498,-0.40418270230293274,5.133085250854492,4
528,69.36119079589844,-6.8979363441467285,-15.44184398651123,-0.3299473822116852,0.3788997530937195,4.936854839324951,4
529,62.929630279541016,8.260185241699219,-8.668126106262207,-0.28620436787605286,1.2026911973953247,4.7894415855407715,4
530,50.130210876464844,25.213247299194336,-1.1566005945205688,-0.42791038751602173,1.3611727952957153,4.753724098205566,4
531,28.98193359375,31.789976119995117,2.4107553958892822,-0.7704555988311768,2.1018710136413574,4.745173931121826,4
532,-5.182458400726318,28.802919387817383,3.178341865539551,-1.1124414205551147,2.141698122024536,4.789558410644531,4
533,-31.38754653930664,18.501901626586914,7.348881244659424,-1.4177030324935913,1.6945085525512695,4.84661340713501,4
534,-40.88248062133789,-4.012970447540283,10.614866256713867,-1.5366076231002808,1.2937390804290771,4.932427883148193,4
535,-48.32295608520508,-36.364158630371094,5.45529842376709,-1.197715401649475,0.8794538974761963,5.044713020324707,4
536,-41.405155181884766,-63.589969635009766,-3.134739398956299,-0.6443815231323242,0.46449244022369385,5.085263252258301,4
537,-28.870119094848633,-79.39810180664062,-9.928444862365723,-0.22667697072029114,0.12378761917352676,5.013983249664307,4
538,-12.775446891784668,-76.17668914794922,-15.95712947845459,0.9349232912063599,-0.057228658348321915,4.944146156311035,4
539,-5.315359592437744,-60.35341262817383,-19.34206199645996,1.7588443756103516,-0.004872577264904976,4.786147117614746,4
540,-14.445077896118164,-29.87445640563965,-19.919469833374023,2.207736015319824,-0.0631769597530365,4.5515947341918945,4
541,-28.768173217773438,-1.950567603111267,-21.726205825805664,2.289613723754883,-0.31170186400413513,4.332831859588623,4
542,-43.71287155151367,20.600698471069336,-21.622888565063477,2.2492403984069824,-0.8030500411987305,4.126916408538818,4
543,-43.943511962890625,34.05060958862305,-16.725557327270508,1.9480020999908447,-1.2905279397964478,3.9189822673797607,4
544,-39.295013427734375,38.804203033447266,-9.405563354492188,1.4485825300216675,-1.6212750673294067,3.7380049228668213,4
545,-28.490524291992188,49.57513427734375,-0.6656296849250793,1.025037169456482,-2.084850788116455,3.674668788909912,4
546,-8.41236686706543,57.84249496459961,3.0299971103668213,0.398603618144989,-2.357592821121216,3.6646857261657715,4
547,24.342527389526367,54.91183090209961,6.222689151763916,-0.39755815267562866,-2.196065664291382,3.654123306274414,4
548,46.403175354003906,45.96941375732422,7.207427024841309,-0.9077416062355042,-1.6288825273513794,3.6662373542785645,4
549,53.41901397705078,26.31718635559082,8.721674919128418,-1.4122761487960815,-1.074715256690979,3.7306125164031982,4
550,45.0532341003418,-6.322570323944092,11.404739379882812,-1.4761983156204224,-0.5795885920524597,3.831732988357544,4
551,21.645753860473633,-40.81730270385742,11.872415542602539,-0.8981266021728516,0.12189619243144989,3.9166088104248047,4
552,-6.444470405578613,-75.4936294555664,9.317366600036621,-0.4734944999217987,-0.31762343645095825,4.055572986602783,4
553,-35.322967529296875,-97.9358901977539,1.0126177072525024,0.78379887342453,-0.6382645964622498,4.1207098960876465,4
554,-44.71620559692383,-100.04115295410156,-8.048396110534668,1.4397097826004028,-1.2208385467529297,4.13092041015625,4
555,-35.56624984741211,-84.66732025146484,-15.32022476196289,2.6965439319610596,-1.6886422634124756,4.044658184051514,4
556,-11.04556941986084,-56.15841293334961,-23.76706314086914,3.253201961517334,-2.02017879486084,3.893310070037842,4
557,24.433521270751953,-12.442062377929688,-28.924448013305664,3.5712108612060547,-1.8205735683441162,3.632319927215576,4
558,52.373836517333984,28.32891082763672,-33.511375427246094,3.5848584175109863,-1.3727192878723145,3.3155477046966553,4
559,77.23478698730469,61.63168716430664,-34.769691467285156,2.9481358528137207,-0.637622594833374,2.9566409587860107,4
560,84.86636352539062,65.52705383300781,-41.00913619995117,1.9832018613815308,0.17712609469890594,2.60373592376709,4
561,72.04592895507812,63.248207092285156,-46.367435455322266,1.3126720190048218,0.9066899418830872,2.2058215141296387,4
562,55.037559509277344,55.227359771728516,-50.3052864074707,0.5787985920906067,1.5697661638259888,1.755639910697937,4
563,37.73602294921875,38.56375503540039,-56.38738250732422,0.021150188520550728,1.9217199087142944,1.2785325050354004,4
564,12.494062423706055,19.413511276245117,-60.3607292175293,-0.16265280544757843,2.335602283477783,0.6867753267288208,4
565,-4.994711875915527,-1.3852864503860474,-56.6999626159668,-0.17489822208881378,2.1074254512786865,0.15696841478347778,4
566,-19.344287872314453,-23.047168731689453,-55.70482635498047,0.02696625329554081,1.9998540878295898,-0.4067249596118927,4
567,-20.229881286621094,-29.10378074645996,-55.38651657104492,0.25482121109962463,1.5813225507736206,-0.9370043873786926,4
568,5.106331825256348,-44.71778869628906,-48.259765625,0.6337544322013855,1.1526390314102173,-1.4274547100067139,4
569,25.57720947265625,-60.99999237060547,-44.17527770996094,1.4690711498260498,1.4774266481399536,-1.8956328630447388,4
570,62.88384246826172,-61.857086181640625,-30.89158821105957,2.16280460357666,2.0115816593170166,-2.3229219913482666,4
571,80.78213500976562,-36.50961685180664,-22.686677932739258,2.553037166595459,2.7792775630950928,-2.659512519836426,4
572,87.9404296875,-5.112419128417969,-12.221519470214844,2.7265820503234863,3.539691686630249,-2.8595759868621826,4
573,69.84967803955078,36.86495590209961,-8.934547424316406,2.677729845046997,4.721590995788574,-3.020573616027832,4
574,44.963069915771484,70.99535369873047,-5.657372951507568,1.8606029748916626,5.003652572631836,-3.0563430786132812,4
575,3.9679605960845947,78.07005310058594,-2.9326353073120117,0.7328910827636719,5.3113789558410645,-3.123825788497925,4
576,-45.32774353027344,70.73722839355469,-4.981730937957764,0.011782953515648842,5.167534351348877,-3.0731866359710693,4
577,-72.97122955322266,45.202613830566406,-8.831768989562988,-0.4867760241031647,4.360235214233398,-2.985647439956665,4
578,-84.27613067626953,8.799419403076172,-15.700948715209961,-0.7633084654808044,3.3193323612213135,-3.0183210372924805,4
579,-59.69462585449219,-27.04298973083496,-19.7825927734375,-0.6185410022735596,2.6827526092529297,-3.1806106567382812,4
580,-4.518943786621094,-53.00181198120117,-18.137514114379883,-0.07583703100681305,2.4653706550598145,-3.331451654434204,4
581,51.68137741088867,-58.11383056640625,-13.961198806762695,0.4339866638183594,2.6431562900543213,-3.554389476776123,4
582,101.69905853271484,-43.63775634765625,-4.067834377288818,1.3686978816986084,3.71374773979187,-3.542482376098633,4
583,129.0482635498047,-18.553497314453125,0.14542162418365479,1.4182798862457275,4.778958320617676,-3.7305965423583984,4
584,148.14390563964844,16.998762130737305,7.634326934814453,1.3931310176849365,6.623655319213867,-3.793687582015991,4
585,146.085205078125,46.166053771972656,9.176103591918945,0.9876090288162231,7.801828384399414,-3.730161190032959,4
586,122.6017074584961,73.08214569091797,11.886551856994629,0.2071448266506195,9.505552291870117,-3.699542284011841,4
587,86.6738052368164,78.69155883789062,8.115912437438965,-0.44263672828674316,10.339349746704102,-3.4125137329101562,4
588,39.77213668823242,59.4229736328125,5.756278038024902,-1.1734169721603394,11.083319664001465,-3.211247682571411,4
589,-14.366717338562012,37.93389892578125,0.32067111134529114,-1.9081748723983765,11.400334358215332,-3.1972529888153076,4
590,-91.49044799804688,24.03434181213379,0.022783340886235237,-2.0726044178009033,10.794682502746582,-3.0268898010253906,4
591,-140.1368865966797,6.599111557006836,0.016759874299168587,-2.283071517944336,9.266580581665039,-3.0241825580596924,4
592,-169.49159240722656,-22.150188446044922,-1.6332552433013916,-1.9781248569488525,7.958429336547852,-2.777589797973633,4
593,-172.48924255371094,-53.197113037109375,-5.647265434265137,-1.5954842567443848,5.695423126220703,-2.8136112689971924,4
594,-146.32281494140625,-88.24794006347656,-8.349992752075195,-0.9218267202377319,4.2950921058654785,-2.8581862449645996,4
595,-98.21546173095703,-108.51367950439453,-15.500916481018066,0.5538036227226257,2.7009599208831787,-2.561648368835449,4
596,-58.60639953613281,-98.57826232910156,-20.62749481201172,1.2570708990097046,2.2381815910339355,-3.069667100906372,4
597,-19.17180633544922,-64.95081329345703,-21.408775329589844,2.4422945976257324,1.8281214237213135,-3.044498920440674,4
598,0.008682631887495518,-19.226045608520508,-22.153907775878906,2.625551223754883,1.9854086637496948,-3.551823139190674,4
599,4.747495651245117,40.301361083984375,-20.190715789794922,2.4658172130584717,2.0540976524353027,-3.875826120376587,4
600,10.5617094039917,85.94025421142578,-21.12912940979004,1.5221073627471924,2.1211049556732178,-4.299640655517578,4
601,15.194806098937988,110.9555892944336,-23.124958038330078,0.5301234722137451,2.234463691711426,-4.4926838874816895,4
602,18.918062210083008,118.98693084716797,-23.029510498046875,-1.2046438455581665,2.45281982421875,-5.033696174621582,4
603,20.409154891967773,99.61721801757812,-22.348072052001953,-1.8655298948287964,2.8552165031433105,-4.946674823760986,4
604,22.92043685913086,70.00382995605469,-24.473060607910156,-3.0760421752929688,3.111757278442383,-5.306441783905029,4
605,8.912704467773438,25.967864990234375,-22.157550811767578,-3.0953996181488037,3.208081007003784,-5.272556781768799,4
606,-4.202330589294434,-9.280960083007812,-19.41845703125,-3.048715829849243,3.2330563068389893,-5.410408020019531,4
607,-30.672428131103516,-30.633628845214844,-15.052724838256836,-2.694495677947998,2.8752901554107666,-5.554155349731445,4
608,-45.11586380004883,-32.26350784301758,-12.77475357055664,-2.2101597785949707,2.256237030029297,-5.671802997589111,4
609,-49.37409973144531,-31.177515029907227,-10.511474609375,-1.8310281038284302,1.7308571338653564,-5.780811786651611,4
610,-55.10696792602539,-27.93421173095703,-5.313795566558838,-1.7587968111038208,1.6296460628509521,-5.878912925720215,4
611,-64.40727996826172,-18.783748626708984,4.407711029052734,-1.394429326057434,0.6901004314422607,-5.92634916305542,4
612,-74.96243286132812,-7.867603778839111,12.8069486618042,-1.2202773094177246,0.2004893571138382,-5.787839889526367,4
613,-74.39130401611328,3.171555519104004,22.98072052001953,-1.1760183572769165,-0.7862558364868164,-5.645855903625488,4
614,-66.32001495361328,-1.8639862537384033,26.577476501464844,-1.1173356771469116,-1.3811708688735962,-5.349031925201416,4
615,-47.022884368896484,-26.261123657226562,25.128442764282227,-1.0934350490570068,-2.138563632965088,-5.141092300415039,4
616,-27.146799087524414,-47.95884323120117,22.52481460571289,-0.5255602598190308,-2.3711955547332764,-4.814866542816162,4
617,-15.118346214294434,-49.97106170654297,21.500452041625977,0.2833113968372345,-2.3673038482666016,-4.490427017211914,4
618,-14.320740699768066,-28.648731231689453,22.849775314331055,0.6207871437072754,-2.450878620147705,-4.2471089363098145,4
619,-13.896297454833984,0.17099064588546753,24.015308380126953,0.8038510084152222,-2.562586784362793,-3.9969992637634277,4
620,-13.823206901550293,19.74020767211914,23.581823348999023,0.7837366461753845,-2.8924379348754883,-3.7945070266723633,4
621,-21.352664947509766,32.11475372314453,24.005308151245117,-0.22204789519309998,-2.804022789001465,-3.460052728652954,4
622,-28.67589569091797,36.513492584228516,26.283262252807617,-0.7034199833869934,-3.3130393028259277,-3.2488372325897217,4
623,-42.072383880615234,32.825401306152344,31.27719497680664,-1.110785961151123,-3.5798521041870117,-2.963013172149658,4
624,-44.9965934753418,35.094539642333984,34.034034729003906,-1.4799555540084839,-4.3234124183654785,-2.6984195709228516,4
625,-26.229806900024414,28.495473861694336,37.36820602416992,-2.0849618911743164,-4.2816243171691895,-2.229229688644409,4
626,9.393513679504395,15.600536346435547,38.42795944213867,-2.531500816345215,-4.293450832366943,-1.7665860652923584,4
627,27.640701293945312,11.38861083984375,41.54525375366211,-2.444810628890991,-3.838804244995117,-1.4145839214324951,4
628,27.54872703552246,9.631488800048828,45.26355743408203,-2.5640578269958496,-3.491783618927002,-0.9768869280815125,4
629,18.332029342651367,7.736456871032715,46.8648681640625,-2.812990188598633,-3.3180785179138184,-0.4751601219177246,4
630,2.5294854640960693,0.6863915920257568,43.608455657958984,-2.882816791534424,-3.1915621757507324,-0.010436165146529675,4
631,-7.857159614562988,-13.535158157348633,38.19886779785156,-2.638427972793579,-3.3714563846588135,0.2577688992023468,4
632,-24.688859939575195,-46.601924896240234,32.7414436340332,-2.1836583614349365,-3.544661521911621,0.5495986342430115,4
633,-34.26585006713867,-75.8223876953125,27.626920700073242,-0.6112731695175171,-4.4803466796875,0.22836218774318695,4
634,-40.201324462890625,-91.23430633544922,21.338563919067383,-1.032774567604065,-4.6782941818237305,1.2342543601989746,4
635,-40.4669303894043,-100.22654724121094,13.868133544921875,0.52269446849823,-4.999161243438721,1.1788356304168701,4
636,-28.674264907836914,-106.04854583740234,13.168282508850098,0.9895772933959961,-5.561502456665039,1.6689814329147339,4
637,-4.231136798858643,-88.52874755859375,13.412269592285156,2.1710586547851562,-5.6396331787109375,1.8009705543518066,4
638,31.75369644165039,-54.96680450439453,16.864721298217773,3.1750316619873047,-5.4371232986450195,1.843066930770874,4
639,73.55986785888672,-2.449545383453369,21.4383544921875,2.993865966796875,-4.631247043609619,2.3589189052581787,4
640,89.38187408447266,48.54364776611328,24.578845977783203,2.55199933052063,-3.7170157432556152,2.6986849308013916,4
641,93.4810562133789,83.75068664550781,27.711549758911133,1.525012731552124,-2.1762592792510986,3.170140027999878,4
642,73.16996002197266,101.58468627929688,30.969860076904297,0.4052864909172058,-2.028364658355713,3.499971389770508,4
643,42.28059005737305,102.2865982055664,32.604217529296875,-0.6954931616783142,-1.820574402809143,3.8064582347869873,4
644,15.768589973449707,92.11482238769531,33.31748962402344,-2.072956085205078,-1.3834161758422852,4.359584808349609,4
645,-2.641385316848755,59.896507263183594,32.54453659057617,-2.7948052883148193,-1.5713152885437012,4.620442867279053,4
646,-9.85350227355957,4.287357330322266,33.254493713378906,-3.072815418243408,-1.638646125793457,4.931976795196533,4
647,-16.803205490112305,-54.61393356323242,30.121932983398438,-2.5953190326690674,-1.6509991884231567,5.160608291625977,4
648,-18.584848403930664,-103.98975372314453,27.979156494140625,-1.1293467283248901,-1.9084036350250244,5.105291366577148,4
649,-14.502963066101074,-134.1449737548828,29.949867248535156,0.28825879096984863,-2.1723520755767822,5.308915615081787,4
650,-12.349016189575195,-142.8104705810547,29.098651885986328,2.0430679321289062,-2.348158597946167,5.472965717315674,4
651,1.8162351846694946,-126.44637298583984,28.156938552856445,3.1578760147094727,-2.3649888038635254,5.941567897796631,4
652,37.100990295410156,-92.24378204345703,23.749462127685547,4.732532501220703,-2.0099081993103027,6.009213924407959,4
653,63.67527389526367,-57.09005355834961,22.00475311279297,4.822012901306152,-1.2267918586730957,6.557427406311035,4
654,90.98533630371094,-11.884071350097656,20.073701858520508,4.779300689697266,-0.49022650718688965,6.937168121337891,4
655,76.21490478515625,25.670848846435547,23.060056686401367,4.765166759490967,0.6372247338294983,7.090124607086182,4
656,36.60673141479492,52.15184020996094,25.864343643188477,4.292599201202393,0.7093465328216553,7.456295013427734,4
657,-26.120519638061523,64.6695785522461,25.11368179321289,3.4318528175354004,0.802781879901886,7.7957563400268555,4
658,-82.24082946777344,63.55175018310547,20.463623046875,2.672898769378662,-0.09584939479827881,8.141763687133789,4
659,-106.78172302246094,49.040409088134766,14.620121955871582,2.064840078353882,-1.467848777770996,8.415657043457031,4
660,-95.73724365234375,37.64543914794922,9.342402458190918,1.813036322593689,-2.245198965072632,8.402570724487305,4
661,-62.223297119140625,15.284637451171875,5.287591457366943,1.4866830110549927,-3.202848196029663,8.5126314163208,4
662,-8.110703468322754,-0.4883631765842438,0.887703537940979,1.503149151802063,-3.2242276668548584,8.430198669433594,4
663,41.023197174072266,-13.156487464904785,-0.48072880506515503,1.7751554250717163,-2.9680230617523193,8.365756034851074,4
664,82.04578399658203,-15.152424812316895,2.1042511463165283,2.027407169342041,-2.1528923511505127,8.312121391296387,4
665,111.44220733642578,-10.393163681030273,6.597221374511719,2.2055282592773438,-0.8782176971435547,8.271590232849121,4
666,119.50314331054688,-1.5297820568084717,11.886700630187988,2.3561363220214844,0.551385760307312,8.264565467834473,4
667,112.87483978271484,18.001914978027344,17.631898880004883,2.1809380054473877,1.5489972829818726,8.493367195129395,4
668,77.45564270019531,43.42292022705078,28.553569793701172,1.7450555562973022,2.9433088302612305,8.640300750732422,4
669,36.78595733642578,47.223392486572266,35.2063102722168,1.338266372680664,2.779390573501587,9.177608489990234,4
670,-12.957391738891602,47.18250274658203,36.372127532958984,0.6783795952796936,2.9374728202819824,9.57263469696045,4
671,-51.04621505737305,32.64250564575195,32.588504791259766,0.3549129366874695,2.24314022064209,10.020913124084473,4
672,-79.38999938964844,1.014641523361206,27.299545288085938,0.27791887521743774,1.262063980102539,10.382798194885254,4
673,-84.16988372802734,-36.02615737915039,23.553417205810547,0.6970458030700684,0.4284091889858246,10.6272554397583,4
674,-77.09112548828125,-64.91421508789062,19.783876419067383,1.281006932258606,-0.352802038192749,10.836992263793945,4
675,-71.11200714111328,-88.95052337646484,15.111824989318848,2.232612133026123,-1.0879181623458862,11.022273063659668,4
676,-54.32716751098633,-98.87532043457031,6.419713020324707,3.233370304107666,-1.735802173614502,11.157037734985352,4
677,-41.98208236694336,-94.87557983398438,-2.533910036087036,4.268405437469482,-2.08967661857605,11.178571701049805,4
678,-30.424293518066406,-81.32186889648438,-11.824694633483887,5.129628658294678,-2.3323962688446045,11.107585906982422,4
679,-14.108102798461914,-48.47902297973633,-21.656986236572266,5.852889060974121,-2.6621015071868896,11.000324249267578,4
680,-6.1731743812561035,1.8032528162002563,-33.19230270385742,5.9143877029418945,-2.655416250228882,10.701560974121094,4
681,3.6992084980010986,52.263153076171875,-39.756256103515625,5.370032787322998,-2.5724501609802246,10.30567455291748,4
682,13.584104537963867,86.5457534790039,-45.112918853759766,4.42142915725708,-2.4291558265686035,9.8504638671875,4
683,31.495946884155273,92.6364974975586,-44.26688766479492,3.2778704166412354,-2.234025239944458,9.404260635375977,4
684,74.88833618164062,74.35436248779297,-36.86073684692383,2.365476369857788,-1.3384729623794556,8.840962409973145,4
685,107.22579956054688,58.216064453125,-30.57596206665039,2.0482072830200195,-0.6938444375991821,8.593596458435059,4
686,131.68472290039062,45.6607666015625,-23.943666458129883,1.4666463136672974,0.9695454835891724,8.144482612609863,4
687,135.36651611328125,44.34334945678711,-16.084672927856445,1.0307676792144775,2.3122870922088623,7.977529048919678,4
688,113.73733520507812,52.773197174072266,-9.175949096679688,0.5819801688194275,3.7915172576904297,7.787007808685303,4
689,78.5317153930664,55.75261688232422,-2.0058438777923584,0.07538939267396927,4.73621940612793,7.770675182342529,4
690,24.277423858642578,54.46043395996094,1.8349688053131104,-0.5913838148117065,5.036114692687988,7.8860626220703125,4
691,-46.146705627441406,31.564428329467773,0.5632129907608032,-1.0461490154266357,4.489943504333496,8.037518501281738,4
692,-95.89918518066406,-1.572229266166687,0.387163370847702,-1.0690202713012695,3.5359010696411133,8.106270790100098,4
693,-133.5915985107422,-49.401668548583984,-0.3168141841888428,-0.49127131700515747,2.2770566940307617,8.163498878479004,4
694,-149.6165771484375,-82.88671875,-4.267429828643799,0.4337509274482727,0.283725768327713,8.262602806091309,4
695,-139.22299194335938,-103.35626983642578,-8.02204704284668,1.5751338005065918,-0.4033523201942444,8.152621269226074,4
696,-82.98037719726562,-105.69005584716797,-5.504543781280518,2.6362195014953613,-1.263513207435608,8.054590225219727,4
697,-27.527557373046875,-83.09886169433594,0.4495002031326294,3.6340014934539795,-1.9221513271331787,8.092045783996582,4
698,33.02199172973633,-51.3890495300293,4.774024486541748,4.156710147857666,-1.5553125143051147,8.066693305969238,4
699,84.00792694091797,-8.646510124206543,7.041638374328613,4.620883464813232,-0.8067807555198669,8.149288177490234,4
700,123.86109924316406,46.062469482421875,12.293574333190918,4.164675712585449,0.4805983304977417,8.161827087402344,4
701,136.95603942871094,104.7770767211914,18.538484573364258,2.8834469318389893,1.8309382200241089,8.271773338317871,4
702,127.95509338378906,156.46881103515625,24.588844299316406,1.3262667655944824,2.968003034591675,8.564260482788086,4
703,112.46221160888672,193.07211303710938,29.642101287841797,-0.936710000038147,4.529325485229492,8.806604385375977,4
704,81.62838745117188,216.46414184570312,31.522796630859375,-2.7648959159851074,5.000043869018555,9.418987274169922,4
705,42.619720458984375,226.96441650390625,32.95033645629883,-5.247376441955566,5.797512054443359,9.875816345214844,4
706,-0.08609461784362793,222.48904418945312,34.1744270324707,-7.493975639343262,5.728809833526611,10.439085006713867,4
707,-48.230377197265625,192.68309020996094,35.51509094238281,-9.540814399719238,5.236947059631348,10.96584415435791,4
708,-82.45409393310547,142.99436950683594,30.75510025024414,-10.931861877441406,4.603870391845703,11.515811920166016,4
709,-96.57182312011719,75.38038635253906,24.795181274414062,-11.490179061889648,3.9409399032592773,12.1426420211792,4
710,-106.93707275390625,2.3231866359710693,12.88705825805664,-11.942606925964355,2.5153136253356934,12.07060718536377,4
711,-97.7974624633789,-69.46898651123047,2.5115580558776855,-11.110272407531738,2.158261775970459,12.737408638000488,4
712,-66.43009185791016,-126.30406951904297,-5.373701095581055,-9.490551948547363,1.1507574319839478,12.812989234924316,4
713,-29.447973251342773,-159.56407165527344,-7.610997676849365,-7.940672397613525,0.9796590805053711,13.008813858032227,4
714,13.037585258483887,-171.14642333984375,-10.398534774780273,-5.954995155334473,1.001865267753601,13.096487045288086,4
715,45.6463508605957,-167.86788940429688,-13.297159194946289,-4.511962890625,1.8014887571334839,13.283766746520996,4
716,73.21797180175781,-156.8544464111328,-13.14675521850586,-2.160902500152588,2.7064526081085205,13.664905548095703,4
717,85.06436157226562,-136.0713348388672,-17.23078155517578,-1.0648175477981567,3.264286756515503,13.077537536621094,4
718,94.41565704345703,-103.93209075927734,-15.551968574523926,-0.26064881682395935,4.3464484214782715,12.827559471130371,4
719,95.60163116455078,-57.76033401489258,-11.737049102783203,0.6319814920425415,5.317236423492432,12.558466911315918,4
720,57.295082092285156,-14.35755729675293,-9.050849914550781,0.675189197063446,6.063529968261719,12.305744171142578,4
721,13.231886863708496,15.100614547729492,-5.753936290740967,0.8277650475502014,6.343661308288574,12.308155059814453,4
722,-32.98600387573242,24.580432891845703,-6.0601959228515625,0.3171609938144684,6.009198188781738,11.99882698059082,4
723,-82.82217407226562,19.96318244934082,-8.212495803833008,0.32083186507225037,5.673099517822266,11.820920944213867,4
724,-121.1822509765625,3.824174404144287,-12.901124954223633,0.0928075835108757,5.067687511444092,11.793421745300293,4
725,-159.26473999023438,-25.6868839263916,-20.277324676513672,0.06721600145101547,3.5783462524414062,11.554681777954102,4
726,-163.6377716064453,-51.09678268432617,-24.896526336669922,0.42143678665161133,2.171024799346924,11.525461196899414,4
727,-132.55722045898438,-47.698509216308594,-28.92474365234375,0.8275172114372253,1.0423831939697266,11.450161933898926,4
728,-88.2473373413086,-26.294448852539062,-30.502941131591797,1.4615474939346313,-0.9759736657142639,11.06139850616455,4
729,-42.75861740112305,3.2789342403411865,-29.221330642700195,1.8113442659378052,-1.5062575340270996,10.870301246643066,4
730,-6.529473781585693,18.495407104492188,-27.374420166015625,1.7758046388626099,-2.320085048675537,10.484493255615234,4
731,17.617252349853516,28.971593856811523,-25.945241928100586,1.5466421842575073,-2.119931221008301,10.223011016845703,4
732,15.399160385131836,32.39130783081055,-30.32421112060547,1.1613534688949585,-2.0335142612457275,9.905744552612305,4
733,6.595457553863525,37.57448196411133,-32.039886474609375,0.8249794840812683,-1.934349775314331,9.592798233032227,4
734,-8.968109130859375,22.916370391845703,-33.90504455566406,0.47675684094429016,-1.8918801546096802,9.26274585723877,4
735,-40.733402252197266,2.4254536628723145,-33.304805755615234,0.18892309069633484,-1.848343849182129,8.921769142150879,4
736,-60.34172821044922,-4.957131862640381,-30.988847732543945,0.2995653450489044,-2.440459966659546,8.58209228515625,4
737,-67.80181121826172,-14.472304344177246,-27.999849319458008,0.49670231342315674,-2.7983412742614746,8.2820405960083,4
738,-72.89936828613281,-9.352569580078125,-28.380525588989258,0.5488678812980652,-3.325375556945801,8.008407592773438,4
739,-57.40534210205078,-1.5324515104293823,-26.110628128051758,0.6919820308685303,-4.322081565856934,7.735031604766846,4
740,-34.23225784301758,7.1349921226501465,-23.001943588256836,0.8082008957862854,-4.808464527130127,7.466329574584961,4
741,4.0822553634643555,25.126819610595703,-19.781230926513672,0.734067976474762,-5.127979755401611,7.23571252822876,4
742,43.84241485595703,41.73515701293945,-15.137873649597168,0.36883947253227234,-5.002622127532959,7.044540882110596,4
743,62.76887893676758,46.25864791870117,-15.480411529541016,-0.2533086836338043,-4.378280162811279,6.9166693687438965,4
744,62.09250259399414,37.04104232788086,-18.95244026184082,-0.530135452747345,-3.8422155380249023,6.676702976226807,4
745,44.92634201049805,17.310348510742188,-22.80303955078125,-1.0462651252746582,-3.004129648208618,6.516730308532715,4
746,14.554079055786133,-1.9668827056884766,-22.507177352905273,-1.2779632806777954,-2.713372230529785,6.296141624450684,4
747,-15.36418628692627,-21.83503532409668,-21.417285919189453,-1.150516390800476,-2.6574718952178955,6.003355026245117,4
748,-38.77720260620117,-36.734161376953125,-17.79429817199707,-0.7753741145133972,-2.852386713027954,5.712831020355225,4
749,-47.222557067871094,-37.039608001708984,-14.604506492614746,-0.6419461965560913,-3.3539085388183594,5.631009101867676,4
750,-39.19124984741211,-28.57911491394043,-12.776495933532715,-0.00666261650621891,-4.041565418243408,5.392567157745361,4
751,-30.175020217895508,-18.64509391784668,-14.155153274536133,0.4109140634536743,-4.1301398277282715,5.236608982086182,4
752,-19.53294563293457,-8.116113662719727,-14.56362247467041,0.5685346126556396,-4.697189807891846,5.155778408050537,4
753,-4.110306739807129,-3.0229904651641846,-13.508008003234863,0.6146606802940369,-4.8245134353637695,5.048694610595703,4
754,17.15570068359375,0.7643306255340576,-13.486054420471191,0.36019787192344666,-4.914574146270752,5.057565212249756,4
755,34.097251892089844,8.26598072052002,-12.160181999206543,0.47497913241386414,-4.654091835021973,4.869865894317627,4
756,42.661102294921875,1.7931989431381226,-10.471156120300293,0.37862953543663025,-4.261645793914795,4.763195037841797,4
757,36.49855422973633,-19.1922550201416,-11.353294372558594,0.3058944642543793,-3.892519950866699,4.675894737243652,4
758,28.616914749145508,-27.550039291381836,-11.61938190460205,0.6465250253677368,-3.4436535835266113,4.459183216094971,4
759,13.908961296081543,-16.210573196411133,-6.650399684906006,0.988845705986023,-3.226604700088501,4.325408935546875,4
760,3.018526077270508,-0.5922781825065613,-4.9246602058410645,1.0240187644958496,-3.2180421352386475,4.3568434715271,4
761,-8.083673477172852,17.669506072998047,-2.2358927726745605,1.0089260339736938,-3.168043375015259,4.342959403991699,4
762,-17.21587371826172,22.755809783935547,4.473910808563232,0.7652339339256287,-3.383655548095703,4.37266731262207,4
763,-18.962100982666016,30.509071350097656,8.949153900146484,0.4503336250782013,-3.640625476837158,4.441011428833008,4
764,-5.426088809967041,38.912086486816406,13.515068054199219,0.028771059587597847,-3.754042625427246,4.562939643859863,4
765,9.499186515808105,44.08400344848633,16.83966064453125,-0.45763230323791504,-3.7998881340026855,4.717220306396484,4
766,8.333064079284668,42.31357192993164,21.267406463623047,-0.758993923664093,-3.597700834274292,4.763917922973633,4
767,-2.031649351119995,38.6876106262207,25.656694412231445,-1.3656575679779053,-3.5738284587860107,5.041069030761719,4
768,-20.38630485534668,27.888891220092773,27.074893951416016,-1.758687973022461,-3.6580865383148193,5.262600898742676,4
769,-24.803789138793945,16.802934646606445,28.047931671142578,-2.180346727371216,-3.776073694229126,5.552552700042725,4
770,-10.438392639160156,-2.675016164779663,30.078712463378906,-2.3379297256469727,-4.098217964172363,5.773509502410889,4
771,19.56306266784668,-22.41242027282715,32.64646911621094,-2.238757371902466,-4.189568042755127,6.004350185394287,4
772,41.11215591430664,-33.86116409301758,35.489261627197266,-1.775786280632019,-3.9435718059539795,6.196845054626465,4
773,50.27362823486328,-50.37059020996094,34.52900695800781,-1.5024627447128296,-3.4766385555267334,6.585016250610352,4
774,47.34356689453125,-62.30278015136719,32.28157424926758,-0.6797161102294922,-2.6662251949310303,6.788055419921875,4
775,38.803592681884766,-58.75055694580078,30.206642150878906,-0.3532319664955139,-2.611236095428467,7.2259111404418945,4
776,35.31443405151367,-39.32088088989258,25.36995506286621,0.4782765507698059,-1.9916337728500366,7.462255954742432,4
777,37.57362747192383,-20.90134048461914,20.93264389038086,0.8971952199935913,-1.734116792678833,7.740473747253418,4
778,36.69157409667969,-8.838728904724121,17.19439697265625,1.09652578830719,-1.0379226207733154,7.989285469055176,4
779,22.260730743408203,3.974910020828247,14.869065284729004,0.936471164226532,-1.178913950920105,8.270479202270508,4
780,-1.7035554647445679,16.08575439453125,12.778276443481445,0.9761699438095093,-1.0352727174758911,8.413798332214355,4
781,-26.205961227416992,19.930194854736328,11.177271842956543,0.8073313236236572,-0.9740428924560547,8.554540634155273,4
782,-35.75118637084961,14.249898910522461,11.540214538574219,0.5883278250694275,-1.298191785812378,8.678802490234375,4
783,-32.56315231323242,-2.7697432041168213,7.864728927612305,0.4543974697589874,-1.7499498128890991,8.780942916870117,4
784,-15.01302719116211,-31.538297653198242,2.178523302078247,0.44785889983177185,-2.1673526763916016,8.87308120727539,4
785,14.21701717376709,-51.236209869384766,-3.5444376468658447,0.7868322134017944,-2.0505118370056152,8.8765869140625,4
786,37.804473876953125,-56.06024169921875,-10.320014953613281,1.4751957654953003,-1.9516130685806274,8.826118469238281,4
787,54.24338912963867,-49.31448745727539,-15.586325645446777,1.8694062232971191,-1.5066635608673096,8.782767295837402,4
788,54.63688659667969,-34.920997619628906,-19.61810302734375,2.314175844192505,-1.048844814300537,8.677735328674316,4
789,41.84095001220703,-8.116182327270508,-21.465238571166992,2.9048891067504883,-0.06187969446182251,8.397588729858398,4
790,24.322351455688477,21.76500129699707,-22.465024948120117,3.0169131755828857,-0.04232142120599747,8.288098335266113,4
791,5.596090793609619,48.01751708984375,-23.102922439575195,2.6923255920410156,0.08879684656858444,8.122379302978516,4
792,-7.178237438201904,63.68034744262695,-20.53211784362793,1.957919955253601,0.28966060280799866,7.8926801681518555,4
793,-2.4292616844177246,71.26519012451172,-20.43545150756836,1.360081672668457,-0.005695099476724863,7.739143371582031,4
794,10.181608200073242,71.15460968017578,-19.23927879333496,0.48570337891578674,-0.20214679837226868,7.576755523681641,4
795,20.74704360961914,60.84884262084961,-18.070323944091797,-0.2025071382522583,-0.03920682519674301,7.357539176940918,4
796,20.3448543548584,50.47621154785156,-20.016279220581055,-0.9743344187736511,0.1496574878692627,7.171138286590576,4
797,22.083148956298828,35.994110107421875,-19.35904312133789,-1.5588470697402954,0.6440882682800293,6.9342546463012695,4
798,37.052574157714844,18.306180953979492,-18.293142318725586,-1.9196313619613647,0.664912223815918,6.768624305725098,4
799,55.04534149169922,-0.2506781816482544,-16.936288833618164,-1.6563209295272827,0.9456740021705627,6.646862506866455,4
800,62.33314514160156,-16.8367919921875,-16.689693450927734,-1.6668167114257812,1.6844154596328735,6.469966411590576,4
801,61.51182556152344,-27.346776962280273,-16.54784393310547,-1.3401345014572144,2.1402673721313477,6.33913516998291,4
802,45.03600311279297,-36.02662658691406,-20.36398696899414,-0.9907678961753845,2.724290370941162,6.186008930206299,4
803,12.837324142456055,-39.110626220703125,-27.21852684020996,-0.5702114105224609,3.194737195968628,5.999170780181885,4
804,-25.884597778320312,-29.00632667541504,-30.5185546875,-0.2752056419849396,3.2573740482330322,5.7013020515441895,4
805,-65.58403778076172,-12.647790908813477,-31.04119110107422,0.2655193507671356,3.0217528343200684,5.4582672119140625,4
806,-97.88774108886719,-4.327707290649414,-30.921205520629883,0.13546249270439148,2.6795012950897217,5.040860176086426,4
807,-110.68633270263672,-1.9197845458984375,-30.160947799682617,0.4221932291984558,1.2463990449905396,4.8202104568481445,4
808,-99.92713165283203,8.42475414276123,-30.06540298461914,-0.07676541060209274,0.5897977948188782,4.298529148101807,4
809,-74.60584259033203,13.572576522827148,-32.3160400390625,-0.2747848331928253,-1.0071353912353516,3.9321839809417725,4
810,-38.407989501953125,5.1493120193481445,-33.51749038696289,-0.3111358880996704,-1.2713099718093872,3.6569714546203613,4
811,-1.6541765928268433,10.014756202697754,-32.0852165222168,-0.33120280504226685,-1.5663487911224365,3.3458080291748047,4
812,29.297109603881836,16.878175735473633,-23.970632553100586,-0.5003010630607605,-1.7874335050582886,2.979010820388794,4
813,35.160701751708984,11.2391939163208,-17.74339485168457,-0.6657344698905945,-1.5273075103759766,2.7123777866363525,4
814,32.255882263183594,20.765657424926758,-15.955058097839355,-0.843536913394928,-0.899137020111084,2.5224530696868896,4
815,17.882522583007812,31.162107467651367,-14.80002212524414,-1.0826737880706787,-0.6560404300689697,2.3322672843933105,4
816,0.2420339584350586,33.28694534301758,-17.747617721557617,-1.515778660774231,-0.5866069793701172,2.1364150047302246,4
817,-8.605114936828613,16.640195846557617,-23.902421951293945,-1.9359990358352661,-0.47364452481269836,1.9552531242370605,4
818,2.1582224369049072,-16.441791534423828,-30.689117431640625,-2.0891611576080322,-0.5805001258850098,1.736103892326355,4
819,24.96844482421875,-41.192386627197266,-36.100040435791016,-1.6805044412612915,-0.7881417274475098,1.4683363437652588,4
820,50.3316650390625,-48.97689437866211,-38.850746154785156,-1.210307240486145,-0.6874139308929443,1.1223130226135254,4
821,70.39866638183594,-52.6383171081543,-40.32515335083008,-0.7671985626220703,-0.331295371055603,0.7271602749824524,4
822,77.40436553955078,-48.13343048095703,-39.09847640991211,-0.10548491775989532,0.7410004734992981,0.4142672121524811,4
823,66.73253631591797,-31.054964065551758,-37.68157196044922,0.3688378930091858,1.3647900819778442,-0.010508827865123749,4
824,49.38783645629883,-11.857830047607422,-34.2972526550293,0.5510144233703613,1.7017900943756104,-0.4693000316619873,4
825,24.716611862182617,0.8767992854118347,-30.830183029174805,0.711445152759552,2.3770551681518555,-0.8130924701690674,4
826,2.733490228652954,11.347283363342285,-29.886302947998047,0.6355351209640503,2.6502606868743896,-1.1481468677520752,4
827,-23.648263931274414,22.186952590942383,-27.43486213684082,0.4673883318901062,2.690455436706543,-1.4585777521133423,4
828,-42.35786056518555,20.98162841796875,-24.281328201293945,0.38816264271736145,2.6697499752044678,-1.691098928451538,4
829,-46.30353927612305,11.950431823730469,-22.734283447265625,0.035320304334163666,1.877895474433899,-1.991768479347229,4
830,-39.31774139404297,-1.158852219581604,-22.640705108642578,-0.011804331094026566,1.4876422882080078,-2.1778404712677,4
831,-20.275012969970703,-8.21439266204834,-24.355125427246094,0.051810018718242645,0.9831001162528992,-2.3744215965270996,4
832,-2.7054789066314697,-13.447842597961426,-27.848745346069336,0.008419133722782135,0.7875699400901794,-2.646728038787842,4
833,16.881547927856445,-17.44577980041504,-31.964632034301758,0.31796392798423767,0.7317620515823364,-2.8466339111328125,4
834,36.85332489013672,-18.502145767211914,-36.164546966552734,0.6928237676620483,1.0906660556793213,-3.086088180541992,4
835,50.74884033203125,-11.952349662780762,-39.69304275512695,1.0673401355743408,1.3093703985214233,-3.379845142364502,4
836,53.449710845947266,6.56456995010376,-42.00104522705078,1.1594971418380737,1.990098237991333,-3.791301727294922,4
837,51.56863784790039,29.475587844848633,-42.51713562011719,0.9019985795021057,2.405857563018799,-4.271944046020508,4
838,47.504920959472656,37.51271438598633,-42.49266815185547,0.5317752361297607,3.098668336868286,-4.718344211578369,4
839,40.02153778076172,37.227901458740234,-42.20405197143555,0.3254014551639557,3.3837220668792725,-5.050638198852539,4
840,28.8759822845459,34.084224700927734,-40.085533142089844,-0.2880309522151947,4.000924587249756,-5.558747291564941,4
841,16.848703384399414,33.362728118896484,-33.780921936035156,-0.81824791431427,3.998176097869873,-5.996842861175537,4
842,-1.246016502380371,34.387062072753906,-28.408884048461914,-1.1813995838165283,4.236551284790039,-6.32920503616333,4
843,-17.71004295349121,32.90693283081055,-25.36924934387207,-1.5783849954605103,4.263488292694092,-6.612870216369629,4
844,-28.58583641052246,27.275209426879883,-20.937562942504883,-2.0427374839782715,3.9870569705963135,-6.8966593742370605,4
845,-41.6294059753418,11.686534881591797,-15.58626651763916,-2.320793628692627,3.606468915939331,-7.082053184509277,4
846,-44.737449645996094,-5.3040080070495605,-11.171502113342285,-2.3821990489959717,3.040788412094116,-7.218537330627441,4
847,-41.27775192260742,-16.95187759399414,-6.3402628898620605,-2.373490810394287,2.500558853149414,-7.374223709106445,4
848,-32.484188079833984,-31.28687858581543,-2.8158411979675293,-2.1763713359832764,1.950106143951416,-7.437910079956055,4
849,-20.199649810791016,-49.043331146240234,-1.8787235021591187,-1.946823239326477,1.7019321918487549,-7.485888481140137,4
850,-5.855554103851318,-58.173988342285156,-1.9793944358825684,-1.1151573657989502,1.4824270009994507,-7.3226494789123535,4
851,4.2624406814575195,-54.24740982055664,-3.9289636611938477,-0.2432740330696106,1.4365234375,-7.201474666595459,4
852,22.164342880249023,-34.92902755737305,-4.3778839111328125,-0.4166332185268402,1.3801484107971191,-7.603663444519043,4
853,42.97959518432617,-14.735115051269531,-2.04036283493042,0.26069214940071106,1.7437764406204224,-7.495906829833984,4
854,59.79443359375,-0.8313218355178833,-4.7116498947143555,0.49553126096725464,2.215747594833374,-7.489033222198486,4
855,68.07042694091797,7.4966816902160645,-7.847558975219727,0.4224792420864105,2.5014870166778564,-7.612400054931641,4
856,68.46491241455078,26.942859649658203,-12.960646629333496,0.34849944710731506,3.4827136993408203,-7.652614593505859,4
857,65.2175064086914,36.19251251220703,-19.968122482299805,-0.02403450757265091,3.906550407409668,-7.841897010803223,4
858,57.69013214111328,28.966819763183594,-28.1275577545166,-0.5253159403800964,4.74162483215332,-8.042759895324707,4
859,52.990657806396484,9.162179946899414,-30.635696411132812,-0.8892254829406738,4.983079433441162,-8.328346252441406,4
860,45.47904968261719,-8.878183364868164,-31.8841495513916,-0.93031907081604,5.90523099899292,-8.528463363647461,4
861,24.92864418029785,-30.28410530090332,-34.36809539794922,-0.8521244525909424,6.045208930969238,-8.860459327697754,4
862,-1.6917544603347778,-34.07612991333008,-34.882240295410156,-0.47422951459884644,6.42661190032959,-9.138923645019531,4
863,-31.20380973815918,-20.297578811645508,-35.56339645385742,-0.20952296257019043,6.426459789276123,-9.539090156555176,4
864,-61.3619499206543,0.43606507778167725,-34.749351501464844,0.14569474756717682,5.8797736167907715,-9.835025787353516,4
865,-80.31690979003906,14.261533737182617,-32.807830810546875,-0.25873076915740967,5.051182746887207,-10.48392105102539,4
866,-83.6532974243164,22.95917510986328,-31.574962615966797,-0.18122601509094238,4.276815414428711,-10.686389923095703,4
867,-75.81158447265625,25.85488510131836,-29.119478225708008,-0.5245202779769897,3.0870110988616943,-11.08505630493164,4
868,-55.33466339111328,22.238271713256836,-25.89606285095215,-0.9606685042381287,2.7038190364837646,-11.429572105407715,4
869,-29.50419807434082,20.856794357299805,-19.838943481445312,-1.2531421184539795,1.985256314277649,-11.731552124023438,4
870,-3.649873971939087,22.177339553833008,-13.017804145812988,-1.5175113677978516,1.9071075916290283,-11.923208236694336,4
871,17.46172332763672,20.594369888305664,-8.366087913513184,-1.7367501258850098,1.9873082637786865,-12.025277137756348,4
872,32.717201232910156,11.553549766540527,-7.9073896408081055,-1.9908169507980347,2.102160692214966,-12.123826026916504,4
873,43.222042083740234,-3.870961904525757,-8.770851135253906,-2.048858642578125,2.628662347793579,-12.119786262512207,4
874,42.102176666259766,-22.42086410522461,-9.798327445983887,-1.9858198165893555,2.9202942848205566,-12.221287727355957,4
875,30.494667053222656,-40.12540054321289,-10.160127639770508,-1.8228046894073486,3.5200583934783936,-12.307908058166504,4
876,8.361466407775879,-44.15550231933594,-8.353940963745117,-1.2315938472747803,3.3714540004730225,-12.42754077911377,4
877,-13.58597469329834,-49.778221130371094,-3.7704737186431885,-0.7665405869483948,3.4022674560546875,-12.540190696716309,4
878,-26.276384353637695,-44.61656188964844,0.5692687630653381,0.05794636160135269,3.3320252895355225,-12.460007667541504,4
879,-33.001922607421875,-25.796356201171875,7.086314678192139,-0.23495519161224365,2.8907289505004883,-12.827877044677734,4
880,-33.91917037963867,-14.81798267364502,13.519688606262207,0.25328266620635986,2.4515388011932373,-12.69680118560791,4
881,-37.987979888916016,1.3956644535064697,16.813936233520508,0.09533677250146866,2.255941390991211,-12.67719841003418,4
882,-28.84287452697754,14.09999942779541,19.050216674804688,-0.00020541697449516505,1.8635269403457642,-12.55655288696289,4
883,-2.2695231437683105,18.36738395690918,18.593175888061523,-0.08547864854335785,1.6897969245910645,-12.336443901062012,4
884,39.1758918762207,13.802315711975098,19.092609405517578,-0.24292251467704773,1.8362706899642944,-12.118383407592773,4
885,81.46719360351562,7.638082981109619,20.786672592163086,-0.47956883907318115,2.2898004055023193,-11.95035171508789,4
886,111.97276306152344,-3.0787386894226074,21.882776260375977,-0.5516355037689209,3.0950541496276855,-11.737112998962402,4
887,134.95791625976562,-18.674915313720703,21.004268646240234,-0.4268394410610199,4.375359058380127,-11.469907760620117,4
888,149.4749298095703,-40.07851028442383,18.119831085205078,-0.219996839761734,5.409788131713867,-11.298842430114746,4
889,147.129638671875,-68.30477905273438,15.148726463317871,0.2611232399940491,7.406344890594482,-11.096532821655273,4
890,127.9554672241211,-89.31182861328125,8.956363677978516,1.2603514194488525,8.765655517578125,-10.948363304138184,4
891,88.92286682128906,-100.08383178710938,6.6366472244262695,2.5192720890045166,10.095357894897461,-10.871625900268555,4
892,28.379446029663086,-104.58885192871094,4.798707962036133,3.4925222396850586,11.075666427612305,-10.992255210876465,4
893,-39.658809661865234,-87.47605895996094,2.4962475299835205,4.427756309509277,11.021666526794434,-11.149006843566895,4
894,-97.62749481201172,-55.90134811401367,1.7132225036621094,5.3868255615234375,10.458171844482422,-11.213984489440918,4
895,-140.86480712890625,3.3231921195983887,3.886547565460205,5.572549343109131,9.078609466552734,-11.463135719299316,4
896,-167.21031188964844,54.8376579284668,5.806988716125488,5.209656715393066,7.96319580078125,-11.756954193115234,4
897,-161.57403564453125,76.21630096435547,7.107974052429199,4.477382183074951,6.578829765319824,-11.895987510681152,4
898,-132.13058471679688,91.98231506347656,7.953181743621826,3.722503662109375,4.463883876800537,-11.608823776245117,4
899,-75.06639099121094,100.82085418701172,5.712613582611084,2.776097297668457,3.461655855178833,-11.652714729309082,4
900,-18.870561599731445,96.58561706542969,6.648228168487549,1.4583091735839844,2.6703407764434814,-11.793869972229004,4
901,32.81413650512695,81.6268539428711,8.111929893493652,0.6125511527061462,2.6936051845550537,-11.70141315460205,4
902,60.691349029541016,53.50007629394531,6.863991737365723,-0.5852924585342407,3.1717987060546875,-11.84650707244873,4
903,68.42821502685547,22.373580932617188,7.777478218078613,-1.0045263767242432,3.8664345741271973,-11.690262794494629,4
904,48.885257720947266,-13.627467155456543,7.973765850067139,-1.3276100158691406,4.816503524780273,-11.779726028442383,4
905,17.697301864624023,-37.900474548339844,9.902677536010742,-0.8408132195472717,5.1882100105285645,-11.508472442626953,4
906,-36.283512115478516,-48.67137145996094,10.914543151855469,-0.07071398198604584,5.080692291259766,-11.199261665344238,4
907,-88.29920196533203,-45.44703674316406,4.027594566345215,0.3984616696834564,4.422120571136475,-11.101141929626465,4
908,-110.4819564819336,-48.723899841308594,-4.917013645172119,0.874039351940155,3.632281541824341,-11.10856819152832,4
909,-106.61717987060547,-57.038665771484375,-11.986319541931152,1.681784749031067,2.4460031986236572,-11.014388084411621,4
910,-90.93060302734375,-60.48240661621094,-17.297800064086914,2.2849302291870117,1.548769235610962,-11.178376197814941,4
911,-73.93949890136719,-54.8099250793457,-19.47353744506836,3.0687031745910645,0.5078192353248596,-11.250591278076172,4
912,-56.28580856323242,-33.468624114990234,-19.272911071777344,3.6695923805236816,-0.05914923548698425,-11.449881553649902,4
913,-41.186668395996094,-3.336146354675293,-22.232234954833984,3.9913368225097656,-0.861576497554779,-11.602849960327148,4
914,-14.716477394104004,23.33475685119629,-22.585615158081055,3.895597219467163,-0.7928527593612671,-11.967812538146973,4
915,4.418262958526611,48.90181350708008,-20.54507827758789,3.4396374225616455,-1.054194450378418,-12.170597076416016,4
916,5.507719993591309,70.92166900634766,-17.43390655517578,2.661198377609253,-0.80882728099823,-12.477466583251953,4
917,-1.7346651554107666,77.2928466796875,-13.496451377868652,1.686484456062317,-0.9295894503593445,-12.611649513244629,4
918,-18.67690658569336,72.1947250366211,-10.623655319213867,0.9314999580383301,-0.7158302068710327,-12.845196723937988,4
919,-44.36149597167969,67.9138412475586,-5.976714611053467,0.12375469505786896,-1.0261614322662354,-12.924820899963379,4
920,-64.94931030273438,65.54033660888672,-1.8642252683639526,-0.7845398187637329,-1.6696109771728516,-12.925250053405762,4
921,-80.01298522949219,60.318992614746094,1.0603100061416626,-1.4439808130264282,-2.168703079223633,-13.010700225830078,4
922,-80.12632751464844,46.81108856201172,3.5135037899017334,-2.014204502105713,-3.6396424770355225,-12.870291709899902,4
923,-63.03276443481445,19.693370819091797,4.3560638427734375,-2.340090036392212,-3.829028606414795,-12.992156028747559,4
924,-32.14435958862305,-14.809901237487793,9.390844345092773,-2.4426095485687256,-4.791520595550537,-12.909331321716309,4
925,-5.06655740737915,-49.338279724121094,13.772378921508789,-2.005643844604492,-4.652896881103516,-12.897357940673828,4
926,14.050256729125977,-74.58858489990234,16.716001510620117,-1.1222155094146729,-4.6342363357543945,-12.850707054138184,4
927,17.49086570739746,-92.4940414428711,17.802881240844727,0.07875056564807892,-4.373258113861084,-12.822254180908203,4
928,14.306229591369629,-88.3121109008789,15.642899513244629,0.7999117374420166,-4.080401420593262,-12.48163890838623,4
929,5.911727428436279,-67.60215759277344,11.87781047821045,1.8970746994018555,-3.878483772277832,-12.425749778747559,4
930,-10.262861251831055,-36.67631912231445,9.874574661254883,2.101263999938965,-3.9593989849090576,-12.001826286315918,4
931,-30.726192474365234,8.523662567138672,8.380708694458008,2.4164226055145264,-4.2700676918029785,-11.928059577941895,4
932,-47.316001892089844,49.609718322753906,10.999225616455078,2.105731964111328,-4.707696437835693,-11.765541076660156,4
933,-54.9952392578125,75.62836456298828,13.733488082885742,1.1898528337478638,-5.599062442779541,-11.40052604675293,4
934,-53.95496368408203,82.91644287109375,14.58740234375,0.17084971070289612,-5.756840229034424,-11.177769660949707,4
935,-37.304378509521484,73.64656829833984,14.90737247467041,-0.929681658744812,-6.5544939041137695,-10.89525318145752,4
936,-10.583054542541504,47.54372024536133,16.493999481201172,-1.7332487106323242,-6.7710185050964355,-10.73766040802002,4
937,12.49179458618164,14.553766250610352,15.425061225891113,-2.2652549743652344,-6.7771711349487305,-10.512480735778809,4
938,35.766357421875,-10.476200103759766,12.010967254638672,-2.0477993488311768,-6.528201580047607,-10.687582969665527,4
939,42.0573844909668,-30.554601669311523,10.184454917907715,-1.7996329069137573,-6.094564914703369,-10.638757705688477,4
940,35.016380310058594,-40.07972717285156,6.190344333648682,-1.2483956813812256,-5.528113842010498,-10.715853691101074,4
941,22.13639259338379,-45.03506851196289,1.6277403831481934,-0.7851743102073669,-5.140707015991211,-10.69052505493164,4
942,10.876314163208008,-49.48539733886719,-1.5862956047058105,-0.05073784664273262,-4.8798298835754395,-10.918428421020508,4
943,-6.485152244567871,-46.86814498901367,-5.884331703186035,0.5855919718742371,-4.999804973602295,-11.05467700958252,4
944,-23.23181915283203,-32.39723587036133,-10.18035888671875,0.5970203280448914,-5.309782028198242,-10.661198616027832,4
945,-26.581405639648438,-12.379219055175781,-15.546882629394531,0.8254226446151733,-5.790466785430908,-10.728633880615234,4
946,-2.7869458198547363,-10.684961318969727,-17.63677215576172,1.0324602127075195,-6.003661155700684,-10.97107219696045,4
947,35.52190017700195,-17.101850509643555,-17.518802642822266,1.1988555192947388,-5.74493932723999,-11.149971008300781,4
948,62.15769577026367,-25.39824104309082,-19.540647506713867,1.5593087673187256,-5.2373223304748535,-11.479866981506348,4
949,71.85765838623047,-37.373207092285156,-20.099281311035156,1.5014491081237793,-4.432106018066406,-11.260130882263184,4
950,66.61233520507812,-22.726978302001953,-21.28493309020996,1.872249960899353,-3.824018716812134,-11.467595100402832,4
951,53.30417251586914,-13.068552017211914,-22.448144912719727,2.1835215091705322,-3.1807150840759277,-11.775052070617676,4
952,26.913991928100586,0.9491643309593201,-19.6435604095459,2.3208484649658203,-2.757375717163086,-12.015877723693848,4
953,16.006637573242188,14.50053596496582,-14.096336364746094,2.2917747497558594,-2.491812229156494,-12.188765525817871,4
954,19.339061737060547,29.733076095581055,-7.921167373657227,1.8898438215255737,-2.4335405826568604,-12.09724235534668,4
955,34.64190673828125,46.641632080078125,0.3629211485385895,1.5217384099960327,-1.8984458446502686,-12.169672012329102,4
956,50.204933166503906,58.55289077758789,10.257969856262207,0.8739888072013855,-1.928828239440918,-11.962101936340332,4
957,58.5002326965332,70.07420349121094,12.06228256225586,0.08523251116275787,-1.2182904481887817,-11.74217414855957,4
958,57.37034606933594,61.55879592895508,12.935162544250488,-0.8003134727478027,-0.6704789996147156,-11.45901107788086,4
959,35.28635787963867,45.24205017089844,16.89781951904297,-1.036455750465393,-0.15085124969482422,-11.611504554748535,4
960,1.8304709196090698,27.16437530517578,25.900930404663086,-1.5556288957595825,-0.020347341895103455,-11.344466209411621,4
961,-10.752009391784668,4.406495571136475,33.20351028442383,-1.7715152502059937,0.03637097030878067,-11.104021072387695,4
962,-15.711457252502441,-28.81378173828125,38.19780731201172,-1.6151610612869263,-0.10655339807271957,-10.853069305419922,4
963,-19.5147762298584,-36.011253356933594,43.640499114990234,-1.2490936517715454,-0.35381177067756653,-10.456626892089844,4
964,-13.459602355957031,-34.27702331542969,45.405887603759766,-0.6576542258262634,-0.49013328552246094,-10.12160873413086,4
965,8.021974563598633,-18.28195571899414,46.09818649291992,-0.0539756715297699,-0.480925977230072,-9.795412063598633,4
966,32.59619140625,5.1808247566223145,42.88115692138672,0.17222262918949127,-0.0858115404844284,-9.376628875732422,4
967,59.1335563659668,9.749927520751953,34.82609558105469,0.09232445806264877,0.626868724822998,-8.93530559539795,4
968,68.4300537109375,-0.37641507387161255,29.508285522460938,0.021948283538222313,1.696112036705017,-8.559006690979004,4
969,55.75406265258789,-18.624164581298828,26.246822357177734,0.16916079819202423,1.9908192157745361,-8.3411283493042,4
970,40.217933654785156,-39.73890686035156,29.292133331298828,1.2234517335891724,3.226285457611084,-8.220785140991211,4
971,24.048627853393555,-43.746822357177734,30.503585815429688,1.7146167755126953,3.9177510738372803,-7.937475204467773,4
972,-12.864145278930664,-25.89426040649414,28.941625595092773,2.3638336658477783,3.9379687309265137,-7.697593688964844,4
973,-53.331642150878906,-0.2153945416212082,27.204023361206055,2.6385481357574463,3.768949031829834,-7.427705764770508,4
974,-89.67529296875,20.9942684173584,25.93773651123047,2.502380847930908,2.1339199542999268,-7.131621837615967,4
975,-104.03138732910156,39.72063064575195,27.015729904174805,1.9263691902160645,1.2214000225067139,-6.895246982574463,4
976,-100.82489013671875,49.55933380126953,28.228389739990234,0.9904235005378723,-0.6199164390563965,-6.634114742279053,4
977,-79.56211853027344,52.88706970214844,33.53079605102539,0.07667560130357742,-2.719393253326416,-6.3355302810668945,4
978,-33.018890380859375,58.153682708740234,41.00409698486328,-0.5773171186447144,-4.02539587020874,-5.973724365234375,4
979,20.816740036010742,56.47841262817383,43.985408782958984,-1.6733033657073975,-4.126798629760742,-5.602163314819336,4
980,82.60224151611328,44.14192199707031,42.03484344482422,-2.459652900695801,-2.4380173683166504,-5.2197136878967285,4
981,116.36905670166016,27.53208351135254,41.39714050292969,-2.9755208492279053,-1.3730230331420898,-4.81086540222168,4
982,135.79611206054688,12.347299575805664,42.22534942626953,-3.2462315559387207,1.136300802230835,-4.2903218269348145,4
983,138.27603149414062,4.286803722381592,41.730831146240234,-3.2679760456085205,3.8439059257507324,-3.6966724395751953,4
984,124.19145202636719,-3.4397754669189453,41.14170837402344,-3.1136739253997803,5.775359153747559,-3.1853625774383545,4
985,78.2565689086914,-17.20211410522461,40.43336868286133,-2.820892333984375,6.919668674468994,-2.763967275619507,4
986,8.727575302124023,-37.92215347290039,38.89280700683594,-2.389214277267456,7.529386043548584,-2.361226797103882,4
