,gyro.x,gyro.y,gyro.z,stabilizer.pitch,stabilizer.roll,stabilizer.yaw,label
0,0.02036362513899803,-0.0782124251127243,0.0224906038492918,0.6007730960845947,0.5255439281463623,-18.266138076782227,4
1,0.03666815906763077,-0.1124643087387085,-0.003267598571255803,0.7915330529212952,0.3908783495426178,-18.249399185180664,4
2,0.09097681939601898,-0.039192382246255875,-0.01910013146698475,0.5409829616546631,0.5515806078910828,-18.230205535888672,4
3,-0.041527554392814636,-0.20091742277145386,0.034137170761823654,0.5529337525367737,0.5386219024658203,-18.212249755859375,4
4,-0.014647334814071655,-0.08627775311470032,-0.10807079076766968,0.5629941821098328,0.4626080393791199,-18.194177627563477,4
5,-0.021109970286488533,-0.16839107871055603,-0.00567991379648447,0.5046191811561584,0.5382330417633057,-18.17690086364746,4
6,-0.07543020695447922,-0.08111461251974106,0.13010098040103912,0.5939977169036865,0.5270295739173889,-18.15880584716797,4
7,-0.058937303721904755,-0.15647493302822113,0.03191682696342468,0.46157360076904297,0.7799421548843384,-18.139734268188477,4
8,0.01013043150305748,-0.13124153017997742,-0.0339338518679142,0.6978320479393005,0.17361792922019958,-18.121801376342773,4
9,0.0192265547811985,-0.10525790601968765,-0.016469819471240044,0.5373157262802124,0.5289753675460815,-18.103639602661133,4
10,-0.07895717024803162,-0.03341074660420418,0.010690659284591675,0.6887211203575134,0.3153621554374695,-18.08642578125,4
11,-0.015426681376993656,-0.06431559473276138,0.09115903824567795,0.3194591701030731,0.5706841349601746,-18.064435958862305,4
12,0.07396825402975082,-0.05196140334010124,0.019863774999976158,0.7403441667556763,0.3436780571937561,-18.05244255065918,4
13,0.038578592240810394,-0.14205630123615265,-0.068532794713974,0.632756233215332,0.5256039500236511,-18.03451156616211,4
14,0.034155670553445816,-0.013699932023882866,-0.15616458654403687,0.6934085488319397,0.5212185382843018,-18.01879119873047,4
15,-0.048918288201093674,-0.011341115459799767,-0.023187406361103058,0.5948312282562256,0.3763044476509094,-17.998737335205078,4
16,0.023960119113326073,-0.008148325607180595,-0.02999744564294815,0.6629579663276672,0.6223330497741699,-17.984830856323242,4
17,-0.0684429258108139,-0.11082695424556732,0.028068196028470993,0.6434043049812317,0.30819156765937805,-17.962982177734375,4
18,0.08193408697843552,-0.05379543825984001,-0.16644829511642456,0.6285822987556458,0.5724454522132874,-17.949182510375977,4
19,0.009456230327486992,-0.11963386088609695,-0.08658839762210846,0.5451419949531555,0.5555188655853271,-17.93072509765625,4
20,0.13841202855110168,0.07804480940103531,-0.15878228843212128,0.5559631586074829,0.6129144430160522,-17.914535522460938,4
21,-0.04153226315975189,-0.06366623193025589,-0.09349402040243149,0.4915972352027893,0.5854009389877319,-17.89812660217285,4
22,-0.03271016106009483,-0.04412468895316124,0.002675567986443639,0.5871172547340393,0.8461035490036011,-17.880382537841797,4
23,-0.027179161086678505,0.07674107700586319,-0.011137825436890125,0.5872089266777039,0.4700562655925751,-17.86305809020996,4
24,0.07461024075746536,-0.06340821832418442,-0.01709863729774952,0.2993524670600891,0.5441046953201294,-17.85004997253418,4
25,-0.03320448100566864,-0.08930614590644836,0.0014652987010776997,0.3750862181186676,0.6004762053489685,-17.831199645996094,4
26,0.03931393846869469,-0.09939409047365189,0.03894764184951782,0.6419505476951599,0.42864546179771423,-17.814226150512695,4
27,0.10721634328365326,-0.05334235355257988,-0.16146418452262878,0.6275424361228943,0.37369394302368164,-17.797468185424805,4
28,0.03116583451628685,-0.012367157265543938,0.015827232971787453,0.6153795719146729,0.4049053192138672,-17.780752182006836,4
29,0.058031681925058365,-0.08845168352127075,-0.031220143660902977,0.6060834527015686,0.7788611650466919,-17.76289939880371,4
30,0.038619209080934525,-0.11299870908260345,-0.08123546093702316,0.6708406805992126,0.561937689781189,-17.745044708251953,4
31,0.026223430410027504,-0.09266193211078644,-0.030549241229891777,0.5774955153465271,0.399818480014801,-17.72755241394043,4
32,0.0948220044374466,-0.07204964011907578,-0.0002529291086830199,0.5798409581184387,0.13960225880146027,-17.707595825195312,4
33,0.017118999734520912,-0.054950885474681854,0.08872197568416595,0.5802506804466248,0.5146746039390564,-17.692216873168945,4
34,-0.01363963820040226,-0.09789653867483139,0.035962656140327454,0.5107261538505554,0.79572993516922,-17.67426300048828,4
35,-0.005346036981791258,-0.06456588208675385,0.026320384815335274,0.5284815430641174,0.719508707523346,-17.656166076660156,4
36,-0.018766380846500397,-0.14586511254310608,0.09652312844991684,0.543599009513855,0.5201765894889832,-17.638662338256836,4
37,0.13986621797084808,-0.053118374198675156,-0.08938759565353394,0.7635838389396667,0.09413039684295654,-17.62007713317871,4
38,-0.07919096201658249,-0.1516484022140503,-0.06425214558839798,0.6433702111244202,0.4873160421848297,-17.605854034423828,4
39,0.02321460284292698,-0.11706288903951645,-0.014806537888944149,0.6260997653007507,0.49286460876464844,-17.588388442993164,4
40,0.07275774329900742,-0.03944068029522896,0.04734676331281662,0.5426709055900574,0.7774977087974548,-17.57366371154785,4
41,-0.23239849507808685,-0.13449059426784515,-0.004347879905253649,0.5516870021820068,0.3582035005092621,-17.55290412902832,4
42,0.0830674022436142,-0.007069573272019625,-0.0405753031373024,0.5573813319206238,0.3961256742477417,-17.535900115966797,4
43,-0.11180363595485687,0.031059367582201958,-0.0002899187384173274,0.6998753547668457,0.2859688997268677,-17.519895553588867,4
44,-0.11539416760206223,-0.0649203434586525,0.0507255494594574,0.5291829109191895,0.5492625832557678,-17.501821517944336,4
45,-0.03976769745349884,-0.06952711939811707,-0.06814800202846527,0.6094310283660889,0.4688345789909363,-17.486122131347656,4
46,-0.10259044915437698,-0.04201593995094299,0.13773313164710999,0.6005281805992126,0.6161482334136963,-17.468833923339844,4
47,-0.0024942471645772457,-0.12311656028032303,-0.0426240973174572,0.6624675989151001,0.31080254912376404,-17.449052810668945,4
48,-0.037094615399837494,-0.03337090089917183,0.020207300782203674,0.5017002820968628,0.4312814474105835,-17.431432723999023,4
49,-0.07244368642568588,-0.08432818204164505,0.02917793206870556,0.5214075446128845,0.5881736874580383,-17.415298461914062,4
50,0.04169585928320885,-0.06395883858203888,-0.03918326646089554,0.5349015593528748,0.5665426850318909,-17.39775276184082,4
51,-0.007967674173414707,-0.17338363826274872,0.016338247805833817,0.6138198971748352,0.3452623784542084,-17.38161277770996,4
52,0.049967408180236816,-0.017840096727013588,0.0434870645403862,0.6049460172653198,0.5926016569137573,-17.36500358581543,4
53,-0.06648588180541992,-0.11872599273920059,0.03727150335907936,0.596898078918457,0.569586455821991,-17.347000122070312,4
54,-0.008564936928451061,-0.0761227235198021,0.08930406719446182,0.5917906165122986,0.34621745347976685,-17.328828811645508,4
55,0.1304953694343567,-0.20028884708881378,-0.07319766283035278,0.24633553624153137,0.5937300324440002,-17.307424545288086,4
56,0.05306953191757202,-0.024467403069138527,-0.01605287753045559,0.6748154163360596,0.5026162266731262,-17.294458389282227,4
57,0.014452735893428326,-0.05327507480978966,-0.06660038232803345,0.5812923908233643,0.5029781460762024,-17.277217864990234,4
58,-0.041505444794893265,-0.07223482429981232,-0.08152686804533005,0.5129003524780273,0.8420266509056091,-17.25970458984375,4
59,0.007046830374747515,-0.17648789286613464,-0.022685226052999496,0.6648481488227844,0.41767624020576477,-17.242809295654297,4
60,-0.009805361740291119,-0.09035681933164597,0.039788179099559784,0.6431340575218201,0.2423889935016632,-17.225507736206055,4
61,-0.056393347680568695,-0.12305237352848053,0.06429038941860199,0.29890045523643494,0.6430925726890564,-17.205642700195312,4
62,0.001047921134158969,0.030351655557751656,0.04528433829545975,0.7033207416534424,0.2765029966831207,-17.19365119934082,4
63,-0.002245956799015403,-0.1688324213027954,0.01044444739818573,0.6047535538673401,0.47008928656578064,-17.174917221069336,4
64,-0.010762888938188553,-0.13106821477413177,-0.01158625166863203,0.6009832620620728,0.6087254285812378,-17.158414840698242,4
65,-0.03891504928469658,0.017928527668118477,0.07580968737602234,0.6615601181983948,0.38339123129844666,-17.140625,4
66,0.05197592079639435,-0.004453124012798071,-0.03316807374358177,0.5740141868591309,0.48092564940452576,-17.122915267944336,4
67,0.05683588609099388,-0.24383629858493805,-0.004531343467533588,0.6411272883415222,0.5528492331504822,-17.1079044342041,4
68,-0.13203011453151703,-0.06458353251218796,-0.0422951839864254,0.5601522326469421,0.6035308241844177,-17.0911808013916,4
69,0.11224057525396347,-0.05578684061765671,-0.08787967264652252,0.5671652555465698,0.5740129947662354,-17.074386596679688,4
70,-0.08370885252952576,-0.20714086294174194,0.03754591941833496,0.5732169151306152,0.5532097220420837,-17.058109283447266,4
71,0.00854621920734644,-0.006626364309340715,-0.043299559503793716,0.5772718787193298,0.5350645184516907,-17.04068946838379,4
72,0.08261235058307648,-0.040579140186309814,0.02764681726694107,0.5788527131080627,0.5244494080543518,-17.02382469177246,4
73,0.0725037157535553,-0.08657963573932648,0.053931526839733124,0.6475804448127747,0.24582785367965698,-17.005319595336914,4
74,0.09629678726196289,0.05100010335445404,0.03571505472064018,0.6308679580688477,0.5203751921653748,-16.99053382873535,4
75,0.0099705895408988,-0.0682147741317749,0.07145323604345322,0.6165083646774292,0.6549374461174011,-16.974563598632812,4
76,0.029384076595306396,0.050163038074970245,-0.10344704985618591,0.5350756645202637,0.8236470222473145,-16.959243774414062,4
77,0.023994727060198784,-0.09772823005914688,-0.0071138376370072365,0.5474191904067993,0.7361242175102234,-16.942337036132812,4
78,-0.028731275349855423,0.01773262768983841,-0.006113046780228615,0.6277682781219482,0.16670280694961548,-16.921491622924805,4
79,-0.06554298102855682,-0.15444235503673553,0.009134277701377869,0.5439102053642273,0.39084556698799133,-16.90592384338379,4
80,0.09252898395061493,0.003197592915967107,-0.05495656654238701,0.5546098351478577,0.412680447101593,-16.889087677001953,4
81,-0.07262024283409119,-0.08318197727203369,-0.005849838722497225,0.6342748403549194,0.5014197826385498,-16.87480926513672,4
82,0.02115653082728386,-0.06808928400278091,-0.0324101485311985,0.6199281215667725,0.4949938654899597,-16.858028411865234,4
83,-0.10420533269643784,-0.144167959690094,-0.030735626816749573,0.5394017696380615,0.7788076400756836,-16.842458724975586,4
84,0.047618620097637177,-0.013071270659565926,0.03162551671266556,0.8385825753211975,0.34102314710617065,-16.822444915771484,4
85,0.025303320959210396,0.037502143532037735,0.006978093646466732,0.6249715685844421,0.37774181365966797,-16.80611228942871,4
86,0.02726919576525688,-0.07644911855459213,-0.05969593673944473,0.5372076630592346,0.40590280294418335,-16.78937339782715,4
87,-0.1947973519563675,-0.036819443106651306,-0.06483051180839539,0.47273197770118713,0.4979334771633148,-16.772747039794922,4
88,-0.0014669320080429316,-0.1827724277973175,0.028323989361524582,0.4966476857662201,0.20436809957027435,-16.755786895751953,4
89,0.055200401693582535,-0.056242477148771286,-0.054328322410583496,0.0,0.0,0.0,4
90,-0.021627668291330338,-0.03487374633550644,-0.10588902980089188,0.0005497006932273507,0.00022473526769317687,-0.00026340881595388055,4
91,-0.056315790861845016,-0.007911386899650097,-0.09609881788492203,-1.1263378858566284,0.2080882489681244,0.001660570502281189,4
92,-0.11040651053190231,-0.17621535062789917,0.08587604016065598,-1.5505937337875366,-1.0029560327529907,-0.022939158603549004,4
93,-0.03908625245094299,0.05231403931975365,-0.10305067896842957,-0.8888624310493469,1.3065944910049438,0.02231363020837307,4
94,-0.11776000261306763,-0.14111244678497314,0.06332103908061981,-0.8727929592132568,0.8875650763511658,0.014454095624387264,4
95,0.032794613391160965,-0.16302035748958588,0.03896530717611313,-0.7965555191040039,0.5816105604171753,0.010052850469946861,4
96,0.026308026164770126,-0.12244504690170288,0.030503686517477036,0.9080086350440979,-0.6860724091529846,0.01139814779162407,4
97,-0.01007826067507267,-0.0511762760579586,0.03380396217107773,-1.0738170146942139,2.1390092372894287,0.02575490064918995,4
98,0.0852077379822731,-0.09860626608133316,0.08801943063735962,-1.7860047817230225,1.4389394521713257,0.018926000222563744,4
99,-0.07426346093416214,-0.18119725584983826,0.0013868686510249972,-1.2740226984024048,-1.2396873235702515,-0.035505179315805435,4
100,-0.09877804666757584,0.004163311328738928,-0.04625491425395012,-0.03886663168668747,-0.7947984933853149,-0.0152029013261199,4
101,-0.06788109242916107,-0.19323758780956268,0.07691381126642227,-1.5716922283172607,-0.10706562548875809,-0.005061940290033817,4
102,0.007141137961298227,-0.12500594556331635,-0.0021728945430368185,-0.3653961420059204,-0.011335048824548721,-0.009565477259457111,4
103,0.04604730382561684,-0.05602001026272774,0.0343286469578743,-0.20289210975170135,0.06963139027357101,-0.009413609281182289,4
104,0.078159861266613,-0.020650476217269897,-0.10783804208040237,0.20168918371200562,0.1265852004289627,-0.011597318574786186,4
105,0.020335698500275612,0.004159674514085054,0.04235980659723282,0.18588607013225555,0.1719600409269333,-0.012730520218610764,4
106,0.02379646524786949,0.0056653376668691635,-0.06144077703356743,1.2379751205444336,0.20377320051193237,-0.018561899662017822,4
107,-0.024913862347602844,-0.1069764494895935,0.0006799666443839669,0.430731862783432,0.22668391466140747,-0.016522154211997986,4
108,-0.04236013442277908,-0.015181239694356918,-0.02851921133697033,0.36709117889404297,-0.6868993043899536,0.011521996930241585,4
109,-0.09249558299779892,-0.08209501206874847,-0.0203862302005291,0.3284497559070587,-0.396255224943161,0.001939041307196021,4
110,0.05998058244585991,-0.20571939647197723,-0.0010422645136713982,-0.11299891024827957,0.8591267466545105,-0.0301929023116827,4
111,-0.010808039456605911,-0.0514005683362484,0.04792959243059158,0.3951658308506012,-0.09107194095849991,-0.006918398663401604,4
112,0.05513046681880951,0.0011184258619323373,0.06810851395130157,0.36212262511253357,1.356888771057129,-0.0524602048099041,4
113,-0.015429751016199589,-0.10432107001543045,-0.01584218628704548,0.16103404760360718,-0.37914398312568665,0.001985047711059451,4
114,0.0817638710141182,-0.04332825914025307,0.09525569528341293,0.030384398996829987,0.6935915350914001,-0.02985219657421112,4
115,0.05833948403596878,-0.0918043851852417,0.015816200524568558,0.2765830457210541,0.43425658345222473,-0.020976945757865906,4
116,0.03561922162771225,-0.21708647906780243,-0.023945556953549385,0.1316404789686203,0.574289083480835,-0.025892743840813637,4
117,0.009874788112938404,-0.053389497101306915,-0.02403254806995392,0.5006338953971863,-0.10223697125911713,-0.002039044862613082,4
118,-0.09614380449056625,-0.02019062079489231,-0.0004934269818477333,0.15876957774162292,0.32881516218185425,-0.018583258613944054,4
119,0.0018821165431290865,-0.07405373454093933,0.010731382295489311,0.35824379324913025,0.4850204586982727,-0.022655902430415154,4
120,0.03656861186027527,-0.20841437578201294,0.041939593851566315,0.22060059010982513,0.45554035902023315,-0.022533981129527092,4
121,0.00030414556385949254,-0.10075937211513519,0.05436042323708534,0.3994028568267822,0.29949674010276794,-0.015313545241951942,4
122,-0.055475447326898575,-0.1528492271900177,-0.03629755228757858,-0.12280723452568054,0.4507034122943878,-0.024014215916395187,4
123,0.08050959557294846,-0.05958446487784386,-0.08544883131980896,0.2700018584728241,0.4295305609703064,-0.01987462490797043,4
124,-0.061951443552970886,-0.10118985176086426,-0.049545638263225555,0.423809289932251,0.4170617163181305,-0.018510228022933006,4
125,0.0018374166684225202,0.0414913073182106,-0.07979489117860794,0.4148799777030945,0.8741016387939453,-0.03388003259897232,4
126,0.047057826071977615,-0.09447087347507477,-0.06773440539836884,0.40853777527809143,0.7353573441505432,-0.029842602089047432,4
127,-0.1063353642821312,-0.10958711057901382,-0.09362417459487915,0.5167598724365234,-0.1381131410598755,0.0047834389843046665,4
128,-0.020997870713472366,-0.19022709131240845,-0.05683889985084534,0.4869649410247803,0.3403313159942627,-0.016088778153061867,4
129,0.1455950289964676,0.04727447032928467,-0.005889317952096462,0.7861313223838806,0.25064536929130554,-0.009812978096306324,4
130,-0.015308830887079239,-0.08956955373287201,-0.13592444360256195,0.4702197015285492,0.08768407255411148,-0.003802966559305787,4
131,0.09619518369436264,-0.08344855159521103,-0.017948517575860023,0.24854397773742676,0.49052947759628296,-0.02465670183300972,4
132,-0.042971011251211166,0.024600913748145103,-0.0005437664221972227,0.29726117849349976,0.4714416265487671,-0.024078048765659332,4
133,-0.10295012593269348,-0.08148076385259628,0.03776820749044418,0.430284321308136,0.4573153853416443,-0.02303050272166729,4
134,0.10625115036964417,0.07822351157665253,0.017135335132479668,0.42776215076446533,0.4463973641395569,-0.022576037794351578,4
135,-0.006144637707620859,-0.04436304792761803,0.0164945051074028,0.719820499420166,0.34381479024887085,-0.015109896659851074,4
136,-0.024681992828845978,-0.06512784212827682,-0.045136693865060806,0.23911845684051514,0.3667939305305481,-0.020254449918866158,4
137,0.04343203455209732,-0.055066969245672226,0.07206156849861145,0.38541311025619507,0.3840271234512329,-0.019703805446624756,4
138,-0.027256900444626808,-0.14066755771636963,-0.006313478574156761,0.29384273290634155,0.4976634979248047,-0.024240504950284958,4
139,-0.054095055907964706,-0.12265300005674362,-0.05250786989927292,0.32867851853370667,0.48065346479415894,-0.023412983864545822,4
140,0.07676149159669876,-0.10098829865455627,0.008122938685119152,0.4545225501060486,0.17564944922924042,-0.012167776934802532,4
141,-0.025022068992257118,-0.059846773743629456,-0.06677400320768356,0.4493507444858551,0.24760770797729492,-0.01451057754456997,4
142,0.014289476908743382,-0.03412346914410591,0.05630673095583916,0.44588109850883484,0.30046066641807556,-0.016913337633013725,4
143,-0.03716005012392998,-0.0861365795135498,0.059532660990953445,0.34953436255455017,0.624403178691864,-0.02841106988489628,4
144,0.0968916043639183,-0.008819371461868286,-0.05047951266169548,0.37588128447532654,0.6707674860954285,-0.029414774850010872,4
145,-0.1259153038263321,-0.13772423565387726,-0.004076429642736912,0.4876698851585388,0.5191203355789185,-0.02296249382197857,4
146,0.0701291486620903,-0.060382675379514694,0.06839264184236526,0.4796139895915985,0.4984453022480011,-0.022680461406707764,4
147,0.013674268499016762,-0.16859199106693268,0.0190842617303133,0.47397059202194214,0.12199147045612335,-0.00872593279927969,4
148,0.04710797592997551,-0.13097870349884033,-0.07140574604272842,0.3821990489959717,0.9241591095924377,-0.03922276571393013,4
149,0.03452026844024658,-0.12270401418209076,0.042980071157217026,0.4053857922554016,0.7960292100906372,-0.034691259264945984,4
150,-0.11686921119689941,-0.15247027575969696,-0.025707492604851723,0.5128656625747681,0.2566733658313751,-0.012623745016753674,4
151,0.04634498059749603,0.041144512593746185,-0.021087657660245895,0.503817081451416,0.3895021080970764,-0.01792917773127556,4
152,0.012824269011616707,-0.08307108283042908,-0.03499104082584381,0.4965919256210327,0.4002295732498169,-0.018789660185575485,4
153,-0.008187716826796532,-0.14023305475711823,0.10097070783376694,0.49278220534324646,0.4087649881839752,-0.019296811893582344,4
154,0.03401095047593117,-0.08975178003311157,0.030023114755749702,0.49195778369903564,0.33082112669944763,-0.015559510327875614,4
155,-0.013020554557442665,-0.07965646684169769,-0.021776098757982254,0.4067865014076233,0.5277963876724243,-0.023446565493941307,4
156,-0.034413162618875504,-0.0657711774110794,0.004267475102096796,0.26163893938064575,0.7547389268875122,-0.03279648721218109,4
157,0.04412831366062164,-0.041350144892930984,0.039089400321245193,0.40532779693603516,0.42236626148223877,-0.020605919882655144,4
158,0.004209582693874836,-0.0628594383597374,0.01579403318464756,0.4299895167350769,0.42530345916748047,-0.019885927438735962,4
159,-0.00549278175458312,-0.016562143340706825,0.02242264710366726,0.44881415367126465,0.4279513359069824,-0.01961405947804451,4
160,-0.005436387378722429,-0.014492042362689972,-0.09793858975172043,0.4635584056377411,0.10191336274147034,-0.009632598608732224,4
161,-0.16283921897411346,0.04184025526046753,-0.14805348217487335,0.31088727712631226,0.5994586944580078,-0.025153471156954765,4
162,0.05401152744889259,-0.07218635827302933,9.594210860086605e-05,0.5240965485572815,0.47744888067245483,-0.022108953446149826,4
163,-0.008638083934783936,-0.09557006508111954,-0.05500384047627449,0.5206560492515564,0.31001898646354675,-0.016707738861441612,4
164,-0.06369585543870926,-0.09011472761631012,-0.03221907094120979,0.7584152221679688,0.5057861804962158,-0.02231980487704277,4
165,-0.02561342343688011,-0.029677994549274445,0.04798981919884682,0.45951172709465027,0.7275146842002869,-0.03314873203635216,4
166,-0.03654372692108154,-0.07419194281101227,-0.008850522339344025,0.4752531349658966,0.2706817388534546,-0.014744956977665424,4
167,0.028452781960368156,0.03349406644701958,-0.04324960708618164,0.5649935603141785,0.3990304172039032,-0.01876455545425415,4
168,0.0681748166680336,-0.017073381692171097,-0.12492867559194565,0.5531483292579651,0.4181766211986542,-0.019929904490709305,4
169,0.059027668088674545,-0.040292974561452866,0.12536175549030304,0.5446576476097107,0.4324692487716675,-0.021726083010435104,4
170,0.10085605084896088,-0.08480820059776306,-0.049355633556842804,0.5391920208930969,0.4442127048969269,-0.02202017232775688,4
171,0.02890894189476967,0.03018905222415924,-0.1277083158493042,0.6116361618041992,0.4532136023044586,-0.022560257464647293,4
172,0.014930788427591324,-0.23465244472026825,-0.13491395115852356,0.5143958330154419,0.459127277135849,-0.024032171815633774,4
173,0.010421911254525185,-0.08376633375883102,-0.043695420026779175,0.5951953530311584,0.46336668729782104,-0.02451249212026596,4
174,-0.1458486169576645,-0.04724042862653732,0.07052790373563766,0.5044562816619873,0.46628817915916443,-0.02582426369190216,4
175,-0.008743707090616226,-0.03541228920221329,0.010253527201712132,0.5865544080734253,0.4662765562534332,-0.0247020460665226,4
176,0.011522680521011353,0.0269393939524889,-0.0604432113468647,0.2762240469455719,0.6167806386947632,-0.03228168189525604,4
177,-0.0892476886510849,0.03607678413391113,0.07467363029718399,0.49313226342201233,0.7258450388908386,-0.033326003700494766,4
178,-0.00134492595680058,-0.06748498231172562,0.04572143405675888,0.651913583278656,0.3629404306411743,-0.019214875996112823,4
179,-0.024751683697104454,-0.18846997618675232,-0.0031973854638636112,0.5492291450500488,0.1698719561100006,-0.013774004764854908,4
180,0.04196510463953018,-0.024292757734656334,-0.017670337110757828,0.549247145652771,0.3213641047477722,-0.018899425864219666,4
181,-0.06445837765932083,0.001031415886245668,-0.025141235440969467,0.5481067895889282,0.36110273003578186,-0.020449643954634666,4
182,-0.0007499316707253456,-0.15185695886611938,0.08553143590688705,0.5465662479400635,0.5348176956176758,-0.026563063263893127,4
183,-0.022171642631292343,-0.108321413397789,-0.10778146237134933,0.547438383102417,0.5167502164840698,-0.025604071095585823,4
184,0.08514954894781113,-0.05371120199561119,-0.18549947440624237,0.6204899549484253,0.5036539435386658,-0.02569037489593029,4
185,-0.024848632514476776,-0.12985064089298248,0.04811821132898331,0.6011841893196106,0.4948161840438843,-0.026317579671740532,4
186,0.06264857202768326,-0.19424767792224884,0.12992680072784424,0.518397867679596,0.767855167388916,-0.03653372824192047,4
187,-0.06180581822991371,-0.051837123930454254,-0.1199219599366188,0.6672366857528687,0.4795922040939331,-0.023267138749361038,4
188,0.08760378509759903,-0.126663476228714,-0.1558338850736618,0.5672483444213867,0.4763876795768738,-0.02521560527384281,4
189,-0.03208346292376518,-0.017963476479053497,0.10315874963998795,0.7684532999992371,0.33915528655052185,-0.01824123226106167,4
190,0.10642620921134949,-0.16418275237083435,0.0342693105340004,0.5047653317451477,0.5127350687980652,-0.026813946664333344,4
191,-0.08882080018520355,-0.06127231568098068,-0.0009101839386858046,0.5196548104286194,0.5032810568809509,-0.026009416207671165,4
192,0.09025559574365616,-0.10892762988805771,0.03454936668276787,0.5968130826950073,0.22381293773651123,-0.01585029810667038,4
193,0.0633707195520401,-0.08010657131671906,0.007865711115300655,0.5185942649841309,0.5666906833648682,-0.027258025482296944,4
194,-0.06489133834838867,-0.08441433310508728,0.06128259003162384,0.46181297302246094,0.7474820613861084,-0.03298579901456833,4
195,0.06960994005203247,-0.07958474010229111,-0.08775465190410614,0.488770067691803,0.40112656354904175,-0.02353678271174431,4
196,0.0008216463611461222,-0.107475645840168,0.011582199484109879,0.7773193717002869,0.3555120527744293,-0.02037680521607399,4
197,-0.014874597080051899,-0.03400405868887901,0.0049596382305026054,0.5781352519989014,0.3910130262374878,-0.022173099219799042,4
198,0.027627117931842804,-0.048887599259614944,0.05697937309741974,0.43102315068244934,0.4866528809070587,-0.025060666725039482,4
199,-0.07560852915048599,-0.03531365841627121,-0.009547486901283264,0.74140465259552,0.41735267639160156,-0.022167349234223366,4
200,0.02855486422777176,-0.10093654692173004,-0.05940051004290581,0.5468609929084778,0.5775553584098816,-0.027514412999153137,4
201,-0.08918020129203796,-0.06929586827754974,-0.02871224284172058,0.5465860962867737,0.5535780787467957,-0.02718423120677471,4
202,0.023230256512761116,-0.030973967164754868,0.10522021353244781,0.4018265902996063,0.535001814365387,-0.028063304722309113,4
203,0.02520114555954933,-0.15669557452201843,-0.03174217417836189,0.5126800537109375,0.5221958756446838,-0.02618408389389515,4
204,-0.06658286601305008,-0.08737922459840775,0.08488380908966064,0.4505375027656555,0.5117030143737793,-0.027061574161052704,4
205,0.03477485850453377,-0.024627473205327988,-0.06542807072401047,0.4775652587413788,0.7251104116439819,-0.0300454031676054,4
206,0.10330226272344589,-0.1166100800037384,-0.0742567852139473,0.4971654415130615,0.4411587715148926,-0.025674542412161827,4
207,0.05635005235671997,-0.034324921667575836,-0.05807078629732132,0.513094425201416,0.6748305559158325,-0.029697217047214508,4
208,0.09323856234550476,-0.1544562578201294,0.06389610469341278,0.5252315998077393,0.6239712834358215,-0.028843609616160393,4
209,0.09968091547489166,-0.0054170782677829266,0.03264394775032997,0.6090675592422485,0.36457931995391846,-0.022364012897014618,4
210,-0.09524224698543549,-0.1405651569366455,-0.06325961649417877,0.5211296081542969,0.6158304214477539,-0.027873560786247253,4
211,-0.13141490519046783,-0.3090556263923645,0.49439942836761475,0.30859342217445374,0.5010393857955933,-0.029110515490174294,4
212,-0.06595917046070099,0.2207288146018982,-0.5994174480438232,0.5254240036010742,0.263944536447525,-0.02066863141953945,4
213,-0.20218700170516968,-0.31233805418014526,1.0763797760009766,0.6795580983161926,0.30854105949401855,-0.02518853358924389,4
214,1.1519930362701416,0.03502435237169266,0.38135090470314026,0.5699820518493652,0.2578418254852295,-0.01967245526611805,4
215,1.1620267629623413,0.8939381241798401,1.838795781135559,0.8615818619728088,0.2958765923976898,-0.02412695437669754,4
216,2.4488632678985596,-2.3248043060302734,0.12664677202701569,0.5396571755409241,0.3989656865596771,-0.01928786374628544,4
217,-3.476283550262451,4.407588005065918,-0.9577959775924683,0.4845218062400818,0.4334055185317993,-0.01636597327888012,4
218,-0.9508414268493652,0.8889562487602234,-0.2543388903141022,0.5415633916854858,0.3444623053073883,-0.022049976512789726,4
219,-1.967720866203308,0.6855939626693726,-2.014939308166504,0.43901583552360535,0.5045310258865356,-0.02836521342396736,4
220,-0.971276044845581,2.785576343536377,3.0487096309661865,0.4725158214569092,0.7145746350288391,-0.04089060053229332,4
221,2.018402099609375,-3.3920891284942627,3.312652587890625,0.3711487650871277,0.5903930068016052,-0.0055384282022714615,4
222,1.2369810342788696,-1.644797921180725,-1.6928008794784546,0.5901635885238647,0.5699823498725891,0.021127719432115555,4
223,-7.865743637084961,9.357569694519043,2.4831020832061768,0.45609956979751587,0.5830504894256592,0.013912282884120941,4
224,1.635304570198059,-3.2935404777526855,3.9658291339874268,0.8094286918640137,0.4508248567581177,0.043361201882362366,4
225,-1.2060528993606567,1.6124733686447144,4.208289623260498,0.7182586789131165,0.6395646333694458,0.08091738820075989,4
226,-3.334054708480835,7.636995792388916,2.066788911819458,0.6672531366348267,1.3521621227264404,0.09146375209093094,4
227,14.907671928405762,-5.8424458503723145,3.236304759979248,0.7925880551338196,1.0881950855255127,0.12934421002864838,4
228,2.133554697036743,-10.108728408813477,7.692236423492432,0.8347347974777222,1.6324421167373657,0.14966696500778198,4
229,-7.061710357666016,14.634380340576172,11.653175354003906,0.8689739108085632,1.7622097730636597,0.22579574584960938,4
230,-15.961729049682617,13.894890785217285,11.253010749816895,0.8416110873222351,1.69744873046875,0.3487841784954071,4
231,7.731284141540527,-8.838155746459961,7.818150997161865,0.8851059675216675,2.8419759273529053,0.4026082754135132,4
232,-12.74589729309082,-1.2943122386932373,9.77845573425293,1.16384756565094,2.7329812049865723,0.5339473485946655,4
233,-7.488041877746582,12.575634002685547,9.080198287963867,1.2026921510696411,3.1580889225006104,0.6014698147773743,4
234,-17.373220443725586,-4.765329360961914,8.621113777160645,1.2539727687835693,2.8420403003692627,0.7494996786117554,4
235,-31.030580520629883,-7.511878490447998,6.8693718910217285,1.6459474563598633,3.4938409328460693,0.833605170249939,4
236,-31.53859519958496,11.798063278198242,2.773540735244751,1.7724415063858032,3.1273045539855957,0.9256675243377686,4
237,-43.64613342285156,14.502691268920898,2.6910839080810547,1.7271896600723267,3.1429789066314697,0.9310159087181091,4
238,-59.573909759521484,25.609169006347656,4.020305156707764,1.5086710453033447,2.710439443588257,0.9406444430351257,4
239,-91.4383316040039,42.054744720458984,4.233547210693359,0.993203341960907,1.7932544946670532,0.9580504894256592,4
240,-89.90404510498047,31.56892967224121,7.6254448890686035,-1.352822184562683,0.14974148571491241,0.4790157675743103,4
241,-90.02271270751953,24.317214965820312,11.989147186279297,-1.148293375968933,1.6335469484329224,0.63055819272995,4
242,-86.60200500488281,1.0465284585952759,13.337492942810059,-1.1448278427124023,0.5670894980430603,0.7681464552879333,4
243,-93.08866882324219,-22.385822296142578,12.190011978149414,-1.9093241691589355,0.15497347712516785,0.8628711700439453,4
244,-103.11759185791016,-42.28687286376953,11.013482093811035,-1.6269354820251465,-1.5388803482055664,0.7076571583747864,4
245,-106.41468811035156,-47.96026611328125,9.33761978149414,-2.1003384590148926,-3.5933713912963867,0.5822197794914246,4
246,-96.93219757080078,-56.3303337097168,9.199749946594238,-1.430474877357483,-5.421706676483154,0.4296998977661133,4
247,-73.86542510986328,-54.957984924316406,7.032204627990723,-0.3271644711494446,-7.837586879730225,-0.007024348713457584,4
248,-30.23398208618164,-41.388702392578125,6.9128241539001465,1.1984606981277466,-9.625650405883789,-0.4543510377407074,4
249,7.768373489379883,-12.628911972045898,6.381707191467285,-0.07739730179309845,-9.374377250671387,0.6993585824966431,4
250,44.24313735961914,5.048387050628662,4.2550153732299805,0.6960097551345825,-9.221916198730469,0.12121812254190445,4
251,75.50298309326172,7.4325761795043945,7.234917163848877,1.1241891384124756,-9.15977954864502,-0.31910061836242676,4
252,84.64550018310547,5.073225975036621,8.1859712600708,0.20994597673416138,-7.952589511871338,0.6188880205154419,4
253,84.5992660522461,1.2806711196899414,5.909569263458252,0.585677981376648,-6.943408489227295,0.1706676185131073,4
254,84.93560791015625,-9.444022178649902,8.960968971252441,1.317647933959961,-6.507473468780518,-0.5543042421340942,4
255,81.11071014404297,-9.402379035949707,13.777565002441406,1.5351073741912842,-5.438014984130859,-0.6083829402923584,4
256,57.11353302001953,-11.774920463562012,14.025083541870117,1.6688270568847656,-4.4496355056762695,-0.5257493853569031,4
257,28.408267974853516,-15.06601333618164,12.235404014587402,0.7321994304656982,-4.401403903961182,0.6989551782608032,4
258,2.2808496952056885,-22.817794799804688,8.693255424499512,1.4758843183517456,-4.540681838989258,0.3508011996746063,4
259,-25.250732421875,-32.19758605957031,8.111177444458008,1.4469133615493774,-4.423556327819824,0.6458052396774292,4
260,-33.85938262939453,-37.92072296142578,4.046666622161865,3.3390960693359375,-4.867936611175537,-0.3479348123073578,4
261,-28.08358383178711,-31.756803512573242,4.1349945068359375,3.9239683151245117,-5.639495849609375,-0.2963183522224426,4
262,-7.4817938804626465,-9.076761245727539,2.6457388401031494,4.035157203674316,-5.856001853942871,-0.10422953963279724,4
263,20.383014678955078,26.918907165527344,2.582009792327881,3.751699686050415,-5.676135063171387,0.053346291184425354,4
264,56.72990417480469,63.87310028076172,2.8244221210479736,3.427844285964966,-5.971074104309082,0.24954909086227417,4
265,89.49910736083984,83.14080810546875,2.3358569145202637,1.764967918395996,-4.196849822998047,0.40909308195114136,4
266,112.04566955566406,83.80397033691406,1.1921164989471436,1.592942237854004,-3.075100898742676,-0.1139841377735138,4
267,112.96356964111328,77.64340209960938,3.1856625080108643,1.0669759511947632,-1.3853588104248047,-0.5093033909797668,4
268,102.09049987792969,70.76612854003906,5.4941325187683105,0.7726503014564514,-0.1967228502035141,-0.7448840737342834,4
269,68.86717224121094,49.621891021728516,6.384171009063721,1.2948188781738281,2.0836758613586426,-1.4933488368988037,4
270,21.290184020996094,37.80360794067383,6.424957752227783,1.6893463134765625,2.4415969848632812,-1.4852287769317627,4
271,101.63267517089844,-155.5024871826172,-16.742197036743164,3.5527074337005615,1.4101190567016602,-1.0769838094711304,4
272,-17.49152183532715,-105.53890991210938,-38.50151062011719,5.684622287750244,1.2543288469314575,-0.9347327947616577,4
273,-31.917163848876953,112.45867156982422,-40.38267517089844,4.732347011566162,-0.9115636348724365,-0.8035950660705566,4
274,-48.70695495605469,33.6019172668457,-40.06278991699219,2.9210386276245117,-0.39045825600624084,-1.74753999710083,4
275,-73.85660552978516,34.45491409301758,-35.09510040283203,1.2396689653396606,-0.6989235877990723,-2.3933990001678467,4
276,-73.07862091064453,51.95152282714844,-27.64617919921875,-0.4468478262424469,-1.384666085243225,-2.896981954574585,4
277,-44.3028450012207,56.72312545776367,-19.42768669128418,-2.0828232765197754,-1.9539624452590942,-3.3129265308380127,4
278,-4.5585713386535645,64.17738342285156,-13.751351356506348,-3.5684640407562256,-2.011336088180542,-3.6080052852630615,4
279,30.93538475036621,57.281192779541016,-12.679438591003418,-6.188232421875,-1.9977636337280273,-3.95672869682312,4
280,61.53626251220703,33.9828987121582,-12.295941352844238,-8.301817893981934,-1.2328553199768066,-4.152137279510498,4
281,83.37579345703125,7.801809787750244,-12.129443168640137,-6.3350911140441895,-0.355133593082428,-3.662614345550537,4
282,93.24736022949219,-27.901233673095703,-14.130958557128906,-2.5436315536499023,-2.2305848598480225,-5.717553615570068,4
283,86.11006164550781,-51.72567367553711,-9.6654634475708,-1.057301640510559,-1.4857158660888672,-6.1664910316467285,4
284,74.36106872558594,-57.592262268066406,-1.9173085689544678,0.19061583280563354,-1.5963753461837769,-6.984951972961426,4
285,58.42689895629883,-44.291297912597656,5.175562381744385,0.5132316946983337,-0.6626434326171875,-6.827675819396973,4
286,46.09986877441406,-13.092096328735352,7.35030460357666,2.1950843334198,-0.30451464653015137,-6.952180862426758,4
287,35.93090057373047,31.139728546142578,12.496079444885254,1.7650187015533447,0.704284131526947,-6.843723297119141,4
288,26.676347732543945,76.37377166748047,16.403244018554688,0.7213279008865356,2.2078816890716553,-6.675382137298584,4
289,23.33819580078125,120.39813232421875,22.683134078979492,-2.131044387817383,3.0818307399749756,-6.802478313446045,4
290,27.41050148010254,141.5063934326172,26.371620178222656,-4.034364223480225,3.9435617923736572,-6.472569942474365,4
291,28.268762588500977,141.9447784423828,24.46634292602539,-7.2254509925842285,5.786317348480225,-5.8949971199035645,4
292,19.34795379638672,132.6632843017578,22.917404174804688,-11.303995132446289,5.552182197570801,-6.706500053405762,4
293,6.746158123016357,103.55320739746094,25.96365737915039,-9.842527389526367,4.724179744720459,-6.147526741027832,4
294,1.417680263519287,61.61705017089844,24.12659454345703,-10.489901542663574,5.330372333526611,-5.162775039672852,4
295,-11.857413291931152,14.115635871887207,17.70418930053711,-9.834158897399902,5.721110820770264,-3.8030734062194824,4
296,-29.928138732910156,-38.95933532714844,12.135510444641113,-9.607133865356445,6.087902545928955,-2.924802780151367,4
297,-49.60022735595703,-86.64327239990234,6.379768371582031,-8.919500350952148,5.799837112426758,-2.7154998779296875,4
298,-78.70067596435547,-120.54696655273438,1.836899995803833,-7.367287635803223,5.570621967315674,-1.895432472229004,4
299,-99.18006896972656,-143.68988037109375,-4.950101852416992,-6.986738204956055,6.040978908538818,-1.22188401222229,4
300,-111.75647735595703,-152.94277954101562,-11.307798385620117,-5.40026330947876,5.22405481338501,-1.0525399446487427,4
301,-117.92192077636719,-141.5777130126953,-11.77468204498291,-2.918170928955078,2.6830999851226807,-1.9389415979385376,4
302,-107.57745361328125,-119.6569595336914,-10.139165878295898,-2.1965134143829346,3.8517470359802246,-0.37330853939056396,4
303,-96.59942626953125,-81.85240173339844,-11.720623016357422,-1.1096481084823608,2.298339605331421,-0.942674994468689,4
304,-90.10431671142578,-45.69148254394531,-5.8588666915893555,-0.6788560748100281,1.2109719514846802,-1.53696870803833,4
305,-78.08336639404297,-19.256052017211914,2.2032322883605957,-1.1392345428466797,0.15562422573566437,-2.2972640991210938,4
306,-10.513785362243652,-56.503379821777344,8.468615531921387,-0.11466506123542786,-0.1999610960483551,-1.546303153038025,4
307,371.61859130859375,-115.9923095703125,14.072476387023926,0.699989914894104,2.2672276496887207,-1.2116870880126953,4
308,129.25234985351562,145.90818786621094,16.89492416381836,2.605414390563965,11.019773483276367,-1.1342531442642212,4
309,-166.33250427246094,39.35988235473633,34.66405487060547,-0.06681416183710098,11.303750991821289,-0.05196649208664894,4
310,-21.54897689819336,-83.79499816894531,45.051570892333984,0.5641369819641113,10.456930160522461,0.39739927649497986,4
311,-35.86343765258789,-52.31656265258789,35.64507293701172,1.982214331626892,9.24409294128418,1.5061882734298706,4
312,-67.7248764038086,-28.88958168029785,24.705060958862305,2.7903738021850586,7.691815376281738,2.3691835403442383,4
313,-109.75248718261719,-6.14088773727417,19.12782096862793,2.1950697898864746,6.453375339508057,1.80389404296875,4
314,-161.30593872070312,17.54094123840332,19.93805694580078,1.0599373579025269,3.575319766998291,1.1656252145767212,4
315,-201.69854736328125,30.203170776367188,21.890857696533203,0.1100131943821907,3.225074291229248,0.2212517410516739,4
316,-223.87620544433594,28.267824172973633,23.093164443969727,-0.4460245370864868,-0.598490297794342,0.7432923913002014,4
317,-227.46453857421875,17.478605270385742,22.096654891967773,-1.947919249534607,-4.015718936920166,0.1972525268793106,4
318,-208.2197723388672,-5.010289192199707,23.225521087646484,-1.7048327922821045,-7.573424339294434,0.8335084915161133,4
319,-162.3123016357422,-27.129491806030273,21.510591506958008,-1.7260597944259644,-9.076008796691895,0.9983941912651062,4
320,-104.37266540527344,-38.54681396484375,20.769027709960938,-0.9824568033218384,-12.263802528381348,1.3610233068466187,4
321,-37.416324615478516,-40.989112854003906,19.91815948486328,0.2723872661590576,-13.677389144897461,1.520366907119751,4
322,31.324968338012695,-37.196102142333984,19.934650421142578,0.5788705945014954,-14.434653282165527,1.9450652599334717,4
323,85.39906311035156,-30.59630584716797,17.44632911682129,0.624529242515564,-13.816948890686035,2.391101121902466,4
324,119.54854583740234,-27.45746612548828,15.384272575378418,1.5519713163375854,-11.99385929107666,1.7782905101776123,4
325,135.21298217773438,-29.23773193359375,18.89531898498535,1.7955857515335083,-10.287739753723145,1.8762381076812744,4
326,125.19702911376953,-25.942380905151367,15.337589263916016,2.405144214630127,-8.239222526550293,1.4762130975723267,4
327,108.50086975097656,-11.260405540466309,12.493512153625488,1.3796532154083252,-6.799461364746094,3.290126323699951,4
328,72.42242431640625,12.034305572509766,5.192005157470703,1.6950788497924805,-8.36841106414795,3.672569990158081,4
329,32.35704803466797,28.007762908935547,0.31236129999160767,1.9584672451019287,-8.208459854125977,3.365485191345215,4
330,17.811983108520508,35.41307830810547,-2.672255277633667,2.061042070388794,-9.273053169250488,3.5621178150177,4
331,11.360902786254883,35.01127243041992,-8.198278427124023,2.240140676498413,-9.745610237121582,3.2864291667938232,4
332,16.110254287719727,20.266948699951172,-5.628969192504883,2.177961826324463,-9.514113426208496,2.8221099376678467,4
333,33.749568939208984,0.5559064149856567,-1.8146748542785645,2.316592216491699,-9.505352973937988,2.522761344909668,4
334,54.75605773925781,-18.50922966003418,1.1140978336334229,2.44341778755188,-9.016132354736328,2.342649221420288,4
335,80.81187438964844,-18.871318817138672,1.707063913345337,2.7110888957977295,-8.868409156799316,2.5107805728912354,4
336,96.73875427246094,-11.6212158203125,2.084927797317505,3.0971450805664062,-7.639994144439697,2.125152349472046,4
337,105.09797668457031,-2.3047521114349365,-1.2014700174331665,3.177595853805542,-7.394992351531982,2.503676414489746,4
338,125.47525024414062,17.084125518798828,-8.272184371948242,2.8227384090423584,-5.5909271240234375,2.464458703994751,4
339,152.0486602783203,46.89959716796875,-14.729652404785156,2.3809986114501953,-4.975148677825928,2.9007232189178467,4
340,166.9564666748047,69.65716552734375,-19.639436721801758,1.7990988492965698,-3.799612283706665,2.9464375972747803,4
341,165.0660858154297,82.06497192382812,-23.113325119018555,0.8966593146324158,-1.6915863752365112,2.600823163986206,4
342,162.55201721191406,78.5786361694336,-23.301162719726562,0.23036473989486694,-0.4794882833957672,2.417706251144409,4
343,140.3125762939453,63.94158172607422,-26.005908966064453,-0.7698259949684143,1.9341380596160889,2.033290147781372,4
344,133.85797119140625,47.23975372314453,-23.985151290893555,-1.1576573848724365,3.07497239112854,1.8061559200286865,4
345,101.73072052001953,29.176355361938477,-24.503591537475586,-1.92060387134552,5.372251510620117,1.5331848859786987,4
346,73.2242431640625,15.990105628967285,-28.67487907409668,-1.9942450523376465,6.362129211425781,1.3399978876113892,4
347,46.3339729309082,9.630122184753418,-29.10154914855957,-2.4450385570526123,8.122554779052734,1.1061203479766846,4
348,12.723185539245605,8.869668006896973,-28.1846981048584,-2.444793701171875,8.767827033996582,0.9698597192764282,4
349,-16.428503036499023,10.679434776306152,-27.135644912719727,-2.9557602405548096,9.874164581298828,0.6587027907371521,4
350,-34.91098403930664,8.935927391052246,-26.340862274169922,-2.992455244064331,9.907742500305176,0.5886464715003967,4
351,-46.70883560180664,2.7778921127319336,-26.02121925354004,-3.46684193611145,10.56944751739502,0.2693153917789459,4
352,-64.22771453857422,0.015908729285001755,-25.01039695739746,-3.9364614486694336,10.957975387573242,-0.18893633782863617,4
353,-79.30555725097656,-4.063942909240723,-28.834728240966797,-4.177854061126709,10.519478797912598,-0.6068541407585144,4
354,-90.7813720703125,-17.64302635192871,-32.23482894897461,-3.920897960662842,9.22054672241211,-0.7307842373847961,4
355,-92.56979370117188,-33.77836608886719,-37.037620544433594,-3.8617000579833984,7.9923248291015625,-1.4111281633377075,4
356,-86.38147735595703,-49.23003387451172,-38.00620651245117,-3.5668656826019287,6.623967170715332,-2.1313090324401855,4
357,-69.8563461303711,-60.43357849121094,-35.4150505065918,-3.073488235473633,5.562557697296143,-2.6704483032226562,4
358,-50.557369232177734,-63.43976974487305,-30.281192779541016,-2.224874258041382,4.6753249168396,-2.8488054275512695,4
359,-35.49091720581055,-59.9688835144043,-26.306026458740234,-2.898458242416382,4.591391563415527,-4.506309986114502,4
360,-23.73113250732422,-41.128173828125,-17.42335319519043,-2.0065393447875977,4.295364856719971,-4.332058906555176,4
361,-16.262041091918945,-20.71927833557129,-12.865442276000977,-1.5388898849487305,3.878809690475464,-4.479115009307861,4
362,-16.77145767211914,-4.9434309005737305,-7.298245906829834,-1.199149489402771,3.5636789798736572,-4.469269752502441,4
363,-18.90422248840332,4.409941673278809,-4.250935077667236,-1.0726972818374634,3.296379566192627,-4.476271629333496,4
364,-22.116455078125,7.478657245635986,0.13000836968421936,-1.0967012643814087,2.971813678741455,-4.510494709014893,4
365,-19.263853073120117,6.515565872192383,3.1831557750701904,-0.45404309034347534,2.7114500999450684,-3.9601640701293945,4
366,-17.133296966552734,-0.2581140398979187,3.1337687969207764,-2.2489240169525146,1.9810115098953247,-5.338472843170166,4
367,-13.5909423828125,-9.66988754272461,7.958717346191406,-1.9521597623825073,1.792136311531067,-5.123082637786865,4
368,-4.227426052093506,-19.043689727783203,8.978256225585938,-1.6427725553512573,1.9495306015014648,-4.8596110343933105,4
369,4.990813255310059,-30.21791648864746,8.804945945739746,-1.0412479639053345,1.9396895170211792,-4.583693504333496,4
370,10.109326362609863,-37.46181869506836,9.041888236999512,-0.5998324155807495,2.093074083328247,-4.43425178527832,4
371,10.095881462097168,-36.1114501953125,12.031997680664062,0.12717071175575256,2.5534374713897705,-4.114985942840576,4
372,5.735206127166748,-32.372161865234375,12.895363807678223,0.32403555512428284,2.3750500679016113,-4.12275505065918,4
373,-1.930294394493103,-26.010345458984375,15.185704231262207,1.0027202367782593,2.4059979915618896,-3.858617067337036,4
374,-15.574836730957031,-19.044675827026367,15.890685081481934,0.8656550049781799,3.451296806335449,-3.731023073196411,4
375,-35.42371368408203,-11.167521476745605,16.78843879699707,1.086645483970642,3.213287591934204,-3.5623035430908203,4
376,-53.5925178527832,-0.5652837753295898,17.312145233154297,1.264192819595337,2.644804000854492,-3.3725075721740723,4
377,-64.4176025390625,18.14744758605957,14.839104652404785,1.2611581087112427,2.3602781295776367,-3.187481641769409,4
378,-71.58435821533203,24.40924644470215,15.33596420288086,1.1937273740768433,1.3906749486923218,-2.9744136333465576,4
379,-60.099727630615234,19.85890007019043,14.494303703308105,1.1345175504684448,0.9616223573684692,-2.773681402206421,4
380,-38.98743438720703,8.89183521270752,13.896746635437012,1.0237716436386108,0.36979952454566956,-2.609238862991333,4
381,-20.905147552490234,0.18486540019512177,15.110103607177734,1.2214378118515015,0.29100292921066284,-2.4187183380126953,4
382,-4.710235595703125,-4.746908664703369,16.810325622558594,1.3908299207687378,0.3996582627296448,-2.2591195106506348,4
383,-1.840596079826355,0.5022242665290833,17.471418380737305,1.3274084329605103,0.08500657230615616,-2.0694925785064697,4
384,-9.02212905883789,8.3576078414917,16.700984954833984,1.6073720455169678,0.16390399634838104,-1.8594489097595215,4
385,-17.31928825378418,17.61036491394043,15.395943641662598,1.3387778997421265,0.06093614175915718,-1.7088888883590698,4
386,-29.924116134643555,33.445064544677734,17.18372917175293,1.199520468711853,0.002512045670300722,-1.570163369178772,4
387,-54.14766311645508,44.442256927490234,18.06887435913086,0.6217808723449707,-0.677044689655304,-1.3506722450256348,4
388,-64.83893585205078,38.42994689941406,20.785655975341797,0.2935482859611511,-1.0792386531829834,-1.1991478204727173,4
389,-67.80064392089844,24.966630935668945,24.175607681274414,0.020130664110183716,-2.1576967239379883,-0.9074185490608215,4
390,-59.66675567626953,11.332731246948242,23.103015899658203,-0.23040099442005157,-2.3402464389801025,-0.7564749121665955,4
391,-41.057830810546875,-2.31404709815979,23.122188568115234,-0.02467767708003521,-2.708566188812256,-0.5627173781394958,4
392,-24.549230575561523,-5.9736647605896,20.732954025268555,-0.005021147429943085,-3.3280746936798096,-0.29802578687667847,4
393,-8.914315223693848,-12.687329292297363,15.163570404052734,0.01714855246245861,-3.4181065559387207,-0.11236439645290375,4
394,17.41484832763672,-18.784936904907227,11.845011711120605,0.3172287344932556,-3.415537118911743,0.005595183931291103,4
395,38.82950973510742,-16.967256546020508,12.104508399963379,0.47508883476257324,-3.1631827354431152,0.1373213827610016,4
396,48.306129455566406,-3.9877617359161377,13.400980949401855,0.7815415263175964,-2.4887959957122803,0.19124086201190948,4
397,37.2408447265625,6.7928242683410645,12.464797019958496,0.6883782148361206,-2.0342514514923096,0.3494730591773987,4
398,9.181249618530273,11.854268074035645,11.20213508605957,0.3846878409385681,-1.8439337015151978,0.5431367754936218,4
399,-27.36037826538086,17.751262664794922,9.090424537658691,0.47314760088920593,-2.086313247680664,0.5710787773132324,4
400,-52.7906608581543,21.845983505249023,6.5315470695495605,0.08158983290195465,-2.423537015914917,0.7138130068778992,4
401,-63.97169876098633,27.616899490356445,2.3507654666900635,-0.07880014926195145,-3.0960700511932373,0.7228436470031738,4
402,-48.448612213134766,30.65678596496582,1.5687247514724731,-0.33164697885513306,-3.293598175048828,0.6761561036109924,4
403,-29.053403854370117,34.716243743896484,0.5848771929740906,-0.7870231866836548,-3.877370595932007,0.7321640849113464,4
404,-14.0311918258667,22.29204750061035,-0.06205080449581146,-1.118944764137268,-3.828902244567871,0.712390661239624,4
405,-0.7064256072044373,6.768901348114014,0.9988071918487549,-1.126994013786316,-4.059128284454346,0.6499203443527222,4
406,12.160543441772461,-6.327877998352051,-1.376774787902832,-1.0529742240905762,-3.8785829544067383,0.6094854474067688,4
407,21.418659210205078,-14.73786449432373,-2.9178857803344727,-0.7784355878829956,-3.8168833255767822,0.5227961540222168,4
408,34.70988845825195,-17.64255714416504,-2.7942311763763428,-0.42211323976516724,-3.382307291030884,0.42485499382019043,4
409,33.769996643066406,-5.889065742492676,-3.743818759918213,-0.38058215379714966,-2.9875550270080566,0.4398278295993805,4
410,32.67142868041992,13.320712089538574,-1.5332064628601074,-0.41297587752342224,-2.7244789600372314,0.41108569502830505,4
411,32.54335403442383,43.028743743896484,-0.4329228103160858,-0.6071096062660217,-2.413363218307495,0.35424602031707764,4
412,17.928255081176758,61.79603576660156,3.2192366123199463,-1.2751826047897339,-2.0947344303131104,0.42001721262931824,4
413,-7.4787678718566895,53.576786041259766,4.280022621154785,-1.6981384754180908,-2.1267900466918945,0.3430666923522949,4
414,-36.29087448120117,25.347856521606445,2.7041571140289307,-2.3815269470214844,-2.520404577255249,0.47185400128364563,4
415,-43.05588912963867,18.42238426208496,-1.7664375305175781,-2.4733691215515137,-2.9402379989624023,0.4223533570766449,4
416,-46.517879486083984,37.01670455932617,-6.748011112213135,-2.7215561866760254,-3.4507863521575928,0.3536415696144104,4
417,-32.716922760009766,57.826202392578125,-3.940460205078125,-3.312955856323242,-3.67948579788208,0.3589279055595398,4
418,-10.425183296203613,64.93526458740234,-5.476149082183838,-4.1707634925842285,-3.990671396255493,0.35702985525131226,4
419,17.507015228271484,49.11811065673828,-7.661384105682373,-4.432997226715088,-3.6990113258361816,0.1828351616859436,4
420,26.207353591918945,27.204797744750977,-9.490687370300293,-4.919232368469238,-3.3770017623901367,0.1461612731218338,4
421,19.50995445251465,4.865459442138672,-12.323225021362305,-4.876473903656006,-3.110954523086548,-0.05212223157286644,4
422,8.980798721313477,-14.761091232299805,-14.700416564941406,-4.693871021270752,-2.996828079223633,-0.25047314167022705,4
423,1.943339228630066,-21.826902389526367,-13.253642082214355,-4.505716800689697,-3.028794050216675,-0.4159790873527527,4
424,-1.9471328258514404,-20.351970672607422,-10.73438835144043,-4.382828235626221,-3.0560460090637207,-0.4863729476928711,4
425,3.699308156967163,-11.049490928649902,-10.278464317321777,-4.184260845184326,-3.030137300491333,-0.5808327198028564,4
426,4.092059135437012,3.286931037902832,-11.02122688293457,-4.158911228179932,-2.9240829944610596,-0.6336127519607544,4
427,10.672348976135254,16.575870513916016,-9.370248794555664,-4.373740196228027,-2.9227993488311768,-0.7255827188491821,4
428,10.268773078918457,20.001956939697266,-6.789374351501465,-4.63857364654541,-2.8301753997802734,-0.7920459508895874,4
429,11.630941390991211,22.73418617248535,-2.565462112426758,-4.934694766998291,-2.7302799224853516,-0.8195750117301941,4
430,14.519143104553223,16.550954818725586,2.5739705562591553,-4.9280829429626465,-2.4457380771636963,-0.8307242393493652,4
431,10.948328018188477,2.7037034034729004,6.240964412689209,-5.131988048553467,-2.299792766571045,-0.7477257251739502,4
432,6.2922234535217285,1.089430332183838,9.184356689453125,-5.150716781616211,-2.0449419021606445,-0.5825464129447937,4
433,-10.09706974029541,-10.100305557250977,9.956650733947754,-5.1364030838012695,-2.1382062435150146,-0.5357502102851868,4
434,-23.10127067565918,-25.82172393798828,7.302480220794678,-4.908366680145264,-2.079085350036621,-0.32151877880096436,4
435,-18.64185905456543,-34.79629135131836,-1.323913335800171,-4.399348735809326,-2.4023597240448,-0.3957451283931732,4
436,-12.726489067077637,-29.18781280517578,-5.406106948852539,-4.158228397369385,-2.538074493408203,-0.3809038996696472,4
437,-16.18640899658203,-22.76751136779785,-6.085743427276611,-3.8905980587005615,-2.760991096496582,-0.47536805272102356,4
438,-18.235334396362305,-12.367947578430176,-9.575008392333984,-3.6165623664855957,-2.8060104846954346,-0.49197813868522644,4
439,-34.778507232666016,20.969125747680664,-12.809996604919434,-3.9860806465148926,-2.9759843349456787,-0.46668529510498047,4
440,-54.33369827270508,45.0147819519043,-12.803954124450684,-4.516733646392822,-3.54201078414917,-0.6311138868331909,4
441,-57.999855041503906,46.366668701171875,-13.257309913635254,-4.950779438018799,-4.204306125640869,-0.8369243144989014,4
442,-44.8974723815918,38.23910903930664,-16.067033767700195,-5.430318832397461,-4.433465480804443,-0.8220056295394897,4
443,-18.518491744995117,18.83329963684082,-22.12325668334961,-5.792585849761963,-5.046992778778076,-1.1545038223266602,4
444,21.01759147644043,-1.4614413976669312,-23.477041244506836,-5.8393330574035645,-4.887618064880371,-1.2885713577270508,4
445,56.49008560180664,-29.20866584777832,-25.544246673583984,-5.499530792236328,-4.59812068939209,-1.6196634769439697,4
446,78.14329528808594,-50.85188674926758,-22.63551902770996,-4.934401512145996,-3.56288743019104,-1.6648972034454346,4
447,82.20243835449219,-62.66959762573242,-22.621417999267578,-4.035234451293945,-2.6522486209869385,-1.9124776124954224,4
448,67.13621520996094,-71.79255676269531,-21.470962524414062,-3.531209707260132,-1.8604772090911865,-2.0313234329223633,4
449,36.19044876098633,-71.17411804199219,-18.043560028076172,-2.575876474380493,-1.186057686805725,-2.2386820316314697,4
450,0.7486727237701416,-55.87874221801758,-13.985312461853027,-2.1822073459625244,-1.2284115552902222,-2.450366258621216,4
451,-25.02809715270996,-33.017547607421875,-9.732329368591309,-1.6582047939300537,-1.3212196826934814,-2.5837268829345703,4
452,-43.14898681640625,-15.031135559082031,-4.202239513397217,-1.2784351110458374,-1.7596310377120972,-2.7256946563720703,4
453,-39.524715423583984,-10.606697082519531,-2.9398674964904785,-1.3063029050827026,-2.337742567062378,-2.7789995670318604,4
454,-28.6270809173584,-8.354987144470215,-3.9581828117370605,-1.1990123987197876,-2.6431167125701904,-2.79909348487854,4
455,2.9359610080718994,-0.9935132265090942,-6.615764617919922,-1.2214274406433105,-2.7663440704345703,-2.8296077251434326,4
456,24.079301834106445,6.375892639160156,-8.925326347351074,-1.2921702861785889,-2.5521345138549805,-2.885556221008301,4
457,32.84806823730469,8.91276741027832,-13.216639518737793,-1.350247859954834,-2.1739914417266846,-2.9809138774871826,4
458,46.22977828979492,6.550299644470215,-13.076400756835938,-1.349779725074768,-1.6032472848892212,-3.099045991897583,4
459,41.178871154785156,-7.475128173828125,-16.807531356811523,-1.1208220720291138,-1.2418030500411987,-3.2966480255126953,4
460,24.763269424438477,-22.482202529907227,-21.181529998779297,-1.3540148735046387,-0.9663500785827637,-3.4277350902557373,4
461,11.062660217285156,-37.49767303466797,-26.16878890991211,-0.9933700561523438,-0.9603675603866577,-3.688640832901001,4
462,4.065032482147217,-42.95030212402344,-26.255416870117188,-0.30460324883461,-0.6178488731384277,-3.9608402252197266,4
463,18.388973236083984,-40.24736785888672,-21.854900360107422,-0.19149264693260193,-0.7069231867790222,-4.183676242828369,4
464,30.313312530517578,-31.919734954833984,-17.19915008544922,0.16434895992279053,-0.4511922001838684,-4.3756208419799805,4
465,35.80839157104492,-25.783010482788086,-12.673770904541016,0.6485635042190552,-0.042967788875103,-4.543633460998535,4
466,26.51057243347168,-9.626361846923828,-7.709556579589844,0.5526124835014343,0.14800913631916046,-4.628292560577393,4
467,4.073451042175293,-1.0651071071624756,-0.5778610706329346,0.6927632689476013,0.38114261627197266,-4.680088043212891,4
468,-8.985149383544922,9.861351013183594,1.313838243484497,0.5468425154685974,0.36287569999694824,-4.67742919921875,4
469,-18.08867073059082,27.09859275817871,9.923157691955566,0.4149901270866394,0.09459752589464188,-4.607224464416504,4
470,-31.429218292236328,31.644439697265625,13.919811248779297,0.010825598612427711,-0.15964703261852264,-4.500673770904541,4
471,-21.435489654541016,29.398452758789062,16.213241577148438,-0.3804349899291992,-0.5330869555473328,-4.337663650512695,4
472,-6.988209247589111,16.64018440246582,16.09864616394043,-0.6267739534378052,-0.5533195734024048,-4.198009490966797,4
473,-3.069244623184204,-10.553308486938477,12.690914154052734,-0.6676136255264282,-0.6235448718070984,-4.053339958190918,4
474,-1.7315466403961182,-42.88405227661133,6.325379848480225,-0.5183717608451843,-0.4644525647163391,-3.9869003295898438,4
475,-2.6764001846313477,-74.38575744628906,0.958677351474762,0.05231774225831032,-0.48092639446258545,-3.938779592514038,4
476,-11.395696640014648,-88.87997436523438,-1.1705958843231201,1.3763811588287354,-0.5933920741081238,-3.8698842525482178,4
477,-20.49980926513672,-76.2822036743164,-2.730746030807495,2.024040937423706,-0.8227910399436951,-3.8900563716888428,4
478,-18.029817581176758,-38.34331512451172,-3.6707332134246826,2.5308730602264404,-0.9930963516235352,-3.931940793991089,4
479,-7.301743030548096,-8.659184455871582,-0.9309194087982178,2.6371634006500244,-1.0739585161209106,-3.991234064102173,4
480,-2.771346092224121,17.54649543762207,0.02127687819302082,2.772186279296875,-0.8181577920913696,-4.06601095199585,4
481,-13.671252250671387,34.000240325927734,2.018393039703369,2.376729965209961,-0.9366503357887268,-4.06087064743042,4
482,-9.214788436889648,40.18522262573242,3.883816719055176,1.989432692527771,-1.1688381433486938,-4.002285957336426,4
483,-3.403212547302246,39.050010681152344,5.720170021057129,1.4748176336288452,-1.2810746431350708,-3.963700294494629,4
484,4.9615068435668945,38.39455032348633,7.122025489807129,1.0866038799285889,-1.1444302797317505,-3.965284824371338,4
485,6.438207149505615,40.719085693359375,11.658286094665527,0.6788256764411926,-1.0202796459197998,-3.899716377258301,4
486,-1.6781398057937622,23.13039207458496,15.78500747680664,0.43879759311676025,-1.0561909675598145,-3.732543706893921,4
487,-0.7251205444335938,1.689850926399231,16.82349395751953,0.34116682410240173,-1.0852317810058594,-3.564584970474243,4
488,1.461087703704834,-11.476299285888672,14.883164405822754,0.45537135004997253,-1.0597225427627563,-3.398939609527588,4
489,3.4475715160369873,-22.294157028198242,10.761716842651367,0.8665362000465393,-1.0252726078033447,-3.2430758476257324,4
490,-13.236722946166992,-39.80648422241211,4.64541482925415,1.2098057270050049,-1.0622235536575317,-3.1536567211151123,4
491,-26.56696319580078,-45.963130950927734,-0.6571221947669983,1.8350913524627686,-1.4537038803100586,-3.031496286392212,4
492,-29.422962188720703,-32.65534210205078,-4.0996551513671875,2.026325225830078,-1.8187283277511597,-3.028698205947876,4
493,-34.795318603515625,-10.289839744567871,-6.56438684463501,2.1000077724456787,-2.088850498199463,-3.105482339859009,4
494,-41.25443649291992,14.032638549804688,-10.095974922180176,2.2417800426483154,-2.627314567565918,-3.1129839420318604,4
495,-29.34281349182129,35.212154388427734,-15.07204818725586,1.8331667184829712,-2.9830639362335205,-3.263291358947754,4
496,-10.67410659790039,57.14520263671875,-15.122310638427734,1.2240703105926514,-3.0070688724517822,-3.529399871826172,4
497,13.487813949584961,68.0039291381836,-14.799421310424805,0.5654424428939819,-2.8572897911071777,-3.7727205753326416,4
498,44.41346740722656,71.36458587646484,-16.586469650268555,-0.30124250054359436,-2.3864142894744873,-4.036907196044922,4
499,74.17636108398438,61.04987335205078,-18.617469787597656,-1.0131474733352661,-1.8123670816421509,-4.234538555145264,4
500,97.15998077392578,36.53407669067383,-21.31447982788086,-1.236309289932251,-0.81549471616745,-4.504188537597656,4
501,100.55176544189453,12.679903984069824,-20.121824264526367,-1.4042986631393433,0.08456914871931076,-4.696805953979492,4
502,83.88402557373047,-13.654215812683105,-19.28046226501465,-1.276807427406311,0.8599324822425842,-4.857237815856934,4
503,65.7232894897461,-33.05765914916992,-17.416484832763672,-0.8797513842582703,1.883806586265564,-5.118415355682373,4
504,35.752403259277344,-35.80604553222656,-14.629304885864258,-0.49702343344688416,1.9128367900848389,-5.175220489501953,4
505,-1.520867943763733,-25.57545280456543,-10.815109252929688,0.040260933339595795,2.3324294090270996,-5.357649803161621,4
506,-47.212791442871094,-14.548852920532227,-6.193206787109375,0.1605222225189209,1.849718451499939,-5.411136150360107,4
507,-67.5874252319336,-21.22663116455078,-2.8180558681488037,0.21229301393032074,1.024970293045044,-5.425443649291992,4
508,-75.34783935546875,-15.68595027923584,-1.7145379781723022,0.461255818605423,0.1908402293920517,-5.418513298034668,4
509,-65.34329986572266,-0.7733163237571716,1.2652528285980225,0.3225559592247009,-0.6756407022476196,-5.444748878479004,4
510,-31.855348587036133,14.587784767150879,3.119370460510254,0.20650307834148407,-1.0219722986221313,-5.469064235687256,4
511,4.762990474700928,23.520795822143555,6.9525299072265625,-0.13753794133663177,-0.9300006628036499,-5.496535301208496,4
512,32.176204681396484,33.164241790771484,11.557323455810547,-0.4731649160385132,-0.6735134720802307,-5.4393768310546875,4
513,50.3668327331543,39.50202560424805,14.633774757385254,-0.8867900371551514,-0.27406802773475647,-5.328466892242432,4
514,46.48910140991211,51.631134033203125,15.332995414733887,-1.483425498008728,0.2509273588657379,-5.201818943023682,4
515,31.63880729675293,52.34416961669922,17.80759620666504,-2.0423288345336914,0.5443915724754333,-5.022985458374023,4
516,16.438600540161133,39.65890884399414,16.940446853637695,-2.5862791538238525,0.7610838413238525,-4.849966049194336,4
517,0.08620230108499527,31.986886978149414,14.960250854492188,-2.744313955307007,0.7556442022323608,-4.6410088539123535,4
518,-26.337024688720703,9.640847206115723,12.696720123291016,-3.0466158390045166,0.6289749145507812,-4.50689172744751,4
519,-37.85624694824219,-14.749194145202637,9.068443298339844,-2.949084997177124,0.23736314475536346,-4.379587650299072,4
520,-26.36348533630371,-22.431703567504883,7.625240802764893,-2.641923189163208,-0.2461944967508316,-4.28283166885376,4
521,-7.593885898590088,-35.588348388671875,11.072683334350586,-2.384427309036255,-0.33059191703796387,-4.1890363693237305,4
522,7.765587329864502,-45.78837585449219,16.968557357788086,-2.278970718383789,-0.31015968322753906,-4.110655307769775,4
523,14.203802108764648,-55.141571044921875,25.65302085876465,-1.5024597644805908,-0.12342217564582825,-3.846034526824951,4
524,19.547388076782227,-40.5477409362793,33.47565841674805,-1.246069073677063,-0.05466536432504654,-3.610414743423462,4
525,12.20391845703125,-13.39101505279541,42.272865295410156,-0.8625762462615967,0.23932893574237823,-3.2014949321746826,4
526,2.057206630706787,10.436598777770996,48.645259857177734,-0.7905672192573547,0.2908814251422882,-2.743642807006836,4
527,6.95277214050293,10.938175201416016,48.40111541748047,-0.898474395275116,0.25811541080474854,-2.2516655921936035,4
528,15.698725700378418,-1.1538012027740479,43.400062561035156,-0.8382812142372131,0.3938983678817749,-1.7612156867980957,4
529,11.413208961486816,-20.173830032348633,35.13922119140625,-1.1283693313598633,0.46810469031333923,-1.4289066791534424,4
530,14.46513843536377,-60.01545715332031,20.78574562072754,-0.574902355670929,0.5926606059074402,-1.1176562309265137,4
531,15.047098159790039,-95.23116302490234,7.791945457458496,0.7409998178482056,0.8475518226623535,-0.8701682090759277,4
532,12.269183158874512,-112.47663116455078,-3.7422561645507812,1.518794059753418,0.7526217699050903,-0.9235114455223083,4
533,8.377066612243652,-119.56055450439453,-11.40240478515625,2.5070853233337402,0.8754021525382996,-1.0437421798706055,4
534,-3.4893171787261963,-110.9974365234375,-18.68979263305664,3.9942636489868164,0.9005964398384094,-1.1468117237091064,4
535,-15.526717185974121,-72.74981689453125,-25.994117736816406,4.567262172698975,0.7611363530158997,-1.4567022323608398,4
536,-31.318361282348633,-18.946306228637695,-28.523839950561523,5.1461663246154785,0.49082714319229126,-1.7171531915664673,4
537,-31.4167537689209,23.78642463684082,-24.702396392822266,5.027585506439209,0.3625803291797638,-2.046137809753418,4
538,-30.613697052001953,48.98527526855469,-19.458515167236328,4.595411777496338,-0.04666117951273918,-2.246941566467285,4
539,-36.25252914428711,63.90865707397461,-18.812437057495117,4.061709403991699,-0.4345943033695221,-2.4206604957580566,4
540,-36.963504791259766,87.66574096679688,-23.165475845336914,2.74808931350708,-1.0015333890914917,-2.6975998878479004,4
541,-21.985443115234375,88.01994323730469,-25.67806625366211,1.8122576475143433,-1.1856684684753418,-3.008877754211426,4
542,7.596351146697998,54.75481414794922,-24.44839096069336,1.018949270248413,-1.2858467102050781,-3.286778450012207,4
543,37.255279541015625,9.28967571258545,-19.42778968811035,0.9226354360580444,-0.7643574476242065,-3.592851400375366,4
544,51.83747863769531,-17.7805233001709,-12.789091110229492,1.1006938219070435,-0.22806768119335175,-3.7708959579467773,4
545,51.63277053833008,-10.100118637084961,-5.415733814239502,1.422374963760376,0.3658970296382904,-3.870849847793579,4
546,59.068214416503906,3.9005236625671387,9.028608322143555,1.5796195268630981,0.9002681970596313,-3.8428776264190674,4
547,56.900474548339844,7.165162086486816,19.64019012451172,1.3250824213027954,1.5638436079025269,-3.760326385498047,4
548,51.788917541503906,19.123207092285156,31.070446014404297,1.300115942955017,1.8611135482788086,-3.4147591590881348,4
549,34.30522155761719,28.932737350463867,38.84198760986328,1.0432507991790771,2.601781129837036,-3.1645689010620117,4
550,9.62766170501709,34.32469940185547,45.78564453125,0.6654027104377747,2.8141841888427734,-2.7346935272216797,4
551,-15.419855117797852,33.29013442993164,50.43184280395508,0.28099602460861206,2.4163687229156494,-2.1266250610351562,4
552,-35.949092864990234,29.247072219848633,52.1092529296875,0.005890923086553812,2.0855937004089355,-1.5752463340759277,4
553,-53.706459045410156,14.20609188079834,55.0760383605957,-0.39074161648750305,1.4980486631393433,-1.0325125455856323,4
554,-58.70878219604492,-9.14093017578125,54.2385139465332,-0.23183384537696838,0.7847583293914795,-0.39096513390541077,4
555,-57.742523193359375,-26.67462730407715,54.57059860229492,0.22189585864543915,0.08617817610502243,0.24949975311756134,4
556,-52.39057922363281,-30.11451530456543,56.287757873535156,0.532443106174469,-0.30819714069366455,0.7701696157455444,4
557,-38.52680587768555,-26.52785873413086,56.87329864501953,1.1333210468292236,-0.6533254384994507,1.3949110507965088,4
558,-23.833541870117188,-16.20222282409668,54.605464935302734,1.4628838300704956,-0.9922196269035339,1.986700177192688,4
559,-10.859785079956055,-5.195181369781494,50.79655456542969,1.4436980485916138,-1.2464714050292969,2.5092406272888184,4
560,2.052386522293091,1.2355972528457642,51.78621292114258,1.276339054107666,-1.1181434392929077,2.94795560836792,4
561,16.72589683532715,0.9583456516265869,54.273399353027344,1.2046852111816406,-0.9552814364433289,3.4470067024230957,4
562,24.50897216796875,-0.8109480142593384,58.75373840332031,1.7365937232971191,-0.6401389837265015,4.056987285614014,4
563,23.632604598999023,-4.861440181732178,61.86117172241211,1.9037516117095947,-0.21402721107006073,4.6320929527282715,4
564,16.918535232543945,-7.051723003387451,58.68673324584961,2.052844524383545,-0.5205969214439392,5.377519130706787,4
565,14.461797714233398,-14.4142427444458,49.759559631347656,2.2309536933898926,0.3209245800971985,5.75537633895874,4
566,15.841897010803223,-22.305715560913086,40.668724060058594,2.851611614227295,0.5460110306739807,6.218048572540283,4
567,7.939757823944092,-29.595380783081055,31.56153678894043,3.1861839294433594,0.820723295211792,6.540482521057129,4
568,-3.3779537677764893,-25.532028198242188,25.155195236206055,3.731872081756592,0.8727653622627258,6.842333793640137,4
569,-9.834324836730957,-11.536029815673828,19.753990173339844,4.142213821411133,0.13934561610221863,7.310251235961914,4
570,-16.728553771972656,16.761449813842773,13.534523010253906,4.127213954925537,0.2725386321544647,7.386186599731445,4
571,-20.95330047607422,43.59531784057617,9.642677307128906,3.324514865875244,0.282041072845459,7.3892741203308105,4
572,-29.88751220703125,70.76321411132812,2.2268471717834473,2.550731897354126,-0.20079141855239868,7.530354022979736,4
573,-45.44801712036133,86.6117172241211,-2.9779579639434814,1.1048572063446045,-0.8771255612373352,7.583108901977539,4
574,-49.990020751953125,81.45172882080078,-11.426098823547363,0.3179328143596649,-1.6251256465911865,7.601682662963867,4
575,-50.49673843383789,63.04902648925781,-14.91164493560791,-1.1935362815856934,-2.245218276977539,7.436340808868408,4
576,-30.517866134643555,42.93727111816406,-17.206092834472656,-1.9985699653625488,-2.8518855571746826,7.281188488006592,4
577,-15.174758911132812,16.393644332885742,-18.179336547851562,-2.501385450363159,-3.1826677322387695,7.098951816558838,4
578,9.443842887878418,-3.5372326374053955,-16.908855438232422,-2.5216171741485596,-2.245269536972046,6.73404598236084,4
579,32.82765197753906,-24.78458023071289,-19.34853744506836,-2.160290241241455,-1.8352911472320557,6.523543834686279,4
580,40.43288040161133,-39.03059768676758,-26.529239654541016,-1.7365572452545166,-1.5775269269943237,6.311244964599609,4
581,39.814483642578125,-47.863502502441406,-32.38825225830078,-1.029971718788147,-0.9590967893600464,5.992147922515869,4
582,29.751981735229492,-50.44821548461914,-39.017906188964844,-1.117906928062439,-1.4844839572906494,5.720115661621094,4
583,14.587363243103027,-43.977935791015625,-44.409786224365234,-0.22915080189704895,-1.2532739639282227,5.269040107727051,4
584,7.182009220123291,-38.04584503173828,-47.004112243652344,-0.08841739594936371,-1.596755862236023,4.842120170593262,4
585,4.762569904327393,-27.53249168395996,-50.479305267333984,0.32149171829223633,-1.392591953277588,4.360893249511719,4
586,-1.8233054876327515,-17.859086990356445,-54.012451171875,0.6534845232963562,-1.6901187896728516,3.8249433040618896,4
587,3.775440216064453,3.050906181335449,-55.39206314086914,0.7190390229225159,-1.5290753841400146,3.2876226902008057,4
588,17.743558883666992,14.641057014465332,-56.83372116088867,0.2617745101451874,-1.3062489032745361,2.782651662826538,4
589,30.205354690551758,27.471160888671875,-53.52214813232422,0.008688696660101414,-1.0963574647903442,2.22564959526062,4
590,40.36252975463867,29.1572265625,-49.2508544921875,-0.3113088309764862,-1.153350591659546,1.699154019355774,4
591,52.61667251586914,23.97785186767578,-44.65042495727539,-0.6048280000686646,-0.5846394300460815,1.2250193357467651,4
592,53.95705032348633,21.552886962890625,-37.54402542114258,-0.6567108035087585,-0.2804245948791504,0.7707246541976929,4
593,40.67557907104492,32.67510986328125,-30.148714065551758,-0.8638870716094971,-0.028447605669498444,0.409678190946579,4
594,27.069665908813477,38.1534423828125,-25.759063720703125,-1.319414496421814,0.3923250436782837,0.14910581707954407,4
595,20.785005569458008,29.005096435546875,-24.21436309814453,-1.5743485689163208,0.5404235124588013,-0.11389948427677155,4
596,15.428239822387695,20.505416870117188,-25.77796745300293,-1.6169761419296265,0.745644748210907,-0.3784659802913666,4
597,19.453603744506836,2.6457700729370117,-27.67213249206543,-1.870980978012085,0.4604714810848236,-0.6788662075996399,4
598,26.506589889526367,-15.03247356414795,-31.204044342041016,-1.636538028717041,0.928144097328186,-0.9549698829650879,4
599,28.396257400512695,-29.783037185668945,-33.572547912597656,-1.4593069553375244,1.0003408193588257,-1.3089807033538818,4
600,31.215177536010742,-36.54054260253906,-36.227935791015625,-0.9087851047515869,1.4164248704910278,-1.6520386934280396,4
601,37.600914001464844,-38.89207458496094,-37.34052658081055,-0.48148033022880554,1.6546947956085205,-2.049043893814087,4
602,43.66315841674805,-43.35698318481445,-41.774662017822266,0.0036379608791321516,2.1016361713409424,-2.449176788330078,4
603,49.361236572265625,-40.58341979980469,-44.79898452758789,0.6676198840141296,2.5734784603118896,-2.8952319622039795,4
604,52.733890533447266,-30.456953048706055,-43.586116790771484,0.9762101769447327,3.128885269165039,-3.3552427291870117,4
605,47.209476470947266,-22.51397705078125,-42.32716369628906,1.4247015714645386,3.549184799194336,-3.8028886318206787,4
606,45.427330017089844,-8.650982856750488,-41.67959976196289,1.4978824853897095,4.1220197677612305,-4.229162693023682,4
607,33.00663375854492,1.052151083946228,-40.68813705444336,1.5381489992141724,4.649974346160889,-4.637101173400879,4
608,19.306753158569336,9.16770076751709,-42.867408752441406,1.4433858394622803,4.873697757720947,-5.054177284240723,4
609,10.371259689331055,16.48065757751465,-39.615623474121094,0.960232675075531,4.788318157196045,-5.544604778289795,4
610,-3.3284337520599365,37.649925231933594,-35.854698181152344,0.6877794861793518,4.716371059417725,-5.9028849601745605,4
611,-19.42532730102539,51.92698669433594,-33.9403190612793,-0.025087254121899605,4.707522392272949,-6.2873616218566895,4
612,-33.084285736083984,65.6280746459961,-30.78156089782715,-0.7355687022209167,4.171220779418945,-6.600890159606934,4
613,-16.58102798461914,71.54341125488281,-28.555843353271484,-1.7671087980270386,3.829624891281128,-6.9748992919921875,4
614,10.828667640686035,63.022850036621094,-22.073572158813477,-2.3557984828948975,3.7362711429595947,-7.137243270874023,4
615,42.58706283569336,44.920082092285156,-15.43774127960205,-2.773021697998047,4.175702095031738,-7.223337650299072,4
616,75.06340789794922,6.58998966217041,-13.036761283874512,-3.1668267250061035,4.798511505126953,-7.386702537536621,4
617,95.88479614257812,-26.00021743774414,-12.486099243164062,-2.9699642658233643,5.572251796722412,-7.465508937835693,4
618,106.57676696777344,-53.85499954223633,-12.847359657287598,-2.2860100269317627,6.736448764801025,-7.457901954650879,4
619,94.9339370727539,-78.71746063232422,-12.902084350585938,-1.7218859195709229,7.497628211975098,-7.768608093261719,4
620,86.13371276855469,-80.39104461669922,-13.989594459533691,-0.49891790747642517,8.763959884643555,-7.6980462074279785,4
621,59.223907470703125,-77.70391845703125,-13.202836990356445,0.1096077710390091,9.026336669921875,-8.152900695800781,4
622,28.12782859802246,-80.42556762695312,-13.815398216247559,1.275699496269226,9.90333366394043,-8.079944610595703,4
623,4.6775360107421875,-79.20419311523438,-12.23562240600586,1.5990009307861328,9.397489547729492,-8.760170936584473,4
624,-21.90705680847168,-54.632381439208984,-12.076212882995605,2.0974419116973877,9.39510726928711,-9.124451637268066,4
625,-39.244205474853516,-27.04619026184082,-8.916420936584473,2.7857680320739746,9.068061828613281,-9.103747367858887,4
626,-51.03266906738281,-17.399173736572266,-7.611504077911377,2.6603946685791016,8.777759552001953,-9.47910213470459,4
627,-59.203392028808594,-6.891790866851807,-7.614191055297852,3.0489587783813477,7.983150959014893,-9.346571922302246,4
628,-54.50390625,17.216876983642578,-9.152933120727539,2.9890310764312744,7.272805690765381,-9.447738647460938,4
629,-34.94465255737305,31.6551513671875,-8.795818328857422,2.611297607421875,7.211742877960205,-9.62592601776123,4
630,-19.490814208984375,49.771305084228516,-11.041281700134277,1.9868159294128418,7.213786602020264,-9.883658409118652,4
631,1.8045423030853271,52.519893646240234,-14.80716609954834,1.2279947996139526,7.072902202606201,-10.137957572937012,4
632,5.404163360595703,44.61614990234375,-20.43263816833496,0.6303233504295349,7.180696964263916,-10.336356163024902,4
633,3.6175386905670166,31.95353889465332,-25.762453079223633,0.25298428535461426,7.290675163269043,-10.459473609924316,4
634,-2.6717987060546875,19.38953399658203,-28.787168502807617,-0.15665043890476227,7.34043025970459,-10.788934707641602,4
635,-3.600173234939575,23.825759887695312,-28.32181739807129,-0.44190722703933716,7.330374717712402,-11.086034774780273,4
636,-9.215764045715332,32.48887634277344,-22.719484329223633,-0.784386932849884,7.375486373901367,-11.369441986083984,4
637,-19.47620391845703,48.23058319091797,-16.4017276763916,-1.3657275438308716,7.198230743408203,-11.6550874710083,4
638,-37.48826599121094,67.60030364990234,-8.526763916015625,-2.256781578063965,6.824385166168213,-11.940986633300781,4
639,-57.50434112548828,71.10935974121094,2.544945001602173,-2.782104253768921,6.4978461265563965,-11.63804817199707,4
640,-71.08812713623047,51.65892028808594,12.346100807189941,-3.5587923526763916,5.473515033721924,-11.672039985656738,4
641,-77.14741516113281,28.346405029296875,17.04513931274414,-3.9957053661346436,5.03317403793335,-11.500259399414062,4
642,-75.62504577636719,5.986502170562744,19.007400512695312,-3.8946478366851807,4.653585433959961,-11.484797477722168,4
643,-67.74475860595703,-24.676576614379883,17.99186897277832,-4.053791522979736,4.39216423034668,-11.201054573059082,4
644,-68.4646987915039,-62.1148681640625,19.564992904663086,-3.981480121612549,3.8722167015075684,-11.040358543395996,4
645,-71.39271545410156,-89.34232330322266,21.098079681396484,-2.8803114891052246,2.990861654281616,-10.52566146850586,4
646,-65.73560333251953,-104.02901458740234,17.93890953063965,-2.400968313217163,2.5939455032348633,-10.47730541229248,4
647,-45.74464797973633,-96.1556396484375,17.99212074279785,-1.1591660976409912,1.9909690618515015,-10.159334182739258,4
648,-32.69001388549805,-75.12382507324219,19.388011932373047,-0.10673394054174423,1.5108782052993774,-9.959563255310059,4
649,-33.20679473876953,-34.875709533691406,20.04004669189453,0.6808364987373352,1.0643932819366455,-9.837926864624023,4
650,-36.79243087768555,4.01703405380249,20.55238914489746,0.8311429023742676,0.8698126673698425,-9.77639102935791,4
651,-26.948209762573242,31.694856643676758,23.171979904174805,0.9664890170097351,0.25578251481056213,-9.607826232910156,4
652,-9.1607027053833,39.70709991455078,23.485851287841797,0.5502698421478271,0.4820958971977234,-9.340428352355957,4
653,-7.72113561630249,39.73520278930664,26.116411209106445,0.0746273398399353,0.1541459709405899,-9.154808044433594,4
654,-17.38559913635254,48.73373031616211,32.0408935546875,-0.44826722145080566,0.11894191801548004,-8.924683570861816,4
655,-18.186784744262695,44.011207580566406,37.027801513671875,-0.827368438243866,0.344181627035141,-8.556168556213379,4
656,-24.877613067626953,19.8741512298584,40.229026794433594,-1.2637324333190918,-0.032271843403577805,-8.22628402709961,4
657,-28.952713012695312,-7.475554943084717,42.42375183105469,-1.5932048559188843,-0.17421285808086395,-7.8284010887146,4
658,-34.16703796386719,-41.664119720458984,45.53034591674805,-1.4973430633544922,-0.4941900372505188,-7.412845611572266,4
659,-48.260284423828125,-59.072383880615234,49.64320373535156,-1.1347891092300415,-0.749857485294342,-6.958427429199219,4
660,-59.31291961669922,-58.73257827758789,51.66679382324219,-0.264177143573761,-1.3681291341781616,-6.522879123687744,4
661,-65.88484954833984,-41.7822265625,58.03884506225586,0.19278205931186676,-1.8745412826538086,-5.969125270843506,4
662,-74.32622528076172,-37.76691818237305,63.279640197753906,0.7688865065574646,-2.6459367275238037,-5.429465293884277,4
663,-79.4917221069336,-27.611459732055664,65.70301818847656,1.0409098863601685,-3.469564914703369,-4.7888031005859375,4
664,-68.7862319946289,-8.853796005249023,63.19792556762695,1.2708784341812134,-3.9049293994903564,-4.072937488555908,4
665,-50.086299896240234,5.492963790893555,63.247379302978516,1.2438490390777588,-5.140055179595947,-3.4195826053619385,4
666,-44.27724075317383,19.02397918701172,63.697731018066406,1.215104103088379,-4.9590630531311035,-2.7724967002868652,4
667,-41.58705520629883,25.772014617919922,64.95330810546875,1.0056105852127075,-5.854487419128418,-2.1644437313079834,4
668,-33.04362869262695,14.086087226867676,65.7510757446289,0.4745686650276184,-5.976740837097168,-1.4381632804870605,4
669,-27.26246452331543,-8.385239601135254,64.40491485595703,0.22714467346668243,-6.444133758544922,-0.8177590370178223,4
670,-18.93796157836914,-29.284088134765625,64.98577880859375,0.34734904766082764,-6.93324613571167,-0.2885810136795044,4
671,-12.172863006591797,-48.198448181152344,67.73975372314453,0.7104114294052124,-6.895504474639893,0.2343210130929947,4
672,-0.9174901247024536,-53.72284698486328,67.37818908691406,1.1280947923660278,-7.046992301940918,0.9007489681243896,4
673,11.642677307128906,-41.989044189453125,63.228065490722656,1.8873205184936523,-7.161803245544434,1.3929331302642822,4
674,22.451641082763672,-18.598026275634766,61.612979888916016,1.7736560106277466,-6.872050762176514,2.486246109008789,4
675,26.347597122192383,-3.2640228271484375,57.7496452331543,1.996780276298523,-6.680478572845459,3.1122090816497803,4
676,22.912181854248047,11.539533615112305,50.65089416503906,1.9228134155273438,-6.419859886169434,3.7766239643096924,4
677,20.090505599975586,14.538437843322754,42.30453109741211,1.7887150049209595,-6.192851543426514,4.297546863555908,4
678,14.13918685913086,5.783735752105713,30.47340965270996,1.6056416034698486,-6.16055154800415,4.74131441116333,4
679,11.521859169006348,1.9409559965133667,16.231834411621094,1.5639978647232056,-6.106886863708496,4.988598823547363,4
680,10.440411567687988,-0.07439346611499786,5.48525333404541,1.5098572969436646,-5.952739238739014,5.2161736488342285,4
681,8.555593490600586,-4.751859664916992,-2.5198047161102295,1.408950924873352,-5.971873760223389,5.381789684295654,4
682,9.200196266174316,-10.837000846862793,-9.551688194274902,1.577869176864624,-5.825547218322754,5.235991477966309,4
683,12.187158584594727,-11.487792015075684,-14.49026107788086,1.8491533994674683,-5.7411699295043945,5.001910209655762,4
684,21.241085052490234,-14.533598899841309,-15.821073532104492,1.3962424993515015,-5.71183967590332,5.477478504180908,4
685,32.06297302246094,-15.721770286560059,-15.12170124053955,1.6680465936660767,-5.425558567047119,5.199554443359375,4
686,30.510623931884766,-9.282867431640625,-11.140945434570312,1.799433946609497,-5.04649019241333,5.081695556640625,4
687,21.144454956054688,3.113020420074463,-11.859557151794434,2.062411308288574,-4.9036455154418945,4.863279342651367,4
688,-3.8057637214660645,12.366475105285645,-14.745872497558594,2.0165231227874756,-4.613833427429199,4.807941436767578,4
689,-37.15434646606445,17.34964942932129,-17.80445671081543,1.903978943824768,-4.708353519439697,4.698840618133545,4
690,-51.657833099365234,21.234088897705078,-23.007490158081055,1.7125929594039917,-5.077402114868164,4.577980041503906,4
691,-40.03493881225586,44.56975555419922,-25.57655906677246,1.4255996942520142,-5.759579658508301,4.478858947753906,4
692,-15.499719619750977,68.72431182861328,-25.125417709350586,1.037550449371338,-6.103106498718262,4.231182098388672,4
693,18.002534866333008,77.55864715576172,-25.391977310180664,0.17151430249214172,-6.355288505554199,4.173533916473389,4
694,62.019775390625,59.95681381225586,-24.887792587280273,-1.2997454404830933,-5.774210453033447,3.5822184085845947,4
695,96.76660919189453,31.573339462280273,-22.668840408325195,-1.4598948955535889,-5.549741268157959,3.719113349914551,4
696,109.56001281738281,-2.4386916160583496,-20.200584411621094,-1.8531001806259155,-4.375990390777588,3.4217143058776855,4
697,87.90775299072266,-26.42298698425293,-15.733909606933594,-1.5266417264938354,-3.6814892292022705,2.8347766399383545,4
698,40.074459075927734,-30.736953735351562,-12.56790542602539,-0.9826063513755798,-2.5959017276763916,2.376181125640869,4
699,-21.008092880249023,-11.925514221191406,-12.220427513122559,-0.8041823506355286,-2.279243230819702,2.363189935684204,4
700,-57.59687042236328,0.05750139057636261,-12.47026252746582,-0.561981201171875,-2.522735357284546,2.193577766418457,4
701,-45.85307312011719,-6.574761867523193,-9.66497802734375,-0.6261566281318665,-3.6702511310577393,2.056389093399048,4
702,-0.5715926885604858,-14.040907859802246,-6.139458656311035,-0.3315419554710388,-3.8536694049835205,1.865078091621399,4
703,55.47953414916992,-5.861391067504883,0.6256327033042908,-0.2669404447078705,-3.2613272666931152,1.907278299331665,4
704,114.02259063720703,-0.24023161828517914,11.157465934753418,-0.21184344589710236,-2.473259449005127,1.9324429035186768,4
705,130.39810180664062,2.7357218265533447,23.877504348754883,-0.1928216814994812,-1.6781587600708008,2.0088021755218506,4
706,100.26779174804688,18.663869857788086,34.90422821044922,-0.7184250950813293,-1.0036578178405762,2.4548137187957764,4
707,56.85273742675781,31.512428283691406,40.71260070800781,-0.8652234673500061,0.06566955149173737,2.766084909439087,4
708,13.379444122314453,26.521499633789062,39.276039123535156,-1.2071324586868286,0.6720916032791138,3.1834213733673096,4
709,-2.381514072418213,4.448002815246582,36.20103454589844,-1.4853291511535645,1.056670904159546,3.6057543754577637,4
710,9.25786018371582,-32.86724090576172,34.35054016113281,-1.3910261392593384,1.1419528722763062,3.9023971557617188,4
711,16.186676025390625,-68.36687469482422,34.03929138183594,-0.8523290157318115,1.119696855545044,4.121140480041504,4
712,6.916718482971191,-74.36651611328125,34.925113677978516,-0.18077707290649414,0.9696657657623291,4.366580963134766,4
713,-11.758068084716797,-54.849037170410156,38.23709487915039,0.8367611169815063,1.1655488014221191,4.64983606338501,4
714,-31.623991012573242,-26.259544372558594,38.721412658691406,1.0805575847625732,1.0156587362289429,5.051239013671875,4
715,-53.85487747192383,0.968191385269165,35.158119201660156,1.274126648902893,0.5529313683509827,5.427149295806885,4
716,-61.80970001220703,9.64014720916748,30.44517707824707,1.438319206237793,0.0019503403455018997,5.775277137756348,4
717,-45.55323028564453,13.066978454589844,24.089794158935547,1.328282117843628,-0.5549234747886658,6.103011608123779,4
718,-17.76432991027832,18.659517288208008,16.188316345214844,1.2296347618103027,-1.1761959791183472,6.359361171722412,4
719,26.704065322875977,26.463064193725586,4.674810886383057,1.0221290588378906,-0.8756316304206848,6.5852484703063965,4
720,81.32852935791016,26.17647361755371,0.0006976280128583312,0.6312947869300842,-0.37569183111190796,6.690666675567627,4
721,123.73749542236328,13.253729820251465,0.13499365746974945,0.4222906231880188,0.3088071048259735,6.701408386230469,4
722,133.568603515625,-15.532398223876953,3.227031946182251,0.4424886703491211,1.841245174407959,6.723748683929443,4
723,110.89596557617188,-25.233211517333984,8.30492115020752,0.6806584596633911,2.867426872253418,6.733495712280273,4
724,76.74503326416016,-25.51848793029785,11.618556022644043,0.797154426574707,3.9122002124786377,6.771968841552734,4
725,20.51895523071289,-8.984128952026367,14.543021202087402,1.2183778285980225,4.913193225860596,6.877815246582031,4
726,-56.15934371948242,17.072786331176758,10.929328918457031,1.3257851600646973,5.20358943939209,6.995084285736084,4
727,-101.17681121826172,22.879928588867188,4.84663724899292,1.120718002319336,4.604640007019043,7.083119869232178,4
728,-107.65515899658203,8.900435447692871,-2.6433982849121094,0.8384562134742737,3.7680068016052246,7.1503729820251465,4
729,-78.0781021118164,0.430142343044281,-5.539919853210449,0.6918968558311462,2.5070011615753174,7.15857458114624,4
730,-27.770587921142578,10.355046272277832,-2.510714530944824,0.6945025324821472,1.7553019523620605,7.116650581359863,4
731,7.7699737548828125,28.714088439941406,3.841970443725586,0.6505008935928345,1.2225111722946167,7.087557792663574,4
732,22.85051155090332,49.908966064453125,11.836152076721191,0.2992745339870453,1.6985081434249878,7.041629791259766,4
733,36.63468933105469,72.13803100585938,22.01894187927246,-0.25089025497436523,1.6562672853469849,7.093235969543457,4
734,35.16059112548828,71.21524047851562,30.64707374572754,-1.1232578754425049,2.35421085357666,7.255740165710449,4
735,20.747495651245117,53.37333679199219,36.62877655029297,-1.8556897640228271,2.7548813819885254,7.569581508636475,4
736,3.5790770053863525,26.279773712158203,40.7242431640625,-2.598787546157837,3.06147837638855,7.8845062255859375,4
737,-23.10943031311035,-0.361223042011261,39.707645416259766,-2.740417003631592,3.0702826976776123,8.362553596496582,4
738,-49.98853302001953,-28.01360321044922,30.93967628479004,-2.61281156539917,2.7116739749908447,8.816878318786621,4
739,-65.4268798828125,-56.05388259887695,18.658178329467773,-2.3223559856414795,2.519728899002075,9.21413803100586,4
740,-67.88529205322266,-71.8864517211914,8.121777534484863,-1.3202537298202515,1.7504589557647705,9.612582206726074,4
741,-64.74642181396484,-67.17688751220703,1.9850468635559082,-0.41659310460090637,0.8009576201438904,9.741905212402344,4
742,-60.25827407836914,-54.012107849121094,-2.6948351860046387,-0.14517644047737122,0.2672519087791443,9.591875076293945,4
743,-48.841636657714844,-40.40803527832031,-9.607568740844727,0.3932894766330719,-0.18871988356113434,9.587964057922363,4
744,-27.931150436401367,-32.67951583862305,-18.478252410888672,0.7496005892753601,-0.4357811212539673,9.521764755249023,4
745,-4.830333232879639,-16.82124900817871,-26.07476234436035,1.191968321800232,-0.8461248278617859,9.379785537719727,4
746,1.4198286533355713,3.1445729732513428,-31.954635620117188,1.480543613433838,-0.9375899434089661,9.164924621582031,4
747,-12.88582706451416,12.028277397155762,-38.67033386230469,1.554916501045227,-1.0308704376220703,8.867208480834961,4
748,-27.36188507080078,9.368765830993652,-44.83660125732422,1.4758232831954956,-1.0673431158065796,8.499251365661621,4
749,-28.329021453857422,9.423911094665527,-49.31468200683594,1.3870062828063965,-1.5790003538131714,8.055387496948242,4
750,-13.809828758239746,18.51503562927246,-52.08384323120117,1.2975658178329468,-1.7108798027038574,7.568477630615234,4
751,13.25916576385498,23.68268585205078,-50.14384841918945,1.0963062047958374,-1.6568632125854492,7.0430498123168945,4
752,49.40348434448242,26.450733184814453,-49.5532112121582,0.8062964677810669,-1.4371896982192993,6.523831844329834,4
753,67.18270111083984,34.43115234375,-48.7668571472168,0.5447483062744141,-0.909246563911438,6.0181989669799805,4
754,53.57093811035156,33.89654541015625,-45.68108367919922,0.15365447103977203,-0.039746008813381195,5.515863418579102,4
755,1.7672805786132812,27.05030632019043,-42.8167610168457,-0.09035611897706985,0.5396648645401001,5.064391613006592,4
756,-55.38491439819336,35.77388381958008,-31.894437789916992,-0.536946177482605,0.6117320656776428,4.623615741729736,4
757,-95.11412048339844,52.07194900512695,-23.631351470947266,-0.9468150734901428,-0.23441247642040253,4.269731521606445,4
758,-105.51480102539062,47.897743225097656,-14.333291053771973,-1.6896189451217651,-1.4634313583374023,3.9704737663269043,4
759,-104.71013641357422,26.569908142089844,-3.391484498977661,-2.3852083683013916,-2.9535341262817383,3.7381277084350586,4
760,-89.39652252197266,-1.3238954544067383,-0.11203024536371231,-2.412489175796509,-3.201634645462036,3.75471830368042,4
761,-56.420936584472656,-40.69207763671875,2.0113725662231445,-2.2720019817352295,-4.2837042808532715,3.728928804397583,4
762,0.35341501235961914,-71.22425079345703,6.382234573364258,-1.5030378103256226,-4.623213291168213,3.7955713272094727,4
763,53.9721794128418,-76.7419662475586,12.469229698181152,-0.7345237135887146,-4.681581497192383,3.891151189804077,4
764,93.93814086914062,-72.74774169921875,19.31849479675293,-0.36962616443634033,-4.153395652770996,4.127790451049805,4
765,120.59709167480469,-59.49126052856445,25.25995445251465,0.7123115062713623,-2.944689989089966,4.35814094543457,4
766,127.15425872802734,-40.182552337646484,29.5787410736084,1.1233124732971191,-1.9366765022277832,4.656116962432861,4
767,119.09222412109375,-12.589255332946777,32.07133865356445,1.732237458229065,-0.27187368273735046,4.952117443084717,4
768,98.64872741699219,16.66217803955078,35.38717269897461,1.8799372911453247,0.714876115322113,5.264425754547119,4
769,68.98580932617188,38.96830368041992,38.723968505859375,1.5382094383239746,2.163815975189209,5.678950309753418,4
770,28.333629608154297,60.823890686035156,38.90452575683594,1.3025583028793335,2.112367868423462,6.052624702453613,4
771,-18.061952590942383,57.72338104248047,37.3406982421875,0.5071412324905396,2.4331655502319336,6.491894721984863,4
772,-74.81978607177734,38.4410285949707,36.33991622924805,-0.08232712745666504,2.126877784729004,6.896793842315674,4
773,-117.1447525024414,5.505861759185791,31.570058822631836,-0.5050255656242371,1.225571870803833,7.2739667892456055,4
774,-137.56654357910156,-34.85017395019531,27.525585174560547,-0.19773399829864502,0.14708271622657776,7.604905605316162,4
775,-140.00332641601562,-67.72614288330078,27.475645065307617,0.17450784146785736,-0.9491732716560364,7.895070552825928,4
776,-129.59512329101562,-91.91812896728516,28.230924606323242,1.3359392881393433,-2.8577980995178223,8.206215858459473,4
777,-103.39579010009766,-95.27043151855469,23.064844131469727,2.0845625400543213,-3.86508846282959,8.529973030090332,4
778,-58.35040283203125,-79.3858642578125,14.134364128112793,3.6075780391693115,-5.479028224945068,8.866849899291992,4
779,-6.339029312133789,-75.00057983398438,0.5102320909500122,3.657132863998413,-5.188131809234619,9.056159973144531,4
780,41.255455017089844,-63.58457946777344,-14.49151611328125,4.865723609924316,-5.340813636779785,9.094097137451172,4
781,77.11894989013672,-35.757442474365234,-24.702606201171875,5.356822967529297,-4.872209548950195,9.037223815917969,4
782,89.77543640136719,5.85575532913208,-31.579038619995117,5.779554843902588,-3.918565034866333,8.78415298461914,4
783,76.46561431884766,45.00998306274414,-35.279083251953125,5.677523136138916,-2.619194746017456,8.389885902404785,4
784,58.93211364746094,78.16799926757812,-35.27275085449219,4.9997029304504395,-2.4646735191345215,8.382891654968262,4
785,31.86121940612793,94.0808334350586,-36.25237274169922,3.954464912414551,-1.6092013120651245,8.027473449707031,4
786,6.725943088531494,91.48873901367188,-34.85353469848633,3.2658514976501465,-1.680012822151184,7.783627033233643,4
787,-1.2065908908843994,85.22757720947266,-36.146881103515625,2.071061372756958,-1.5298691987991333,7.463134765625,4
788,0.7149981260299683,81.41777801513672,-37.163333892822266,1.0591038465499878,-1.514351725578308,7.131603717803955,4
789,3.694891929626465,59.827571868896484,-39.021183013916016,0.3029986619949341,-1.6425604820251465,6.778583526611328,4
790,6.5662689208984375,47.8440055847168,-33.31931686401367,-0.2696562707424164,-1.5651394128799438,6.347704887390137,4
791,23.84552764892578,41.29500198364258,-27.53154754638672,-0.9796860218048096,-1.5072768926620483,6.033968448638916,4
792,32.349796295166016,34.54286193847656,-24.02112579345703,-1.4124860763549805,-1.3466275930404663,5.748341083526611,4
793,33.003562927246094,30.062122344970703,-19.784339904785156,-2.0339133739471436,-0.7948925495147705,5.494289875030518,4
794,46.90763854980469,15.037009239196777,-16.263391494750977,-1.7516376972198486,-0.47115764021873474,5.161701679229736,4
795,57.34119415283203,10.336002349853516,-14.016740798950195,-1.8332617282867432,-0.010573606938123703,4.964985370635986,4
796,48.774879455566406,4.853075981140137,-10.161012649536133,-2.0422005653381348,0.8568745851516724,4.81212854385376,4
797,32.927459716796875,1.3478504419326782,-8.320440292358398,-1.921310544013977,1.0348013639450073,4.69382905960083,4
798,12.071281433105469,-0.6454606056213379,-6.6004319190979,-1.8439337015151978,1.2491644620895386,4.603026390075684,4
799,-9.920653343200684,-3.1771175861358643,-5.356375217437744,-1.787746787071228,1.4434549808502197,4.532804489135742,4
800,-12.084405899047852,1.5653595924377441,-3.3469836711883545,-1.7064322233200073,1.2784699201583862,4.471141815185547,4
801,-13.812556266784668,18.66278648376465,1.2152249813079834,-1.8227041959762573,1.314175009727478,4.453588485717773,4
802,-7.528079509735107,35.09109878540039,7.660149574279785,-2.1129305362701416,1.22500741481781,4.464245319366455,4
803,0.43042904138565063,36.021549224853516,11.286046028137207,-2.4087812900543213,1.2304173707962036,4.55761194229126,4
804,13.950169563293457,25.788204193115234,11.096410751342773,-2.786616563796997,1.2531377077102661,4.677663803100586,4
805,27.93820571899414,7.830880641937256,8.925734519958496,-3.0334246158599854,1.4259541034698486,4.806502342224121,4
806,30.17745590209961,-14.771905899047852,7.004148960113525,-3.0437557697296143,1.8825799226760864,4.96008825302124,4
807,20.82526397705078,-42.16741943359375,2.6117231845855713,-2.6727774143218994,2.1867456436157227,5.06237268447876,4
808,4.099676609039307,-50.9493522644043,-2.627122163772583,-2.198751926422119,2.1664249897003174,5.01891565322876,4
809,-10.706584930419922,-46.60630798339844,-3.3040037155151367,-1.353463888168335,2.3372857570648193,5.0761637687683105,4
810,-13.39791202545166,-40.87528610229492,-4.300806999206543,-0.9175674319267273,2.205320119857788,5.002507209777832,4
811,-11.729717254638672,-14.84736442565918,-2.356752395629883,-0.3553939163684845,2.0328195095062256,4.9762864112854,4
812,3.3310022354125977,2.1348776817321777,1.7591595649719238,-0.6271330118179321,2.2303543090820312,4.91034460067749,4
813,4.7179412841796875,20.012693405151367,1.7614392042160034,-0.2654160261154175,2.1877691745758057,5.005833148956299,4
814,1.2430405616760254,41.228824615478516,4.126204013824463,-0.8133968114852905,2.1717798709869385,4.91096830368042,4
815,-2.112274169921875,51.09377670288086,6.458547115325928,-1.2498823404312134,2.1242058277130127,4.93658447265625,4
816,-7.943822383880615,63.24102020263672,2.73568058013916,-2.0368151664733887,2.1476032733917236,4.9364094734191895,4
817,-11.582974433898926,63.77364730834961,-0.7186504006385803,-2.5768239498138428,1.8626902103424072,4.959659099578857,4
818,-17.0557804107666,54.23249816894531,-1.656667947769165,-3.6438801288604736,2.2837321758270264,4.987872123718262,4
819,-21.38779067993164,27.39190101623535,-2.3702409267425537,-4.271385669708252,2.188004493713379,4.986950874328613,4
820,-39.627769470214844,-10.200712203979492,-2.3531222343444824,-4.530872344970703,1.743223786354065,4.905459403991699,4
821,-49.617069244384766,-63.208763122558594,-0.28854891657829285,-4.162480354309082,1.5150036811828613,5.057372093200684,4
822,-54.9743766784668,-98.58464813232422,1.5890510082244873,-3.077631950378418,0.8620876669883728,5.158257007598877,4
823,-53.12514114379883,-103.38312530517578,-0.28900521993637085,-1.99540376663208,0.6060044169425964,5.341031074523926,4
824,-55.6053466796875,-93.38784790039062,-5.853212833404541,-1.5127917528152466,0.18675781786441803,5.197117805480957,4
825,-43.853736877441406,-86.50320434570312,-3.513410806655884,-0.0026052838657051325,-0.7117485404014587,5.1906208992004395,4
826,-26.180843353271484,-58.10918045043945,1.2002567052841187,0.3824564218521118,-0.7677667140960693,5.167621612548828,4
827,-2.063825845718384,-9.305939674377441,7.71962833404541,1.1660442352294922,-1.142602801322937,5.197903633117676,4
828,9.770553588867188,37.73042297363281,8.400652885437012,1.335824966430664,-1.1751065254211426,5.277524948120117,4
829,15.240082740783691,63.10772705078125,5.959600448608398,0.6640119552612305,-1.1325362920761108,5.2801971435546875,4
830,13.94727611541748,56.39468002319336,0.655211865901947,0.04169284924864769,-0.9967737197875977,5.324690341949463,4
831,11.664007186889648,40.90452575683594,-4.955483436584473,-0.7165964245796204,-0.8724116086959839,5.304101467132568,4
832,3.4257659912109375,27.94649314880371,-9.129791259765625,-1.1185588836669922,-0.7883849740028381,5.2583465576171875,4
833,0.7006116509437561,20.32351303100586,-13.749499320983887,-1.3216710090637207,-0.8389372825622559,5.159979343414307,4
834,9.690312385559082,13.695587158203125,-11.20117473602295,-1.5346211194992065,-0.9136984944343567,5.013776779174805,4
835,15.103416442871094,0.9699605107307434,-8.5996732711792,-1.6977357864379883,-0.39867183566093445,4.977609157562256,4
836,3.4121689796447754,-12.053945541381836,-5.5290350914001465,-1.5564676523208618,-0.6738148927688599,4.814896583557129,4
837,-21.33633804321289,-14.33564567565918,-1.5268833637237549,-1.5741891860961914,-0.34523719549179077,4.7975664138793945,4
838,-37.43797302246094,-18.82400894165039,-0.8182833790779114,-1.331418752670288,-0.6303349733352661,4.749621391296387,4
839,-51.93511199951172,-23.65284538269043,-1.583614706993103,-1.0758296251296997,-0.9200050830841064,4.7570929527282715,4
840,-55.53049850463867,-31.43109893798828,-3.277644634246826,-0.6411469578742981,-1.9103013277053833,4.662064075469971,4
841,-53.78144836425781,-31.454870223999023,-4.4489359855651855,-0.19377462565898895,-2.152412176132202,4.701714992523193,4
842,-28.973163604736328,-32.274539947509766,-3.5361452102661133,0.3400416076183319,-2.8009517192840576,4.6525774002075195,4
843,-6.256481170654297,-25.938133239746094,-1.0239602327346802,0.5583104491233826,-3.192953586578369,4.628029823303223,4
844,6.923397541046143,-6.9359049797058105,-1.2200340032577515,1.0250210762023926,-3.3626370429992676,4.605103492736816,4
845,18.303739547729492,9.679052352905273,1.7202342748641968,1.1208007335662842,-3.1343181133270264,4.613213062286377,4
846,16.565813064575195,33.91259765625,0.6045195460319519,0.9771329164505005,-2.977524757385254,4.632226467132568,4
847,15.662948608398438,36.59651184082031,-1.2697365283966064,0.469046026468277,-2.7563717365264893,4.664762496948242,4
848,20.265565872192383,28.93166732788086,-3.7880351543426514,-0.049996014684438705,-2.3910768032073975,4.6707048416137695,4
849,19.241653442382812,31.651885986328125,-6.019598960876465,-0.3676648437976837,-2.2882416248321533,4.634117126464844,4
850,11.81940746307373,43.89605712890625,-6.413031101226807,-0.5995998382568359,-2.1192800998687744,4.550360679626465,4
851,11.284088134765625,46.22149658203125,-10.618370056152344,-1.2864946126937866,-1.9678189754486084,4.533856391906738,4
852,12.326444625854492,32.83448028564453,-16.76467514038086,-1.8344805240631104,-1.817726492881775,4.43880033493042,4
853,2.1762101650238037,11.789739608764648,-19.93565559387207,-2.3112237453460693,-1.6889365911483765,4.2956085205078125,4
854,-9.138327598571777,-3.6723289489746094,-18.869705200195312,-2.3834311962127686,-1.7192718982696533,4.073033332824707,4
855,-19.52113151550293,-14.957539558410645,-18.657766342163086,-2.0626838207244873,-1.9109877347946167,3.7994394302368164,4
856,-24.45494270324707,-16.97060203552246,-17.442169189453125,-2.1988959312438965,-1.47634756565094,3.7450263500213623,4
857,-33.4627685546875,-6.8992462158203125,-15.700018882751465,-1.870630145072937,-1.840178370475769,3.527120351791382,4
858,-37.46076202392578,-11.717161178588867,-16.280597686767578,-1.6780283451080322,-2.238992691040039,3.3437302112579346,4
859,-33.05940246582031,-16.354368209838867,-17.75782012939453,-1.6348823308944702,-2.6844308376312256,3.190648317337036,4
860,-28.177162170410156,-16.78392791748047,-13.94812297821045,-1.3496956825256348,-3.3924720287323,2.9381179809570312,4
861,-9.011613845825195,-12.943678855895996,-10.080117225646973,-1.2440111637115479,-3.128016471862793,2.9050099849700928,4
862,6.082337379455566,-12.516618728637695,-6.62114953994751,-1.0416836738586426,-3.342154026031494,2.787973165512085,4
863,10.98641586303711,-14.21671199798584,-3.6339547634124756,-0.8395935893058777,-3.2951464653015137,2.6975300312042236,4
864,18.904335021972656,-17.026275634765625,-3.690903425216675,-0.5999630093574524,-3.082042932510376,2.6388003826141357,4
865,28.094449996948242,-9.228534698486328,-3.909987211227417,-0.44315090775489807,-2.8451075553894043,2.6290981769561768,4
866,33.84294891357422,-3.0884487628936768,-3.1735970973968506,-0.5693494081497192,-2.5142030715942383,2.689267873764038,4
867,29.81155014038086,-4.057155609130859,-3.544890880584717,-0.39397990703582764,-2.0756492614746094,2.619652509689331,4
868,11.304300308227539,10.184769630432129,-1.1496676206588745,-0.4101773202419281,-1.9623414278030396,2.587996006011963,4
869,-14.849053382873535,19.240999221801758,2.924370050430298,-0.45666050910949707,-1.8377553224563599,2.564929962158203,4
870,-35.36564254760742,18.636995315551758,6.520838260650635,-0.8327901363372803,-1.8597935438156128,2.6435697078704834,4
871,-49.4129638671875,13.770816802978516,7.24910306930542,-1.051514983177185,-2.390658378601074,2.6795260906219482,4
872,-49.56839370727539,3.2236151695251465,6.134594917297363,-1.1552672386169434,-3.0825846195220947,2.7101261615753174,4
873,-38.9052619934082,-6.868705749511719,5.934683799743652,-1.3050464391708374,-3.6123178005218506,2.8029186725616455,4
874,-28.869754791259766,-16.385250091552734,8.144698143005371,-1.0484296083450317,-3.883413553237915,2.8218629360198975,4
875,-24.389497756958008,-20.016414642333984,10.195880889892578,-0.8953075408935547,-4.14670991897583,2.912809133529663,4
876,-20.337446212768555,-28.894760131835938,11.512591361999512,-0.43180301785469055,-4.335995674133301,2.9381401538848877,4
877,-7.819447994232178,-34.24522399902344,9.092435836791992,-0.24364013969898224,-4.4461565017700195,3.1103720664978027,4
878,11.464466094970703,-24.422101974487305,6.742587089538574,0.34013715386390686,-4.570332050323486,3.1419777870178223,4
879,35.394691467285156,-10.334936141967773,5.465852737426758,0.2835466265678406,-4.384307861328125,3.364147901535034,4
880,51.318748474121094,-1.0360054969787598,6.773622035980225,0.5612961053848267,-3.876892328262329,3.3723514080047607,4
881,59.64370346069336,10.433350563049316,10.20030689239502,0.3581979274749756,-3.4414052963256836,3.529705286026001,4
882,56.524391174316406,22.77044105529785,13.503167152404785,0.20884017646312714,-2.7712621688842773,3.6423120498657227,4
883,44.8120231628418,34.81259536743164,14.706319808959961,-0.0596337765455246,-2.3777029514312744,3.7892158031463623,4
884,22.519014358520508,40.289188385009766,13.78441333770752,-0.5018036961555481,-1.9317373037338257,3.972203493118286,4
885,7.681288719177246,34.679168701171875,11.073410987854004,-1.0238946676254272,-1.6060147285461426,4.152078628540039,4
886,-0.3161791265010834,18.216144561767578,10.384434700012207,-1.3883371353149414,-1.6197527647018433,4.25742769241333,4
887,-16.517227172851562,-8.823383331298828,10.049215316772461,-1.3908790349960327,-1.6810694932937622,4.281375885009766,4
888,-23.38565444946289,-26.280099868774414,8.315130233764648,-1.34925377368927,-1.9951143264770508,4.3772873878479,4
889,-26.61724090576172,-22.57703399658203,8.296205520629883,-1.1716139316558838,-2.3492021560668945,4.491982936859131,4
890,-29.238035202026367,-7.219507694244385,14.52078628540039,-0.8156259059906006,-2.504094362258911,4.550907611846924,4
891,-33.655723571777344,-9.348774909973145,16.67057991027832,-0.4812498688697815,-2.7838144302368164,4.623779296875,4
892,-40.507686614990234,-12.530713081359863,16.537517547607422,-0.2387489229440689,-3.018326997756958,4.761417865753174,4
893,-55.51271438598633,-31.167177200317383,9.52214527130127,-0.6391222476959229,-3.7511861324310303,5.053421497344971,4
894,-41.718509674072266,-44.89362335205078,2.084986686706543,-0.3848617672920227,-4.414228439331055,5.184685230255127,4
895,-17.738750457763672,-57.27397918701172,-2.599050760269165,0.12326865643262863,-4.8030781745910645,5.227552890777588,4
896,17.305139541625977,-65.21480560302734,-6.226065158843994,0.7764142155647278,-4.969586372375488,5.226278781890869,4
897,66.9969711303711,-61.98741149902344,-6.89130973815918,1.5381603240966797,-4.569421768188477,5.17889404296875,4
898,97.87586975097656,-56.99529266357422,-4.539475917816162,2.405625343322754,-3.6143784523010254,5.048861980438232,4
899,101.6528549194336,-39.87795639038086,-2.1217846870422363,2.4742591381073,-2.955047130584717,5.235738277435303,4
900,86.70047760009766,-18.43501853942871,-0.4154033958911896,3.1229381561279297,-1.5353550910949707,5.090697288513184,4
901,63.958892822265625,-2.9490976333618164,3.329355001449585,3.370899200439453,-0.9147869348526001,5.1117472648620605,4
902,29.734169006347656,23.31492805480957,10.33505916595459,3.460428237915039,0.11327236145734787,5.054488182067871,4
903,-1.5294685363769531,54.276092529296875,20.21841812133789,2.881206750869751,-0.17857666313648224,5.404205322265625,4
904,-28.349992752075195,82.61835479736328,29.361116409301758,2.029181480407715,-0.1852470338344574,5.674361228942871,4
905,-46.41465759277344,95.28315734863281,36.66487503051758,1.0394032001495361,-0.7522618770599365,6.079906463623047,4
906,-63.2105598449707,77.56114196777344,42.59494400024414,0.2968178391456604,-1.2301640510559082,6.400608539581299,4
907,-73.15821075439453,35.3609504699707,42.21932601928711,-0.8055359125137329,-2.14349365234375,6.92408561706543,4
908,-73.23082733154297,-29.543020248413086,38.050662994384766,-0.8113080859184265,-2.998952627182007,7.340095043182373,4
909,-65.85958099365234,-98.74925231933594,29.550844192504883,-0.2632223069667816,-3.684544086456299,7.700977325439453,4
910,-43.14461898803711,-145.08985900878906,17.97419548034668,1.0011521577835083,-4.179870128631592,7.997230052947998,4
911,-3.523552656173706,-152.1753387451172,6.885526180267334,3.1721646785736084,-4.488007545471191,8.170782089233398,4
912,37.42251205444336,-129.10858154296875,1.9874171018600464,4.379187107086182,-4.265203475952148,8.366016387939453,4
913,71.61689758300781,-91.47460174560547,-1.9019027948379517,5.935220718383789,-3.6514832973480225,8.347323417663574,4
914,102.20316314697266,-42.8225212097168,-5.228421688079834,6.620054721832275,-2.8904638290405273,8.397924423217773,4
915,124.90501403808594,11.026405334472656,-10.569140434265137,6.362852573394775,-1.831228494644165,8.477190017700195,4
916,123.88311004638672,60.1489372253418,-13.883813858032227,6.049033164978027,-0.40155112743377686,8.30334758758545,4
917,98.11811828613281,100.67674255371094,-18.159252166748047,5.1424431800842285,0.5624843835830688,8.321968078613281,4
918,66.77311706542969,116.42464447021484,-18.076993942260742,3.6498279571533203,1.8691118955612183,8.018611907958984,4
919,32.88107681274414,104.31073760986328,-17.741901397705078,2.4469964504241943,2.266045570373535,8.013453483581543,4
920,-7.111637592315674,75.89429473876953,-21.77397346496582,1.1249769926071167,2.4696455001831055,7.918114185333252,4
921,-43.742576599121094,42.25514221191406,-26.497116088867188,0.7465401291847229,2.168203830718994,7.80665922164917,4
922,-67.49384307861328,6.542113304138184,-29.775001525878906,0.5483805537223816,1.4226837158203125,7.683480739593506,4
923,-70.70878601074219,-27.694944381713867,-33.800533294677734,0.6916487812995911,0.46524539589881897,7.53111457824707,4
924,-70.04528045654297,-47.04618835449219,-38.4659423828125,1.2728768587112427,-0.25115254521369934,7.232743740081787,4
925,-58.49343490600586,-55.24937057495117,-47.10211944580078,1.8015856742858887,-1.0735777616500854,6.904246807098389,4
926,-36.082000732421875,-48.587886810302734,-56.170265197753906,2.646430730819702,-1.4580563306808472,6.424004077911377,4
927,0.15970128774642944,-26.362903594970703,-61.13796615600586,3.131399393081665,-1.709283709526062,5.86444616317749,4
928,55.17261505126953,-0.9199204444885254,-62.90523910522461,2.952376127243042,-1.3084228038787842,5.066292762756348,4
929,106.70250701904297,15.326269149780273,-61.654911041259766,2.8856310844421387,-0.193614661693573,4.232703685760498,4
930,140.51904296875,24.68946075439453,-58.365116119384766,2.7171542644500732,0.715419352054596,3.746307373046875,4
931,165.60198974609375,32.26857376098633,-53.74189376831055,2.4387056827545166,2.933307647705078,2.8494083881378174,4
932,172.0764617919922,34.979156494140625,-44.16316223144531,2.1151950359344482,4.425572395324707,2.453427791595459,4
933,139.39852905273438,39.405845642089844,-35.85115051269531,1.7445343732833862,6.511069297790527,1.8906675577163696,4
934,77.98551940917969,47.45709228515625,-32.54861068725586,1.021048903465271,7.289289474487305,1.7184427976608276,4
935,19.029367446899414,44.90966796875,-33.803531646728516,0.44017109274864197,7.653669834136963,1.5372052192687988,4
936,-24.247697830200195,30.151166915893555,-32.85535430908203,-0.1938808560371399,7.741347312927246,1.1813931465148926,4
937,-58.414188385009766,15.933809280395508,-30.28531265258789,-0.20506824553012848,7.26190710067749,1.1150157451629639,4
938,-78.93524932861328,2.7981696128845215,-29.418991088867188,-0.41541996598243713,6.264659404754639,0.8998156785964966,4
939,-76.41275024414062,3.3557546138763428,-28.959022521972656,-0.4231918752193451,5.355179309844971,0.6680278778076172,4
940,-56.9409294128418,5.2862677574157715,-26.120561599731445,-0.4819231927394867,4.550414562225342,0.4085959196090698,4
941,-25.800792694091797,0.9147658348083496,-21.244220733642578,-0.5264523029327393,4.3168840408325195,0.13688898086547852,4
942,12.502971649169922,-1.5745474100112915,-20.354490280151367,-0.5035945773124695,4.140340805053711,-0.03519925847649574,4
943,50.683448791503906,-3.3887264728546143,-16.38256072998047,-0.4310671389102936,4.388476848602295,-0.17853620648384094,4
944,83.12312316894531,7.8483052253723145,-11.15388011932373,-0.38140127062797546,5.198904514312744,-0.29405853152275085,4
945,83.60719299316406,20.186555862426758,-1.2061253786087036,-0.5506547689437866,6.150850772857666,-0.4239633083343506,4
946,67.82292938232422,38.545658111572266,6.634572982788086,-0.9146441221237183,6.795826435089111,-0.5110639333724976,4
947,46.293880462646484,59.22654724121094,10.042170524597168,-1.5999380350112915,7.4464850425720215,-0.621292233467102,4
948,16.0048828125,79.83424377441406,11.528745651245117,-2.1216228008270264,7.800477027893066,-0.34895676374435425,4
949,-14.572758674621582,87.89250946044922,15.944056510925293,-3.3055357933044434,7.690866947174072,-0.5132591724395752,4
950,-54.15924835205078,71.88890838623047,23.069351196289062,-4.187460899353027,7.307103157043457,-0.3047310709953308,4
951,-89.07678985595703,36.66236877441406,27.904094696044922,-5.1031317710876465,6.46306037902832,-0.32848671078681946,4
952,-110.03497314453125,-8.219446182250977,26.12700653076172,-4.654621601104736,5.59604024887085,0.7208523154258728,4
953,-123.6156234741211,-41.9777717590332,20.240510940551758,-4.175482273101807,4.213289260864258,1.173082947731018,4
954,-122.54434967041016,-64.09607696533203,19.761919021606445,-3.6891396045684814,3.2743825912475586,1.467820167541504,4
955,-107.91230773925781,-85.78257751464844,14.048141479492188,-2.6944658756256104,1.6801390647888184,1.7936683893203735,4
956,-79.87745666503906,-102.39302825927734,8.262468338012695,-2.086954355239868,1.126416563987732,1.8514927625656128,4
957,-41.34504699707031,-117.28910827636719,4.54155969619751,-1.3920249938964844,0.6471984386444092,1.6890007257461548,4
958,-7.207312107086182,-111.24878692626953,6.286769866943359,0.38144296407699585,0.14128808677196503,2.2460715770721436,4
959,31.926651000976562,-96.42741394042969,4.063169479370117,1.3423970937728882,0.3408204913139343,2.2691972255706787,4
960,44.405731201171875,-66.70316314697266,4.30136775970459,2.6223843097686768,0.9679086208343506,2.6445248126983643,4
961,59.14248275756836,-9.410441398620605,1.3025985956192017,3.2294647693634033,1.451939344406128,2.7600936889648438,4
962,47.08977127075195,29.96683692932129,1.27694571018219,2.6635468006134033,2.075690269470215,2.425919532775879,4
963,25.64682388305664,63.21358108520508,1.5217167139053345,2.0350539684295654,2.4349758625030518,2.2993619441986084,4
964,-14.236318588256836,84.4990005493164,5.943150520324707,1.0618623495101929,2.443519115447998,2.1856820583343506,4
965,-40.3621711730957,85.73059844970703,9.56795597076416,0.16537287831306458,2.013845920562744,2.2455332279205322,4
966,-49.56141662597656,70.34510803222656,11.858264923095703,-0.2352432757616043,1.470829963684082,2.592489242553711,4
967,-37.50310516357422,55.47698211669922,11.312616348266602,-1.2592531442642212,1.1248283386230469,2.5342910289764404,4
968,-37.347660064697266,38.7784309387207,13.61072826385498,-1.169095754623413,0.8176441788673401,2.9763596057891846,4
969,-62.63691711425781,16.10653305053711,14.032858848571777,-1.4819940328598022,0.19730731844902039,3.0836288928985596,4
970,-88.4837417602539,4.837981700897217,16.618410110473633,-1.6378318071365356,-0.34407690167427063,3.2452776432037354,4
971,-80.91724395751953,-16.29576873779297,19.72532081604004,-1.5475822687149048,-1.7297992706298828,3.363288640975952,4
972,-53.35220718383789,-30.105545043945312,20.44142723083496,-1.220168113708496,-2.1874990463256836,3.664344549179077,4
973,-19.75835609436035,-37.13272476196289,20.997211456298828,-0.7043313980102539,-2.446807384490967,3.968315362930298,4
974,13.127150535583496,-20.57750129699707,23.38231658935547,-0.49768534302711487,-2.4784927368164062,4.18444299697876,4
975,44.50554275512695,-2.1301732063293457,27.13973617553711,-0.23295274376869202,-1.9286956787109375,4.5179033279418945,4
976,65.7353515625,20.396209716796875,29.496490478515625,-0.2780042886734009,-1.33323073387146,4.813273906707764,4
977,67.61176300048828,37.056365966796875,28.748504638671875,-0.721767246723175,-0.7176833152770996,5.082662582397461,4
978,52.11457824707031,43.180503845214844,29.952314376831055,-1.19556725025177,0.25797978043556213,5.438877582550049,4
979,30.338783264160156,45.47365951538086,28.986724853515625,-1.8013839721679688,0.25451135635375977,5.6506171226501465,4
980,5.131066799163818,40.36498260498047,28.279640197753906,-2.3936309814453125,0.6273809671401978,5.977243423461914,4
981,-26.17018699645996,26.548368453979492,27.296260833740234,-2.662268877029419,0.418136328458786,6.230171203613281,4
982,-42.66080856323242,12.271563529968262,26.713441848754883,-2.7939090728759766,-0.1755218654870987,6.434078216552734,4
983,-42.71593475341797,1.126006007194519,23.589155197143555,-2.9422528743743896,-0.45607876777648926,6.737059116363525,4
984,-30.726957321166992,-9.459514617919922,18.294755935668945,-2.7484986782073975,-0.9743402004241943,6.898972034454346,4
985,-21.153200149536133,-18.390117645263672,15.535654067993164,-2.7059407234191895,-0.9051486849784851,7.193765640258789,4
