,gyro.x,gyro.y,gyro.z,stabilizer.pitch,stabilizer.roll,stabilizer.yaw,label
0,-0.0013608401641249657,-0.10314477980136871,0.05631057918071747,0.6122862100601196,0.754935085773468,-10.752130508422852,4
1,-0.010242726653814316,-0.0594034418463707,0.02863866277039051,0.5356222987174988,0.6895527839660645,-10.740736961364746,4
2,0.06040995195508003,0.016785593703389168,0.04182646796107292,0.5468510985374451,0.3681439161300659,-10.728629112243652,4
3,0.053245946764945984,-0.04056524112820625,-0.018401099368929863,0.5552473664283752,0.4742932617664337,-10.717880249023438,4
4,-0.06652583926916122,-0.017496485263109207,0.013457629829645157,0.5618743300437927,0.6866124868392944,-10.70699691772461,4
5,0.04501781985163689,0.017499836161732674,-0.03401621803641319,0.5666379332542419,0.5063948035240173,-10.696833610534668,4
6,0.08981207013130188,-0.0660988986492157,0.12759709358215332,0.5693188309669495,0.11146288365125656,-10.687579154968262,4
7,0.048934049904346466,-0.0743710994720459,0.05121087282896042,0.5731047987937927,0.5476279854774475,-10.67531967163086,4
8,-0.013533750548958778,-0.18151822686195374,0.10277573019266129,0.5771474242210388,0.21034088730812073,-10.665349006652832,4
9,0.048470526933670044,-0.1638762354850769,0.043678127229213715,0.5812579393386841,0.35705554485321045,-10.653494834899902,4
10,-0.009473978541791439,-0.0677199512720108,0.006003651302307844,0.5190942883491516,0.851715087890625,-10.640145301818848,4
11,-0.0019527841359376907,-0.05194069817662239,0.08768191933631897,0.5381933450698853,0.4937630593776703,-10.631062507629395,4
12,6.44667534288601e-06,-0.03488289564847946,0.02774457260966301,0.8123694658279419,0.49130675196647644,-10.618643760681152,4
13,-0.027126962319016457,-0.04314485937356949,-0.006568423006683588,0.5531778335571289,0.5550364851951599,-10.609637260437012,4
14,0.0625201016664505,-0.11026141792535782,0.007229860406368971,0.4935840666294098,0.5349200367927551,-10.599114418029785,4
15,0.0335029661655426,-0.12043645977973938,0.045858342200517654,0.5176464319229126,0.7216210961341858,-10.587552070617676,4
16,0.00020568643230944872,-0.13700729608535767,0.09558340162038803,0.7385408282279968,0.5221781134605408,-10.573473930358887,4
17,-0.02040179632604122,-0.11844368278980255,-0.02650572545826435,0.5615676045417786,0.6464287042617798,-10.565732955932617,4
18,0.0639071986079216,-0.04638877138495445,0.12356752902269363,0.5677638053894043,0.599036693572998,-10.555187225341797,4
19,0.07795772701501846,-0.16440188884735107,0.11719595640897751,0.5726558566093445,0.2905949056148529,-10.542978286743164,4
20,0.06126658245921135,-0.19858744740486145,-0.015768643468618393,0.5084385275840759,0.06215262413024902,-10.531818389892578,4
21,0.008012263104319572,-0.04844683036208153,0.08066775649785995,0.531021237373352,0.5104988217353821,-10.520133018493652,4
22,0.13376663625240326,-0.1330455243587494,-0.0019271067576482892,0.5457231998443604,0.7041288614273071,-10.50837230682373,4
23,0.1209714338183403,-0.12460211664438248,-0.06503703445196152,0.4895038306713104,0.5727734565734863,-10.49836540222168,4
24,0.005945773329585791,-0.020441653206944466,0.10675907880067825,0.5856472253799438,0.543226420879364,-10.488221168518066,4
25,-0.024710828438401222,-0.10057380795478821,-0.034820932894945145,0.5875488519668579,0.4512912631034851,-10.477920532226562,4
26,0.031633324921131134,-0.10000399500131607,-0.06078505516052246,0.5892547965049744,0.31495213508605957,-10.468785285949707,4
27,-0.016492143273353577,-0.10175519436597824,0.0008209180668927729,0.8669091463088989,0.21555644273757935,-10.460834503173828,4
28,0.05176763981580734,-0.006964369211345911,0.09515418112277985,0.6584398150444031,0.5565671920776367,-10.45148754119873,4
29,0.008241888135671616,-0.14421924948692322,0.02800091542303562,0.5699097514152527,0.5326027274131775,-10.438729286193848,4
30,0.07641620188951492,-0.07860497385263443,-0.047229133546352386,0.5756298303604126,0.44473859667778015,-10.427197456359863,4
31,0.060865968465805054,-0.15924246609210968,0.03278347849845886,0.579402506351471,0.17273899912834167,-10.41482162475586,4
32,0.08151006698608398,-0.06682218611240387,0.040933653712272644,0.5839739441871643,0.7359281182289124,-10.407976150512695,4
33,0.06231836602091789,0.010117870755493641,0.07586481422185898,0.5864113569259644,0.11189574003219604,-10.39407730102539,4
34,0.11407892405986786,-0.17875179648399353,0.03400342911481857,0.7961097955703735,0.5535464882850647,-10.389967918395996,4
35,0.08359338343143463,-0.030089713633060455,0.10855725407600403,0.5352888107299805,0.5339996814727783,-10.374823570251465,4
36,0.03655774146318436,-0.05469031259417534,0.05058610066771507,0.4783705174922943,0.447354793548584,-10.362600326538086,4
37,0.06950259208679199,-0.048418037593364716,0.06518442928791046,0.5789097547531128,0.7379069328308105,-10.352689743041992,4
38,0.03433115780353546,-0.11106091737747192,-0.07144422829151154,0.5822163820266724,0.5987268090248108,-10.341815948486328,4
39,0.060589756816625595,-0.10575182735919952,0.16522116959095,0.5850112438201904,0.636793851852417,-10.332280158996582,4
40,0.017608903348445892,-0.15830294787883759,0.0640023797750473,0.5876231789588928,0.37965068221092224,-10.320809364318848,4
41,-0.12962546944618225,-0.12254573404788971,-0.02590719237923622,0.5904341340065002,0.6143827438354492,-10.310482025146484,4
42,0.06613415479660034,-0.1440535932779312,0.10275882482528687,0.5919880270957947,0.42887476086616516,-10.299575805664062,4
43,0.031204795464873314,-0.1385502964258194,-0.08569058775901794,0.5945157408714294,0.43553104996681213,-10.288776397705078,4
44,0.05375654995441437,-0.10269174724817276,0.05660611391067505,0.5251010060310364,0.2988864481449127,-10.278162002563477,4
45,0.0008528427570126951,-0.07289967685937881,-0.016169967129826546,0.6162786483764648,0.33956727385520935,-10.268529891967773,4
46,-0.08617828041315079,0.008859219960868359,0.0020660345908254385,0.8242295384407043,0.4407997727394104,-10.262226104736328,4
47,0.05735945329070091,-0.0684695839881897,-0.03957325220108032,0.4155389070510864,0.44415339827537537,-10.245563507080078,4
48,0.06424964964389801,-0.03730754181742668,0.07911352813243866,0.5336482524871826,0.6584219932556152,-10.2373685836792,4
49,0.03740546107292175,-0.11601590365171432,-0.011589917354285717,0.5509493350982666,0.4689144492149353,-10.227153778076172,4
50,0.03139564022421837,-0.06642431020736694,-0.039507269859313965,0.7733410000801086,0.32841846346855164,-10.218137741088867,4
51,0.020421378314495087,-0.19174638390541077,0.08002085238695145,0.6609089970588684,0.3630548119544983,-10.207128524780273,4
52,-0.018893923610448837,-0.09422827512025833,0.09928454458713531,0.6479683518409729,0.38816022872924805,-10.19637393951416,4
53,0.021783361211419106,-0.08666712790727615,-0.04258764162659645,0.4300028383731842,0.47611814737319946,-10.183222770690918,4
54,0.043047744780778885,-0.04681417718529701,0.015788106247782707,0.544864296913147,0.6781026124954224,-10.175494194030762,4
55,0.07187638431787491,-0.036056648939847946,0.010637898929417133,0.5598182678222656,0.3526381254196167,-10.165225982666016,4
56,0.04652956500649452,-0.17746007442474365,-0.02206343226134777,0.5721601247787476,0.3852219581604004,-10.155165672302246,4
57,-0.03369517624378204,-0.1031203493475914,-0.009816001169383526,0.6494506001472473,0.6774830222129822,-10.146203994750977,4
58,-0.06860266625881195,-0.1389492154121399,0.019904786720871925,0.8403512835502625,0.6227359771728516,-10.13577651977539,4
59,-0.03640032559633255,-0.13996168971061707,0.03772960975766182,0.5739132761955261,0.37544190883636475,-10.122897148132324,4
60,-0.0032131413463503122,-0.10911581665277481,0.01965767703950405,0.6499439477920532,0.6010890007019043,-10.11567497253418,4
61,0.11090949177742004,-0.21282784640789032,0.010305908508598804,0.5046073794364929,0.4292962849140167,-10.104341506958008,4
62,0.04127363860607147,-0.15252336859703064,0.0683407261967659,0.5334534645080566,0.37154895067214966,-10.093408584594727,4
63,0.02078213170170784,-0.09170830994844437,0.004151694010943174,0.48794302344322205,0.32890817523002625,-10.082490921020508,4
64,0.12078246474266052,-0.16059492528438568,0.09979718923568726,0.5210440754890442,0.43344250321388245,-10.071808815002441,4
65,-0.09882848709821701,-0.05205664783716202,0.02622791938483715,0.6133658289909363,0.37656840682029724,-10.062846183776855,4
66,0.008257824927568436,-0.02848728373646736,0.04814416542649269,0.6790612936019897,0.5340144038200378,-10.053367614746094,4
67,-0.043619222939014435,-0.07646360248327255,0.11674560606479645,0.8604400753974915,0.18226775527000427,-10.04202651977539,4
68,-0.04289985075592995,-0.10559771209955215,0.034944623708724976,0.5936558842658997,0.7260778546333313,-10.035663604736328,4
69,-0.09933488816022873,-0.07539569586515427,-0.015132596716284752,0.4616216719150543,0.6577920913696289,-10.023406982421875,4
70,-0.05371318385004997,-0.09367536008358002,0.12703469395637512,0.4994696080684662,0.40371522307395935,-10.01198673248291,4
71,0.003967395052313805,-0.1858775019645691,0.016906090080738068,0.8677060008049011,0.4193037748336792,-10.001190185546875,4
72,0.032726455479860306,-0.1291336715221405,-0.04898446798324585,0.6644617319107056,0.6365401744842529,-9.993783950805664,4
73,0.01613524556159973,-0.2227272242307663,0.10133206844329834,0.6483575701713562,0.5916306972503662,-9.983034133911133,4
74,0.007032880559563637,-0.16732287406921387,0.09533736854791641,0.5702254176139832,0.5584361553192139,-9.972813606262207,4
75,-0.048553112894296646,-0.22836005687713623,0.0928872600197792,0.5816091895103455,0.3968510031700134,-9.959985733032227,4
76,0.08515471965074539,-0.059948790818452835,0.03462061285972595,0.5895799994468689,0.4138506054878235,-9.949546813964844,4
77,0.054131682962179184,-0.07467791438102722,-0.05201489478349686,0.5946974158287048,0.5648909211158752,-9.940646171569824,4
78,-0.022536486387252808,-0.24259911477565765,0.08551175892353058,0.5993002653121948,0.26470065116882324,-9.929767608642578,4
79,-0.08096032589673996,-0.152885302901268,0.12707479298114777,0.6035183668136597,0.3165389895439148,-9.91897964477539,4
80,0.044458627700805664,-0.13669824600219727,0.0035631449427455664,0.46915003657341003,0.4240601062774658,-9.906559944152832,4
81,0.0513107068836689,-0.16455896198749542,-0.04127965494990349,0.8497288227081299,0.43557727336883545,-9.903765678405762,4
82,0.10433254390954971,0.001203221851028502,0.09388760477304459,0.5824723243713379,0.4441278874874115,-9.889595985412598,4
83,-0.07445573806762695,-0.2128627896308899,-5.751005664933473e-05,0.5878791809082031,0.4522522985935211,-9.879284858703613,4
84,0.05118807405233383,-0.11865943670272827,0.028514990583062172,0.5953279137611389,0.7304567098617554,-9.872071266174316,4
85,0.0629844143986702,-0.15204843878746033,0.02649497799575329,0.6001220345497131,0.251900851726532,-9.858859062194824,4
86,-0.061862535774707794,-0.11800418794155121,0.15687057375907898,0.6032381653785706,0.30857256054878235,-9.849223136901855,4
87,0.08332411199808121,0.014848480932414532,0.06745084375143051,0.6048753261566162,0.48735126852989197,-9.83930492401123,4
88,0.026434974744915962,-0.13216546177864075,0.013230695389211178,0.6050786375999451,0.6887810230255127,-9.829936981201172,4
89,0.07488766312599182,-0.2010767161846161,0.0466470941901207,0.5389716625213623,0.6306074261665344,-9.820124626159668,4
90,-0.020235074684023857,-0.13738155364990234,-0.018918048590421677,0.559274435043335,0.040861841291189194,-9.809907913208008,4
91,0.04715559259057045,-0.06265956908464432,0.0421048104763031,0.57329261302948,0.3554001748561859,-9.800312995910645,4
92,0.02004970796406269,-0.040215928107500076,-0.009987402707338333,0.0,0.0,0.0,4
93,-0.022314302623271942,-0.1857377290725708,0.1032896637916565,0.001249728724360466,-0.00010162434773519635,0.0004000468470621854,4
94,0.06784321367740631,-0.08762004971504211,0.08888620883226395,0.18777452409267426,-17.03936195373535,0.029567934572696686,4
95,-0.11807642132043839,-0.10599019378423691,-0.03815051168203354,0.16765184700489044,-13.974566459655762,0.02146313712000847,4
96,-0.07170567661523819,-0.06949377059936523,-0.008727632462978363,0.1491442173719406,-11.951117515563965,0.016173385083675385,4
97,0.05679388716816902,-0.10622621327638626,0.08863314241170883,0.15985925495624542,-12.112687110900879,0.01630561798810959,4
98,-0.016908813267946243,-0.10096071660518646,0.11980827152729034,0.11756035685539246,-5.903977870941162,0.003201449988409877,4
99,0.023030836135149002,-0.1157003715634346,0.06686951965093613,0.0928068682551384,0.49188917875289917,-0.007532468531280756,4
100,-0.01778642274439335,-0.08538806438446045,0.07794462889432907,0.07950323075056076,2.9661927223205566,-0.010829026810824871,4
101,-0.017717108130455017,-0.1188858151435852,-0.05406540259718895,-1.135201334953308,7.652091979980469,0.119050033390522,4
102,-0.04951399937272072,-0.1091289296746254,0.04174145311117172,-0.28220319747924805,14.042701721191406,0.0770391896367073,4
103,0.010221822187304497,-0.17247682809829712,0.054013270884752274,-0.6811730861663818,14.847858428955078,0.12233003973960876,4
104,0.02533426322042942,-0.05782478302717209,-0.08454906195402145,0.058969248086214066,17.2303524017334,0.061261676251888275,4
105,-0.012507980689406395,-0.07880256325006485,0.04118864983320236,0.11470789462327957,16.684688568115234,0.057601798325777054,4
106,-0.049678824841976166,-0.08965523540973663,-0.039003632962703705,0.16227847337722778,18.696420669555664,0.05773521214723587,4
107,-0.031681329011917114,-0.08691748231649399,0.03852854669094086,0.21672940254211426,15.07816219329834,0.05363285169005394,4
108,-0.027377210557460785,-0.17552480101585388,0.01686064712703228,0.6385676264762878,17.703088760375977,0.07920095324516296,4
109,0.1535363495349884,-0.06207331269979477,0.07794997096061707,-0.13425417244434357,15.559806823730469,-0.008376060985028744,4
110,0.0191652812063694,-0.04125693067908287,0.010523482225835323,0.013154502958059311,15.909000396728516,0.016998188570141792,4
111,0.0037854486145079136,-0.0046403054147958755,0.04543931409716606,0.37282848358154297,13.522785186767578,0.09863775223493576,4
112,0.09836682677268982,-0.03781157359480858,0.020890064537525177,0.3604792654514313,13.65818977355957,0.09544387459754944,4
113,0.1163531243801117,-0.07094835489988327,0.0015013042138889432,0.3572736978530884,11.175006866455078,0.12181846052408218,4
114,0.032430291175842285,-0.0948045626282692,0.055184222757816315,0.35628393292427063,11.689948081970215,0.11373469978570938,4
115,0.09119227528572083,-0.09606699645519257,0.044379908591508865,0.3589589297771454,11.383493423461914,0.11783570796251297,4
116,-0.0869264155626297,-0.08463247865438461,0.03469974920153618,0.36540520191192627,11.032264709472656,0.12452461570501328,4
117,-0.03561162203550339,-0.10692797601222992,0.04902784153819084,0.19253171980381012,10.584969520568848,0.09995802491903305,4
118,0.05733603239059448,-0.10721734911203384,-0.0012394619407132268,0.4238455295562744,10.056258201599121,0.14637812972068787,4
119,-0.05057263374328613,-0.1113719716668129,0.055068474262952805,0.4196775555610657,8.736199378967285,0.16781476140022278,4
120,-0.005528760142624378,-0.1350436508655548,0.059709612280130386,0.739544689655304,8.856046676635742,0.20433522760868073,4
121,-0.009358842857182026,-0.060361988842487335,0.03446173295378685,0.651628315448761,9.43163776397705,0.1829300969839096,4
122,0.06587282568216324,0.0032802773639559746,0.03430323675274849,0.5908033847808838,8.892308235168457,0.1940540075302124,4
123,-0.08643396198749542,-0.09758328646421432,0.05621510371565819,0.39721694588661194,8.408266067504883,0.19572384655475616,4
124,-0.013408196158707142,-0.020567700266838074,0.0671745091676712,0.27550628781318665,7.580240726470947,0.21409514546394348,4
125,-0.017183413729071617,-0.16432926058769226,0.03505846485495567,0.3183514177799225,7.285334587097168,0.22166121006011963,4
126,0.04717797785997391,-0.026838205754756927,-0.014054800383746624,0.35434210300445557,7.148502826690674,0.2237054407596588,4
127,0.09824550151824951,-0.04836392402648926,0.05136202648282051,0.5082961320877075,6.751255512237549,0.22556792199611664,4
128,0.07426878809928894,-0.10846668481826782,-0.15811051428318024,0.49423640966415405,6.113163948059082,0.24029257893562317,4
129,-0.0638401135802269,-0.13618656992912292,0.008638390339910984,0.2376755177974701,6.5108489990234375,0.253949910402298,4
130,-0.018247459083795547,-0.04612892121076584,-0.05175497755408287,0.41313979029655457,6.37330961227417,0.2356364130973816,4
131,0.04026162251830101,-0.009725969284772873,0.03853723034262657,0.42968764901161194,5.751967430114746,0.2444573938846588,4
132,-0.04218656197190285,-0.1784237176179886,0.004412987269461155,0.4420093894004822,5.955285549163818,0.23826640844345093,4
133,0.0465351901948452,0.031177552416920662,0.05255864933133125,0.45400771498680115,5.274954319000244,0.25000864267349243,4
134,0.02887062542140484,-0.0072748539969325066,0.11631780117750168,0.4587210416793823,5.8370513916015625,0.2369663268327713,4
135,0.07067223638296127,-0.043608441948890686,0.03528408706188202,0.46738380193710327,5.883246421813965,0.2347506880760193,4
136,0.0033945338800549507,-0.06446831673383713,0.06525353342294693,0.47369515895843506,5.170383453369141,0.24942144751548767,4
137,-0.05845434218645096,-0.15077082812786102,-0.0013821027241647243,0.47936511039733887,5.50566291809082,0.23944558203220367,4
138,-0.0023348252288997173,-0.04746725782752037,0.049642063677310944,0.48604369163513184,4.835958957672119,0.25347310304641724,4
139,0.13177961111068726,-0.07401315122842789,0.17202502489089966,0.4907696545124054,4.703275203704834,0.2557455897331238,4
140,-0.004901603329926729,-0.054461684077978134,-0.025484537705779076,0.4944688081741333,5.028587818145752,0.24670134484767914,4
141,-0.020310627296566963,-0.12539225816726685,-0.010847057215869427,0.4977022409439087,4.795595169067383,0.25121405720710754,4
142,-0.0172820296138525,-0.07993605732917786,0.06684134900569916,0.7854146957397461,4.216263294219971,0.1886381208896637,4
143,0.15100005269050598,-0.061890821903944016,0.03742324188351631,0.3396257162094116,4.2448039054870605,0.3152906596660614,4
144,0.04887066036462784,-0.21484287083148956,0.015005960129201412,0.5740077495574951,4.163061618804932,0.24703064560890198,4
145,0.03659987449645996,-0.019811788573861122,0.01884538121521473,0.37776029109954834,4.058072090148926,0.31055524945259094,4
146,0.030925102531909943,-0.1354779750108719,0.039046380668878555,0.596847653388977,3.9583611488342285,0.24321094155311584,4
147,0.06644479185342789,-0.08133548498153687,-0.003045563353225589,0.7573748230934143,4.062713623046875,0.18746531009674072,4
148,0.07487200200557709,-0.01958741620182991,-0.029483675956726074,0.4297158718109131,3.6590516567230225,0.30897805094718933,4
149,0.06677039712667465,0.02310708723962307,-0.02267637848854065,0.4535655081272125,3.6912636756896973,0.2990099787712097,4
150,0.07177186012268066,-0.09320652484893799,0.048448070883750916,0.38707953691482544,3.87876558303833,0.3169741630554199,4
151,0.0009265911648981273,-0.07047712057828903,-0.003806415945291519,0.42451053857803345,3.471468925476074,0.31207916140556335,4
152,0.04516787454485893,-0.09740161150693893,-0.00360709335654974,0.5404069423675537,3.4074487686157227,0.27202311158180237,4
153,0.08602051436901093,-0.1551593542098999,0.002766708144918084,0.5407548546791077,3.343404769897461,0.27272266149520874,4
154,-0.08873800933361053,-0.008400816470384598,0.09301445633172989,0.5420292019844055,3.362191915512085,0.271905779838562,4
155,0.1687038242816925,-0.10247921943664551,0.0921032577753067,0.5424804091453552,3.19042706489563,0.2761269211769104,4
156,-0.07434797286987305,-0.07544104754924774,0.06860364973545074,0.5432816743850708,3.3820343017578125,0.2713296115398407,4
157,-0.04498584568500519,-0.20438386499881744,0.06299791485071182,0.5434758067131042,2.933505058288574,0.282743364572525,4
158,0.026764409616589546,-0.13658370077610016,0.05029034987092018,0.545879065990448,2.99267315864563,0.28083670139312744,4
159,-0.019850101321935654,-0.1951669603586197,-0.004212523344904184,0.7914321422576904,2.860137939453125,0.19015911221504211,4
160,-0.021794484928250313,-0.13530436158180237,0.13414762914180756,0.4887683093547821,2.9924890995025635,0.3040161728858948,4
161,-0.03910291567444801,-0.1598014086484909,-0.03461282700300217,0.6635524034500122,2.5230214595794678,0.250740647315979,4
162,-0.06329800933599472,-0.1654348075389862,0.00967198982834816,0.3996524214744568,2.7191293239593506,0.34954583644866943,4
163,-0.00941491313278675,-0.014359173364937305,-0.0022672791965305805,0.5208362936973572,3.0833396911621094,0.291494756937027,4
164,0.07349134236574173,-0.06115244701504707,0.06472767144441605,0.5307864546775818,2.71445894241333,0.29639434814453125,4
165,0.09804783016443253,-0.1454848051071167,-0.016596825793385506,0.46037712693214417,2.896233320236206,0.3197634816169739,4
166,0.028135228902101517,-0.11181546747684479,0.0187554731965065,0.5673913955688477,2.7844419479370117,0.2810152769088745,4
167,0.006191381718963385,-0.10993687808513641,0.014639297500252724,0.5686975121498108,2.680168628692627,0.2828945815563202,4
168,-0.00979051273316145,-0.04350053146481514,0.04608815908432007,0.5700734853744507,2.364652395248413,0.2898160219192505,4
169,-0.09949521720409393,-0.11156981438398361,-0.009244914166629314,0.8030732274055481,2.3526241779327393,0.1995580494403839,4
170,0.06384983658790588,-0.15502730011940002,-0.02562706172466278,0.5900196433067322,2.565349578857422,0.27580028772354126,4
171,0.003481895662844181,-0.10321230441331863,0.07128620147705078,0.4338989555835724,2.32974910736084,0.34373849630355835,4
172,0.031235022470355034,-0.08005041629076004,0.027770131826400757,0.5469768047332764,1.8425447940826416,0.3120194971561432,4
173,-0.04575299099087715,-0.08874275535345078,-0.01787012442946434,0.554688036441803,2.160496234893799,0.30085447430610657,4
174,0.05818575620651245,-0.08926230669021606,0.09015121310949326,0.5612831711769104,1.9303505420684814,0.3037893772125244,4
175,0.05468487739562988,-0.14359863102436066,-0.05176194757223129,0.4916190505027771,2.357661485671997,0.3228764832019806,4
176,-0.007551521062850952,-0.008373540826141834,0.10734882205724716,0.6668042540550232,2.512934923171997,0.24865245819091797,4
177,0.01640927419066429,-0.043045997619628906,-0.02754819393157959,0.6457412838935852,2.391233205795288,0.26032957434654236,4
178,-0.03838421031832695,-0.08079887926578522,-0.009889683686196804,0.706592857837677,2.061760902404785,0.24612846970558167,4
179,0.08240927755832672,-0.05486688017845154,-0.11149481683969498,0.5224291682243347,1.9565755128860474,0.31827884912490845,4
180,0.02890949323773384,0.025669889524579048,-0.052525099366903305,0.612658679485321,1.6375226974487305,0.29152610898017883,4
181,-0.04371528699994087,-0.14461815357208252,-0.018700629472732544,0.4542005658149719,2.3050498962402344,0.3359701931476593,4
182,0.03582482039928436,-0.052548836916685104,0.09971071034669876,0.5608177781105042,2.0444042682647705,0.3001687228679657,4
183,0.029490021988749504,-0.19301830232143402,-0.039617083966732025,0.7142114639282227,2.131558656692505,0.2407405972480774,4
184,-0.023722466081380844,-0.15267640352249146,-0.008280574344098568,0.6811090707778931,1.5356709957122803,0.2694524824619293,4
185,0.03846924379467964,-0.1616874635219574,-0.0021714225877076387,0.5829464197158813,1.8904775381088257,0.29625841975212097,4
186,0.06269250065088272,-0.09545411914587021,-0.049396879971027374,0.5784649848937988,1.8465136289596558,0.2988564968109131,4
187,0.00013748937635682523,-0.15070216357707977,-0.005943845957517624,0.7214561700820923,1.7409642934799194,0.24763625860214233,4
188,0.06115969270467758,-0.09126857668161392,0.053997237235307693,0.612133800983429,2.0135087966918945,0.28049248456954956,4
189,0.02779426984488964,-0.05114762857556343,0.08516231924295425,0.3873957097530365,1.922558307647705,0.3645809590816498,4
190,0.022753270342946053,-0.18185213208198547,-0.07515585422515869,0.436168372631073,1.630130410194397,0.35313719511032104,4
191,0.07237817347049713,-0.07249515503644943,0.1709357649087906,0.5441535711288452,1.8366457223892212,0.31139060854911804,4
192,-0.04252801835536957,-0.12945516407489777,0.08837360143661499,0.5539208650588989,1.770135760307312,0.3102528154850006,4
193,0.03771919012069702,-0.21090056002140045,0.036495015025138855,0.7035840749740601,1.705549955368042,0.25958654284477234,4
194,0.04233670234680176,-0.037171874195337296,-0.051814477890729904,0.6024346351623535,1.5913492441177368,0.29727745056152344,4
195,-0.015377284958958626,-0.18019279837608337,0.10889007151126862,0.5971962213516235,1.6397725343704224,0.2977384328842163,4
196,0.006087920628488064,-0.06570739299058914,0.036959726363420486,0.5241758227348328,1.3206945657730103,0.3300962448120117,4
197,-0.03236950561404228,-0.023091496899724007,0.12436443567276001,0.7494457364082336,1.360059380531311,0.2511347830295563,4
198,0.20656879246234894,0.008837207220494747,0.0025521714705973864,0.5643638968467712,1.4547812938690186,0.31422075629234314,4
199,0.05741025134921074,-0.10824009031057358,0.06265673041343689,0.5674135684967041,1.6607375144958496,0.3085096776485443,4
200,0.0024407589808106422,-0.12379098683595657,0.06386551260948181,0.4310882091522217,1.45692777633667,0.3591316342353821,4
201,0.053059183061122894,-0.10906196385622025,-0.018606629222631454,0.47020870447158813,1.440916895866394,0.34578171372413635,4
202,0.008463315665721893,-0.12742160260677338,0.08482903242111206,0.5003108382225037,1.5624314546585083,0.33485740423202515,4
203,0.02169070392847061,-0.047035861760377884,0.09624055027961731,0.5235260725021362,1.3701809644699097,0.32993820309638977,4
204,0.021906839683651924,-0.2085733264684677,-0.011954390443861485,0.6793044805526733,1.293968915939331,0.28067681193351746,4
205,0.08320783078670502,-0.07626781612634659,0.13265763223171234,0.6553624868392944,1.5085347890853882,0.28559237718582153,4
206,0.030656080693006516,-0.09973031282424927,-0.03095085546374321,0.6368968486785889,1.1802700757980347,0.2982427775859833,4
207,-0.0017160138813778758,-0.13010968267917633,0.058861277997493744,0.6234614849090576,1.002021074295044,0.3065257668495178,4
208,0.020168382674455643,-0.07708393037319183,0.06301846355199814,0.6838605999946594,1.5576218366622925,0.2745288014411926,4
209,-0.026878565549850464,-0.09089339524507523,-0.006257546134293079,0.5889979600906372,1.3431873321533203,0.3097681403160095,4
210,-0.09826899319887161,-0.05804027244448662,0.09348532557487488,0.5882495045661926,0.9033637642860413,0.3201443552970886,4
211,0.30602991580963135,-0.2689064145088196,0.07434102147817612,0.5882190465927124,0.9904918670654297,0.31871551275253296,4
212,0.028252562507987022,-0.411787748336792,0.1630173623561859,0.6580644249916077,1.4005672931671143,0.29074999690055847,4
213,0.31987127661705017,-0.03547344356775284,-0.7256948947906494,0.5722009539604187,1.3512629270553589,0.3207586705684662,4
214,-0.18053647875785828,-0.8737985491752625,0.49509936571121216,0.7042567729949951,1.169905662536621,0.2843655049800873,4
215,-0.19382314383983612,-1.571590542793274,-1.374295949935913,0.4548366367816925,1.1617919206619263,0.3553493618965149,4
216,0.6937593817710876,-0.31128787994384766,-0.14534109830856323,0.4846303462982178,0.9315505623817444,0.35050061345100403,4
217,-0.6534389853477478,0.8840579986572266,1.6983777284622192,0.49840593338012695,1.2514655590057373,0.3351719379425049,4
218,2.2545900344848633,-2.849182605743408,-0.9707133769989014,0.5297051072120667,0.889532208442688,0.3342975676059723,4
219,0.005396065767854452,2.765512704849243,1.155971646308899,0.509244978427887,1.192651629447937,0.3169725835323334,4
220,3.9087278842926025,-3.3030858039855957,2.5445566177368164,0.5042845010757446,1.2243666648864746,0.3361627459526062,4
221,-1.90260648727417,2.47627592086792,2.369173526763916,0.317445307970047,1.0627204179763794,0.4120132029056549,4
222,8.469114303588867,-7.98098611831665,2.1694495677948,0.7604319453239441,0.9682381749153137,0.31427785754203796,4
223,-8.618410110473633,8.069745063781738,3.86323618888855,0.5420095920562744,1.4550920724868774,0.4062916338443756,4
224,9.5198974609375,-11.845763206481934,5.4068193435668945,0.5463328957557678,1.2919398546218872,0.4343052804470062,4
225,-8.900542259216309,10.38575267791748,6.150551795959473,0.7678245306015015,1.268132209777832,0.4602164030075073,4
226,0.2599216401576996,1.5584362745285034,6.103128433227539,0.4820651113986969,1.3871814012527466,0.5616117715835571,4
227,8.52445125579834,-13.905381202697754,5.002305507659912,0.5981346368789673,1.1157033443450928,0.6110166907310486,4
228,-14.456771850585938,4.472051620483398,4.057753086090088,1.3246214389801025,2.1634740829467773,0.4846815764904022,4
229,-5.799096584320068,21.473745346069336,4.151524066925049,1.1563585996627808,1.6627776622772217,0.5652195811271667,4
230,1.840946078300476,-18.80344009399414,-0.004547868389636278,1.0317667722702026,2.4275059700012207,0.5525282025337219,4
231,10.941974639892578,17.66360092163086,-1.576532244682312,1.1938846111297607,2.3008439540863037,0.5522040128707886,4
232,3.5627474784851074,2.674530267715454,-4.780328750610352,0.9501636624336243,1.974494218826294,0.576286256313324,4
233,-18.126300811767578,-2.6979825496673584,-7.835211277008057,0.6832851767539978,1.579149842262268,0.5690093636512756,4
234,7.397190093994141,-4.324220657348633,-6.658284664154053,0.6743966937065125,1.1007130146026611,0.5241258144378662,4
235,3.0200130939483643,12.787798881530762,-4.379476547241211,0.47506648302078247,1.0545753240585327,0.49036434292793274,4
236,1.693639874458313,-6.699286460876465,3.812990427017212,0.4585358798503876,0.9019120335578918,0.48702239990234375,4
237,-8.896360397338867,15.876191139221191,8.652451515197754,0.33711057901382446,0.8664575815200806,0.566011905670166,4
238,-20.337295532226562,-19.61968421936035,3.40681529045105,0.19612902402877808,0.42913463711738586,0.65659099817276,4
239,-1.3652195930480957,3.5668671131134033,-1.260252833366394,0.4182116389274597,0.24920716881752014,0.6470240950584412,4
240,-18.438974380493164,15.228448867797852,-2.149233818054199,0.23582488298416138,0.11108174175024033,0.6511048078536987,4
241,-37.12077713012695,15.720263481140137,-2.3773694038391113,0.21465814113616943,0.8422285914421082,0.608486533164978,4
242,-46.951175689697266,10.619133949279785,-1.3183397054672241,0.346888929605484,1.4064502716064453,0.5442137718200684,4
243,-44.051719665527344,8.490843772888184,-0.4756329357624054,0.8880382180213928,1.9007538557052612,0.4198336899280548,4
244,-35.30870056152344,8.605172157287598,1.328893780708313,1.0191805362701416,3.582491636276245,0.3805660605430603,4
245,-30.902236938476562,8.35429859161377,-0.8178591132164001,0.952344536781311,3.398894786834717,0.39392170310020447,4
246,-30.713787078857422,23.27411651611328,-2.6534676551818848,0.9913550615310669,4.0512375831604,0.3445983827114105,4
247,-40.160057067871094,33.14308547973633,-2.2292637825012207,-0.18281053006649017,3.746914863586426,0.26534372568130493,4
248,-59.98548889160156,28.50798797607422,-0.8470703363418579,-0.5047956109046936,2.87693452835083,0.24152697622776031,4
249,-78.40282440185547,17.337310791015625,1.67609703540802,-3.1306650638580322,2.2680673599243164,-0.10763584822416306,4
250,-104.1976547241211,5.018861293792725,4.004976749420166,-4.033337116241455,-0.051007699221372604,-0.48275330662727356,4
251,-127.52392578125,-14.137249946594238,2.992668867111206,-6.420117378234863,-2.998924970626831,-0.637129008769989,4
252,-122.63350677490234,-40.429718017578125,-3.4602975845336914,-7.722893714904785,-6.266080856323242,-0.8761156797409058,4
253,-86.32015991210938,-67.07476806640625,-5.990318298339844,-7.391350269317627,-8.498775482177734,-0.9553264379501343,4
254,-51.30391311645508,-87.45658111572266,-5.886959075927734,-6.333024024963379,-8.027106285095215,-1.112975835800171,4
255,-14.244485855102539,-117.83280181884766,-2.3776140213012695,-4.167757511138916,-9.07324504852295,-2.7140023708343506,4
256,29.424026489257812,-143.39028930664062,5.317810535430908,-3.2749009132385254,-7.919313430786133,-1.982023000717163,4
257,79.57029724121094,-156.3034210205078,9.446625709533691,-0.41624417901039124,-7.094465255737305,-3.1708245277404785,4
258,116.49067687988281,-156.5040283203125,16.882631301879883,2.8371901512145996,-5.314566612243652,-4.287405490875244,4
259,132.69871520996094,-148.6380615234375,23.87116813659668,5.587616443634033,-3.775653600692749,-5.0974860191345215,4
260,126.45906829833984,-121.71629333496094,26.129472732543945,8.111995697021484,-1.9678049087524414,-5.725531578063965,4
261,97.7025375366211,-83.49141693115234,26.996875762939453,9.039183616638184,-0.8504441380500793,-5.3056416511535645,4
262,58.52635192871094,-40.27376937866211,20.913658142089844,10.130127906799316,-0.2913214862346649,-5.224730968475342,4
263,22.96905517578125,15.618515014648438,14.692314147949219,10.067227363586426,0.18890340626239777,-4.913036346435547,4
264,-10.557305335998535,70.46460723876953,10.653571128845215,9.967185974121094,-0.22075672447681427,-4.403187274932861,4
265,-37.551204681396484,99.3989028930664,8.869596481323242,8.248995780944824,-0.16150905191898346,-4.246933937072754,4
266,-61.61610412597656,106.33063507080078,10.231725692749023,7.569188594818115,-1.7173922061920166,-2.95798921585083,4
267,-74.7862548828125,96.0195541381836,11.964936256408691,5.915033340454102,-1.7695528268814087,-3.459353446960449,4
268,-72.140869140625,78.34998321533203,14.366868019104004,3.534588575363159,-4.2418975830078125,-0.8849921226501465,4
269,-55.03944396972656,55.13839340209961,13.984432220458984,3.544226884841919,-4.698062896728516,-1.3457297086715698,4
270,-18.980026245117188,25.346479415893555,18.79584312438965,4.082113265991211,-4.7386274337768555,-2.109675168991089,4
271,18.837608337402344,-4.799629211425781,19.47894859313965,4.371739864349365,-4.566674709320068,-2.3721039295196533,4
272,49.67515182495117,-20.320199966430664,21.988101959228516,5.029963493347168,-3.923102855682373,-2.782930374145508,4
273,72.63684844970703,-13.823127746582031,23.77764320373535,5.303247928619385,-3.01250958442688,-2.8630878925323486,4
274,77.01675415039062,-12.462255477905273,22.975276947021484,5.88479471206665,-2.544994354248047,-2.7036924362182617,4
275,75.48198699951172,-1.2936890125274658,25.11473846435547,5.954799652099609,-1.6248738765716553,-2.5892887115478516,4
276,71.11043548583984,16.595703125,26.441043853759766,4.988225936889648,-0.2848547399044037,-2.309192419052124,4
277,61.832916259765625,38.44621276855469,27.49322509765625,5.015404224395752,2.009965658187866,-3.3391225337982178,4
278,34.252235412597656,60.854122161865234,28.07815170288086,4.546533107757568,2.240485906600952,-2.8612961769104004,4
279,7.101171493530273,68.41378021240234,24.588979721069336,4.203446388244629,1.9771735668182373,-2.2923741340637207,4
280,-24.262699127197266,66.47210693359375,20.717281341552734,3.5032575130462646,1.6421658992767334,-1.8332188129425049,4
281,-48.41147994995117,68.03932189941406,19.861059188842773,3.105661630630493,1.116740345954895,-1.4983289241790771,4
282,-67.31240844726562,63.869110107421875,18.60836410522461,2.1783337593078613,0.16949184238910675,-1.0560302734375,4
283,-77.73440551757812,60.681053161621094,17.374364852905273,1.956251859664917,-0.5188536643981934,-0.8827239274978638,4
284,-72.31173706054688,57.898834228515625,14.093113899230957,1.0892081260681152,-1.5525870323181152,-0.6217958331108093,4
285,-56.87731170654297,49.68686294555664,11.267735481262207,1.0470603704452515,-2.185133934020996,-0.5222191214561462,4
286,-36.42051315307617,41.80785369873047,8.046142578125,0.3325191140174866,-2.9379451274871826,-0.36247608065605164,4
287,-11.388654708862305,34.39847946166992,5.755589485168457,0.324155330657959,-3.082554817199707,-0.3855930268764496,4
288,15.075103759765625,32.909812927246094,3.963869094848633,0.24042464792728424,-3.1963138580322266,-0.38687169551849365,4
289,45.37783432006836,37.33244705200195,6.583748817443848,-0.45921894907951355,-2.8954949378967285,-0.27600592374801636,4
290,62.520835876464844,51.1661491394043,7.292800426483154,-0.5262166857719421,-2.4517436027526855,-0.32298269867897034,4
291,77.07308959960938,63.4951171875,6.93419075012207,-1.491614580154419,-1.6815705299377441,-0.13232871890068054,4
292,80.0989990234375,72.9542236328125,4.648990154266357,-2.005157947540283,-1.1660012006759644,-0.16631953418254852,4
293,73.82882690429688,75.45964050292969,0.9967851638793945,-3.1825244426727295,-0.17047612369060516,0.042334284633398056,4
294,60.33293914794922,74.71796417236328,-2.3294262886047363,-3.647967576980591,0.3096829354763031,-0.10520387440919876,4
295,31.744731903076172,58.702144622802734,-2.781553268432617,-4.638364791870117,0.947861909866333,-0.005067440681159496,4
296,5.5843939781188965,32.09524917602539,-2.219425916671753,-4.883577346801758,0.9179846048355103,-0.18230290710926056,4
297,-23.847227096557617,0.2917248010635376,-2.5172486305236816,-5.053746223449707,0.7694276571273804,-0.2575799524784088,4
298,-38.98846435546875,-10.785778045654297,-4.5211381912231445,-4.77339506149292,0.37305575609207153,-0.3690502941608429,4
299,-44.0893669128418,-10.466912269592285,-6.113258361816406,-4.377981662750244,0.24757340550422668,-0.2467198371887207,4
300,-29.383228302001953,-10.54362964630127,-9.3943510055542,-4.604346752166748,-0.2994629442691803,-0.406853586435318,4
301,-4.004783630371094,-6.117348670959473,-9.048667907714844,-3.819638252258301,-0.500918447971344,-0.5068018436431885,4
302,20.390785217285156,3.990577459335327,-10.4554443359375,-4.268470764160156,-0.22587989270687103,-0.4344795048236847,4
303,39.545894622802734,9.008279800415039,-15.412858009338379,-3.8305277824401855,0.13902539014816284,-0.5046659111976624,4
304,47.88866424560547,16.0909366607666,-18.321413040161133,-4.383473873138428,0.6620573401451111,-0.5832427740097046,4
305,47.9400634765625,21.304433822631836,-15.303414344787598,-4.459352493286133,1.3447370529174805,-0.6139779686927795,4
306,31.870281219482422,20.662446975708008,-11.482097625732422,-5.035275936126709,1.8008209466934204,-0.7373700737953186,4
307,4.80768346786499,16.22200584411621,-8.688448905944824,-5.231401443481445,1.9705263376235962,-0.8746955394744873,4
308,-12.527935028076172,10.9111909866333,-5.10962438583374,-5.603713035583496,2.0106594562530518,-0.9101100564002991,4
309,-13.167030334472656,4.466458797454834,-2.233107328414917,-6.3898420333862305,2.752772808074951,-0.31780701875686646,4
310,-17.465110778808594,-9.130019187927246,-5.745280742645264,-6.043956279754639,2.513981580734253,-0.3759203553199768,4
311,-26.465688705444336,-23.51941680908203,-5.5972185134887695,-5.7400007247924805,1.9668461084365845,-0.6956366896629333,4
312,-29.152013778686523,-31.86342430114746,-1.7817996740341187,-6.634378910064697,1.0286563634872437,-1.5862234830856323,4
313,-33.651458740234375,-38.33216857910156,2.6309285163879395,-6.486575126647949,0.6434406638145447,-1.7023980617523193,4
314,-38.62479019165039,-46.84755325317383,6.857420921325684,-5.998531341552734,0.050074320286512375,-1.8773823976516724,4
315,-37.337501525878906,-59.915802001953125,7.990166187286377,-5.054690837860107,-0.5459352135658264,-1.9254846572875977,4
316,-33.424442291259766,-75.51020050048828,5.433601379394531,-4.177664279937744,-0.35335299372673035,-1.3276007175445557,4
317,-21.86162757873535,-82.49200439453125,1.2796725034713745,-3.0362274646759033,-0.5741203427314758,-1.1920711994171143,4
318,-7.749467372894287,-73.0979995727539,-3.538321018218994,-1.9995296001434326,-0.767626941204071,-1.1808372735977173,4
319,22.396087646484375,-41.87387466430664,-5.115336894989014,-2.008488655090332,-0.8562141060829163,-1.3071143627166748,4
320,26.909210205078125,-10.999696731567383,-5.093588352203369,-1.4201048612594604,-0.20933617651462555,-1.15027916431427,4
321,26.43157958984375,10.832925796508789,-2.054624080657959,-1.0515958070755005,-0.05219915881752968,-1.2754453420639038,4
322,8.950819969177246,30.902673721313477,-2.397656202316284,-1.4603060483932495,0.28095874190330505,-1.2296534776687622,4
323,-19.503814697265625,34.519893646240234,-1.4733057022094727,-2.2867753505706787,-1.1363283395767212,-1.6333853006362915,4
324,-31.021217346191406,27.571008682250977,-3.6794917583465576,-2.6010851860046387,-1.2997077703475952,-1.6356604099273682,4
325,-24.678743362426758,10.23439884185791,-2.925229072570801,-2.0417842864990234,-1.0834004878997803,-1.6269844770431519,4
326,-20.99599266052246,-12.309260368347168,-2.634493112564087,-2.003005266189575,-1.355238676071167,-1.6723278760910034,4
327,-17.0364990234375,-24.791715621948242,-2.2127416133880615,-1.8605201244354248,-1.652875542640686,-1.7047220468521118,4
328,-5.57925271987915,-26.780731201171875,-2.9503462314605713,-1.5105403661727905,-1.146691918373108,-1.621995210647583,4
329,10.177586555480957,-20.958114624023438,-0.9239711165428162,-1.1737816333770752,-1.0379561185836792,-1.640366792678833,4
330,17.1335391998291,-15.12574577331543,-0.6657301783561707,-0.8358521461486816,-0.6474674344062805,-1.643155574798584,4
331,7.980147838592529,-7.1473612785339355,-0.8555494546890259,-0.6899994611740112,-0.4262964725494385,-1.6445503234863281,4
332,-8.349658012390137,-0.41369637846946716,1.3089474439620972,-1.3666565418243408,-0.8188900351524353,-1.558274507522583,4
333,-28.631271362304688,2.535993814468384,-2.0327045917510986,-1.4733296632766724,-1.6371744871139526,-1.5839605331420898,4
334,-32.61852264404297,2.854997158050537,-3.0370988845825195,-1.4646104574203491,-3.3977930545806885,-1.700479507446289,4
335,-24.211505889892578,5.3299336433410645,-5.829941272735596,-1.338006854057312,-3.2416884899139404,-1.745553970336914,4
336,-4.48637056350708,0.8815787434577942,-7.29035758972168,-1.0669152736663818,-2.8091750144958496,-1.8667430877685547,4
337,24.91883659362793,2.7804057598114014,-7.848819732666016,-1.111954927444458,-2.385596990585327,-1.9309197664260864,4
338,47.29507064819336,4.752285957336426,-8.762670516967773,-0.9033721685409546,-1.5340632200241089,-2.091148614883423,4
339,73.07389831542969,4.001394271850586,-5.444830417633057,-1.2981350421905518,-1.0424808263778687,-2.045880079269409,4
340,83.0614013671875,1.7531853914260864,-2.9809165000915527,-1.2005678415298462,0.23535022139549255,-2.1349544525146484,4
341,82.5928955078125,-4.262746810913086,3.9923293590545654,-1.414684772491455,1.2791270017623901,-2.082967519760132,4
342,76.06914520263672,-18.027557373046875,8.267610549926758,-1.2084215879440308,2.0503737926483154,-2.046773910522461,4
343,44.449066162109375,-26.52884292602539,13.188491821289062,-0.8133728504180908,3.702225685119629,-1.9642528295516968,4
344,3.3095555305480957,-27.14742660522461,17.060447692871094,-0.34805160760879517,3.8524839878082275,-1.824020504951477,4
345,-37.27375793457031,-21.962425231933594,20.221519470214844,0.022416504099965096,3.7942607402801514,-1.6434638500213623,4
346,-70.12786102294922,-13.353317260742188,20.111459732055664,0.28567925095558167,2.177278518676758,-1.3421932458877563,4
347,-90.81034088134766,-5.348786354064941,23.906024932861328,0.3798021674156189,1.951363205909729,-1.194526195526123,4
348,-91.99254608154297,0.3881241977214813,27.77214241027832,0.3443324863910675,1.3108718395233154,-1.0153639316558838,4
349,-85.64924621582031,8.037003517150879,32.59421920776367,0.23983167111873627,0.21280883252620697,-0.7038434743881226,4
350,-63.622398376464844,16.55348014831543,33.507667541503906,0.06824246048927307,-0.3045094907283783,-0.4277191460132599,4
351,-38.808502197265625,15.763833045959473,33.90841293334961,-0.14297886192798615,-1.2866361141204834,-0.0002396482159383595,4
352,-13.242539405822754,18.299728393554688,30.709074020385742,-0.24383120238780975,-1.3875943422317505,0.29601457715034485,4
353,-1.2209259271621704,18.178173065185547,27.914155960083008,-0.48187878727912903,-1.5351126194000244,0.5936801433563232,4
354,3.9890048503875732,14.323697090148926,25.285287857055664,-0.6944546699523926,-1.4984209537506104,0.8540410995483398,4
355,5.466222286224365,16.384510040283203,19.876598358154297,-0.8845612406730652,-1.6277670860290527,1.098433256149292,4
356,-1.1571834087371826,14.907892227172852,10.447807312011719,-0.7690296769142151,-1.3030171394348145,1.1798166036605835,4
357,-14.415593147277832,18.944046020507812,4.240907669067383,-0.8666875958442688,-1.3960540294647217,1.2448740005493164,4
358,-18.841716766357422,14.23676872253418,-1.9668201208114624,-1.1989319324493408,-1.8733807802200317,1.2943331003189087,4
359,-14.806106567382812,-0.13561603426933289,-5.150788307189941,-1.2639141082763672,-2.2013027667999268,1.2657626867294312,4
360,-6.755208492279053,-10.90383529663086,-6.8781585693359375,-1.166053056716919,-1.9605518579483032,1.184599757194519,4
361,0.5845133066177368,-17.472532272338867,-11.332876205444336,-1.063351035118103,-1.9456065893173218,1.1054019927978516,4
362,16.409093856811523,-13.347933769226074,-16.5916690826416,-0.8501791954040527,-1.957166314125061,0.9563120007514954,4
363,30.295852661132812,-11.443861961364746,-16.19097900390625,-0.7676989436149597,-1.6810187101364136,0.8022502064704895,4
364,36.66728210449219,-4.941247940063477,-9.1108980178833,-0.6758466362953186,-1.3060767650604248,0.6692364811897278,4
365,33.86546325683594,1.65891432762146,-2.9465091228485107,-0.7761765122413635,-0.756238579750061,0.6387040615081787,4
366,8.495874404907227,11.877631187438965,3.6542298793792725,-0.9970133304595947,-0.7979028820991516,0.6843732595443726,4
367,-16.430356979370117,5.944886684417725,4.605408191680908,-0.5860878229141235,-2.450204849243164,0.6533890962600708,4
368,-30.106481552124023,-0.1329496204853058,3.407743453979492,-0.7104803323745728,-2.4828007221221924,0.7131481766700745,4
369,-28.82952117919922,-5.0055999755859375,5.608968257904053,-0.5890499353408813,-2.7373671531677246,0.7397571802139282,4
370,-10.379470825195312,-11.077235221862793,9.050836563110352,-0.4426773190498352,-2.605792999267578,0.7911041378974915,4
371,15.069083213806152,-13.39054012298584,16.019500732421875,-0.2320985645055771,-2.445482015609741,0.9023661017417908,4
372,24.115936279296875,-8.386073112487793,21.007781982421875,-0.2880879044532776,-2.067094564437866,1.1327751874923706,4
373,17.373882293701172,1.0171031951904297,16.66326904296875,-0.12497881799936295,-2.1793107986450195,1.3145545721054077,4
374,6.67148494720459,17.47382926940918,9.224390029907227,-0.18655544519424438,-2.041881561279297,1.427018165588379,4
375,-2.6568644046783447,27.195858001708984,6.884505271911621,-0.42617690563201904,-1.8445076942443848,1.47976815700531,4
376,-4.657250881195068,31.166236877441406,6.978230953216553,-0.9914519786834717,-1.8988264799118042,1.6113766431808472,4
377,-5.58178186416626,34.057777404785156,8.85664176940918,-1.1440764665603638,-1.8306320905685425,1.621225118637085,4
378,-13.949113845825195,29.826862335205078,7.900845050811768,-1.3976305723190308,-1.7084687948226929,1.6619905233383179,4
379,-12.877050399780273,23.024492263793945,6.970207214355469,-1.715158462524414,-1.7068361043930054,1.731477975845337,4
380,-5.437252044677734,3.5475311279296875,2.895456552505493,-1.9793658256530762,-1.7700610160827637,1.802506685256958,4
381,1.8411304950714111,-15.87992000579834,1.4764716625213623,-2.024315357208252,-1.20773446559906,1.8186712265014648,4
382,11.696554183959961,-33.02526092529297,1.088087797164917,-1.8266016244888306,-1.1842858791351318,1.8225915431976318,4
383,20.686996459960938,-38.59976577758789,0.4225350022315979,-1.6356269121170044,-0.9255689382553101,1.8716888427734375,4
384,25.7037410736084,-42.25153350830078,0.7092350721359253,-1.0836445093154907,-0.6779200434684753,1.8643853664398193,4
385,29.103466033935547,-47.31235885620117,1.2353684902191162,-0.9199758172035217,-0.19716107845306396,1.9269567728042603,4
386,23.830190658569336,-45.866092681884766,2.0141525268554688,-0.28889966011047363,0.09746213257312775,1.9210870265960693,4
387,8.608531951904297,-26.86881446838379,0.05701933056116104,0.08663342893123627,0.3883934020996094,1.9430476427078247,4
388,-9.167801856994629,-5.056798934936523,-5.150275230407715,0.3516307771205902,0.4449424147605896,1.9493751525878906,4
389,-19.9133358001709,8.081433296203613,-9.435612678527832,0.4058229625225067,0.38126230239868164,1.9205193519592285,4
390,-25.834569931030273,14.700222969055176,-14.135008811950684,0.30819717049598694,0.18834984302520752,1.8380006551742554,4
391,-20.590513229370117,22.85210609436035,-18.797550201416016,0.24528083205223083,-0.32133251428604126,1.7311031818389893,4
392,-14.292768478393555,31.07988166809082,-23.17212677001953,-0.02747676894068718,-0.0938391238451004,1.5140267610549927,4
393,-5.044449329376221,26.86670684814453,-24.531999588012695,-0.42313334345817566,-0.3108626902103424,1.2975183725357056,4
394,7.699412822723389,14.461965560913086,-24.989656448364258,-0.6937381029129028,-0.3774351477622986,1.051622748374939,4
395,11.976181983947754,-2.3150079250335693,-24.259180068969727,-0.9230910539627075,-0.3974180519580841,0.8010759353637695,4
396,10.13254451751709,-12.045317649841309,-24.54776382446289,-0.9026811718940735,-0.24619320034980774,0.5505635142326355,4
397,-3.647756814956665,-13.575994491577148,-23.854827880859375,-0.8614747524261475,-0.19434913992881775,0.3073911666870117,4
398,-14.733490943908691,-11.210222244262695,-22.941190719604492,-0.5204536318778992,-0.25311359763145447,0.08604566752910614,4
399,-25.781206130981445,-11.940095901489258,-22.576852798461914,-0.4873778223991394,-0.557791531085968,-0.14254140853881836,4
400,-32.77430725097656,-13.332010269165039,-21.60215187072754,-0.3864378333091736,-0.37725406885147095,-0.3910234868526459,4
401,-38.0756950378418,-10.0910005569458,-20.396190643310547,-0.2878669500350952,-0.5837244987487793,-0.6187852621078491,4
402,-43.48154830932617,-9.126127243041992,-19.759761810302734,-0.20826169848442078,-1.1824146509170532,-0.8131310343742371,4
403,-38.00040054321289,-1.4860963821411133,-18.537424087524414,-0.06559162586927414,-1.4830604791641235,-1.0165358781814575,4
404,-25.88410758972168,8.255090713500977,-13.926798820495605,-0.03220105543732643,-2.1523797512054443,-1.1881780624389648,4
405,-11.960309982299805,20.998992919921875,-6.704277992248535,-0.0872575119137764,-2.3713924884796143,-1.3477802276611328,4
406,-3.4134325981140137,36.25782775878906,-2.833936929702759,-0.4986417293548584,-2.580364465713501,-1.431577205657959,4
407,2.607633352279663,43.645172119140625,-3.7052860260009766,-0.930034875869751,-2.7024881839752197,-1.4735573530197144,4
408,7.324119567871094,26.982341766357422,-6.185055255889893,-1.259010672569275,-2.725900411605835,-1.5351877212524414,4
409,7.432089328765869,0.7929225564002991,-7.261687278747559,-1.4894917011260986,-2.3914437294006348,-1.6257307529449463,4
410,-5.734913349151611,-27.130233764648438,-9.828031539916992,-1.4598679542541504,-2.424290418624878,-1.7096282243728638,4
411,-18.297420501708984,-50.98497772216797,-14.221900939941406,-1.0276960134506226,-2.397568941116333,-1.8258798122406006,4
412,-27.662796020507812,-49.903324127197266,-20.108102798461914,-0.8108003735542297,-2.586110830307007,-1.9026790857315063,4
413,-30.800086975097656,-46.88489532470703,-21.473865509033203,0.004328856244683266,-2.923261880874634,-2.110069751739502,4
414,-24.016845703125,-51.34027862548828,-22.213478088378906,0.5324249267578125,-3.2301206588745117,-2.303398609161377,4
415,-10.46634292602539,-42.91792678833008,-21.717866897583008,1.5924453735351562,-3.6712870597839355,-2.6998910903930664,4
416,7.560060024261475,-17.8090763092041,-21.156606674194336,1.6816990375518799,-3.5924885272979736,-2.850743293762207,4
417,36.04267120361328,23.404661178588867,-17.63565444946289,1.3880563974380493,-3.2867558002471924,-2.9926159381866455,4
418,54.512474060058594,63.9158821105957,-17.140466690063477,0.7896288633346558,-2.6964993476867676,-3.1604490280151367,4
419,62.77089309692383,90.37871551513672,-14.79881763458252,0.6862030029296875,-2.7788474559783936,-3.1207783222198486,4
420,62.47840881347656,100.95748901367188,-14.218938827514648,-0.3760155141353607,-2.271026134490967,-3.2290310859680176,4
421,48.10628890991211,93.0571517944336,-13.429241180419922,-1.4694292545318604,-1.6764132976531982,-3.371293067932129,4
422,17.14951515197754,75.06583404541016,-10.11255931854248,-2.5372090339660645,-1.0906598567962646,-3.5099663734436035,4
423,-8.777056694030762,54.6616096496582,-7.054594993591309,-3.1139605045318604,-1.1384953260421753,-3.681922435760498,4
424,-12.832286834716797,28.333337783813477,-6.4842000007629395,-3.779031276702881,-1.2041122913360596,-3.7638280391693115,4
425,-7.281820297241211,-12.68140983581543,-4.900466442108154,-3.9658291339874268,-1.3566192388534546,-3.865302562713623,4
426,-6.81215763092041,-58.944068908691406,-2.510831356048584,-3.7603344917297363,-1.4255176782608032,-3.9551210403442383,4
427,-15.32040023803711,-83.50482940673828,-2.9439845085144043,-3.2167904376983643,-1.4863678216934204,-3.988111734390259,4
428,-22.343231201171875,-86.65309143066406,-3.009721279144287,-2.3640387058258057,-1.7499395608901978,-4.029743194580078,4
429,-20.569740295410156,-73.82854461669922,-1.6301913261413574,-1.4318269491195679,-2.031568765640259,-4.049477577209473,4
430,-12.953094482421875,-43.73554229736328,0.5972021818161011,-0.6900500655174255,-2.2790708541870117,-4.040623188018799,4
431,-0.4848991334438324,-16.66559600830078,3.44539213180542,0.11007654666900635,-2.413360834121704,-4.046098709106445,4
432,22.997766494750977,15.085258483886719,7.550084590911865,-0.12988147139549255,-2.3251407146453857,-3.9292008876800537,4
433,38.70925521850586,35.83860397338867,9.64925765991211,-0.22403809428215027,-1.9604804515838623,-3.845081329345703,4
434,43.74994659423828,40.30952072143555,12.037883758544922,-0.6631949543952942,-1.5746943950653076,-3.7420644760131836,4
435,50.51705551147461,38.58363342285156,14.266730308532715,-1.1908832788467407,-1.0791230201721191,-3.6150248050689697,4
436,64.78214263916016,31.912620544433594,17.066333770751953,-1.6076433658599854,-0.9133376479148865,-3.5052435398101807,4
437,71.07754516601562,23.402448654174805,21.540546417236328,-1.858994722366333,-0.28523337841033936,-3.353848457336426,4
438,78.05791473388672,8.241073608398438,27.948583602905273,-2.1327500343322754,0.5424174666404724,-3.140281915664673,4
439,83.89747619628906,-5.899350166320801,33.380767822265625,-2.16237735748291,1.0927687883377075,-2.9108145236968994,4
440,66.29630279541016,-5.912750720977783,33.81475830078125,-2.0171399116516113,2.5020225048065186,-2.5298328399658203,4
441,24.779129028320312,-5.853189945220947,27.054689407348633,-2.150482654571533,2.539734363555908,-2.2819130420684814,4
442,-6.431156635284424,-21.63887596130371,24.958717346191406,-1.8759299516677856,3.169018268585205,-1.9440861940383911,4
443,-30.147031784057617,-39.13066864013672,24.89769172668457,-1.6985594034194946,3.117218255996704,-1.709873914718628,4
444,-35.377681732177734,-34.97336959838867,24.42593002319336,-1.1566314697265625,2.663862943649292,-1.4781115055084229,4
445,-30.10935401916504,-29.9124755859375,26.197898864746094,-1.2617939710617065,2.247112512588501,-1.3588265180587769,4
446,-11.233242988586426,-23.406511306762695,28.266918182373047,-0.6390392184257507,1.8476881980895996,-1.0486814975738525,4
447,15.685816764831543,-11.003816604614258,27.523284912109375,-0.15706723928451538,1.7326855659484863,-0.7160559296607971,4
448,39.77028274536133,-5.498639106750488,27.14037322998047,-0.7331119179725647,2.0243897438049316,-0.6271623969078064,4
449,62.5161018371582,-6.530309200286865,33.982757568359375,-0.5911059379577637,2.4917213916778564,-0.33385899662971497,4
450,57.973907470703125,-7.361406326293945,35.13972091674805,-0.44587236642837524,3.0835626125335693,0.0030940701253712177,4
451,33.46345520019531,-9.149064064025879,29.53935432434082,-0.5033988952636719,3.715132713317871,0.30422475934028625,4
452,2.109523057937622,-9.907858848571777,23.63814353942871,-0.36984264850616455,3.9633584022521973,0.6169871687889099,4
453,-17.424039840698242,-10.772478103637695,20.037485122680664,-0.1611846685409546,4.111361980438232,0.903899073600769,4
454,-41.08881759643555,-5.9250593185424805,16.184310913085938,-0.013621959835290909,3.890935182571411,1.1164634227752686,4
455,-58.22865295410156,-10.482503890991211,15.689607620239258,0.2914467751979828,3.3668363094329834,1.3864381313323975,4
456,-64.47906494140625,-11.968426704406738,14.123255729675293,-0.06751842051744461,2.9104790687561035,1.326053500175476,4
457,-66.74392700195312,-7.566854000091553,13.45995807647705,0.03907857835292816,2.3185832500457764,1.451439380645752,4
458,-54.339111328125,-21.614072799682617,12.191629409790039,0.25309550762176514,1.7682889699935913,1.6415021419525146,4
459,-21.222122192382812,-38.96842575073242,9.813791275024414,0.4169067442417145,1.3232611417770386,1.7512905597686768,4
460,16.702503204345703,-46.53197479248047,8.089128494262695,0.9322383999824524,0.9245616793632507,1.934156060218811,4
461,32.59583282470703,-45.60388946533203,8.263471603393555,1.0999504327774048,1.0543595552444458,1.8801426887512207,4
462,18.365617752075195,-44.647098541259766,9.355927467346191,1.8958066701889038,1.317071557044983,2.093151807785034,4
463,-2.3044135570526123,-49.18474578857422,8.422435760498047,2.1310555934906006,1.627886414527893,2.079477071762085,4
464,-19.670923233032227,-35.79935073852539,6.512623310089111,2.901240587234497,1.602128505706787,2.274390935897827,4
465,-20.96582794189453,-11.163111686706543,4.811615467071533,3.0009896755218506,1.4542824029922485,2.2166855335235596,4
466,-22.10441780090332,7.923045635223389,0.8238618969917297,3.2673184871673584,1.241913914680481,2.2906129360198975,4
467,-13.02194595336914,16.794260025024414,-1.8455307483673096,3.189199447631836,1.0831149816513062,2.276221513748169,4
468,-1.379447102546692,40.80809020996094,-2.4983959197998047,2.988567352294922,0.8885154128074646,2.256028890609741,4
469,-5.718624591827393,58.66653060913086,-2.077674388885498,2.520686626434326,0.9651672840118408,2.1435391902923584,4
470,-16.362329483032227,70.25135803222656,-0.1672789603471756,1.9633396863937378,0.7767074704170227,2.1802854537963867,4
471,-29.60032844543457,72.70645904541016,3.8073925971984863,1.2552837133407593,0.6474360227584839,2.1761322021484375,4
472,-36.52931594848633,58.932003021240234,7.436584949493408,0.34293773770332336,0.6652253866195679,2.0524160861968994,4
473,-35.5945930480957,30.055721282958984,7.721381187438965,-0.423006147146225,0.1695813536643982,2.143035650253296,4
474,-27.745718002319336,-3.1275458335876465,6.248292922973633,-0.5700206756591797,-0.3141587972640991,2.324289560317993,4
475,-21.928630828857422,-27.181232452392578,4.552211284637451,-0.40643975138664246,-0.6741045713424683,2.4567880630493164,4
476,-14.631295204162598,-38.52611541748047,3.7742276191711426,-0.1499926745891571,-0.47747501730918884,2.401837110519409,4
477,-12.698432922363281,-43.36784744262695,4.394430160522461,0.15853622555732727,-0.5782851576805115,2.4191396236419678,4
478,-16.564254760742188,-41.462188720703125,3.1419198513031006,0.8608631491661072,-0.7821856737136841,2.52801251411438,4
479,-18.113615036010742,-32.67765808105469,1.663591980934143,1.1285583972930908,-0.8260786533355713,2.520773410797119,4
480,-16.075679779052734,-25.668846130371094,0.5441916584968567,1.6088263988494873,-1.1139763593673706,2.5887091159820557,4
481,-17.167062759399414,-16.097347259521484,-1.0919581651687622,1.860747218132019,-1.2948793172836304,2.6052589416503906,4
482,-19.526643753051758,-2.473611354827881,-3.44640851020813,2.1176209449768066,-1.553964614868164,2.6322953701019287,4
483,-22.81532859802246,11.229663848876953,-4.951169490814209,1.9225609302520752,-1.6122196912765503,2.565070629119873,4
484,-22.67669105529785,22.61394691467285,-7.8431291580200195,1.7859814167022705,-1.9586889743804932,2.558614730834961,4
485,-18.326454162597656,27.456899642944336,-9.711359024047852,1.5491416454315186,-2.2183995246887207,2.4914181232452393,4
486,-14.344050407409668,32.030094146728516,-9.874214172363281,1.3781590461730957,-2.327881336212158,2.358327627182007,4
487,-10.751465797424316,35.00967025756836,-9.25686264038086,0.9705624580383301,-2.446589469909668,2.245837688446045,4
488,-7.176013946533203,32.85000991821289,-9.40788745880127,0.5909087061882019,-2.589380979537964,2.1490066051483154,4
489,-3.148286819458008,25.10020637512207,-7.234260082244873,0.24421073496341705,-2.7465786933898926,2.0585474967956543,4
490,-1.7960556745529175,17.9729061126709,-5.611972808837891,-0.04758376628160477,-2.520456552505493,1.9023237228393555,4
491,-0.3556324243545532,11.321656227111816,-2.803126811981201,-0.1384514570236206,-2.5895509719848633,1.8288319110870361,4
492,-1.799769639968872,3.2193026542663574,0.5892500877380371,-0.20208530128002167,-2.6342806816101074,1.7828369140625,4
493,-0.4886791408061981,-3.794506072998047,4.413379669189453,-0.21491175889968872,-2.691423177719116,1.7759222984313965,4
494,9.96904182434082,-1.890608549118042,8.712071418762207,-0.35873064398765564,-2.636584997177124,1.8357511758804321,4
495,14.166583061218262,-0.8019543290138245,12.212156295776367,-0.34358423948287964,-2.5712530612945557,1.917176604270935,4
496,14.000901222229004,0.8896264433860779,16.958297729492188,-0.18639105558395386,-2.512587547302246,2.008382558822632,4
497,15.409106254577637,4.031802654266357,23.37334632873535,-0.14375436305999756,-2.2919113636016846,2.14749813079834,4
498,17.29258918762207,5.442771911621094,28.518369674682617,-0.1576891988515854,-2.193188428878784,2.3677611351013184,4
499,20.86931610107422,8.174559593200684,30.798099517822266,-0.1312234252691269,-1.953119158744812,2.617483139038086,4
500,14.867526054382324,14.214537620544434,29.72502899169922,-0.24555043876171112,-1.6073464155197144,2.916937828063965,4
501,3.6121506690979004,14.355149269104004,28.647367477416992,-0.28617167472839355,-1.68930184841156,3.213176727294922,4
502,-9.26463794708252,2.546860694885254,25.1899471282959,-0.9552045464515686,-1.6545851230621338,3.62945556640625,4
503,-23.580230712890625,-8.691306114196777,21.24269676208496,-0.932951807975769,-1.8021873235702515,3.8663904666900635,4
504,-18.105907440185547,-13.733658790588379,19.907093048095703,-0.7262176275253296,-2.075317144393921,4.052450180053711,4
505,-5.157649040222168,-15.359115600585938,20.616413116455078,-0.5908442139625549,-2.2120180130004883,4.254929065704346,4
506,15.07765007019043,-18.81962013244629,21.39906120300293,-0.3387446999549866,-2.359717607498169,4.436376571655273,4
507,30.928739547729492,-23.238794326782227,21.09831428527832,-0.1405431181192398,-2.0605459213256836,4.650722503662109,4
508,31.589008331298828,-24.852994918823242,20.896223068237305,-0.17464186251163483,-1.7197519540786743,4.928956985473633,4
509,26.181793212890625,-25.490821838378906,20.331804275512695,0.31042054295539856,-1.4804754257202148,5.084650993347168,4
510,16.578279495239258,-30.787904739379883,18.156005859375,0.4457866847515106,-1.1612322330474854,5.322710037231445,4
511,4.483546257019043,-36.50055694580078,17.52474021911621,0.9345207214355469,-1.0030796527862549,5.4655961990356445,4
512,-11.038884162902832,-40.98556137084961,17.29802131652832,0.9688543677330017,-1.187300443649292,5.726474761962891,4
513,-22.252361297607422,-37.9827766418457,16.771486282348633,1.6670384407043457,-1.2433924674987793,5.845925331115723,4
514,-24.83843994140625,-25.258102416992188,14.164727210998535,2.050062417984009,-1.6431632041931152,6.039535045623779,4
515,-22.127830505371094,-18.41592788696289,7.041621685028076,2.2887470722198486,-1.8600900173187256,6.199333667755127,4
516,-14.561580657958984,-18.212154388427734,0.8801328539848328,2.4180908203125,-1.8771474361419678,6.2746901512146,4
517,-4.865841388702393,-23.919429779052734,-4.134606838226318,2.699897050857544,-2.1584486961364746,6.30476188659668,4
518,10.308863639831543,-26.626014709472656,-10.27063274383545,3.028306245803833,-2.089498519897461,6.238259315490723,4
519,17.706626892089844,-11.510146141052246,-15.417068481445312,2.9359753131866455,-2.2061233520507812,6.264702796936035,4
520,15.34653091430664,13.796390533447266,-19.019954681396484,3.0968286991119385,-1.821083903312683,6.077523708343506,4
521,1.8157036304473877,24.7181339263916,-20.793193817138672,3.0217700004577637,-1.9683068990707397,5.979275703430176,4
522,-8.154752731323242,33.549224853515625,-21.179140090942383,2.7219722270965576,-1.7996535301208496,5.755303859710693,4
523,-6.5978593826293945,44.07164764404297,-18.369491577148438,2.371100425720215,-1.8479355573654175,5.5404582023620605,4
524,8.250088691711426,56.772972106933594,-16.81844711303711,1.9151558876037598,-2.149980306625366,5.412467002868652,4
525,35.23943328857422,78.39390563964844,-15.300280570983887,1.3164280652999878,-2.0520412921905518,5.22152853012085,4
526,58.172340393066406,83.09221649169922,-15.718116760253906,0.9732366800308228,-1.8005152940750122,4.978513717651367,4
527,63.80625915527344,68.23583221435547,-19.37598419189453,-0.10861627757549286,-1.1177836656570435,4.813425540924072,4
528,57.472347259521484,30.536396026611328,-22.857091903686523,-0.6470010280609131,-0.7262523174285889,4.6320481300354,4
529,47.384849548339844,-11.028254508972168,-29.146095275878906,-1.099233865737915,-0.033271994441747665,4.3994245529174805,4
530,35.36600875854492,-45.85896301269531,-31.3079891204834,-0.8751037120819092,0.39303362369537354,4.096051216125488,4
531,18.213695526123047,-58.574851989746094,-31.901573181152344,-0.3870313763618469,0.7235421538352966,3.7762017250061035,4
532,-5.945405960083008,-55.13639831542969,-34.05927658081055,0.11068490147590637,0.7953096628189087,3.479027032852173,4
533,-24.511999130249023,-45.69810104370117,-33.60227584838867,1.0317977666854858,0.8605226278305054,3.11234974861145,4
534,-27.783254623413086,-31.08094024658203,-32.03657150268555,1.071772575378418,0.4655359983444214,2.795093059539795,4
535,-18.610380172729492,-16.400671005249023,-32.7178955078125,1.6072918176651,0.23806409537792206,2.470005750656128,4
536,-5.9661149978637695,0.8913325667381287,-33.685340881347656,1.88302481174469,0.02219664677977562,2.155179738998413,4
537,6.831589698791504,19.963205337524414,-33.9461784362793,1.770296335220337,-0.146535724401474,1.8292820453643799,4
538,25.264257431030273,33.43425750732422,-30.781105041503906,1.5801161527633667,0.0951756089925766,1.4589780569076538,4
539,53.39596939086914,50.78756332397461,-26.225900650024414,1.220075011253357,0.20494228601455688,1.159488320350647,4
540,81.6549301147461,70.18236541748047,-21.814035415649414,0.808550238609314,0.8707454204559326,0.8746800422668457,4
541,96.51203918457031,84.89904022216797,-17.888906478881836,0.057103481143713,1.5084295272827148,0.6667829155921936,4
542,77.49019622802734,83.78119659423828,-12.81727409362793,-1.2297847270965576,2.470672130584717,0.4585542678833008,4
543,37.338829040527344,65.01698303222656,-8.91064453125,-2.07989501953125,2.903210401535034,0.38493138551712036,4
544,3.541609048843384,42.37512969970703,-5.651397228240967,-2.8004353046417236,3.603093147277832,0.32516974210739136,4
545,-23.975522994995117,13.521065711975098,-3.2903833389282227,-3.3742270469665527,3.5547757148742676,0.265336811542511,4
546,-46.242828369140625,-21.52541160583496,-9.056821823120117,-3.2799298763275146,3.3102519512176514,0.3134438693523407,4
547,-49.852787017822266,-49.40968322753906,-18.029489517211914,-2.9572324752807617,2.724144697189331,0.27716758847236633,4
548,-35.82717514038086,-57.59104537963867,-26.093650817871094,-2.464477300643921,2.367664098739624,0.147827610373497,4
549,-8.275940895080566,-49.22581100463867,-31.880491256713867,-1.6021093130111694,1.9903960227966309,-0.007216874044388533,4
550,24.599353790283203,-32.651336669921875,-35.62199401855469,-1.03382408618927,1.9519643783569336,-0.2828574478626251,4
551,56.23948669433594,-8.24594497680664,-35.33304977416992,-0.900009274482727,2.1313891410827637,-0.709919810295105,4
552,68.2870101928711,19.163530349731445,-34.64295959472656,-1.0078264474868774,2.9264841079711914,-1.0878785848617554,4
553,73.16309356689453,37.202701568603516,-34.453330993652344,-1.2178257703781128,3.984016180038452,-1.365313172340393,4
554,70.25296020507812,40.94086837768555,-34.151153564453125,-1.6733882427215576,4.173488140106201,-1.8403493165969849,4
555,51.817840576171875,43.38161849975586,-34.19337844848633,-2.1865293979644775,5.375798225402832,-2.070711851119995,4
556,43.71652603149414,32.982269287109375,-33.22067642211914,-2.785849094390869,5.483668804168701,-2.5465447902679443,4
557,24.050127029418945,15.104602813720703,-30.103729248046875,-2.8982489109039307,5.835862636566162,-2.733609676361084,4
558,0.1067737266421318,-7.4988603591918945,-27.75586700439453,-3.0904970169067383,6.0885701179504395,-3.0041494369506836,4
559,-17.051918029785156,-36.9189453125,-21.444509506225586,-2.895570755004883,6.206206798553467,-3.1585490703582764,4
560,-28.53734588623047,-48.92817306518555,-16.85909080505371,-2.6839241981506348,5.992755889892578,-3.4817075729370117,4
561,-38.85395431518555,-44.505245208740234,-12.002070426940918,-2.128204584121704,5.629849910736084,-3.659242868423462,4
562,-49.10365295410156,-43.681419372558594,-9.004902839660645,-1.334679126739502,5.330852508544922,-3.597242832183838,4
563,-47.17109298706055,-38.77002716064453,-7.149925708770752,-1.3461261987686157,4.742044448852539,-4.051813125610352,4
564,-32.28147888183594,-26.473928451538086,1.9290794134140015,-0.9233236908912659,4.160299301147461,-4.174993991851807,4
565,-3.1959710121154785,-23.133703231811523,2.325221538543701,-0.6570407152175903,3.9638214111328125,-4.1591057777404785,4
566,11.957215309143066,-22.48472023010254,1.7505289316177368,-0.461139976978302,3.866795301437378,-4.161170959472656,4
567,15.227293014526367,-18.46832847595215,-0.5527427196502686,0.24456913769245148,4.163520336151123,-3.823077440261841,4
568,15.414164543151855,-3.661053419113159,-7.066872596740723,0.19455486536026,4.43902063369751,-3.963653802871704,4
569,13.251350402832031,10.72728443145752,-13.99703311920166,0.2928772270679474,4.610762119293213,-4.010147571563721,4
570,-4.3199005126953125,16.258665084838867,-17.158973693847656,-0.027279939502477646,4.7450971603393555,-4.268826484680176,4
571,-28.729780197143555,28.50990104675293,-17.411136627197266,-0.23824115097522736,4.67746114730835,-4.452103614807129,4
572,-51.684207916259766,39.98190689086914,-16.45642852783203,-0.458898663520813,4.654184341430664,-4.517737865447998,4
573,-73.25989532470703,34.79216003417969,-13.652992248535156,-1.0076228380203247,3.846003293991089,-4.819845199584961,4
574,-88.94689178466797,28.210914611816406,-8.023605346679688,-1.329985499382019,3.4562137126922607,-4.8642964363098145,4
575,-81.1705322265625,23.923206329345703,-1.207812786102295,-1.629746675491333,2.697305917739868,-4.919076442718506,4
576,-56.39809799194336,21.557655334472656,2.2076010704040527,-1.9564635753631592,1.6312735080718994,-5.0178141593933105,4
577,-25.7167911529541,-0.15445013344287872,6.433883190155029,-2.1640074253082275,1.083392858505249,-4.973785877227783,4
578,10.687409400939941,-26.33766746520996,12.094188690185547,-2.1118955612182617,0.9120287299156189,-4.850794315338135,4
579,32.07927322387695,-35.38901901245117,18.19973373413086,-1.822542428970337,1.0171135663986206,-4.694289684295654,4
580,33.67176818847656,-37.02547836303711,22.85857391357422,-1.1815989017486572,1.4541369676589966,-4.352784633636475,4
581,27.085010528564453,-36.9760627746582,24.16197967529297,-1.176965594291687,1.933028221130371,-4.271413803100586,4
582,3.3720650672912598,-29.528608322143555,27.102521896362305,-0.6779518723487854,2.2701375484466553,-3.9921045303344727,4
583,-29.15484619140625,-18.489530563354492,29.302289962768555,-0.3285696506500244,2.2110631465911865,-3.7461609840393066,4
584,-42.357666015625,-16.253067016601562,30.25324249267578,-0.11395099759101868,1.6304540634155273,-3.5227458477020264,4
585,-48.932411193847656,-19.099958419799805,31.306421279907227,-0.20545481145381927,1.4377104043960571,-3.2733683586120605,4
586,-44.03334426879883,-20.090614318847656,32.06745910644531,-0.004657378885895014,0.95455402135849,-2.935462713241577,4
587,-47.1248779296875,-14.749554634094238,30.082141876220703,0.49130919575691223,0.33921241760253906,-2.566844940185547,4
588,-59.44911575317383,-4.835257053375244,25.595396041870117,0.7619127631187439,0.02290462888777256,-2.21976375579834,4
589,-63.98078918457031,9.327123641967773,21.882661819458008,0.7746278047561646,-0.6399139165878296,-1.9759479761123657,4
590,-57.995033264160156,21.03684425354004,15.601451873779297,0.4545699954032898,-1.2002171277999878,-1.7927322387695312,4
591,-53.227027893066406,20.05890464782715,7.1870622634887695,0.294940322637558,-1.9686092138290405,-1.6456758975982666,4
592,-32.42243194580078,18.549562454223633,2.4474730491638184,0.006549498997628689,-2.775390386581421,-1.6034274101257324,4
593,-1.9230691194534302,12.988058090209961,0.15699274837970734,-0.12104330956935883,-2.6980066299438477,-1.564179539680481,4
594,26.568641662597656,-2.748169183731079,-1.1610231399536133,-0.22730295360088348,-2.678518295288086,-1.566576600074768,4
595,31.578935623168945,-15.851128578186035,-0.22290128469467163,-0.3806518316268921,-2.3518805503845215,-1.5668567419052124,4
596,20.871862411499023,-24.808626174926758,0.4897601306438446,0.0074040237814188,-2.018556594848633,-1.590498447418213,4
597,11.941596031188965,-33.46331024169922,0.5616845488548279,0.3787067234516144,-1.7830296754837036,-1.5991597175598145,4
598,16.434385299682617,-29.69597816467285,2.616482973098755,1.0187091827392578,-1.687966227531433,-1.6433173418045044,4
599,22.952678680419922,-22.662967681884766,10.763235092163086,0.958717405796051,-1.6511861085891724,-1.5388634204864502,4
600,15.699921607971191,-12.580962181091309,13.936840057373047,1.3346599340438843,-1.4495561122894287,-1.468137264251709,4
601,0.5917482376098633,1.3543784618377686,17.129159927368164,1.2311960458755493,-1.2786961793899536,-1.2702903747558594,4
602,-25.747676849365234,24.328746795654297,18.836063385009766,1.2884083986282349,-1.368611216545105,-1.1163725852966309,4
603,-46.49763870239258,48.46877670288086,21.456716537475586,0.9416400194168091,-1.5146214962005615,-0.9132266640663147,4
604,-56.3148078918457,66.7500991821289,21.39948081970215,0.03401744365692139,-2.259704828262329,-0.5773652195930481,4
605,-33.14140701293945,59.39021682739258,20.294071197509766,-0.818511962890625,-2.402686595916748,-0.3655731976032257,4
606,-3.5829122066497803,33.7844123840332,19.901700973510742,-1.5225718021392822,-2.7291316986083984,-0.1713128536939621,4
607,22.060012817382812,8.380162239074707,18.856172561645508,-1.8798397779464722,-2.792245864868164,-0.0014700404135510325,4
608,50.231563568115234,-22.816234588623047,18.70091438293457,-1.9059467315673828,-2.4473187923431396,0.14906543493270874,4
609,60.947269439697266,-49.76967239379883,16.575929641723633,-1.3850215673446655,-1.6848114728927612,0.21802063286304474,4
610,46.12117385864258,-72.62350463867188,17.236976623535156,-0.8952302932739258,-1.2508543729782104,0.3827001750469208,4
611,25.62689781188965,-82.3398666381836,17.398284912109375,0.20850370824337006,-0.5703458189964294,0.40633752942085266,4
612,6.348030090332031,-70.4509506225586,16.024093627929688,0.5164623260498047,-0.5722411274909973,0.777380108833313,4
613,-14.257590293884277,-45.29990768432617,16.20355987548828,1.5115907192230225,-0.6473932266235352,0.8344371914863586,4
614,-24.3286075592041,-18.73575210571289,22.37026596069336,1.665372371673584,-0.8284484148025513,1.120518445968628,4
615,-30.355859756469727,6.534756660461426,27.84602928161621,1.937164306640625,-1.0863412618637085,1.3148090839385986,4
616,-45.618831634521484,27.821672439575195,33.564720153808594,1.851151704788208,-1.3145848512649536,1.5943962335586548,4
617,-59.03124237060547,45.236576080322266,39.00761795043945,1.2361348867416382,-1.5716696977615356,2.0213420391082764,4
618,-65.25114440917969,50.97572326660156,41.924034118652344,0.5936022400856018,-2.368070602416992,2.4670140743255615,4
619,-58.5364990234375,38.256919860839844,44.70183563232422,-0.04246813431382179,-2.6924421787261963,2.8741960525512695,4
620,-41.14845275878906,9.350675582885742,45.96003723144531,-0.4397086501121521,-3.461609125137329,3.3010222911834717,4
621,-22.206119537353516,-16.446367263793945,46.22622299194336,-0.45423561334609985,-3.3554656505584717,3.6725900173187256,4
622,-4.403529167175293,-40.05828094482422,47.304115295410156,-0.16618305444717407,-3.669867753982544,4.0860490798950195,4
623,14.207422256469727,-53.8608283996582,49.38909149169922,0.4143635928630829,-3.750544548034668,4.497934818267822,4
624,33.71487045288086,-62.20774841308594,49.143802642822266,0.8696805834770203,-3.4392776489257812,5.02669620513916,4
625,43.67425537109375,-55.46720504760742,48.762386322021484,1.7416969537734985,-2.9476466178894043,5.493654727935791,4
626,34.519309997558594,-38.867225646972656,47.90382385253906,2.342125177383423,-2.5072717666625977,5.966980457305908,4
627,9.699589729309082,-27.38844108581543,45.63259506225586,2.9798166751861572,-2.3138275146484375,6.3519721031188965,4
628,-17.339693069458008,-19.121471405029297,40.20276641845703,3.0797958374023438,-2.2565674781799316,6.88911771774292,4
629,-37.322566986083984,-6.797661781311035,36.16057205200195,3.1302428245544434,-2.7294111251831055,7.394474029541016,4
630,-54.716896057128906,9.313802719116211,30.812335968017578,3.1225481033325195,-3.16260027885437,7.793133735656738,4
631,-57.0904655456543,18.877851486206055,27.855329513549805,3.012706995010376,-4.213293075561523,8.192955017089844,4
632,-48.71031188964844,17.80645179748535,25.38759994506836,2.732708692550659,-4.478726387023926,8.420282363891602,4
633,-49.43182373046875,7.284275054931641,20.937280654907227,2.6050403118133545,-5.384735584259033,8.7236328125,4
634,-41.874061584472656,3.9102632999420166,15.656352043151855,2.5297091007232666,-5.749442100524902,8.880420684814453,4
635,-21.77713966369629,6.0236663818359375,14.127110481262207,2.433950662612915,-6.170971870422363,9.054302215576172,4
636,8.230173110961914,4.231250762939453,12.510008811950684,2.294097900390625,-6.126322269439697,9.147518157958984,4
637,39.954593658447266,7.712592601776123,10.77743148803711,2.264619827270508,-6.201617240905762,9.288722038269043,4
638,66.37899017333984,23.32890510559082,10.936436653137207,2.08044695854187,-5.58955717086792,9.375231742858887,4
639,87.50223541259766,46.270633697509766,12.789545059204102,1.7923696041107178,-4.844616413116455,9.468033790588379,4
640,90.8967514038086,67.95748138427734,15.362159729003906,1.1098613739013672,-3.8682188987731934,9.668025016784668,4
641,78.40697479248047,82.57478332519531,17.907180786132812,0.3186747431755066,-3.048600673675537,9.878076553344727,4
642,52.570743560791016,91.461669921875,22.566871643066406,-0.7263014912605286,-2.267324209213257,10.15058422088623,4
643,26.268341064453125,86.36969757080078,28.443634033203125,-1.4659510850906372,-1.8107103109359741,10.242019653320312,4
644,3.1130433082580566,66.62946319580078,32.13648986816406,-2.1805081367492676,-2.012826919555664,10.488131523132324,4
645,-12.547002792358398,41.28971481323242,34.40279769897461,-2.9562954902648926,-1.8440322875976562,10.841618537902832,4
646,-28.12628173828125,20.501747131347656,31.73831558227539,-3.2395169734954834,-2.0916125774383545,11.091650009155273,4
647,-32.37083053588867,-17.98049545288086,25.725387573242188,-3.526742935180664,-2.5053482055664062,11.442822456359863,4
648,-24.85867691040039,-60.89260482788086,18.43671417236328,-3.1694839000701904,-2.685791492462158,11.609482765197754,4
649,-0.3400922417640686,-91.5474853515625,17.347259521484375,-2.1043543815612793,-3.012749433517456,11.580853462219238,4
650,24.50870132446289,-102.1498794555664,19.14226722717285,-1.284879207611084,-2.936044692993164,11.843317985534668,4
651,43.42208480834961,-91.31172180175781,20.56894874572754,0.1507507711648941,-2.2037384510040283,11.939940452575684,4
652,60.01365661621094,-74.98234558105469,20.64130210876465,0.900691568851471,-3.0113818645477295,12.095526695251465,4
653,71.70423126220703,-50.60192108154297,18.128713607788086,2.014164447784424,-2.099897623062134,12.213165283203125,4
654,77.61163330078125,-26.056720733642578,13.075329780578613,1.9353013038635254,-1.7090390920639038,12.63821029663086,4
655,70.78034210205078,-4.821584701538086,8.501274108886719,2.235590696334839,-0.8863562345504761,12.762166023254395,4
656,59.605628967285156,15.342606544494629,4.269056797027588,2.18639874458313,0.10426365584135056,12.909943580627441,4
657,41.25291442871094,28.523279190063477,2.5701661109924316,1.9947303533554077,0.37673652172088623,12.97713851928711,4
658,7.726949691772461,29.9523983001709,-2.0279805660247803,1.5933791399002075,0.8804677724838257,13.051822662353516,4
659,-18.478382110595703,34.41435241699219,-8.084624290466309,1.139133095741272,1.135604739189148,13.087870597839355,4
660,-29.076400756835938,33.21090316772461,-13.523138999938965,0.7958511114120483,0.8125748634338379,13.021710395812988,4
661,-30.924182891845703,29.0970458984375,-17.202171325683594,0.4613296687602997,0.5412054061889648,12.894561767578125,4
662,-27.992197036743164,16.463825225830078,-20.457128524780273,0.05972515046596527,0.14612969756126404,12.742151260375977,4
663,-10.148946762084961,2.2257227897644043,-21.82634162902832,-0.05147170275449753,-0.02089102566242218,12.532148361206055,4
664,21.0344181060791,-7.190066814422607,-22.34441566467285,0.001290331594645977,0.028728334233164787,12.309403419494629,4
665,51.31893539428711,-6.415738582611084,-21.940279006958008,0.20402900874614716,0.45504429936408997,12.081022262573242,4
666,82.00273132324219,0.21086575090885162,-18.32273292541504,0.13855107128620148,1.2053232192993164,11.86759090423584,4
667,94.84950256347656,8.285157203674316,-12.685004234313965,0.19394099712371826,1.9183638095855713,11.684347152709961,4
668,75.63953399658203,24.02253532409668,-4.587810039520264,0.12494733929634094,3.1255643367767334,11.564411163330078,4
669,41.44203186035156,41.195716857910156,2.4060709476470947,-0.29770219326019287,3.746358871459961,11.519641876220703,4
670,1.4821264743804932,47.73831558227539,7.00226354598999,-0.748350977897644,4.050669193267822,11.555403709411621,4
671,-19.952560424804688,34.30240249633789,4.4640021324157715,-1.3032605648040771,4.0111165046691895,11.629053115844727,4
672,-24.826818466186523,6.802604675292969,-1.0708972215652466,-1.7157145738601685,3.7504749298095703,11.684518814086914,4
673,-21.309202194213867,-19.078535079956055,-7.450096607208252,-1.6565214395523071,3.4924302101135254,11.732136726379395,4
674,-8.746362686157227,-38.12987518310547,-14.340211868286133,-1.2054797410964966,3.386228561401367,11.740815162658691,4
675,4.903166770935059,-43.22403335571289,-21.067907333374023,-0.8100260496139526,3.322033643722534,11.59246826171875,4
676,24.1997127532959,-49.475833892822266,-24.471023559570312,-0.24422326683998108,3.4978020191192627,11.430171966552734,4
677,30.526546478271484,-56.79259490966797,-28.25550079345703,0.1137385293841362,3.9767847061157227,11.133219718933105,4
678,11.90780258178711,-58.002864837646484,-35.273136138916016,1.1336696147918701,4.398032188415527,11.02706241607666,4
679,-16.00214958190918,-48.91476821899414,-42.521583557128906,1.2520121335983276,4.2757978439331055,10.404596328735352,4
680,-51.088294982910156,-31.0067138671875,-49.13960647583008,2.0024211406707764,3.971311330795288,10.084747314453125,4
681,-78.51791381835938,0.5381062626838684,-60.114627838134766,2.2716712951660156,3.426471710205078,9.565534591674805,4
682,-94.48771667480469,40.45115280151367,-65.0330810546875,2.116727113723755,2.2726030349731445,8.890645980834961,4
683,-101.36382293701172,76.7553482055664,-66.03741455078125,1.241980791091919,1.730163335800171,8.021499633789062,4
684,-99.76766967773438,106.02483367919922,-66.49885559082031,0.32087442278862,0.9008471369743347,7.318172454833984,4
685,-86.57550811767578,124.9332046508789,-67.32417297363281,-1.1741043329238892,-0.2879382073879242,6.430343151092529,4
686,-69.64107513427734,114.04365539550781,-65.83396911621094,-2.3070595264434814,-1.1123305559158325,5.802642345428467,4
687,-37.90073776245117,77.6255874633789,-62.868682861328125,-3.6654326915740967,-2.1005587577819824,4.956959247589111,4
688,7.458100318908691,29.804224014282227,-56.54170608520508,-4.34177827835083,-2.4340429306030273,4.33380651473999,4
689,59.98177719116211,-26.41953468322754,-51.64237594604492,-4.310734748840332,-2.1703171730041504,3.9248907566070557,4
690,110.09996795654297,-73.12188720703125,-48.89958190917969,-3.8786041736602783,-1.3941611051559448,3.5141232013702393,4
691,138.73704528808594,-101.72844696044922,-44.12338638305664,-2.639291524887085,0.24274779856204987,3.3464763164520264,4
692,133.3856658935547,-114.81568908691406,-36.54469680786133,-1.591991901397705,1.606354832649231,2.9025747776031494,4
693,100.38027954101562,-112.88445281982422,-28.02534294128418,0.1286669224500656,3.572896957397461,2.8314759731292725,4
694,74.23332977294922,-92.64405059814453,-18.104686737060547,0.9066051244735718,3.711988925933838,2.1433260440826416,4
695,48.607337951660156,-59.314208984375,-9.327940940856934,1.3645410537719727,4.017012119293213,1.6659108400344849,4
696,19.430072784423828,-20.061553955078125,-0.4117131531238556,2.1626009941101074,4.792893409729004,1.6615042686462402,4
697,-20.800058364868164,31.20304298400879,7.776131629943848,2.249849557876587,4.694900035858154,1.588485598564148,4
698,-45.230796813964844,64.99816131591797,16.229421615600586,1.713713526725769,4.306761264801025,1.5951942205429077,4
699,-70.42618560791016,78.25350189208984,22.594587326049805,0.8378402590751648,4.034769535064697,1.748164176940918,4
700,-102.85061645507812,74.84201049804688,26.249624252319336,-0.2988503873348236,2.886061906814575,1.8175526857376099,4
701,-118.12670135498047,59.35892868041992,30.075077056884766,-0.9264972805976868,2.0025928020477295,2.166844129562378,4
702,-122.91596984863281,45.411376953125,29.60325813293457,-1.6351219415664673,0.3976382911205292,2.3768532276153564,4
703,-100.33206176757812,25.082801818847656,22.55126953125,-2.022137403488159,-0.5319435596466064,2.734325408935547,4
704,-52.370304107666016,-15.324934005737305,15.95712947845459,-2.032257318496704,-1.0598475933074951,3.122804641723633,4
705,-11.273852348327637,-51.34635925292969,16.238189697265625,-1.78142249584198,-1.8319302797317505,3.3021254539489746,4
706,2.1601755619049072,-81.328369140625,17.290807723999023,-1.113747477531433,-1.7160240411758423,3.584243059158325,4
707,0.822289228439331,-97.14920043945312,15.83553409576416,0.11413281410932541,-1.4238946437835693,3.9539592266082764,4
708,-2.0645811557769775,-87.37911987304688,11.15212345123291,0.9486537575721741,-1.3172610998153687,4.118439674377441,4
709,16.300737380981445,-50.63250732421875,11.709765434265137,1.9823315143585205,-1.3869515657424927,4.28048038482666,4
710,33.427703857421875,-4.8251447677612305,8.512642860412598,2.4420878887176514,-1.2267285585403442,4.398791790008545,4
711,53.345306396484375,33.49628448486328,5.595284938812256,2.4324121475219727,-0.6878153681755066,4.494225025177002,4
712,71.93087005615234,45.85669708251953,3.91282057762146,1.912902593612671,-0.13566377758979797,4.529156684875488,4
713,78.87906646728516,44.97005844116211,0.30790555477142334,1.2766318321228027,0.6992486715316772,4.557346343994141,4
714,72.23780822753906,41.364620208740234,-6.736830234527588,0.5857866406440735,1.4013340473175049,4.554503440856934,4
715,52.332183837890625,23.039644241333008,-11.098560333251953,0.2480483055114746,2.1484761238098145,4.506602764129639,4
716,8.601029396057129,-2.035825729370117,-12.551495552062988,0.05495435744524002,2.8112688064575195,4.406724452972412,4
717,-39.439083099365234,-16.25352668762207,-14.927668571472168,0.20168617367744446,2.799001693725586,4.290806770324707,4
718,-64.56016540527344,-21.851613998413086,-14.651857376098633,0.5401773452758789,2.0198476314544678,4.164660930633545,4
719,-63.31650161743164,-20.175804138183594,-14.445978164672852,0.7479197978973389,0.9677109718322754,4.021930694580078,4
720,-53.421897888183594,-6.464484691619873,-15.422605514526367,0.9785139560699463,0.3436175286769867,3.8789777755737305,4
721,-34.53742218017578,-2.6503489017486572,-15.45569133758545,0.8973678350448608,-0.17419879138469696,3.703571319580078,4
722,-12.9015474319458,-11.746320724487305,-15.194408416748047,1.025315761566162,-0.2892295718193054,3.5527853965759277,4
723,3.130642890930176,-12.579951286315918,-14.669747352600098,1.1339765787124634,-0.29904964566230774,3.3937177658081055,4
724,15.743690490722656,2.355334758758545,-10.910229682922363,1.312966227531433,-0.2825833857059479,3.2562625408172607,4
725,27.326263427734375,22.088912963867188,-6.606165885925293,1.289688229560852,-0.04668131843209267,3.1433043479919434,4
726,32.635345458984375,31.4708309173584,-5.871481895446777,0.9574406147003174,0.21830260753631592,3.0695290565490723,4
727,21.3786678314209,38.28439712524414,-6.106493949890137,0.5606515407562256,0.7141054272651672,2.99088191986084,4
728,6.058511734008789,36.631378173828125,-2.8842921257019043,0.19050602614879608,0.7429338097572327,2.9501049518585205,4
729,-1.122613549232483,22.208332061767578,-2.6168417930603027,-0.352908194065094,0.8503412008285522,2.91451096534729,4
730,-10.991570472717285,-12.364705085754395,-6.365415096282959,-0.36863937973976135,0.9825598001480103,2.8897736072540283,4
731,-23.227882385253906,-45.29505157470703,-10.269556045532227,-0.09035973250865936,0.6178370714187622,2.849606513977051,4
732,-31.875547409057617,-70.23450469970703,-15.708230018615723,0.5825583338737488,0.5432481169700623,2.745290756225586,4
733,-32.576995849609375,-78.01676177978516,-20.505050659179688,1.489465355873108,-0.08199808746576309,2.5955145359039307,4
734,-24.965532302856445,-62.99629592895508,-20.83407211303711,2.290947437286377,-0.2745843529701233,2.388345956802368,4
735,-31.336261749267578,-23.813453674316406,-19.370933532714844,2.6117358207702637,-0.437966525554657,2.1642227172851562,4
736,-49.34455871582031,12.25791072845459,-15.976746559143066,2.8569588661193848,-0.8057644963264465,1.978863000869751,4
737,-57.94314193725586,49.096466064453125,-10.707298278808594,2.6352040767669678,-1.3954010009765625,1.8273643255233765,4
738,-50.397281646728516,82.82393646240234,-8.798973083496094,1.7936543226242065,-1.8658204078674316,1.689766764640808,4
739,-37.002044677734375,101.02827453613281,-10.686689376831055,0.9209120273590088,-2.3240609169006348,1.564775824546814,4
740,-30.846546173095703,95.99579620361328,-15.205986022949219,-0.3761855959892273,-2.895326852798462,1.4529328346252441,4
741,-24.88576889038086,72.87933349609375,-21.914091110229492,-0.8926451206207275,-2.671513557434082,1.1383899450302124,4
742,-7.174875736236572,39.944923400878906,-28.8787784576416,-1.8661857843399048,-2.8056540489196777,0.8988953232765198,4
743,17.041261672973633,10.628802299499512,-34.179473876953125,-2.267137289047241,-2.860898733139038,0.5922167301177979,4
744,41.34109115600586,-12.758770942687988,-35.78364944458008,-2.0919675827026367,-2.5490922927856445,0.1687271147966385,4
745,56.500728607177734,-33.19187545776367,-36.272003173828125,-1.697495460510254,-1.8587549924850464,-0.22975559532642365,4
746,68.09674072265625,-49.1900634765625,-33.81728744506836,-1.2217086553573608,-1.261083960533142,-0.599139928817749,4
747,63.743988037109375,-55.63872146606445,-28.70791244506836,-0.45102986693382263,-0.6641860008239746,-0.9833254218101501,4
748,41.44955062866211,-54.009464263916016,-24.595163345336914,0.20939920842647552,0.24976901710033417,-1.271806001663208,4
749,5.716885089874268,-40.89812469482422,-23.00208282470703,0.9433918595314026,0.6068291664123535,-1.571822166442871,4
750,-27.759883880615234,-22.52657699584961,-23.038402557373047,1.3447866439819336,0.44200730323791504,-1.8214696645736694,4
751,-55.388702392578125,-0.6860652565956116,-21.144407272338867,1.4000203609466553,-0.47506481409072876,-2.036895990371704,4
752,-60.679901123046875,24.3228702545166,-19.62593650817871,0.7839120030403137,-1.106651782989502,-2.13708758354187,4
753,-46.292503356933594,40.962860107421875,-15.852206230163574,0.34937784075737,-1.8207625150680542,-2.3023951053619385,4
754,-24.936466217041016,51.16568374633789,-14.953125953674316,-0.17176882922649384,-2.3784070014953613,-2.456376552581787,4
755,-11.086458206176758,53.84454345703125,-15.00192928314209,-0.6818975806236267,-2.317413806915283,-2.6321189403533936,4
756,-1.5869442224502563,40.08833694458008,-10.806480407714844,-1.4583449363708496,-2.3112316131591797,-2.7302587032318115,4
757,-6.058281421661377,17.706157684326172,-8.607169151306152,-1.7148200273513794,-2.325061321258545,-2.870039939880371,4
758,1.6516401767730713,-3.9336540699005127,-4.983149528503418,-1.8414191007614136,-2.376457452774048,-2.953011989593506,4
759,8.40981388092041,-14.541579246520996,-6.54121208190918,-1.645573616027832,-2.3529772758483887,-3.031999111175537,4
760,-0.07352832704782486,-19.108474731445312,-12.989949226379395,-1.4552292823791504,-2.1843130588531494,-3.103311777114868,4
761,-19.938514709472656,-9.066214561462402,-17.300079345703125,-1.2033438682556152,-2.238621234893799,-3.257495641708374,4
762,-20.341720581054688,13.349812507629395,-16.3679256439209,-1.121246337890625,-2.6404662132263184,-3.4625003337860107,4
763,-2.1686224937438965,15.111209869384766,-17.182147979736328,-1.3429430723190308,-2.8633971214294434,-3.6120805740356445,4
764,21.31572723388672,7.161952495574951,-18.057357788085938,-1.7198832035064697,-2.7487399578094482,-3.7024471759796143,4
765,36.6767463684082,-1.5866916179656982,-19.910615921020508,-1.7051266431808472,-2.342280387878418,-3.882835626602173,4
766,48.454681396484375,-19.46537971496582,-23.635120391845703,-1.5842368602752686,-1.7806828022003174,-4.0803093910217285,4
767,59.119361877441406,-34.3535041809082,-27.763032913208008,-1.2205796241760254,-1.1291191577911377,-4.330745697021484,4
768,54.36369323730469,-42.37200164794922,-30.694490432739258,-1.045955777168274,-0.6336532235145569,-4.563732624053955,4
769,33.067962646484375,-40.42414855957031,-30.16910743713379,-0.3561408519744873,0.09334129840135574,-4.910200595855713,4
770,6.180472373962402,-22.72296905517578,-29.62957000732422,0.06333530694246292,0.12611351907253265,-5.2754316329956055,4
771,-34.026607513427734,3.9427778720855713,-23.500364303588867,0.23165468871593475,0.07581444829702377,-5.561649322509766,4
772,-66.52554321289062,31.458799362182617,-16.243133544921875,-0.09071233123540878,-0.6631132960319519,-5.779637813568115,4
773,-75.56745147705078,37.65662384033203,-9.002580642700195,-0.6936491131782532,-1.5295480489730835,-5.8904266357421875,4
774,-59.81341552734375,38.09960174560547,-3.036407947540283,-1.2293627262115479,-2.208925724029541,-5.939639091491699,4
775,-31.05320930480957,26.806909561157227,5.426825046539307,-1.6081140041351318,-2.5084388256073,-5.927640438079834,4
776,0.9497660994529724,7.185214996337891,16.363609313964844,-1.7557744979858398,-2.844792604446411,-5.895638465881348,4
777,42.75006103515625,-8.626432418823242,23.376596450805664,-1.6731369495391846,-2.431759834289551,-5.68722677230835,4
778,71.94976043701172,-14.876670837402344,26.1656494140625,-1.4534484148025513,-1.7462668418884277,-5.442612648010254,4
779,82.96507263183594,-20.654468536376953,26.172134399414062,-1.356872320175171,-1.0416169166564941,-5.172458648681641,4
780,75.16353607177734,-32.84413528442383,25.599063873291016,-0.8942176699638367,0.19053368270397186,-4.886637210845947,4
781,55.10812759399414,-45.99087142944336,25.334917068481445,-0.8548370003700256,0.5851274728775024,-4.619425296783447,4
782,23.83673858642578,-41.83433532714844,28.41520118713379,-0.17812193930149078,1.0653239488601685,-4.418837070465088,4
783,-5.902516841888428,-38.610382080078125,33.815765380859375,0.33232298493385315,1.1824721097946167,-4.16403341293335,4
784,-41.43938064575195,-33.355316162109375,39.256195068359375,0.4142320454120636,0.7476925253868103,-3.816227436065674,4
785,-65.95755767822266,-17.44043731689453,47.21989059448242,0.9932402968406677,-0.06331194192171097,-3.489439010620117,4
786,-71.93107604980469,-0.8193573355674744,56.92551040649414,1.1826273202896118,-0.8986092805862427,-3.0186986923217773,4
787,-65.85135650634766,9.033074378967285,65.74174499511719,1.0214742422103882,-1.7698009014129639,-2.434307813644409,4
788,-56.35881423950195,21.576980590820312,70.5199966430664,0.9191219806671143,-1.6058349609375,-1.7144967317581177,4
789,-40.10401153564453,30.18151092529297,72.91136932373047,0.6945655345916748,-2.222107410430908,-1.0156280994415283,4
790,-15.381942749023438,36.85347366333008,73.24018096923828,0.24021826684474945,-2.8256194591522217,-0.2995813190937042,4
791,8.515189170837402,37.344635009765625,72.21666717529297,-0.07578352093696594,-2.7611286640167236,0.40620753169059753,4
792,25.48805809020996,23.75221061706543,70.85986328125,-0.583402693271637,-2.4838356971740723,1.1259044408798218,4
793,40.79548263549805,14.00346565246582,68.4287109375,-0.8458970189094543,-2.2260611057281494,1.8233965635299683,4
794,39.816932678222656,1.1221308708190918,62.816680908203125,-0.8700489401817322,-1.5196382999420166,2.4847939014434814,4
795,29.404998779296875,-14.885891914367676,56.17950439453125,-0.7348447442054749,-1.071138858795166,3.079397439956665,4
796,24.899063110351562,-27.37616729736328,50.45079040527344,-0.7019608616828918,-0.6269153356552124,3.6652722358703613,4
797,23.398893356323242,-33.884376525878906,46.8587532043457,0.2883647382259369,-0.7571614980697632,4.031679630279541,4
798,15.761276245117188,-36.64999771118164,39.97236633300781,0.23219084739685059,-0.1178629919886589,4.570591926574707,4
799,-2.7884669303894043,-32.98257827758789,30.75363540649414,1.3021135330200195,0.22607727348804474,4.860379695892334,4
800,-26.33869743347168,-31.410070419311523,24.602672576904297,2.2035906314849854,-0.1656215637922287,5.089470386505127,4
801,-56.202308654785156,-24.01484489440918,17.42169952392578,2.4867093563079834,-1.0901647806167603,5.346834659576416,4
802,-76.21595001220703,-17.096593856811523,9.188825607299805,2.7844269275665283,-2.1624093055725098,5.531877517700195,4
803,-78.74785614013672,-15.200021743774414,4.05201530456543,2.65047287940979,-2.978203535079956,5.650416374206543,4
804,-69.59468078613281,-16.304243087768555,-0.7191224098205566,2.9265365600585938,-3.984685182571411,5.713044166564941,4
805,-46.747798919677734,0.4837063252925873,-1.9773764610290527,3.141674757003784,-4.628492832183838,5.70178747177124,4
806,-10.365154266357422,30.2985782623291,1.4515057802200317,3.41943621635437,-3.4220762252807617,5.286886215209961,4
807,30.15753746032715,73.45636749267578,8.184688568115234,2.7237205505371094,-3.366806983947754,5.335252285003662,4
808,51.464149475097656,106.27851867675781,8.606608390808105,1.6573245525360107,-2.932529926300049,5.400690078735352,4
809,63.89563751220703,123.4959487915039,9.233125686645508,-0.01350366324186325,-2.3784730434417725,5.562263488769531,4
810,63.226741790771484,125.8685531616211,8.859847068786621,-1.1023807525634766,-1.8020968437194824,5.584134101867676,4
811,60.30685806274414,112.78050994873047,8.64925765991211,-2.8735532760620117,-1.0145634412765503,5.744808197021484,4
812,47.39918899536133,82.83226013183594,5.521504878997803,-3.679487943649292,-0.6415043473243713,5.777688503265381,4
813,42.4712028503418,43.80116271972656,2.6061906814575195,-4.645103931427002,-0.18108956515789032,5.879115581512451,4
814,30.014728546142578,6.708894729614258,-1.1720308065414429,-4.470370292663574,-0.14188413321971893,5.790297031402588,4
815,9.793869018554688,-25.49397850036621,-4.0912909507751465,-4.430318832397461,-0.10308574885129929,5.758424282073975,4
816,-9.1436128616333,-59.86251449584961,-7.276512145996094,-4.071203708648682,-0.016494102776050568,5.707733154296875,4
817,-20.429977416992188,-86.13775634765625,-10.636884689331055,-3.290520191192627,-0.20079457759857178,5.602389812469482,4
818,-22.73899269104004,-95.81904602050781,-15.370893478393555,-2.2968647480010986,-0.6335605382919312,5.435801982879639,4
819,-26.152557373046875,-95.55621337890625,-17.7139835357666,-1.1902586221694946,-1.0037236213684082,5.245656490325928,4
820,-8.58210563659668,-67.17232513427734,-18.819440841674805,-0.40681129693984985,-1.2702553272247314,5.082460403442383,4
821,10.708993911743164,-23.564937591552734,-13.02305793762207,-0.04204156622290611,-1.289305567741394,4.945284843444824,4
822,23.44093132019043,14.393036842346191,-8.312235832214355,0.1903311014175415,-0.9192649722099304,4.872036933898926,4
823,25.564363479614258,47.65629577636719,0.2622024714946747,-0.6171610355377197,-0.6029590964317322,4.863558769226074,4
824,3.28346586227417,58.66026306152344,6.401430606842041,-1.4084906578063965,-0.7554778456687927,4.821117401123047,4
825,-17.17408561706543,52.72043991088867,12.319416999816895,-2.130280017852783,-0.7137978076934814,4.913344383239746,4
826,-32.60722351074219,35.51692199707031,14.1680269241333,-2.6967999935150146,-1.0164639949798584,5.022698879241943,4
827,-30.772525787353516,7.922754287719727,11.107900619506836,-3.073281764984131,-1.4977457523345947,5.121735095977783,4
828,-11.550211906433105,-17.32420539855957,5.016627788543701,-2.983551502227783,-1.78302001953125,5.204631805419922,4
829,7.188113212585449,-43.57634735107422,1.3408764600753784,-2.4667279720306396,-1.687048316001892,5.289906978607178,4
830,26.736553192138672,-60.884212493896484,0.6449217200279236,-1.9288886785507202,-1.5642790794372559,5.31434965133667,4
831,31.617666244506836,-71.0689926147461,-0.49732109904289246,-1.0589399337768555,-1.2153091430664062,5.337022304534912,4
832,19.352745056152344,-73.58771514892578,-2.20941424369812,0.25547441840171814,-0.5711382031440735,5.40360689163208,4
833,3.477045774459839,-64.93186950683594,-4.493086814880371,0.21502219140529633,-0.9502970576286316,5.289738655090332,4
834,3.897139310836792,-42.37888717651367,-7.825872898101807,0.8824353218078613,-1.122228980064392,5.198722839355469,4
835,11.148483276367188,-16.04501724243164,-10.929643630981445,1.0776416063308716,-0.940915584564209,5.155033111572266,4
836,25.329620361328125,13.459710121154785,-11.144737243652344,1.1084458827972412,-0.6378370523452759,5.075497627258301,4
837,36.780792236328125,33.30442810058594,-10.769583702087402,0.9280479550361633,-0.47068026661872864,4.944133281707764,4
838,51.80077362060547,48.15726089477539,-8.198951721191406,0.4201168417930603,0.2494303286075592,4.883300304412842,4
839,54.59357833862305,52.6008415222168,-6.997819900512695,-0.21555198729038239,0.4371297061443329,4.777878284454346,4
840,54.793731689453125,52.75551986694336,-6.666136264801025,-0.8144769072532654,1.307151198387146,4.744897365570068,4
841,53.061038970947266,39.829315185546875,-8.016229629516602,-1.3686238527297974,1.6259889602661133,4.667718887329102,4
842,46.69773864746094,19.08638572692871,-9.062323570251465,-1.658628225326538,2.220301866531372,4.607222080230713,4
843,26.45847511291504,-0.9143934845924377,-12.784700393676758,-1.7690398693084717,2.654604911804199,4.520507335662842,4
844,-0.6190978288650513,-25.726905822753906,-18.634851455688477,-1.6026396751403809,2.6177403926849365,4.364260673522949,4
845,-21.374515533447266,-43.317970275878906,-22.8464412689209,-1.202345371246338,2.612406015396118,4.180416107177734,4
846,-26.949859619140625,-48.5443229675293,-25.457244873046875,-0.3990335464477539,2.298429489135742,3.989238739013672,4
847,-22.222023010253906,-41.383331298828125,-24.44146728515625,-0.25859203934669495,1.9427127838134766,3.6236371994018555,4
848,-16.166757583618164,-25.083511352539062,-17.36333465576172,0.10480567812919617,1.7568658590316772,3.3830084800720215,4
849,-6.751927852630615,-14.561602592468262,-12.297470092773438,0.6041146516799927,1.6081771850585938,3.2975411415100098,4
850,-1.235939860343933,-2.983790874481201,-7.690783500671387,0.45466452836990356,1.608385682106018,3.099046230316162,4
851,11.170564651489258,9.260530471801758,-2.126573324203491,0.43882331252098083,1.7149510383605957,3.031214475631714,4
852,27.35715675354004,29.436830520629883,7.042684555053711,0.2005591094493866,1.8972405195236206,2.9944469928741455,4
853,35.94858932495117,50.43872833251953,15.141512870788574,-0.17960314452648163,2.227583408355713,3.08675479888916,4
854,37.19109344482422,57.48860168457031,17.736303329467773,-0.838723361492157,2.851825714111328,3.2198028564453125,4
855,24.85767364501953,55.26039505004883,19.52935028076172,-1.5744009017944336,3.1102991104125977,3.365469217300415,4
856,5.866483688354492,39.05840301513672,21.016101837158203,-2.0461535453796387,3.220329523086548,3.602748394012451,4
857,-17.44159698486328,14.945914268493652,22.566757202148438,-2.370896100997925,2.9818904399871826,3.825155019760132,4
858,-35.74294662475586,-18.598684310913086,25.150381088256836,-2.3283884525299072,2.777672052383423,4.112318992614746,4
859,-49.35288619995117,-52.76316833496094,25.024168014526367,-1.8653621673583984,2.3421499729156494,4.438792705535889,4
860,-53.256351470947266,-82.3337631225586,23.83213996887207,-0.8812265396118164,1.649264931678772,4.832984924316406,4
861,-34.48072814941406,-97.64852142333984,23.24075698852539,-0.12373201549053192,1.261553168296814,5.000916957855225,4
862,-10.957877159118652,-86.50357818603516,23.326425552368164,1.2526880502700806,0.9889824986457825,5.422649383544922,4
863,-0.17613081634044647,-71.95852661132812,23.193218231201172,1.7833950519561768,1.1331331729888916,5.5003204345703125,4
864,7.731921672821045,-44.735313415527344,24.092758178710938,2.5690371990203857,1.194025993347168,5.779948711395264,4
865,0.7354468107223511,-9.62558364868164,26.161849975585938,3.258807897567749,1.2396279573440552,6.177126884460449,4
866,-12.009730339050293,37.42479705810547,28.485864639282227,2.5067291259765625,1.1395705938339233,6.13735294342041,4
867,-42.834800720214844,73.86061096191406,31.267431259155273,1.8499118089675903,0.7549100518226624,6.395674705505371,4
868,-49.39244079589844,80.67113494873047,31.538843154907227,0.8985776901245117,0.3114081025123596,6.644240379333496,4
869,-50.16957473754883,55.69546890258789,29.315082550048828,0.03568696975708008,-0.43980517983436584,6.945949554443359,4
870,-29.141555786132812,12.496293067932129,28.05328369140625,0.033217672258615494,-0.7206676006317139,7.366813659667969,4
871,0.9749348163604736,-27.491687774658203,23.34303092956543,0.17608147859573364,-0.964705765247345,7.686118125915527,4
872,39.891971588134766,-65.53038787841797,20.844295501708984,0.6733314394950867,-0.6218460202217102,7.903725624084473,4
873,81.79793548583984,-80.0081787109375,18.218273162841797,1.8027316331863403,0.14774751663208008,8.176949501037598,4
874,98.7193374633789,-76.58108520507812,16.124025344848633,2.5331485271453857,1.0787800550460815,8.318024635314941,4
875,114.73894500732422,-64.0384521484375,15.5145263671875,3.469667911529541,2.4090001583099365,8.42990493774414,4
876,103.1463851928711,-32.933658599853516,16.039337158203125,3.6047422885894775,3.322021961212158,8.526349067687988,4
877,78.61705017089844,-1.2706748247146606,18.84758949279785,3.7117059230804443,4.167473793029785,8.68836784362793,4
878,41.87196350097656,18.04650115966797,16.66721534729004,3.637995481491089,4.745190620422363,8.900646209716797,4
879,2.7214953899383545,20.002824783325195,10.355767250061035,3.433382034301758,4.755290508270264,9.15721321105957,4
880,-27.08780860900879,21.166561126708984,5.210996150970459,3.2352077960968018,4.63365364074707,9.280527114868164,4
881,-62.80634689331055,30.977680206298828,-0.9498971700668335,2.939818859100342,3.974703788757324,9.420149803161621,4
882,-100.55786895751953,43.02375793457031,-5.450563430786133,2.4505622386932373,2.961974859237671,9.475506782531738,4
883,-112.52167510986328,44.60503005981445,-3.673358201980591,1.8054779767990112,1.8277713060379028,9.387059211730957,4
884,-113.62539672851562,49.92034149169922,-2.1316568851470947,1.5231815576553345,0.9493815302848816,9.325199127197266,4
885,-102.20338439941406,44.5203971862793,0.013978359289467335,0.8857373595237732,-0.8118082284927368,9.557344436645508,4
886,-71.77186584472656,35.039127349853516,-1.1321364641189575,0.47453781962394714,-1.0421943664550781,9.234539031982422,4
887,-48.2794303894043,10.70358943939209,-3.3618507385253906,0.25383901596069336,-2.03416109085083,9.388202667236328,4
888,-8.201865196228027,-18.099267959594727,-10.983949661254883,0.3043273985385895,-1.772345781326294,9.099026679992676,4
889,2.6495697498321533,-43.054840087890625,-18.032142639160156,0.8311930894851685,-1.7650703191757202,9.030158996582031,4
890,26.070396423339844,-45.45708465576172,-22.23440170288086,1.4524099826812744,-1.6718955039978027,8.890718460083008,4
891,42.77793884277344,-28.37670135498047,-22.181100845336914,2.110262870788574,-1.3143819570541382,8.707687377929688,4
892,61.07429122924805,-0.7784042954444885,-18.33637046813965,2.496185064315796,-0.710747480392456,8.486163139343262,4
893,59.34805679321289,30.810049057006836,-15.55972957611084,1.7377759218215942,-0.2179897576570511,8.304659843444824,4
894,42.326908111572266,29.94565773010254,-14.371356964111328,1.2394720315933228,0.5117163062095642,8.087849617004395,4
895,4.514416217803955,18.714460372924805,-14.668437957763672,0.9036283493041992,0.8403103947639465,7.9469757080078125,4
896,-45.189579010009766,0.5397449731826782,-18.228221893310547,0.8177359104156494,0.6555681228637695,7.811809062957764,4
897,-86.34266662597656,-6.762991428375244,-24.146713256835938,0.8918696045875549,-0.2645021975040436,7.716952323913574,4
898,-108.28909301757812,-24.55483627319336,-29.238271713256836,1.0828152894973755,-1.4453842639923096,7.533967971801758,4
899,-111.2764892578125,-34.235103607177734,-33.426719665527344,1.5364161729812622,-2.6505675315856934,7.27392578125,4
900,-91.34678649902344,-30.975784301757812,-36.57060623168945,2.1837422847747803,-3.8379175662994385,6.996526718139648,4
901,-63.133209228515625,-24.258554458618164,-40.706298828125,2.34483003616333,-4.592051029205322,6.619036674499512,4
902,-10.228950500488281,-7.052931308746338,-41.17955780029297,2.589663505554199,-4.750050067901611,6.128480434417725,4
903,42.97802734375,8.491334915161133,-41.67660903930664,2.6027417182922363,-4.429873466491699,5.650692939758301,4
904,90.64750671386719,21.1972599029541,-43.82415008544922,2.437269926071167,-3.624032974243164,5.167731285095215,4
905,111.50802612304688,28.990964889526367,-46.26068878173828,2.081637382507324,-2.244885206222534,4.614930152893066,4
906,112.43795776367188,34.466773986816406,-48.82813262939453,1.8352668285369873,-1.3886125087738037,4.223391532897949,4
907,105.16197204589844,46.66352844238281,-49.588470458984375,1.3350228071212769,0.19938448071479797,3.601811647415161,4
908,84.06166076660156,48.88748550415039,-48.10517883300781,0.768599808216095,0.8719511032104492,3.245353937149048,4
909,43.014286041259766,40.70094299316406,-46.96995162963867,0.29078587889671326,1.8243370056152344,2.6994612216949463,4
910,11.533812522888184,25.8349552154541,-44.112632751464844,-0.05627811327576637,1.772490382194519,2.3670406341552734,4
911,-29.476022720336914,0.4135284125804901,-41.96060562133789,-0.18757210671901703,1.4860374927520752,1.992506980895996,4
912,-63.18471145629883,-16.50530433654785,-35.586971282958984,-0.02211691625416279,0.9164273738861084,1.6052802801132202,4
913,-76.7004623413086,-21.653745651245117,-27.64243507385254,0.25428470969200134,0.4040500819683075,1.2112833261489868,4
914,-65.53951263427734,-4.743959903717041,-20.597288131713867,0.5514148473739624,-0.8046428561210632,1.0442591905593872,4
915,-28.000404357910156,28.496370315551758,-8.719947814941406,0.31683486700057983,-1.6044673919677734,0.9362501502037048,4
916,31.252500534057617,66.15362548828125,1.8591811656951904,-0.0958905816078186,-1.3186936378479004,0.8091548085212708,4
917,78.88456726074219,78.1823959350586,7.361926555633545,-1.1086721420288086,-0.5852447748184204,0.829276442527771,4
918,118.77054595947266,78.67312622070312,11.672603607177734,-2.384472370147705,0.5631709694862366,0.9643369317054749,4
919,139.33499145507812,69.7046890258789,15.734436988830566,-2.6848807334899902,2.0847244262695312,1.025854229927063,4
920,146.5970916748047,59.99864196777344,17.765695571899414,-3.372877836227417,3.810420513153076,1.2264728546142578,4
921,137.5625,35.680599212646484,16.128259658813477,-3.7997424602508545,5.023376941680908,1.4184935092926025,4
922,119.2817611694336,6.964638710021973,10.114152908325195,-4.002883434295654,6.018055438995361,1.5455904006958008,4
923,92.21868896484375,-29.682802200317383,0.9354458451271057,-3.818434238433838,7.534073829650879,1.6923965215682983,4
924,59.72872543334961,-57.718605041503906,-7.822236061096191,-3.2828407287597656,8.151510238647461,1.5927903652191162,4
925,16.28289794921875,-73.56912231445312,-15.022895812988281,-2.448591947555542,8.681214332580566,1.4679477214813232,4
926,-25.435009002685547,-91.34326171875,-17.61058235168457,-1.9103145599365234,8.573195457458496,1.0727277994155884,4
927,-65.37073516845703,-99.57513427734375,-22.07782554626465,-0.614722728729248,7.919949054718018,0.8206936717033386,4
928,-85.91360473632812,-85.50753021240234,-23.517942428588867,-0.0006221436196938157,7.396463394165039,0.3644271194934845,4
929,-111.21541595458984,-47.39316177368164,-26.563852310180664,0.9187505841255188,6.165883541107178,0.08755077421665192,4
930,-120.79265594482422,-18.743610382080078,-27.28583526611328,0.7875671982765198,5.361782073974609,-0.4488884508609772,4
931,-104.19525146484375,8.819416999816895,-27.497297286987305,0.7699252963066101,3.777311325073242,-0.8880119323730469,4
932,-80.6270523071289,34.153175354003906,-26.488191604614258,0.6190558075904846,3.1820032596588135,-1.0303784608840942,4
933,-46.50983810424805,48.140689849853516,-24.01563835144043,0.0313442088663578,2.8742177486419678,-1.330805778503418,4
934,-22.308958053588867,53.96495819091797,-21.79653549194336,-0.604210615158081,2.2432620525360107,-1.686668038368225,4
935,-5.69035530090332,56.652706146240234,-20.836877822875977,-1.150254487991333,2.1952264308929443,-1.8412214517593384,4
936,1.3096641302108765,54.428253173828125,-23.303930282592773,-2.0164334774017334,2.200005531311035,-2.23128604888916,4
937,4.136687278747559,38.361026763916016,-23.047269821166992,-2.5579605102539062,2.277045488357544,-2.46852970123291,4
938,-0.29652655124664307,10.914722442626953,-21.570110321044922,-2.701261520385742,2.2233481407165527,-2.6170494556427,4
939,-23.864194869995117,-20.066396713256836,-23.999897003173828,-2.5487561225891113,2.32403302192688,-2.683378219604492,4
940,-43.42397689819336,-43.871315002441406,-29.679353713989258,-1.994893193244934,1.7339584827423096,-2.8731021881103516,4
941,-61.10283660888672,-58.62821960449219,-37.319374084472656,-1.4881154298782349,1.474786400794983,-3.1131367683410645,4
942,-98.91377258300781,-63.343605041503906,-44.16261672973633,-0.8070923686027527,0.7831727266311646,-3.473395347595215,4
943,-128.45004272460938,-54.808406829833984,-45.54472732543945,0.15100719034671783,-0.6427644491195679,-3.873074769973755,4
944,-154.46498107910156,-37.45979309082031,-43.372379302978516,0.5872989892959595,-1.8575059175491333,-4.293013095855713,4
945,-157.4401092529297,-20.08547592163086,-36.35201644897461,1.208178162574768,-4.157793045043945,-4.792079448699951,4
946,-124.69580841064453,8.236940383911133,-27.076343536376953,1.1786220073699951,-5.513503074645996,-5.139048099517822,4
947,-49.49641799926758,42.086971282958984,-21.578218460083008,0.8598161339759827,-6.486647605895996,-5.439416408538818,4
948,16.29863739013672,77.86033630371094,-20.169193267822266,0.07620678842067719,-6.589801788330078,-5.707955837249756,4
949,75.03272247314453,101.91960144042969,-22.609634399414062,-1.113332986831665,-6.075343132019043,-5.988999843597412,4
950,124.63097381591797,107.91594696044922,-25.8478946685791,-2.12607479095459,-4.652227878570557,-6.224399566650391,4
951,164.91307067871094,94.79785919189453,-28.21832275390625,-3.042104721069336,-2.4486382007598877,-6.403905391693115,4
952,183.3599090576172,65.6141128540039,-30.609573364257812,-3.710763454437256,-0.8483232259750366,-6.803032875061035,4
953,174.68736267089844,29.19942283630371,-32.11499786376953,-4.186124324798584,0.6662740707397461,-7.213960647583008,4
954,152.1454315185547,-13.281601905822754,-31.38549041748047,-4.2233734130859375,3.0074520111083984,-7.370123863220215,4
955,114.9262466430664,-53.33561325073242,-31.093042373657227,-3.902723789215088,4.008523464202881,-7.855108261108398,4
956,55.31440353393555,-79.14403533935547,-29.545120239257812,-3.023967742919922,4.960973262786865,-8.288017272949219,4
957,-6.598938465118408,-84.2750244140625,-29.519838333129883,-1.9801549911499023,5.0453410148620605,-8.809398651123047,4
958,-68.83102416992188,-76.41976165771484,-29.223323822021484,-1.1938462257385254,4.490394592285156,-9.27342414855957,4
959,-118.27726745605469,-58.49695587158203,-28.910470962524414,-0.7052542567253113,3.3115062713623047,-9.717049598693848,4
960,-169.21871948242188,-33.36016082763672,-27.371379852294922,-0.25764256715774536,1.638716697692871,-10.13701057434082,4
961,-186.33241271972656,-9.15532112121582,-22.962535858154297,-0.1456429660320282,-0.03778386861085892,-10.365227699279785,4
962,-161.7555389404297,14.715182304382324,-22.426666259765625,-0.18625794351100922,-1.5194109678268433,-10.486230850219727,4
963,-112.18041229248047,18.058523178100586,-17.51957130432129,-0.5126113891601562,-3.6873927116394043,-10.924607276916504,4
964,-58.77927017211914,12.323334693908691,-8.629698753356934,-0.6598144173622131,-3.813232421875,-10.850974082946777,4
965,-2.3338229656219482,6.721677303314209,0.15118645131587982,-0.7320672869682312,-4.623582363128662,-11.035091400146484,4
966,40.533756256103516,27.08951759338379,6.555891036987305,-0.8588613271713257,-4.181894779205322,-10.948880195617676,4
967,63.362060546875,41.4848518371582,6.790422439575195,-1.4366554021835327,-3.45133376121521,-10.783989906311035,4
968,66.32172393798828,26.55722999572754,7.848233222961426,-1.8591772317886353,-2.7302873134613037,-10.703030586242676,4
969,69.36483001708984,19.513166427612305,4.518603801727295,-2.13999605178833,-1.8449732065200806,-10.580321311950684,4
970,49.15906524658203,16.526710510253906,6.0245585441589355,-2.4072985649108887,-1.564212679862976,-10.604594230651855,4
971,31.361867904663086,15.181800842285156,10.879903793334961,-2.54263973236084,-0.8961713314056396,-10.481932640075684,4
972,-6.079566955566406,8.08375072479248,11.17881965637207,-2.7016501426696777,-1.048816204071045,-10.464325904846191,4
973,-32.36281204223633,4.65982723236084,15.055805206298828,-2.97762393951416,-1.201462745666504,-10.260162353515625,4
974,-56.30364227294922,1.449735403060913,18.385351181030273,-2.967297077178955,-1.8630225658416748,-10.209513664245605,4
975,-67.09304809570312,-17.40958023071289,19.2303466796875,-2.8287642002105713,-2.5092673301696777,-10.068772315979004,4
976,-62.483699798583984,-47.647544860839844,18.224882125854492,-2.2600643634796143,-3.4136064052581787,-10.081235885620117,4
977,-48.46272659301758,-67.47198486328125,20.728105545043945,-2.256047248840332,-3.8422868251800537,-9.570477485656738,4
978,-15.39798355102539,-89.5777587890625,23.59200668334961,-1.0253194570541382,-4.348633289337158,-9.555780410766602,4
979,13.656553268432617,-101.01747131347656,25.04888153076172,-0.42953476309776306,-4.0775885581970215,-9.002333641052246,4
980,34.12537384033203,-88.7457504272461,24.3147029876709,1.063494324684143,-3.552328586578369,-8.860995292663574,4
981,39.95200729370117,-66.47473907470703,27.28718376159668,1.6437625885009766,-3.1458334922790527,-8.432745933532715,4
982,39.767799377441406,-35.74375534057617,30.943710327148438,2.034914016723633,-2.9247381687164307,-8.052948951721191,4
983,39.300811767578125,-14.934112548828125,31.21966552734375,2.533689022064209,-2.4686172008514404,-7.839332103729248,4
984,26.779237747192383,-4.012609958648682,27.649803161621094,2.337703227996826,-2.1326751708984375,-7.355019569396973,4
985,13.355598449707031,-2.2410736083984375,23.97602081298828,2.5786352157592773,-1.8534833192825317,-7.2033281326293945,4
986,-3.2246508598327637,7.084253311157227,20.92761993408203,2.3301303386688232,-1.9170578718185425,-6.8429856300354,4
