,gyro.x,gyro.y,gyro.z,stabilizer.pitch,stabilizer.roll,stabilizer.yaw,label
0,0.044215839356184006,-0.15433962643146515,-0.042023662477731705,0.8112378120422363,0.3439289629459381,6.49877405166626,4
1,0.053590163588523865,-0.10346056520938873,-0.01671953871846199,0.8119168877601624,0.34401217103004456,6.491958141326904,4
2,0.01999271847307682,-0.138406440615654,-0.07063858211040497,0.8125600218772888,0.3441164195537567,6.485410690307617,4
3,0.004240819253027439,-0.18578609824180603,0.03433660790324211,0.8126180171966553,0.34380120038986206,6.478633403778076,4
4,0.033369168639183044,-0.09823113679885864,0.010133294388651848,0.8135837316513062,0.34353703260421753,6.472482204437256,4
5,-0.04543788358569145,-0.0953679084777832,-0.13330797851085663,0.8139162063598633,0.34361597895622253,6.46587610244751,4
6,0.07428107410669327,-0.18376311659812927,0.08121854811906815,0.814216136932373,0.34306100010871887,6.458322525024414,4
7,-0.057475630193948746,-0.13234305381774902,-0.01733383536338806,0.8151856660842896,0.34313613176345825,6.452280521392822,4
8,0.06437129527330399,-0.06706078350543976,-0.09772945940494537,0.8159227967262268,0.3425429165363312,6.445435523986816,4
9,-0.0035712483804672956,-0.06871774792671204,-0.058377716690301895,0.8161236047744751,0.34243443608283997,6.438237190246582,4
10,-0.05201875418424606,-0.06545805931091309,-0.05796727165579796,0.8159768581390381,0.34212979674339294,6.4309587478637695,4
11,0.14936451613903046,-0.10225604474544525,0.09091181308031082,0.8157068490982056,0.34165918827056885,6.423812389373779,4
12,0.07867174595594406,-0.08956538140773773,-0.10558585077524185,0.8160474300384521,0.34217286109924316,6.417801380157471,4
13,0.051432203501462936,-0.060727156698703766,0.05513787269592285,0.8162763118743896,0.3424323499202728,6.410482406616211,4
14,-0.017139889299869537,-0.1551356166601181,-0.03774717450141907,0.8158309459686279,0.3427828252315521,6.404325485229492,4
15,0.029687823727726936,-0.13969431817531586,-0.06003731116652489,0.8166256546974182,0.3428220748901367,6.397840976715088,4
16,-0.04934442788362503,-0.0143497996032238,-0.0210739616304636,0.8168588876724243,0.34255650639533997,6.391077041625977,4
17,-0.06919415295124054,-0.12061033397912979,-0.0022198499646037817,0.8165435791015625,0.3419092893600464,6.384445667266846,4
18,-0.0997094064950943,-0.03567971661686897,0.02442035637795925,0.8165484666824341,0.34132349491119385,6.378165245056152,4
19,-0.028137419372797012,-0.06254138052463531,-0.012022295035421848,0.8159477114677429,0.3406836688518524,6.372372627258301,4
20,-0.028480058535933495,-0.16447646915912628,0.01003323309123516,0.8158414363861084,0.34006524085998535,6.366033554077148,4
21,0.09115864336490631,-0.08326549828052521,-0.030987698584794998,0.8167321681976318,0.3397720158100128,6.359643459320068,4
22,0.07129411399364471,-0.08998136222362518,-0.03769301995635033,0.8171826004981995,0.3403029143810272,6.35305118560791,4
23,0.04105799272656441,0.010598178021609783,-0.03510237857699394,0.8175963163375854,0.3406469225883484,6.346427917480469,4
24,-0.0021716258488595486,-0.08131678402423859,-0.02985525317490101,0.8168463110923767,0.34051892161369324,6.339797019958496,4
25,0.07522512227296829,-0.07418712973594666,-0.057562556117773056,0.8169080018997192,0.34017708897590637,6.3330769538879395,4
26,0.014939657412469387,-0.0824609026312828,0.028918614611029625,0.8169664740562439,0.3404219448566437,6.3263444900512695,4
27,0.08466234803199768,-0.1151842474937439,-0.030341152101755142,0.8176491260528564,0.3404311239719391,6.320085048675537,4
28,-0.03557506203651428,-0.09241168200969696,-0.003501031082123518,0.8182417750358582,0.3408586382865906,6.313393592834473,4
29,-0.03379726782441139,-0.0625971183180809,0.07665865868330002,0.8181544542312622,0.34031549096107483,6.306981563568115,4
30,0.026195650920271873,-0.07292380183935165,0.07411932945251465,0.8182333707809448,0.33982840180397034,6.301088333129883,4
31,0.09696020931005478,-0.11799780279397964,-0.0368974432349205,0.818566620349884,0.33985355496406555,6.295243263244629,4
32,-0.019494961947202682,-0.1614082306623459,-0.07869615405797958,0.8192854523658752,0.34039121866226196,6.288616180419922,4
33,-0.027094203978776932,-0.11810143291950226,-0.04333239421248436,0.8200515508651733,0.3400305211544037,6.281667232513428,4
34,0.07338821142911911,-0.20716868340969086,0.012050976045429707,0.8201967477798462,0.3393831253051758,6.274758815765381,4
35,0.0651790201663971,-0.04473010078072548,-0.07169994711875916,0.8210683465003967,0.3398621082305908,6.26845645904541,4
36,-0.07884860038757324,0.01845369301736355,0.046007391065359116,0.8210249543190002,0.34032130241394043,6.261749267578125,4
37,-0.0190801452845335,-0.1091400682926178,-0.032365504652261734,0.8208585381507874,0.339857816696167,6.255712985992432,4
38,-0.08484791219234467,-0.07750121504068375,-0.10667183250188828,0.8214470148086548,0.3389364778995514,6.248991012573242,4
39,0.005969261284917593,-0.12090029567480087,-0.1384693831205368,0.8213045597076416,0.3377087414264679,6.24181604385376,4
40,0.015035917051136494,-0.09287620335817337,-0.06658360362052917,0.8215648531913757,0.3373525142669678,6.234696865081787,4
41,0.0952065959572792,-0.14505425095558167,-0.0345134474337101,0.8219876885414124,0.3370896279811859,6.227717876434326,4
42,-0.029811285436153412,-0.16807934641838074,-0.11359812319278717,0.822569727897644,0.33762627840042114,6.22077751159668,4
43,-0.009031928144395351,-0.14825250208377838,-0.15981435775756836,0.8233992457389832,0.33724960684776306,6.213555812835693,4
44,0.07657218724489212,-0.013845432549715042,-0.0028132782317698,0.8236010074615479,0.3370729386806488,6.206546306610107,4
45,-0.05103867128491402,-0.1176203042268753,-0.04189017042517662,0.8234231472015381,0.33696845173835754,6.200075149536133,4
46,-0.04139326885342598,-0.158164381980896,-0.07700701802968979,0.824223518371582,0.33593761920928955,6.193029403686523,4
47,0.013645270839333534,-0.06929309666156769,-0.11435002833604813,0.8248996734619141,0.3351247012615204,6.186145782470703,4
48,0.025558559224009514,-0.1010751947760582,-0.026583107188344002,0.8247021436691284,0.3348560333251953,6.179445743560791,4
49,0.1119513213634491,-0.09207884967327118,-0.07051996141672134,0.8247022032737732,0.3348044455051422,6.173014163970947,4
50,-0.060315508395433426,-0.12315906584262848,0.02153214067220688,0.8247814774513245,0.33512648940086365,6.16635274887085,4
51,0.07058508694171906,-0.11968005448579788,-0.03322392702102661,0.8248885273933411,0.3346427083015442,6.159580707550049,4
52,0.14126871526241302,-0.195158913731575,0.09743551164865494,0.8252632021903992,0.334795206785202,6.153123378753662,4
53,-0.019563455134630203,-0.10472457110881805,-0.06030754745006561,0.8256089091300964,0.33486640453338623,6.147372722625732,4
54,-0.003978095483034849,-0.09717315435409546,-0.06064397841691971,0.82586669921875,0.33455169200897217,6.140885353088379,4
55,-0.03907093405723572,-0.11118519306182861,-0.03102778270840645,0.8262177109718323,0.33419886231422424,6.134197235107422,4
56,0.0003418461128603667,-0.025117473676800728,0.02967344969511032,0.8261837959289551,0.3334193825721741,6.1279401779174805,4
57,8.482560224365443e-05,-0.16698530316352844,0.07320728152990341,0.8262103796005249,0.3334122598171234,6.12222957611084,4
58,0.018287301063537598,-0.07286609709262848,0.06579115986824036,0.8273755311965942,0.3330884873867035,6.1168060302734375,4
59,-0.12593097984790802,-0.11899632215499878,0.01926344633102417,0.8273416757583618,0.33247891068458557,6.1112871170043945,4
60,0.02960241213440895,-0.13231532275676727,0.0441950298845768,0.8280544877052307,0.33151930570602417,6.105546474456787,4
61,-0.03170766681432724,-0.14845214784145355,-0.13276585936546326,0.8281948566436768,0.3316492736339569,6.099658489227295,4
62,0.11684121936559677,-0.12576913833618164,-0.0036680796183645725,0.8286365270614624,0.33088162541389465,6.092336177825928,4
63,-0.05015471950173378,-0.060255203396081924,-0.013599330559372902,0.8288426399230957,0.33119311928749084,6.086241722106934,4
64,0.024163436144590378,-0.11750929802656174,-0.05959543213248253,0.8286765217781067,0.33055001497268677,6.07959508895874,4
65,0.011663522571325302,-0.12892915308475494,0.0011486192233860493,0.8289511799812317,0.33035895228385925,6.072741985321045,4
66,0.016899025067687035,-0.0973215252161026,-0.002685830695554614,0.8296652436256409,0.3304000496864319,6.066600799560547,4
67,0.09954740107059479,-0.13207927346229553,0.02039622887969017,0.8297780156135559,0.33010607957839966,6.060318470001221,4
68,0.044937536120414734,-0.0889032781124115,-0.033608417958021164,0.8296698927879333,0.33027154207229614,6.054386615753174,4
69,0.02557433396577835,-0.04586842283606529,-0.09742167592048645,0.8294400572776794,0.3307492434978485,6.047887325286865,4
70,0.011939617805182934,-0.12709009647369385,-0.015258371829986572,0.8289788365364075,0.33081746101379395,6.041012287139893,4
71,0.020950932055711746,-0.08165536820888519,-0.06762745976448059,0.8295864462852478,0.33033525943756104,6.0347394943237305,4
72,0.04336361587047577,-0.02979925088584423,-0.041965849697589874,0.8294848799705505,0.33000028133392334,6.02805757522583,4
73,-0.06235736235976219,-0.11149410158395767,0.0002545476600062102,0.8289633393287659,0.32973819971084595,6.0217814445495605,4
74,0.05725148692727089,-0.02875123731791973,0.0764690712094307,0.8289324641227722,0.3292579650878906,6.015395641326904,4
75,-0.04001292958855629,-0.06204252317547798,-0.07577598839998245,0.8287115097045898,0.3296908438205719,6.010370254516602,4
76,0.035585638135671616,-0.07678956538438797,0.05317923426628113,0.8290352821350098,0.32916805148124695,6.00403356552124,4
77,-0.054524704813957214,-0.14625965058803558,0.04599706083536148,0.8290074467658997,0.3290017247200012,5.998437404632568,4
78,0.09871986508369446,-0.16961590945720673,-0.07917773723602295,0.8301740884780884,0.328426718711853,5.992288589477539,4
79,0.11088819056749344,-0.02269606478512287,-0.024887003004550934,0.8308695554733276,0.3287573754787445,5.985439777374268,4
80,-0.03896981105208397,-0.15507617592811584,0.01752328872680664,0.8309311270713806,0.3290712833404541,5.9793219566345215,4
81,-0.07116543501615524,-0.10676281899213791,-0.08884186297655106,0.8312407732009888,0.32845309376716614,5.973198890686035,4
82,-0.004566048737615347,-0.17965246737003326,0.04951966553926468,0.8314095735549927,0.32767826318740845,5.966665267944336,4
83,0.08785563707351685,-0.2166653275489807,-0.06746378540992737,0.8322120308876038,0.32765835523605347,5.961053371429443,4
84,0.02830963023006916,-0.1942676305770874,-0.013904181309044361,0.8333687782287598,0.32779979705810547,5.954761981964111,4
85,0.05731671303510666,-0.15357868373394012,0.0928000882267952,0.8343550562858582,0.32846587896347046,5.94888973236084,4
86,0.11106148362159729,-0.02025645785033703,0.03590971976518631,0.8347256183624268,0.3290088474750519,5.943819522857666,4
87,-0.01509860623627901,-0.1164114773273468,-0.026845967397093773,0.8342570662498474,0.32958096265792847,5.938388347625732,4
88,0.006137162912636995,-0.10896995663642883,-0.04459744691848755,0.0,0.0,0.0,4
89,0.018200641497969627,-0.17137272655963898,0.03679294511675835,0.0012683351524174213,0.0003779504040721804,0.00020740604668390006,4
90,-0.05666481330990791,-0.09650997072458267,0.03882700204849243,0.0023795575834810734,0.00040949598769657314,0.0006641889340244234,4
91,-0.112685926258564,-0.05130679905414581,-0.02363128960132599,0.04066065326333046,0.028638187795877457,0.0006787021993659437,4
92,0.017715753987431526,-0.11226235330104828,-0.08211222290992737,0.0705530047416687,0.04454854875802994,4.657308181776898e-06,4
93,-0.0007614588248543441,-0.06517845392227173,0.12964917719364166,0.11541255563497543,0.06736110895872116,-4.5399840018944815e-05,4
94,0.08082210272550583,-0.16908757388591766,-0.10335587710142136,0.16731975972652435,0.10466824471950531,5.815519762109034e-05,4
95,0.044799696654081345,-0.14044687151908875,0.07075972855091095,0.21082673966884613,0.14218217134475708,-0.0004104633699171245,4
96,0.06672998517751694,-0.08547960221767426,0.01418551430106163,0.25426894426345825,0.176697239279747,0.0002795820764731616,4
97,0.10913248360157013,-0.032033760100603104,-0.024001019075512886,0.28920069336891174,0.21061336994171143,0.00012704951222985983,4
98,0.00549061456695199,-0.1600331813097,-0.08730832487344742,0.3193952143192291,0.23244698345661163,-0.0008515673107467592,4
99,0.006193649955093861,-0.2615306079387665,-0.06903601437807083,0.34682315587997437,0.25333619117736816,-0.0015966835198923945,4
100,-0.047673407942056656,-0.14390315115451813,0.004498752765357494,0.3735177516937256,0.2681517004966736,-0.0016162727260962129,4
101,0.03479848429560661,-0.06492557376623154,0.04047856479883194,0.39120498299598694,0.28210514783859253,-0.00186697649769485,4
102,-0.0050519779324531555,-0.1631200611591339,-0.1701444536447525,0.40660786628723145,0.2983868420124054,-0.0028579297941178083,4
103,0.07692582160234451,-0.18938608467578888,-0.031061111018061638,0.4206370711326599,0.3096480667591095,-0.0037379020359367132,4
104,0.0667404755949974,-0.13027243316173553,-0.018157722428441048,0.4337652027606964,0.3201157748699188,-0.003946710377931595,4
105,0.04895521700382233,-0.15634876489639282,-0.018872274085879326,0.4450418949127197,0.32865986227989197,-0.004087813664227724,4
106,-0.009385176002979279,-0.1378190666437149,-0.027758825570344925,0.4546993672847748,0.3369966447353363,-0.004121351987123489,4
107,0.07808897644281387,-0.0962679386138916,-0.08133094757795334,0.46301960945129395,0.34185126423835754,-0.0043172528967261314,4
108,0.12340904027223587,-0.11859080195426941,-0.03214188665151596,0.47197091579437256,0.35016974806785583,-0.004780685529112816,4
109,0.02693786285817623,-0.08488944172859192,0.03413558751344681,0.47879576683044434,0.3579748272895813,-0.005842770449817181,4
110,-0.016232747584581375,-0.12082137912511826,-0.019946059212088585,0.478808730840683,0.3579399883747101,-0.005329195875674486,4
111,0.05360832437872887,-0.043851032853126526,0.02816595323383808,0.4854966402053833,0.3631127178668976,-0.005425773561000824,4
112,-0.03950084000825882,-0.18507561087608337,0.012695454992353916,0.4863465428352356,0.3630644977092743,-0.004807009361684322,4
113,0.009456908330321312,-0.1678236573934555,0.018487270921468735,0.48754459619522095,0.36266234517097473,-0.005034465808421373,4
114,0.026110565289855003,-0.12607426941394806,0.05217641219496727,0.488491952419281,0.36263442039489746,-0.004802027251571417,4
115,-0.11591876298189163,-0.06514976918697357,-0.005726480390876532,0.4891021251678467,0.3624832034111023,-0.004558165092021227,4
116,0.05784164369106293,-0.1064813956618309,0.03875188156962395,0.48934614658355713,0.3617311120033264,-0.004457481205463409,4
117,0.08348603546619415,-0.08499439805746078,-0.05183744803071022,0.49029335379600525,0.36186328530311584,-0.003882778575643897,4
118,0.10739753395318985,-0.12776347994804382,-0.04777153581380844,0.49033787846565247,0.36242926120758057,-0.0038422730285674334,4
119,0.003823409555479884,-0.23193436861038208,-0.04500039666891098,0.4914625585079193,0.36217933893203735,-0.004668978974223137,4
120,0.021781103685498238,-0.10753566026687622,0.04658220335841179,0.49268463253974915,0.36184918880462646,-0.005194613244384527,4
121,0.14552058279514313,-0.17518660426139832,-0.053181882947683334,0.4931926131248474,0.36225271224975586,-0.004773566499352455,4
122,-0.02736825682222843,-0.17465095221996307,-0.08053219318389893,0.49444594979286194,0.3621262311935425,-0.006087184883654118,4
123,0.05015203729271889,-0.1801086962223053,-0.08218242228031158,0.49611225724220276,0.3616792857646942,-0.006970304995775223,4
124,0.05468398705124855,-0.09354481101036072,-0.04120785742998123,0.4964976906776428,0.36158856749534607,-0.00765281543135643,4
125,-0.06600165367126465,-0.019976582378149033,-0.13386690616607666,0.4964590072631836,0.3608592450618744,-0.008924776688218117,4
126,0.02187742106616497,-0.1721974015235901,-0.02602308616042137,0.4966466724872589,0.36043933033943176,-0.009248103946447372,4
127,0.01860802061855793,-0.16459456086158752,-0.06866920739412308,0.4976344704627991,0.3604245185852051,-0.009689878672361374,4
128,-0.02938915602862835,-0.052091069519519806,-0.0410924032330513,0.49839621782302856,0.3602592945098877,-0.01051702257245779,4
129,-0.04384509474039078,-0.08514931797981262,0.0010046977549791336,0.49863728880882263,0.3598833978176117,-0.010760923847556114,4
130,0.04144217073917389,-0.1360263079404831,-0.007829854264855385,0.49922651052474976,0.36001238226890564,-0.010814569890499115,4
131,-0.0020643663592636585,-0.06442519277334213,0.009754924103617668,0.49967291951179504,0.3592005670070648,-0.011233550496399403,4
132,0.020008020102977753,-0.1812867671251297,-0.08073984831571579,0.5001055002212524,0.3592323660850525,-0.011184035800397396,4
133,-0.11146344244480133,-0.10706096142530441,0.0006857796106487513,0.5010863542556763,0.35832223296165466,-0.011581615544855595,4
134,0.11978324502706528,-0.05932418256998062,0.04744718596339226,0.501218318939209,0.35733363032341003,-0.011518959887325764,4
135,-0.0368710421025753,-0.11888764798641205,-0.06700361520051956,0.5018271803855896,0.3574483096599579,-0.011648518964648247,4
136,-0.042004287242889404,-0.1322529911994934,0.044684045016765594,0.5019945502281189,0.35675084590911865,-0.01184365525841713,4
137,0.08947693556547165,-0.10638795793056488,-0.15414313971996307,0.502941370010376,0.3569895923137665,-0.012021074071526527,4
138,0.03974151983857155,-0.07180698961019516,-0.04083690419793129,0.5039072632789612,0.3571990132331848,-0.01305595226585865,4
139,-0.008533626794815063,-0.04361613467335701,-0.05873224884271622,0.5039016008377075,0.35733723640441895,-0.0136753274127841,4
140,0.030957235023379326,-0.02274429239332676,-0.09388075023889542,0.5038396120071411,0.35753509402275085,-0.014218755066394806,4
141,0.06763528287410736,-0.0042478120885789394,0.008212975226342678,0.5034076571464539,0.3573175072669983,-0.0150764724239707,4
142,0.12285012751817703,-0.16075873374938965,-0.06489872932434082,0.5040168166160583,0.35736939311027527,-0.01576652005314827,4
143,0.0038035281468182802,-0.18511085212230682,-0.013079102151095867,0.5053238272666931,0.3573513627052307,-0.016434891149401665,4
144,0.004296867176890373,-0.16819997131824493,0.0651741698384285,0.5067424774169922,0.3572528660297394,-0.016508985310792923,4
145,-0.08986923098564148,-0.1764054149389267,-0.004370157606899738,0.508002519607544,0.3568931818008423,-0.016015807166695595,4
146,-0.002530032070353627,-0.10088595747947693,0.07024853676557541,0.5087652802467346,0.35605040192604065,-0.01592172309756279,4
147,0.0499502494931221,-0.10206200182437897,0.01695539429783821,0.5092329978942871,0.35624048113822937,-0.01554188970476389,4
148,0.06547561287879944,-0.04330608993768692,0.03695657104253769,0.5094393491744995,0.3564344048500061,-0.015064891427755356,4
149,0.02619186043739319,-0.152032732963562,0.038178104907274246,0.5099983811378479,0.35661089420318604,-0.014928481541574001,4
150,0.08054101467132568,-0.12385726720094681,0.04060535132884979,0.5112448334693909,0.3567105829715729,-0.014779689721763134,4
151,0.007185047958046198,-0.07580049335956573,-0.12661077082157135,0.5114759802818298,0.3568752110004425,-0.014930015429854393,4
152,-0.07584299147129059,-0.02294943854212761,0.04877715930342674,0.5113323330879211,0.35643935203552246,-0.015751710161566734,4
153,0.016783911734819412,-0.13950127363204956,0.12470079213380814,0.5115106701850891,0.35563257336616516,-0.01491021178662777,4
154,0.06638675928115845,-0.14588437974452972,-0.010468274354934692,0.5129032135009766,0.3556385636329651,-0.014376293867826462,4
155,-0.05184610188007355,-0.18441221117973328,0.060274217277765274,0.5136438608169556,0.35526397824287415,-0.014549304731190205,4
156,0.07962319999933243,-0.09741050004959106,-0.11107223480939865,0.5151236057281494,0.35473936796188354,-0.014234216883778572,4
157,-0.016657497733831406,-0.13786177337169647,0.09206409752368927,0.5155730843544006,0.3546920120716095,-0.015193596482276917,4
158,0.1202327162027359,-0.00023196266556624323,-0.03799373656511307,0.5161501169204712,0.35485562682151794,-0.01497695967555046,4
159,0.10252207517623901,-0.16961592435836792,0.041120272129774094,0.5163834095001221,0.35569316148757935,-0.015114313922822475,4
160,-0.04808998480439186,-0.1479635238647461,-0.04367819428443909,0.5172986388206482,0.35592296719551086,-0.015427375212311745,4
161,0.027598151937127113,-0.25349706411361694,0.02538626454770565,0.5185109972953796,0.3549377918243408,-0.015448767691850662,4
162,0.07657068222761154,-0.14252422749996185,-0.02508346177637577,0.5197685956954956,0.3549524247646332,-0.015107093378901482,4
163,0.033212773501873016,-0.17528849840164185,-0.08238194137811661,0.5210006833076477,0.35456642508506775,-0.01577109843492508,4
164,0.005154563579708338,-0.1260208636522293,-0.004702085629105568,0.5219923853874207,0.3542653024196625,-0.015967024490237236,4
165,-0.05690363422036171,-0.057829685509204865,-0.024158023297786713,0.5227948427200317,0.3540206551551819,-0.01593639701604843,4
166,-0.014624341391026974,-0.13241775333881378,-0.03817823901772499,0.5234823226928711,0.35305821895599365,-0.01630249433219433,4
167,-0.08543039858341217,-0.031535085290670395,-0.027347268536686897,0.5239525437355042,0.3529374897480011,-0.016648706048727036,4
168,0.04179919883608818,-0.16784198582172394,-0.08533873409032822,0.5239109992980957,0.35215893387794495,-0.017526088282465935,4
169,0.019450103864073753,-0.1214534342288971,0.05409287288784981,0.5251957774162292,0.35208743810653687,-0.017543049529194832,4
170,-0.011273577809333801,-0.11917479336261749,-0.07187235355377197,0.5257189869880676,0.3516610860824585,-0.017278596758842468,4
171,-0.009141702204942703,-0.05062290281057358,0.030782287940382957,0.5267871022224426,0.3519538342952728,-0.01749565079808235,4
172,0.08293063938617706,-0.08737874776124954,-0.03995632007718086,0.5268227458000183,0.3515767753124237,-0.017887761816382408,4
173,-0.0554082877933979,-0.05987522006034851,-0.011821347288787365,0.5274827480316162,0.35151347517967224,-0.017778368666768074,4
174,-0.01989138498902321,-0.13158556818962097,0.06783562898635864,0.5281575918197632,0.3508114218711853,-0.017857307568192482,4
175,-0.01191808469593525,0.022223088890314102,0.016498088836669922,0.527852475643158,0.350100576877594,-0.01689782924950123,4
176,-0.0706045851111412,-0.15065258741378784,-0.1344144642353058,0.5279414653778076,0.34956052899360657,-0.01786467805504799,4
177,0.04108753427863121,-0.08660470694303513,-0.0652657002210617,0.5288953185081482,0.3488616347312927,-0.01880493573844433,4
178,0.05018116161227226,-0.11137537658214569,-0.0653735026717186,0.5294989943504333,0.34945976734161377,-0.01941055618226528,4
179,0.014899048022925854,-0.11152840405702591,-0.1132882684469223,0.5300022959709167,0.34883999824523926,-0.020140813663601875,4
180,0.06321559101343155,-0.1502930223941803,0.0325855128467083,0.5308086276054382,0.34942105412483215,-0.021250436082482338,4
181,-0.04290817305445671,-0.10231934487819672,0.025546541437506676,0.5318312644958496,0.34900882840156555,-0.02076907455921173,4
182,0.010780327953398228,-0.08698076009750366,0.017503146082162857,0.532311737537384,0.34879493713378906,-0.02055622823536396,4
183,-0.011882851831614971,-0.17084439098834991,0.05761242285370827,0.5333856344223022,0.34793153405189514,-0.020196063444018364,4
184,0.02583443373441696,-0.18816359341144562,-0.08863155543804169,0.534562349319458,0.34746047854423523,-0.020770901814103127,4
185,-0.059604402631521225,-0.08611202239990234,-0.06483534723520279,0.5353724956512451,0.34752702713012695,-0.021338604390621185,4
186,0.11139145493507385,-0.13031889498233795,0.008283884264528751,0.5357007384300232,0.3473796248435974,-0.021881040185689926,4
187,-0.1199549213051796,-0.0598544217646122,0.024064531549811363,0.5358203053474426,0.3473788797855377,-0.021370679140090942,4
188,0.10187698900699615,-0.053226277232170105,0.11201953142881393,0.5355096459388733,0.3464340567588806,-0.02135412208735943,4
189,0.004932674579322338,-0.018938669934868813,0.02930494025349617,0.5356966257095337,0.34721189737319946,-0.020756982266902924,4
190,0.0727100595831871,-0.03896487131714821,-0.0009646516991779208,0.5357323288917542,0.347423791885376,-0.02033742144703865,4
191,-0.059474341571331024,-0.07617232948541641,0.04252339154481888,0.5359615683555603,0.3469601273536682,-0.02032860368490219,4
192,0.05064931511878967,-0.0709628313779831,0.06661886721849442,0.5360897779464722,0.34725984930992126,-0.019649485126137733,4
193,-0.05936570465564728,-0.21107661724090576,-0.006225261837244034,0.536449670791626,0.3465637266635895,-0.01947878487408161,4
194,0.007257955148816109,-0.09116436541080475,-0.14316363632678986,0.538048505783081,0.34635427594184875,-0.01974671334028244,4
195,0.06627695262432098,-0.18114037811756134,-0.022371632978320122,0.5382941365242004,0.3463486433029175,-0.021613623946905136,4
196,0.08390932530164719,-0.06407691538333893,-0.009327419102191925,0.53907710313797,0.34689486026763916,-0.021641245111823082,4
197,-0.02272650972008705,-0.137846902012825,0.09147551655769348,0.5394562482833862,0.3463100492954254,-0.021716950461268425,4
198,0.03288356959819794,-0.1867588311433792,-0.0402030348777771,0.5402241945266724,0.3461371064186096,-0.020830785855650902,4
199,0.04374338313937187,-0.11469662189483643,0.007374493405222893,0.5410357713699341,0.34593111276626587,-0.021150561049580574,4
200,0.006628809031099081,-0.07696788758039474,0.04451001062989235,0.5418072938919067,0.3464502990245819,-0.02100401744246483,4
201,-0.0010116862831637263,-0.03594180941581726,-0.03655262663960457,0.5423754453659058,0.3460924029350281,-0.020597292110323906,4
202,0.004949857480823994,-0.04715777188539505,-0.0432768240571022,0.5414847731590271,0.34592464566230774,-0.020905574783682823,4
203,0.04629436507821083,-0.040663257241249084,-0.08907510340213776,0.5415051579475403,0.3453574478626251,-0.021299393847584724,4
204,0.015145444311201572,-0.06935936212539673,-0.006521410308778286,0.5415061712265015,0.3453468978404999,-0.021885672584176064,4
205,0.03968971595168114,-0.09639840573072433,-0.07270709425210953,0.5414975881576538,0.34550145268440247,-0.022466415539383888,4
206,0.02176196128129959,-0.10742571949958801,0.03049410693347454,0.5423383712768555,0.34524667263031006,-0.022711237892508507,4
207,0.1029508039355278,-0.08098648488521576,-0.04344263672828674,0.542924165725708,0.3458889424800873,-0.022380592301487923,4
208,0.04575979337096214,-0.07019456475973129,-0.0692027360200882,0.5430808663368225,0.3461861312389374,-0.02313695289194584,4
209,-0.04977288842201233,-0.07654882222414017,-0.0013388115912675858,0.5425531268119812,0.34606337547302246,-0.023422762751579285,4
210,-0.05050433799624443,-0.13497522473335266,0.002114379545673728,0.5434209108352661,0.34509843587875366,-0.02343868464231491,4
211,0.009534318000078201,-0.14569100737571716,0.043849971145391464,0.5446835160255432,0.3452479839324951,-0.022930286824703217,4
212,-0.004462401382625103,-0.08731146156787872,-0.003482560161501169,0.5455726385116577,0.3452598452568054,-0.023980053141713142,4
213,-0.026527831330895424,0.032063838094472885,-0.31032341718673706,0.5461908578872681,0.345692902803421,-0.022849516943097115,4
214,-0.01676281914114952,0.04493045061826706,0.7550774216651917,0.546619713306427,0.34674516320228577,-0.024727588519454002,4
215,0.3582053780555725,0.23698419332504272,-0.018943196162581444,0.5406785607337952,0.3380177319049835,-0.02498757280409336,4
216,-0.2210925668478012,0.3603805601596832,-0.9269791841506958,0.5332255363464355,0.33096230030059814,-0.01708127185702324,4
217,0.3892975449562073,0.0023308326490223408,-1.4075102806091309,0.5266613960266113,0.32598409056663513,-0.0047189220786094666,4
218,-0.15805943310260773,0.041166435927152634,1.0970627069473267,0.5194296836853027,0.33532437682151794,-0.003941686823964119,4
219,0.49687114357948303,0.15530908107757568,-1.2730257511138916,0.5119432210922241,0.32532548904418945,-0.009823916479945183,4
220,-0.12565955519676208,0.2305247187614441,-2.7605698108673096,0.5049920082092285,0.31852972507476807,-0.016411829739809036,4
221,1.5836443901062012,-1.0196932554244995,-1.282469630241394,0.47263795137405396,0.2866377830505371,-0.03716883435845375,4
222,2.9301929473876953,-3.700528144836426,-1.5613737106323242,0.4283476769924164,0.2512247562408447,-0.0518919862806797,4
223,1.2417691946029663,0.7634276151657104,-1.4358303546905518,0.4093581736087799,0.21738654375076294,-0.061255887150764465,4
224,3.581514835357666,0.3110698163509369,-0.38236215710639954,0.35288006067276,0.16310183703899384,-0.07484973222017288,4
225,6.013804912567139,-0.49684470891952515,0.358153760433197,0.41834598779678345,0.2328062355518341,-0.06567700207233429,4
226,2.8689818382263184,-2.632716178894043,-2.7974181175231934,0.3197222352027893,0.15934820473194122,-0.07381269335746765,4
227,-8.955859184265137,6.5826945304870605,-7.308804988861084,0.3629550337791443,0.24655519425868988,-0.12564171850681305,4
228,15.166094779968262,-0.6428631544113159,-1.9734253883361816,0.3204566240310669,0.1565946787595749,-0.18782208859920502,4
229,-14.150197982788086,6.677030086517334,-2.8409790992736816,0.5158531069755554,0.27013343572616577,-0.2078591138124466,4
230,13.243465423583984,-7.178030490875244,-4.301539897918701,0.26729944348335266,0.10808327794075012,-0.23004257678985596,4
231,-0.8542250394821167,7.809104919433594,-2.9868619441986084,0.5308473110198975,0.3806973397731781,-0.2774214744567871,4
232,-7.359661102294922,-11.890509605407715,1.0992472171783447,0.24294255673885345,0.22572797536849976,-0.28902801871299744,4
233,18.68048858642578,-0.4905431866645813,4.462776184082031,0.48613837361335754,0.30681443214416504,-0.27388429641723633,4
234,-27.832094192504883,2.6068813800811768,11.320418357849121,0.25347569584846497,0.23432454466819763,-0.19546286761760712,4
235,-3.425992250442505,-17.518455505371094,8.14710807800293,0.48306596279144287,-0.09709957242012024,-0.09859014302492142,4
236,20.355863571166992,9.040689468383789,10.413690567016602,0.45033007860183716,0.13668058812618256,0.00017434608889743686,4
237,17.240217208862305,2.7966535091400146,7.84031867980957,0.3194292187690735,0.4695107042789459,0.09788144379854202,4
238,8.806816101074219,-13.103011131286621,7.655083179473877,0.36783185601234436,0.6634321808815002,0.17773425579071045,4
239,0.84560227394104,-23.905691146850586,7.202693462371826,0.6630973219871521,0.6940608024597168,0.2550274431705475,4
240,-0.6835202574729919,-20.95505714416504,6.123086452484131,1.0113695859909058,0.6511514186859131,0.31985920667648315,4
241,-4.300029754638672,-16.890178680419922,3.8597395420074463,1.2125616073608398,0.582809567451477,0.36929306387901306,4
242,-16.964962005615234,-3.979640007019043,3.117091178894043,1.3044636249542236,0.38640671968460083,0.40666571259498596,4
243,-27.620277404785156,12.35499382019043,0.7793112993240356,1.1721749305725098,0.012031519785523415,0.4375062882900238,4
244,-32.89712905883789,24.35209083557129,0.4609390199184418,0.8210231065750122,-0.25768163800239563,0.4388327896595001,4
245,-26.6038818359375,24.365068435668945,-0.007662975694984198,0.19812889397144318,-0.7380094528198242,0.45168817043304443,4
246,-3.125971555709839,18.76857566833496,1.316900372505188,-0.11737348884344101,0.5583741068840027,0.3908732533454895,4
247,8.132274627685547,-0.3726139962673187,2.704569101333618,-0.410278856754303,0.6307324767112732,0.40913575887680054,4
248,6.156728744506836,-13.948862075805664,2.543693780899048,-0.5734961628913879,1.0181821584701538,0.4354531466960907,4
249,-5.525604248046875,-19.158430099487305,2.363046884536743,0.16485565900802612,1.0289671421051025,0.4671054482460022,4
250,-18.30854606628418,-14.097230911254883,0.3873335123062134,-0.07889975607395172,1.6175521612167358,0.5027435421943665,4
251,-34.60126495361328,-6.610451698303223,-2.454214572906494,-1.1227517127990723,1.4899414777755737,0.4041508436203003,4
252,-43.58652114868164,-4.991724014282227,-3.363351821899414,-2.5241646766662598,-0.7417948246002197,-0.07745113223791122,4
253,-37.462371826171875,-21.32558822631836,-2.235377788543701,-2.860478401184082,-1.100284218788147,-0.10275941342115402,4
254,-17.183088302612305,-57.68085861206055,-0.6237484216690063,-2.1904914379119873,-0.13633975386619568,0.2214955985546112,4
255,7.130534648895264,-83.98713684082031,-0.11039437353610992,-2.2069613933563232,-1.3861163854599,-0.20326237380504608,4
256,24.039968490600586,-87.50310516357422,4.30851411819458,-0.3453899919986725,-0.8646297454833984,-0.22563347220420837,4
257,32.260440826416016,-89.3748779296875,6.13878870010376,-1.0606364011764526,0.34639087319374084,0.3959181606769562,4
258,20.64167594909668,-91.84951782226562,5.5317254066467285,1.3187059164047241,0.6225172281265259,0.09751210361719131,4
259,-2.0104453563690186,-99.82081604003906,7.659431457519531,4.574819087982178,-0.6010178327560425,-0.28056269884109497,4
260,-17.624317169189453,-96.85965728759766,8.320528984069824,7.861018180847168,-0.8746368885040283,-0.325800359249115,4
261,-27.52460479736328,-83.2918930053711,8.768621444702148,8.038675308227539,-1.303930640220642,-0.0613449327647686,4
262,-34.28286361694336,-60.619956970214844,9.772446632385254,10.531943321228027,-2.753974437713623,0.38343074917793274,4
263,-27.65703582763672,-30.52117347717285,6.423198223114014,10.100013732910156,-3.249166250228882,0.7934623956680298,4
264,-10.081157684326172,4.402740001678467,3.7737958431243896,9.913654327392578,-3.058898448944092,0.5822206139564514,4
265,6.971546173095703,42.59397888183594,7.375443935394287,11.456704139709473,-2.5726776123046875,-0.4544505178928375,4
266,26.908201217651367,80.50894927978516,18.44367027282715,10.890175819396973,-1.9863520860671997,-0.9429225921630859,4
267,31.760555267333984,105.9976577758789,22.89143180847168,11.009675979614258,-1.5365934371948242,-1.3908121585845947,4
268,27.27984619140625,141.0906982421875,25.22576332092285,9.999435424804688,-1.14791738986969,-1.4219152927398682,4
269,29.651870727539062,171.2473602294922,25.614730834960938,8.15814208984375,-0.707952082157135,-1.401963233947754,4
270,28.770944595336914,190.42880249023438,25.388925552368164,4.325212001800537,-0.4976769685745239,-0.5697503685951233,4
271,20.12127113342285,192.0722198486328,23.088180541992188,1.45826256275177,-0.016828030347824097,-0.4535214900970459,4
272,7.197093963623047,172.8887481689453,21.888126373291016,-2.2208304405212402,-0.5461110472679138,0.789435625076294,4
273,-2.2445356845855713,138.5489959716797,14.164582252502441,-5.799031734466553,-0.6587599515914917,1.5503239631652832,4
274,-4.372016429901123,97.75171661376953,8.887799263000488,-6.267943382263184,-0.6229777932167053,1.4175904989242554,4
275,-5.237484455108643,40.754783630371094,6.556907653808594,-6.568864345550537,-0.6814334392547607,1.4095568656921387,4
276,-1.8241324424743652,-20.472143173217773,3.453956365585327,-4.9024338722229,-0.5123940706253052,1.3164883852005005,4
277,12.293096542358398,-73.12903594970703,2.5143749713897705,-4.888223171234131,-0.4574930965900421,1.3728790283203125,4
278,16.980243682861328,-89.80776977539062,4.1656389236450195,-3.217780828475952,-0.19898134469985962,1.4320056438446045,4
279,20.363473892211914,-84.03271484375,5.426340103149414,-2.037071466445923,-1.0920835733413696,0.7129507064819336,4
280,21.33401870727539,-65.74131774902344,6.188376426696777,-1.2508033514022827,0.23689618706703186,1.550214171409607,4
281,11.422127723693848,-25.566909790039062,-1.5914907455444336,-0.5184252262115479,0.5204289555549622,1.636696457862854,4
282,2.793327569961548,9.821632385253906,-1.92592191696167,0.4269186556339264,-0.682698667049408,0.8751694560050964,4
283,-8.555059432983398,42.92213439941406,0.9429076910018921,-2.1854023933410645,-0.44403257966041565,1.024374008178711,4
284,-3.9795892238616943,53.886592864990234,-0.09832408279180527,-2.1830849647521973,-0.227518230676651,1.1340655088424683,4
285,4.477418899536133,51.19181823730469,-0.6999934315681458,-3.022930145263672,0.772783637046814,1.6059471368789673,4
286,8.222970962524414,32.40811538696289,-2.3003551959991455,-2.986546277999878,-0.7209564447402954,0.849338710308075,4
287,19.16022491455078,9.524617195129395,0.11668120324611664,-3.0357418060302734,-0.6129916906356812,0.8294937610626221,4
288,39.911895751953125,-4.994836807250977,1.028570532798767,-2.4725427627563477,0.08955487608909607,1.0439276695251465,4
289,55.72919845581055,-16.832012176513672,2.194131374359131,-1.380190372467041,1.0944916009902954,1.342511773109436,4
290,54.852169036865234,-32.56858825683594,1.1539462804794312,-1.343743920326233,3.1961851119995117,2.0857157707214355,4
291,38.27651596069336,-47.26215362548828,-0.8481351137161255,-1.7405962944030762,2.3309221267700195,1.3175129890441895,4
292,15.980866432189941,-41.36252212524414,2.102342367172241,-1.926000714302063,2.3215746879577637,1.1069387197494507,4
293,-7.243609428405762,-36.71881103515625,2.374394178390503,-1.032794713973999,2.0758228302001953,1.0741678476333618,4
294,-35.170616149902344,-31.479463577270508,0.7184084057807922,0.7794203758239746,1.5164157152175903,1.2905901670455933,4
295,-49.113502502441406,-15.446090698242188,-2.990973472595215,1.9534145593643188,2.003303289413452,1.7805951833724976,4
296,-55.89736557006836,2.0988986492156982,-4.045563220977783,2.5406689643859863,-0.8124594688415527,1.5518096685409546,4
297,-50.5521240234375,24.570831298828125,-1.9185134172439575,2.4567296504974365,-1.6155787706375122,1.5165331363677979,4
298,-25.10243034362793,57.732303619384766,-1.0401116609573364,1.2788816690444946,-1.3830474615097046,1.412257194519043,4
299,9.106416702270508,65.81965637207031,-1.0163310766220093,-0.22582076489925385,-2.308152437210083,1.3547136783599854,4
300,-18.938976287841797,-17.45197296142578,6.587578296661377,-0.6394218802452087,-1.1192541122436523,1.3725428581237793,4
301,0.45234590768814087,-29.498580932617188,9.986862182617188,-0.6607800126075745,-0.9766803979873657,1.4840023517608643,4
302,22.151386260986328,-15.628806114196777,9.850646018981934,-0.9143896102905273,-0.36814725399017334,1.5621167421340942,4
303,40.56706237792969,-4.439333915710449,5.990655422210693,-0.9802729487419128,0.300220787525177,1.6821297407150269,4
304,53.21027374267578,17.757688522338867,0.9521453380584717,-1.3066965341567993,1.1746512651443481,1.7748667001724243,4
305,49.663238525390625,25.879016876220703,-0.01013554073870182,-1.8206455707550049,2.0315804481506348,1.8180745840072632,4
306,39.8314323425293,32.77363586425781,0.8780493140220642,-2.4091379642486572,2.677922248840332,1.7970954179763794,4
307,4.356414318084717,34.828369140625,1.2530595064163208,-4.758588790893555,3.657548666000366,1.7017788887023926,4
308,-41.1443977355957,29.953351974487305,3.836803674697876,-5.552123546600342,3.397329807281494,1.5751774311065674,4
309,-77.52075958251953,-10.045489311218262,3.4789962768554688,-4.616881847381592,2.2864439487457275,1.732155203819275,4
310,-91.92859649658203,-47.48857498168945,0.1613447666168213,-3.368633985519409,0.6341380476951599,1.6043403148651123,4
311,-81.47635650634766,-59.7603645324707,1.2606834173202515,-2.1801717281341553,-0.864636242389679,1.44634211063385,4
312,-50.7590217590332,-57.01774978637695,0.4656063914299011,-2.3116238117218018,-1.4552087783813477,1.344422459602356,4
313,-6.409900188446045,-44.483638763427734,1.048126459121704,-1.179173469543457,-2.2937045097351074,1.1772698163986206,4
314,36.513729095458984,-31.109010696411133,2.4767005443573,-0.5830903649330139,-1.245866060256958,1.6245133876800537,4
315,72.148193359375,-9.161582946777344,1.3935942649841309,-1.4405932426452637,-0.3717251718044281,1.8331351280212402,4
316,89.05374145507812,9.37338638305664,-1.4825425148010254,-1.2417417764663696,0.6732460260391235,1.8994632959365845,4
317,69.61394500732422,11.499794960021973,-1.6132111549377441,-0.9794862270355225,1.6983997821807861,1.9250072240829468,4
318,45.2366943359375,0.48971444368362427,-1.2473397254943848,-2.8858416080474854,2.4755237102508545,2.03432559967041,4
319,10.839049339294434,-31.452434539794922,-1.2519195079803467,-1.4809601306915283,2.951770782470703,2.094163656234741,4
320,-23.199283599853516,-65.00896453857422,-2.7692103385925293,-0.2350960075855255,2.6583566665649414,2.078874349594116,4
321,-45.033653259277344,-77.8004379272461,-5.504338264465332,0.8222943544387817,2.484670400619507,2.1117918491363525,4
322,-60.51111602783203,-66.15094757080078,-6.518280506134033,2.7156786918640137,2.00480318069458,2.292682647705078,4
323,-67.7259521484375,-43.80164337158203,-5.772983551025391,3.882337808609009,1.8517694473266602,2.329819440841675,4
324,-77.48369598388672,-17.255144119262695,-2.6601502895355225,4.3785481452941895,0.9992380738258362,2.3493733406066895,4
325,-72.77192687988281,2.732555866241455,2.8235952854156494,4.688872337341309,0.7486053109169006,2.173274278640747,4
326,-61.212974548339844,20.719778060913086,4.810811996459961,4.383451461791992,0.020777156576514244,2.2113654613494873,4
327,-46.86075210571289,39.71269607543945,4.880119800567627,4.117867946624756,0.1572660207748413,1.831317663192749,4
328,-20.814790725708008,66.7590103149414,5.66856575012207,3.3123669624328613,-0.44140875339508057,2.0602142810821533,4
329,-5.969587326049805,82.44854736328125,0.8572962284088135,2.5754525661468506,-0.4142667055130005,1.970933198928833,4
330,7.491743087768555,90.8034896850586,-3.4312126636505127,1.3645845651626587,-0.7668516635894775,2.1771137714385986,4
331,20.168418884277344,97.23594665527344,-7.8972859382629395,0.7840662002563477,-0.3905848264694214,1.9744817018508911,4
332,26.629785537719727,84.99225616455078,-10.631016731262207,0.06386078149080276,0.0010453996947035193,1.808121919631958,4
333,15.268925666809082,70.31774139404297,-15.435271263122559,-1.123871088027954,-0.020355433225631714,1.8105136156082153,4
334,-6.57239294052124,54.206390380859375,-21.797903060913086,-1.5490694046020508,-0.023648981004953384,1.6319619417190552,4
335,-33.757789611816406,37.705352783203125,-27.720352172851562,-2.1171183586120605,-0.3018989861011505,1.401881456375122,4
336,-54.26960372924805,15.538166999816895,-34.8905029296875,-2.344933271408081,-0.6196040511131287,1.096486210823059,4
337,-62.26740646362305,1.208783507347107,-44.14399719238281,-2.590540885925293,-1.6875267028808594,0.6280225515365601,4
338,-63.069576263427734,-18.142892837524414,-53.93854522705078,-2.2514970302581787,-1.983490228652954,0.2032242715358734,4
339,-57.22707748413086,-32.5131950378418,-59.92559814453125,-2.1604106426239014,-3.176041841506958,-0.5205134153366089,4
340,-52.39191436767578,-39.931236267089844,-61.30292510986328,-1.8760026693344116,-3.587015390396118,-1.0393850803375244,4
341,-51.25794219970703,-37.298362731933594,-64.16188049316406,-1.601682186126709,-4.368716716766357,-1.681584119796753,4
342,-47.487220764160156,-31.347549438476562,-63.969764709472656,-1.2664768695831299,-4.618215560913086,-2.2071213722229004,4
343,-40.28728485107422,-22.331138610839844,-61.973026275634766,-1.1839921474456787,-4.896988868713379,-2.658820152282715,4
344,-31.769227981567383,-15.17431354522705,-59.03886795043945,-0.9631909728050232,-5.7376790046691895,-3.3859989643096924,4
345,-28.11054801940918,1.7790632247924805,-52.3627815246582,-0.7389557361602783,-5.586353778839111,-3.8736300468444824,4
346,-18.27521514892578,18.119718551635742,-46.879703521728516,-0.9443622827529907,-5.8120269775390625,-4.272895336151123,4
347,-5.971564769744873,26.219940185546875,-40.9342155456543,-1.0624607801437378,-5.89109992980957,-4.766340732574463,4
348,9.176542282104492,24.319684982299805,-34.65268325805664,-1.545584797859192,-5.836912631988525,-4.988516807556152,4
349,31.493165969848633,19.226119995117188,-29.13189125061035,-1.6248384714126587,-5.595655918121338,-5.398499965667725,4
350,47.325992584228516,9.798250198364258,-24.919883728027344,-1.777490258216858,-5.300994873046875,-5.6544318199157715,4
351,55.21045684814453,-4.1629109382629395,-21.561206817626953,-1.7707970142364502,-4.8078413009643555,-5.907341480255127,4
352,59.68247985839844,-14.085827827453613,-19.638708114624023,-1.8002768754959106,-4.788334369659424,-5.880831241607666,4
353,37.8106803894043,-18.67720603942871,-19.082015991210938,-1.5706745386123657,-3.9366579055786133,-6.115446090698242,4
354,8.796527862548828,-15.9006929397583,-19.8953857421875,-1.2814780473709106,-3.797053098678589,-6.435072422027588,4
355,-23.111379623413086,-16.12818717956543,-24.04368019104004,-1.009243130683899,-5.110978603363037,-6.933802127838135,4
356,-47.464263916015625,-14.476743698120117,-24.37065887451172,-1.195986270904541,-5.448802947998047,-6.944213390350342,4
357,-50.20830154418945,-7.80036735534668,-24.131004333496094,-0.5272791981697083,-6.400886535644531,-7.558340549468994,4
358,-31.265104293823242,-1.4625896215438843,-19.725563049316406,-0.4183836281299591,-6.417953968048096,-7.7267961502075195,4
359,-6.445653438568115,5.727507591247559,-18.054889678955078,-0.4792180061340332,-6.676180362701416,-7.838327407836914,4
360,27.582735061645508,10.949749946594238,-15.167498588562012,-0.5581684112548828,-6.317296504974365,-7.942501068115234,4
361,57.54407501220703,13.541156768798828,-16.893503189086914,-0.7286560535430908,-5.788046360015869,-8.021149635314941,4
362,82.33795928955078,8.064931869506836,-21.93297576904297,-0.8533062934875488,-5.201946258544922,-8.189041137695312,4
363,91.73304748535156,0.9592998027801514,-25.064083099365234,-0.8783073425292969,-4.011347770690918,-8.426957130432129,4
364,84.302734375,-4.928261756896973,-27.297182083129883,-0.8783901929855347,-3.215804100036621,-8.679238319396973,4
365,69.06216430664062,-7.714722156524658,-27.32720184326172,-0.8043208122253418,-2.4212183952331543,-8.972587585449219,4
366,45.020023345947266,-10.702455520629883,-25.20575523376465,-0.8046412467956543,-1.5585452318191528,-9.196842193603516,4
367,21.723201751708984,-8.111601829528809,-24.025835037231445,-0.6142744421958923,-1.1452586650848389,-9.494622230529785,4
368,6.645915508270264,-2.873488664627075,-20.502607345581055,-0.609213650226593,-0.7303701639175415,-9.69939136505127,4
369,0.5995320677757263,3.7082371711730957,-18.612226486206055,-0.6692649722099304,-0.6647264957427979,-9.878242492675781,4
370,-2.5687026977539062,2.3948917388916016,-15.848045349121094,-0.6613659858703613,-0.6323453783988953,-10.07214641571045,4
371,-10.220550537109375,-3.657968044281006,-11.6155424118042,-0.6618412137031555,-0.4982089102268219,-10.245353698730469,4
372,-19.10220718383789,-7.594013690948486,-8.126626014709473,-0.574775755405426,-0.359406977891922,-10.383234024047852,4
373,-15.937826156616211,-11.636127471923828,-5.050571441650391,-0.4281090497970581,-0.6021495461463928,-10.483710289001465,4
374,4.497846603393555,-10.552928924560547,-0.25562000274658203,-0.38069581985473633,-0.6417033672332764,-10.542852401733398,4
375,22.131858825683594,-7.213639736175537,4.790340900421143,-0.1786787062883377,-0.6390265822410583,-10.561882972717285,4
376,30.202800750732422,5.939540863037109,6.825592517852783,-0.26441022753715515,-0.34334829449653625,-10.53412914276123,4
377,32.91341781616211,18.942258834838867,9.310983657836914,-0.0811106339097023,-0.20787817239761353,-10.457155227661133,4
378,36.72743606567383,31.452392578125,10.251435279846191,-0.3078776001930237,0.008497580885887146,-10.37646770477295,4
379,36.96246337890625,32.37171173095703,10.698274612426758,-0.7701244354248047,0.6638751029968262,-10.299912452697754,4
380,31.429275512695312,24.36928367614746,7.485991954803467,-1.092960238456726,1.0610214471817017,-10.1947021484375,4
381,11.06942081451416,5.815110206604004,5.938595294952393,-1.362729787826538,1.491326093673706,-10.100196838378906,4
382,-9.42204475402832,-11.999176979064941,1.141143560409546,-1.2041882276535034,1.8342804908752441,-9.970497131347656,4
383,-22.281829833984375,-23.705501556396484,-3.0272014141082764,-0.9465804696083069,2.125187873840332,-9.878894805908203,4
384,-24.77774429321289,-36.92929458618164,-6.630555629730225,-0.7200518846511841,1.5411101579666138,-9.905831336975098,4
385,-31.300825119018555,-45.05019760131836,-10.147273063659668,-0.13270224630832672,0.2573125958442688,-9.89886474609375,4
386,-28.838085174560547,-46.13112258911133,-13.778542518615723,0.4009556472301483,0.16450275480747223,-9.954793930053711,4
387,-11.983210563659668,-35.26741409301758,-15.089954376220703,0.7982774376869202,-0.42747384309768677,-10.09386920928955,4
388,15.357026100158691,-21.079429626464844,-11.772740364074707,1.3752552270889282,-0.4195464253425598,-10.194181442260742,4
389,33.20442581176758,-2.472421884536743,-6.942538261413574,1.4548606872558594,0.11960723996162415,-10.425223350524902,4
390,37.3733024597168,19.603416442871094,-3.7776365280151367,1.2318429946899414,0.6860707998275757,-10.636119842529297,4
391,32.078800201416016,30.148895263671875,-0.5077440142631531,1.4212980270385742,0.784696102142334,-10.547359466552734,4
392,20.748254776000977,31.06637191772461,-1.2928268909454346,0.8563408851623535,0.9747776389122009,-10.607654571533203,4
393,0.420030802488327,38.359352111816406,-1.5877175331115723,0.32050955295562744,-0.5945495367050171,-10.330379486083984,4
394,-18.110559463500977,34.31145095825195,-1.6028921604156494,-0.11997353285551071,-0.18043829500675201,-10.436869621276855,4
395,-21.512908935546875,13.227640151977539,0.955784022808075,-0.6708486080169678,-0.11718929558992386,-10.534154891967773,4
396,-11.04953670501709,-12.018414497375488,3.5705928802490234,-0.8815359473228455,0.0395105816423893,-10.579171180725098,4
397,4.256528854370117,-30.093839645385742,4.233424663543701,-0.624164879322052,0.017250901088118553,-10.50796890258789,4
398,15.596688270568848,-41.987056732177734,4.071785926818848,-0.11251033842563629,0.5579140186309814,-10.498724937438965,4
399,21.05175018310547,-40.094581604003906,6.34269380569458,-0.10236795991659164,0.757744550704956,-10.511677742004395,4
400,20.422420501708984,-29.05951690673828,5.903740882873535,0.17103421688079834,1.2989158630371094,-10.524093627929688,4
401,6.48753547668457,-18.346813201904297,6.304176330566406,0.5223245620727539,1.560443639755249,-10.467729568481445,4
402,-18.462827682495117,-9.53498363494873,5.738986492156982,0.523880124092102,1.7515339851379395,-10.482641220092773,4
403,-46.439369201660156,7.5143632888793945,6.186569690704346,0.593359649181366,1.7438632249832153,-10.452292442321777,4
404,-69.55752563476562,27.657987594604492,8.955912590026855,0.543664276599884,1.4554665088653564,-10.408512115478516,4
405,-78.48477935791016,36.20149230957031,12.565250396728516,0.22155070304870605,0.9485719203948975,-10.369091033935547,4
406,-84.76151275634766,33.32261657714844,17.218791961669922,-0.1848653107881546,0.03915613889694214,-10.262582778930664,4
407,-79.18140411376953,21.19173240661621,21.353540420532227,-0.615112841129303,-0.4571163058280945,-10.148337364196777,4
408,-70.21442413330078,11.701610565185547,25.186975479125977,-0.8885069489479065,-1.590187907218933,-9.927135467529297,4
409,-52.12843704223633,0.5030558109283447,27.085458755493164,-0.9092076420783997,-2.016275644302368,-9.67695426940918,4
410,-25.235126495361328,-11.552438735961914,27.622289657592773,-0.8305582404136658,-2.478686571121216,-9.39450454711914,4
411,2.1083431243896484,-21.31285285949707,27.895917892456055,-0.7928336262702942,-2.639382839202881,-9.123003005981445,4
412,10.574796676635742,-21.350566864013672,26.510055541992188,-0.6010051965713501,-2.456380605697632,-8.83741283416748,4
413,6.795309066772461,-9.347167015075684,27.280405044555664,-0.34567973017692566,-2.442275047302246,-8.557300567626953,4
414,0.1723557561635971,5.327520370483398,30.180278778076172,-0.3514200448989868,-2.245400905609131,-8.283295631408691,4
415,-4.722557067871094,18.434646606445312,32.14695739746094,-0.35780930519104004,-2.2410037517547607,-7.989202499389648,4
416,-8.951274871826172,32.038455963134766,33.54097366333008,-0.6177759766578674,-2.4667510986328125,-7.675106048583984,4
417,-13.623035430908203,41.6529426574707,34.1373291015625,-1.010896921157837,-2.7269885540008545,-7.353991508483887,4
418,-12.683674812316895,44.02311325073242,34.228878021240234,-1.5424131155014038,-2.7944512367248535,-7.020505428314209,4
419,-10.960908889770508,39.21881103515625,32.79920959472656,-2.1760449409484863,-2.7863833904266357,-6.675022602081299,4
420,-11.608755111694336,26.39611053466797,32.04009246826172,-2.722031831741333,-2.9919049739837646,-6.360986709594727,4
421,-11.314509391784668,6.43716287612915,31.774198532104492,-3.019519090652466,-3.177098035812378,-6.075191020965576,4
422,-9.430639266967773,-18.942331314086914,30.87771224975586,-3.000481367111206,-3.3270761966705322,-5.799473762512207,4
423,-8.510896682739258,-31.574817657470703,30.894567489624023,-2.737823486328125,-3.5897624492645264,-5.549227237701416,4
424,-8.350147247314453,-31.66752815246582,30.941608428955078,-2.4945247173309326,-3.6638152599334717,-5.214755535125732,4
425,-1.034148097038269,-25.07316780090332,30.04507827758789,-0.9075590968132019,-5.202840805053711,-5.5171003341674805,4
426,12.528788566589355,-11.27490520477295,32.59838104248047,-0.6289607882499695,-4.5978217124938965,-5.0783891677856445,4
427,36.33781051635742,10.407611846923828,31.9280948638916,-1.0255756378173828,-4.42699670791626,-4.581320762634277,4
428,51.67673110961914,25.665298461914062,30.38231086730957,-0.8919865489006042,-2.7538561820983887,-4.092923164367676,4
429,48.6651496887207,36.0844612121582,28.22203826904297,-1.2848625183105469,-3.0686237812042236,-3.882258415222168,4
430,32.30588150024414,45.058406829833984,28.112895965576172,-1.5005824565887451,-1.9947654008865356,-3.5605356693267822,4
431,13.332799911499023,45.71240997314453,26.780029296875,-2.242058038711548,0.8712681531906128,-2.7387940883636475,4
432,-16.12066650390625,41.25796890258789,22.92429542541504,-2.862173557281494,0.7674009203910828,-2.4760711193084717,4
433,-47.896854400634766,30.434967041015625,21.70330047607422,-3.474903106689453,0.29916757345199585,-2.2878613471984863,4
434,-75.407958984375,5.9730329513549805,22.425264358520508,-3.8863441944122314,-0.42989906668663025,-2.148108959197998,4
435,-91.5508804321289,-27.99917221069336,23.72089385986328,-3.9398446083068848,-1.8154590129852295,-2.1455562114715576,4
436,-90.79931640625,-62.44679641723633,26.162559509277344,-3.9529082775115967,-2.7901339530944824,-1.9147119522094727,4
437,-72.41789245605469,-91.93472290039062,27.079700469970703,-3.0762789249420166,-4.024306297302246,-1.7724881172180176,4
438,-39.866764068603516,-107.22395324707031,30.85979652404785,-2.6161012649536133,-4.477455139160156,-1.2883498668670654,4
439,3.0949482917785645,-106.57951354980469,33.571197509765625,-1.1738975048065186,-5.073709487915039,-1.0165979862213135,4
440,44.74207305908203,-85.42529296875,38.94377899169922,-0.2235381007194519,-5.292907238006592,-0.6285953521728516,4
441,64.00653076171875,-54.72220993041992,42.397212982177734,0.5398085713386536,-4.754522323608398,-0.09479611366987228,4
442,71.32762908935547,-18.932315826416016,43.815650939941406,0.9305049180984497,-4.251218795776367,0.39495041966438293,4
443,72.69757080078125,4.085843086242676,43.846553802490234,0.6218082308769226,-4.008804798126221,0.9198777675628662,4
444,72.91079711914062,13.236489295959473,45.3690185546875,0.6440865993499756,-2.904216766357422,1.3915313482284546,4
445,65.20523071289062,3.8704535961151123,46.37968444824219,0.3519975543022156,-2.7064208984375,1.8320525884628296,4
446,41.212013244628906,-16.751441955566406,44.91474533081055,0.35576432943344116,-1.7641913890838623,2.290205240249634,4
447,21.967321395874023,-28.339374542236328,42.01163864135742,0.4498518705368042,-1.8177837133407593,2.727998971939087,4
448,6.003067493438721,-39.413692474365234,36.120361328125,0.8268149495124817,-1.4052759408950806,3.1348867416381836,4
449,-5.222455978393555,-58.27783966064453,28.037458419799805,1.2286806106567383,-1.6001497507095337,3.5100717544555664,4
450,-9.414996147155762,-60.10034942626953,21.260740280151367,2.054640054702759,-1.645588755607605,3.7618796825408936,4
451,-2.3758139610290527,-47.25703811645508,16.482149124145508,2.5438292026519775,-1.8879215717315674,4.038152694702148,4
452,2.430391311645508,-19.645357131958008,13.919940948486328,2.726870536804199,-1.8640429973602295,4.2736029624938965,4
453,16.325525283813477,11.581891059875488,10.697129249572754,3.10219144821167,-1.7695955038070679,4.391528606414795,4
454,35.81788635253906,42.95840835571289,8.547276496887207,3.0102155208587646,-1.797045111656189,4.541877269744873,4
455,43.54182815551758,70.64715576171875,5.415411949157715,2.4732470512390137,-1.2226735353469849,4.576653003692627,4
456,50.748104095458984,80.46308135986328,5.939123630523682,1.505455732345581,-0.7764438986778259,4.647232532501221,4
457,48.8244514465332,70.28900146484375,5.635996341705322,0.5677550435066223,-0.32536056637763977,4.718055725097656,4
458,41.899200439453125,45.67075729370117,5.921522617340088,-0.11284927278757095,0.18559907376766205,4.77588415145874,4
459,31.32733154296875,21.31084442138672,3.864656686782837,-0.6602973341941833,0.6408709287643433,4.837040901184082,4
460,21.495315551757812,-8.909719467163086,3.7475061416625977,-0.7292707562446594,1.003175973892212,4.882948875427246,4
461,10.315742492675781,-45.07753372192383,5.226253032684326,-0.5705671310424805,1.0367562770843506,4.963144779205322,4
462,-5.555204391479492,-70.78714752197266,6.9516215324401855,0.14623422920703888,1.2756942510604858,5.015059947967529,4
463,-27.667198181152344,-73.78372955322266,11.184648513793945,0.6444294452667236,1.0681958198547363,5.081667423248291,4
464,-48.21393585205078,-64.38812255859375,12.000730514526367,1.6277638673782349,0.7620071768760681,5.220476150512695,4
465,-56.81095886230469,-52.460655212402344,10.559298515319824,2.1701743602752686,0.3351251184940338,5.310814380645752,4
466,-53.24777603149414,-31.342323303222656,10.978185653686523,2.824084997177124,-0.32133588194847107,5.458673477172852,4
467,-36.21720504760742,-0.4769207835197449,12.57767105102539,3.3840224742889404,-0.7256790399551392,5.572698593139648,4
468,-13.109434127807617,37.67738723754883,14.361649513244629,3.227553367614746,-1.1942344903945923,5.672184467315674,4
469,11.003974914550781,72.3919448852539,15.496692657470703,2.883392810821533,-1.250470757484436,5.751543045043945,4
470,18.010194778442383,88.72575378417969,15.213706016540527,1.8898534774780273,-1.0442602634429932,5.788532257080078,4
471,16.114477157592773,81.91899871826172,18.067609786987305,0.8922625780105591,-0.9417863488197327,5.923951148986816,4
472,10.152107238769531,53.625389099121094,19.671310424804688,0.08132510632276535,-0.6089286804199219,6.038755416870117,4
473,2.21693754196167,14.14053726196289,17.139745712280273,-0.6570224165916443,-0.38197439908981323,6.189092636108398,4
474,1.4389222860336304,-27.26214599609375,13.94079303741455,-0.766156017780304,-0.37485265731811523,6.403217792510986,4
475,2.728848457336426,-56.62333679199219,11.190031051635742,-0.2329072207212448,-0.3305695354938507,6.603726863861084,4
476,7.783837795257568,-69.10729217529297,10.93294906616211,0.4231228530406952,-0.25157323479652405,6.737928867340088,4
477,7.836324691772461,-64.30229187011719,12.633417129516602,1.2705578804016113,-0.09572720527648926,6.854409694671631,4
478,5.623045444488525,-54.410926818847656,14.50390911102295,2.7952511310577393,-0.16635338962078094,7.144877910614014,4
479,10.833913803100586,-35.73231506347656,15.980317115783691,4.18190336227417,-0.5692905783653259,7.526594161987305,4
480,11.34604263305664,1.9964593648910522,19.4544620513916,4.313277244567871,-0.3323809504508972,7.5890278816223145,4
481,7.737885475158691,47.80486297607422,20.352258682250977,4.261341094970703,-0.10445211082696915,7.712271690368652,4
482,2.868971347808838,86.42344665527344,19.7252254486084,3.669585943222046,0.3217621445655823,7.775429725646973,4
483,-8.887893676757812,111.55237579345703,20.129268646240234,2.412557363510132,0.4381158947944641,7.871153831481934,4
484,-19.978601455688477,118.11918640136719,21.72151756286621,-0.13115468621253967,0.5713977813720703,7.754172325134277,4
485,-31.72018814086914,102.43020629882812,24.533432006835938,-1.9838922023773193,0.2162269651889801,7.912738800048828,4
486,-34.44523239135742,70.262939453125,24.34646224975586,-3.5105409622192383,-0.31025299429893494,8.125624656677246,4
487,-28.441991806030273,22.198251724243164,21.408519744873047,-4.083292484283447,-0.8390703797340393,8.43393325805664,4
488,-10.024612426757812,-22.789714813232422,18.264455795288086,-3.927799940109253,-1.233688235282898,8.746362686157227,4
489,22.393898010253906,-55.66230773925781,17.384639739990234,-3.791630268096924,-1.128908395767212,8.929281234741211,4
490,52.41560363769531,-74.5078125,17.610525131225586,-2.7027318477630615,-0.7198456525802612,9.203669548034668,4
491,66.04459381103516,-83.1741943359375,14.063610076904297,-1.4644547700881958,-0.21891047060489655,9.456221580505371,4
492,64.87964630126953,-80.00361633300781,10.912145614624023,1.1126172542572021,-0.6583906412124634,9.784414291381836,4
493,46.12385177612305,-58.124515533447266,8.570294380187988,2.185798168182373,0.20084044337272644,9.942755699157715,4
494,31.442350387573242,-18.68975067138672,7.393646717071533,2.774827718734741,0.9034420847892761,10.014920234680176,4
495,16.29911994934082,27.646888732910156,6.9508376121521,2.9100265502929688,0.915137529373169,10.088451385498047,4
496,8.269661903381348,64.86143493652344,7.843025207519531,2.457124948501587,0.9042714238166809,10.134016990661621,4
497,0.16532213985919952,88.91976928710938,12.099492073059082,1.53640615940094,1.1838178634643555,10.139754295349121,4
498,-14.83863639831543,101.93663024902344,14.444436073303223,0.4460282623767853,1.2520685195922852,10.21410083770752,4
499,-15.417057991027832,101.86833190917969,14.517078399658203,-0.7760832905769348,1.0174164772033691,10.33720874786377,4
500,-5.861594200134277,80.07646942138672,13.186212539672852,-1.8848955631256104,0.7151442170143127,10.494101524353027,4
501,3.3919553756713867,43.61473846435547,11.53976821899414,-2.2608065605163574,0.9643731117248535,10.731258392333984,4
502,11.550271987915039,4.92570686340332,8.677495956420898,-2.840665817260742,0.9989694356918335,10.836552619934082,4
503,18.673118591308594,-20.85165786743164,6.898471832275391,-2.944810390472412,1.1800068616867065,10.943398475646973,4
504,31.67978286743164,-38.227027893066406,6.291954517364502,-2.7274656295776367,1.5070185661315918,11.03620433807373,4
505,43.989688873291016,-39.49252700805664,6.223752975463867,-2.6031899452209473,1.6448458433151245,11.010781288146973,4
506,52.4207649230957,-31.777618408203125,7.7315993309021,-1.974387526512146,2.455432176589966,11.174537658691406,4
507,44.56393814086914,-23.63665008544922,6.546751022338867,-1.6500020027160645,2.979926824569702,11.233708381652832,4
508,23.916545867919922,-19.90856170654297,4.447372913360596,-1.2822521924972534,3.4165596961975098,11.315691947937012,4
509,6.362646102905273,-8.363210678100586,0.45458874106407166,-1.1040288209915161,3.65582275390625,11.337336540222168,4
510,-9.494789123535156,2.39169979095459,-1.6680039167404175,-1.1162890195846558,3.792581081390381,11.315937042236328,4
511,-35.73508834838867,11.934131622314453,-1.7158867120742798,-1.1500236988067627,3.581470012664795,11.274174690246582,4
512,-63.10608673095703,8.574477195739746,-0.3414432108402252,-1.3249425888061523,3.3411312103271484,11.259398460388184,4
513,-83.06261444091797,1.7939380407333374,-1.4201163053512573,-1.511979341506958,2.337721586227417,11.150211334228516,4
514,-76.7806396484375,-2.058468818664551,-3.007937431335449,-1.4808048009872437,1.847969889640808,11.21858024597168,4
515,-48.33934783935547,-4.752078056335449,-4.52703332901001,-1.703766942024231,0.9243484735488892,11.05349349975586,4
516,-14.540383338928223,-3.053307056427002,-2.951051712036133,-1.5426689386367798,0.5323511362075806,11.08454704284668,4
517,15.149961471557617,0.30186763405799866,-0.8924456238746643,-1.4357612133026123,0.33779653906822205,11.081819534301758,4
518,31.920394897460938,-3.8004565238952637,-1.1747007369995117,-1.6040925979614258,0.6685858964920044,11.050680160522461,4
519,35.1439323425293,-10.60862922668457,-1.6340135335922241,-1.5319395065307617,1.1846951246261597,11.099318504333496,4
520,34.61470413208008,-23.7547550201416,-3.1811447143554688,-1.326390266418457,1.4808522462844849,11.103947639465332,4
521,31.006622314453125,-32.158531188964844,-4.742923259735107,-0.9067341089248657,1.7121700048446655,11.103797912597656,4
522,21.684326171875,-27.323455810546875,-5.414679050445557,-0.9888601899147034,2.255574941635132,10.962833404541016,4
523,1.9461817741394043,-17.638351440429688,-3.763859987258911,-0.8185107707977295,2.5035858154296875,10.865911483764648,4
524,-19.392824172973633,-12.369339942932129,-3.9647886753082275,-0.43644651770591736,2.449798822402954,10.867731094360352,4
525,-36.67600631713867,-9.591517448425293,-5.57976770401001,-0.22237847745418549,2.172775983810425,10.836247444152832,4
526,-45.9905891418457,-4.974767208099365,-6.193033695220947,-0.1329936683177948,1.741646647453308,10.764655113220215,4
527,-46.486820220947266,3.523574113845825,-7.157330513000488,-0.4345235824584961,1.4119950532913208,10.58918571472168,4
528,-49.29927062988281,13.33547592163086,-10.271381378173828,-0.38626399636268616,0.7141208648681641,10.513825416564941,4
529,-45.776611328125,13.694029808044434,-11.00901985168457,-0.7122875452041626,0.20280517637729645,10.3478422164917,4
530,-39.14241409301758,-3.789067506790161,-8.803877830505371,-0.7988007068634033,0.14052532613277435,10.30091667175293,4
531,-22.143293380737305,-24.35004997253418,-6.844898700714111,-0.6709176301956177,-0.4874770939350128,10.219027519226074,4
532,-0.726553738117218,-32.54975509643555,-2.113121747970581,-0.37336352467536926,-0.7170829772949219,10.175654411315918,4
533,16.142887115478516,-21.447256088256836,2.6579692363739014,-0.03597388043999672,-0.629673957824707,10.167369842529297,4
534,11.459418296813965,-4.100004196166992,4.087769508361816,-0.0890686884522438,-0.4208679497241974,10.145950317382812,4
535,5.068541049957275,5.448300838470459,4.3825788497924805,0.13314947485923767,-0.2906006872653961,10.212971687316895,4
536,-2.8945047855377197,14.601819038391113,3.088191270828247,0.14045166969299316,-0.3427639901638031,10.25584602355957,4
537,-12.285114288330078,18.20181655883789,1.4603571891784668,-0.13209021091461182,-0.3564889132976532,10.269153594970703,4
538,-21.0194149017334,21.28360939025879,-0.941406786441803,-0.3075512945652008,-0.5578151345252991,10.278039932250977,4
539,-35.41511154174805,18.416261672973633,-4.4887824058532715,-0.549223005771637,-0.5635929703712463,10.274651527404785,4
540,-40.800479888916016,4.48946475982666,-5.708922386169434,-0.5941827893257141,-1.2151243686676025,10.226419448852539,4
541,-52.427268981933594,-6.342904567718506,-8.452533721923828,-0.7715950012207031,-1.5146316289901733,10.167229652404785,4
542,-49.05023956298828,-12.333917617797852,-7.694745063781738,-0.5592063665390015,-2.281845808029175,10.081703186035156,4
543,-41.68762969970703,-20.074371337890625,-7.483732223510742,-0.2936881482601166,-2.6451077461242676,10.014753341674805,4
544,-27.72633171081543,-26.612411499023438,-7.718996524810791,0.044041816145181656,-2.9374568462371826,9.953741073608398,4
545,-6.1314215660095215,-23.25430679321289,-9.88775634765625,0.4241282641887665,-3.4169700145721436,9.880875587463379,4
546,18.405029296875,-17.5423583984375,-12.502422332763672,0.5653575658798218,-3.4774434566497803,9.80620002746582,4
547,47.123756408691406,-6.289224147796631,-13.890719413757324,0.4906522035598755,-3.2058444023132324,9.71961784362793,4
548,67.978515625,7.876218795776367,-14.548316955566406,0.6905220150947571,-2.617995262145996,9.568462371826172,4
549,73.88615417480469,17.94098663330078,-14.516061782836914,0.5774450302124023,-1.6479116678237915,9.427464485168457,4
550,65.60139465332031,22.01892852783203,-16.736183166503906,0.28881603479385376,-1.2109827995300293,9.309370994567871,4
551,51.461029052734375,16.111858367919922,-22.187978744506836,0.04762212187051773,-0.43947795033454895,9.141861915588379,4
552,34.21976089477539,4.662928581237793,-28.40067481994629,0.002481709234416485,0.1728556901216507,8.8971529006958,4
553,14.00812816619873,-5.1066179275512695,-33.40711975097656,-0.19408181309700012,0.6965563893318176,8.645188331604004,4
554,4.4793901443481445,-10.716891288757324,-36.6959114074707,0.05509475618600845,0.16968534886837006,8.314713478088379,4
555,10.281517028808594,-3.7691526412963867,-36.501243591308594,0.179334819316864,0.2782127261161804,7.949553489685059,4
556,23.931509017944336,14.009220123291016,-33.2618408203125,0.17444361746311188,0.44291576743125916,7.591313362121582,4
557,40.650577545166016,31.159452438354492,-26.585947036743164,0.023793566972017288,0.8848113417625427,7.253628253936768,4
558,51.52088928222656,46.9723014831543,-21.41556167602539,-0.36085373163223267,1.3385825157165527,6.993993759155273,4
559,42.04249954223633,46.02138137817383,-17.930749893188477,-1.0550183057785034,1.9509183168411255,6.803987979888916,4
560,21.3148250579834,24.472558975219727,-15.879376411437988,-1.4598170518875122,1.9820531606674194,6.647200584411621,4
561,-1.9475547075271606,-7.7756476402282715,-13.216980934143066,-1.6290401220321655,2.307833671569824,6.491983413696289,4
562,-17.744050979614258,-39.30110168457031,-11.057493209838867,-1.3879402875900269,2.1821494102478027,6.356711387634277,4
563,-25.799673080444336,-59.713016510009766,-9.855417251586914,-0.9961544275283813,2.1270458698272705,6.233712673187256,4
564,-31.94288444519043,-73.47248077392578,-5.5101423263549805,0.06376993656158447,1.6895074844360352,6.136726379394531,4
565,-29.799610137939453,-74.94245910644531,-4.516849994659424,0.36220604181289673,1.6432607173919678,6.024354457855225,4
566,-28.345863342285156,-69.90162658691406,-2.8881871700286865,1.4112364053726196,1.1071358919143677,5.985517501831055,4
567,-17.97821044921875,-46.022159576416016,-1.39846670627594,1.7996399402618408,0.8626841902732849,5.906581401824951,4
568,-4.809504508972168,-17.108617782592773,-0.543044924736023,2.502305269241333,0.6485399007797241,5.914972305297852,4
569,6.177967071533203,11.076973915100098,-0.5189931988716125,2.6028785705566406,0.7556670904159546,5.88493537902832,4
570,12.689526557922363,37.179813385009766,-0.44406741857528687,2.3038723468780518,0.8620622754096985,5.852924346923828,4
571,13.21174430847168,58.66111373901367,0.021320635452866554,1.892232894897461,1.0408432483673096,5.839222431182861,4
572,7.696126461029053,73.0625991821289,1.509385108947754,1.1193665266036987,1.16512131690979,5.831136703491211,4
573,-11.781721115112305,79.69253540039062,2.846144676208496,0.20496892929077148,1.3319679498672485,5.82731819152832,4
574,-44.767887115478516,75.51313018798828,2.3801989555358887,-0.45622822642326355,1.0575437545776367,5.912909984588623,4
575,-71.20378875732422,55.94593048095703,0.0035046080593019724,-1.5357626676559448,0.47062620520591736,5.919740200042725,4
576,-87.2698974609375,17.641185760498047,-4.036410331726074,-1.9290010929107666,-0.09717770665884018,5.924773216247559,4
577,-73.447998046875,-32.03721237182617,-11.069097518920898,-1.9754252433776855,-1.2179288864135742,5.923105239868164,4
578,-35.162010192871094,-73.64993286132812,-19.431276321411133,-1.471451759338379,-1.806319236755371,5.837315559387207,4
579,15.537131309509277,-91.95062255859375,-23.228368759155273,-0.6067337989807129,-1.918800711631775,5.675958633422852,4
580,52.93578338623047,-91.40260314941406,-21.411081314086914,0.4231380820274353,-1.6353543996810913,5.479660511016846,4
581,70.45223999023438,-78.81322479248047,-19.624101638793945,1.444791555404663,-1.093677043914795,5.29055118560791,4
582,64.43238830566406,-49.93447494506836,-18.61825180053711,2.271118402481079,-0.24460020661354065,5.099066734313965,4
583,44.81523132324219,-14.636165618896484,-19.695999145507812,2.5765328407287598,0.3736787736415863,4.915817737579346,4
584,21.071828842163086,30.80856704711914,-24.29357147216797,2.7263619899749756,0.9505637884140015,4.701866149902344,4
585,-3.8305249214172363,64.18396759033203,-27.899721145629883,2.230329990386963,1.1409131288528442,4.475894451141357,4
586,-29.823589324951172,81.4525375366211,-33.06770324707031,1.3950939178466797,1.08035147190094,4.22091007232666,4
587,-45.282470703125,83.27362823486328,-38.848026275634766,0.5160930156707764,0.6502432823181152,3.9302916526794434,4
588,-41.010658264160156,66.90380859375,-42.613956451416016,-0.3620716631412506,0.0931343138217926,3.5748603343963623,4
589,-12.805758476257324,40.908973693847656,-44.00835037231445,-1.033519983291626,-0.22884443402290344,3.144115447998047,4
590,18.844572067260742,8.727254867553711,-41.52214050292969,-1.401669979095459,-0.44022291898727417,2.716334342956543,4
591,42.52449417114258,-25.473052978515625,-38.480499267578125,-1.4757061004638672,-0.1512334942817688,2.2863829135894775,4
592,57.96863555908203,-48.46543884277344,-35.86543273925781,-1.1222261190414429,0.4570373296737671,1.8854215145111084,4
593,48.028812408447266,-62.050411224365234,-35.0478515625,-0.2937297821044922,1.3402984142303467,1.5039606094360352,4
594,15.419469833374023,-55.45161437988281,-35.537044525146484,0.4102957546710968,1.4072245359420776,1.1670289039611816,4
595,-13.900408744812012,-35.07472610473633,-33.22412109375,1.0828417539596558,1.938201665878296,0.7848609685897827,4
596,-40.72942352294922,-4.232175350189209,-28.054521560668945,1.7038973569869995,1.235520362854004,0.48820674419403076,4
597,-62.266292572021484,36.192806243896484,-24.464265823364258,1.690285086631775,0.8249707221984863,0.19766807556152344,4
598,-67.15674591064453,69.70603942871094,-23.325611114501953,1.0854823589324951,-0.006894465070217848,-0.04358193278312683,4
599,-60.526187896728516,85.98950958251953,-24.539653778076172,0.47645485401153564,-1.6797348260879517,-0.18496054410934448,4
600,-36.93769454956055,73.72631072998047,-29.65520477294922,-0.7348557710647583,-1.9106321334838867,-0.5147953629493713,4
601,-6.314060688018799,46.10324478149414,-35.43077850341797,-2.134359121322632,-0.34884291887283325,-1.0008512735366821,4
602,14.417238235473633,17.842422485351562,-38.28970718383789,-2.7474236488342285,-0.4342385232448578,-1.3541877269744873,4
603,27.560577392578125,-11.796842575073242,-39.43212127685547,-2.8520021438598633,-0.2607526481151581,-1.7317217588424683,4
604,34.27574157714844,-34.869686126708984,-40.443790435791016,-2.4909729957580566,0.05619927868247032,-2.121439218521118,4
605,34.00320816040039,-52.285118103027344,-42.897274017333984,-2.067971706390381,0.47866252064704895,-2.522146463394165,4
606,18.353595733642578,-68.86109924316406,-48.31105041503906,-1.3213326930999756,0.7177656888961792,-2.963895559310913,4
607,1.134596824645996,-72.46942901611328,-53.9796028137207,-0.3669567406177521,1.0193814039230347,-3.448619842529297,4
608,-18.671525955200195,-65.07508850097656,-56.66179275512695,0.23373325169086456,0.8626180291175842,-4.013871669769287,4
609,-44.54490661621094,-45.53546905517578,-58.23495864868164,0.8083049654960632,0.832477331161499,-4.5768938064575195,4
610,-59.98393249511719,-9.565644264221191,-57.06962203979492,1.132510781288147,0.39157602190971375,-5.166091442108154,4
611,-73.97147369384766,25.025226593017578,-52.73454284667969,1.0827910900115967,-0.3966462314128876,-5.748990058898926,4
612,-79.43370819091797,49.05144119262695,-51.32622146606445,0.8306652307510376,-1.5492819547653198,-6.300098896026611,4
613,-68.0650405883789,63.63398361206055,-49.6080207824707,0.1752777099609375,-2.2336413860321045,-6.828768253326416,4
614,-57.415985107421875,67.46893310546875,-46.4899787902832,-0.42806369066238403,-2.90393328666687,-7.348001003265381,4
615,-34.32859420776367,69.17994689941406,-41.90729522705078,-1.2735095024108887,-3.4843835830688477,-7.844993591308594,4
616,-20.034332275390625,60.517677307128906,-38.40580368041992,-1.9272476434707642,-3.8981642723083496,-8.30733585357666,4
617,-3.564639091491699,42.76589584350586,-34.47970199584961,-2.5779635906219482,-4.121257305145264,-8.726258277893066,4
618,3.70527982711792,15.456205368041992,-28.952482223510742,-3.050206184387207,-4.17834997177124,-9.091497421264648,4
619,12.276528358459473,-14.566978454589844,-25.1267147064209,-3.059868812561035,-3.9211931228637695,-9.388408660888672,4
620,21.676284790039062,-49.48556137084961,-21.4260311126709,-2.531092882156372,-3.6196718215942383,-9.681303024291992,4
621,24.191946029663086,-80.73764038085938,-17.398645401000977,-1.836984395980835,-3.657627582550049,-9.942340850830078,4
622,21.383485794067383,-100.9908447265625,-15.652264595031738,-0.7306162118911743,-3.388326406478882,-10.141070365905762,4
623,15.860833168029785,-101.60867309570312,-13.051629066467285,0.025402303785085678,-3.080639123916626,-10.14901065826416,4
624,10.275123596191406,-86.22662353515625,-8.457596778869629,1.418542742729187,-2.86968731880188,-10.34555435180664,4
625,-6.024051666259766,-55.22475051879883,-0.8433988690376282,2.0748658180236816,-3.0159621238708496,-10.347898483276367,4
626,-15.68966007232666,-20.38605308532715,7.610230922698975,3.066812515258789,-3.1821107864379883,-10.488805770874023,4
627,-5.870768070220947,2.4273533821105957,16.47498321533203,2.8385746479034424,-3.1416966915130615,-10.228538513183594,4
628,4.772225379943848,18.637685775756836,19.060033798217773,2.7955923080444336,-3.256984233856201,-10.066516876220703,4
629,15.160868644714355,35.94517517089844,19.491212844848633,2.3795835971832275,-3.16947603225708,-9.805754661560059,4
630,18.643171310424805,48.79096221923828,20.373029708862305,2.0236992835998535,-2.9388604164123535,-9.6384859085083,4
631,19.835525512695312,55.947669982910156,23.7510929107666,1.538001298904419,-2.655517816543579,-9.471757888793945,4
632,20.075767517089844,55.70388412475586,28.1118106842041,0.7591531872749329,-2.5022428035736084,-9.175050735473633,4
633,24.735498428344727,33.20686721801758,27.34993553161621,0.013726777397096157,-2.4311864376068115,-8.82630443572998,4
634,37.068885803222656,12.597298622131348,24.1203670501709,-0.2696022093296051,-1.9852406978607178,-8.615753173828125,4
635,41.5059928894043,0.6232600808143616,21.808841705322266,-0.3154497742652893,-1.4494324922561646,-8.435261726379395,4
636,37.51359939575195,-14.737678527832031,16.124624252319336,-0.37421897053718567,-0.9524133801460266,-8.208232879638672,4
637,20.367408752441406,-24.711462020874023,14.55713176727295,-0.1759665608406067,-0.8686572909355164,-8.038834571838379,4
638,10.170570373535156,-22.899673461914062,14.433048248291016,0.10963528603315353,-0.644910991191864,-7.904428005218506,4
639,6.149442195892334,-16.61274528503418,16.753005981445312,0.25340476632118225,-0.7497012615203857,-7.709506511688232,4
640,4.316931247711182,4.680707931518555,17.583362579345703,0.5206823945045471,-0.6385365724563599,-7.587158203125,4
641,-2.950273036956787,6.735715866088867,19.6291561126709,0.08978143334388733,-0.5895652174949646,-7.2967681884765625,4
642,-10.351478576660156,-10.211256980895996,16.621984481811523,0.20801013708114624,-0.6685521602630615,-7.15179967880249,4
643,-21.112110137939453,-22.00828742980957,14.513840675354004,0.23497137427330017,-0.8833109140396118,-6.951250076293945,4
644,-17.299028396606445,-25.44341278076172,13.831216812133789,0.6241807341575623,-1.1474488973617554,-6.835581302642822,4
645,-12.032912254333496,-29.027515411376953,9.349035263061523,0.8449974060058594,-1.1072757244110107,-6.70526647567749,4
646,-13.027552604675293,-28.68365478515625,9.500584602355957,1.0091444253921509,-1.308178424835205,-6.571752548217773,4
647,-19.896310806274414,-22.254329681396484,8.077374458312988,1.2525030374526978,-1.4819481372833252,-6.465459823608398,4
648,-18.337753295898438,-7.738194942474365,9.637166023254395,1.5119789838790894,-1.7430970668792725,-6.383450984954834,4
649,-7.973032474517822,-0.26648378372192383,13.65686321258545,1.4829399585723877,-1.8070234060287476,-6.270834445953369,4
650,3.4539549350738525,14.422855377197266,18.010276794433594,1.2968488931655884,-1.756121277809143,-6.122613906860352,4
651,-0.7929680943489075,31.988237380981445,22.968706130981445,1.0830745697021484,-1.5534776449203491,-5.962095737457275,4
652,-16.73439598083496,38.40736770629883,26.4171142578125,0.7063560485839844,-1.6261051893234253,-5.723705291748047,4
653,-20.525094985961914,42.07310104370117,30.86882972717285,0.29590481519699097,-1.9376773834228516,-5.447734832763672,4
654,-2.2721502780914307,38.00292205810547,32.532676696777344,-0.2468969225883484,-2.019007444381714,-5.150304317474365,4
655,22.995643615722656,24.602689743041992,29.921762466430664,-0.738988995552063,-1.9993537664413452,-4.825438976287842,4
656,42.161888122558594,5.407371997833252,26.371177673339844,-0.8233452439308167,-1.5499776601791382,-4.583611488342285,4
657,36.79743957519531,-17.18947410583496,26.00341033935547,-0.7313145995140076,-0.854225218296051,-4.36538553237915,4
658,19.162748336791992,-39.62129211425781,28.111774444580078,-0.44364452362060547,-0.4497731626033783,-4.122452259063721,4
659,-17.201553344726562,-58.03959655761719,31.329082489013672,-0.33215227723121643,-0.38465386629104614,-3.7866480350494385,4
660,-54.44100570678711,-64.29679870605469,35.37919998168945,0.4779847264289856,-0.7853838801383972,-3.486278772354126,4
661,-83.00811004638672,-66.0071029663086,37.33280563354492,0.991378664970398,-1.2467694282531738,-3.1089515686035156,4
662,-99.5895767211914,-67.326416015625,38.92095184326172,1.90591299533844,-2.3397974967956543,-2.727705717086792,4
663,-99.28575134277344,-65.1399917602539,40.96903610229492,2.422236919403076,-3.1937944889068604,-2.3064115047454834,4
664,-85.00234985351562,-52.5628776550293,43.9359245300293,3.276473045349121,-4.584892749786377,-1.8399301767349243,4
665,-59.852108001708984,-41.13669204711914,44.23196029663086,3.9582669734954834,-5.0650529861450195,-1.436362624168396,4
666,-22.179033279418945,-28.994592666625977,44.644508361816406,4.426930904388428,-5.969461441040039,-0.9142345190048218,4
667,7.604526996612549,-14.023567199707031,43.457618713378906,4.339215278625488,-5.863987445831299,-0.4670773446559906,4
668,39.18158721923828,5.482436656951904,43.059261322021484,4.456817150115967,-5.660778522491455,-0.06677646189928055,4
669,54.48263168334961,19.9653377532959,41.42726516723633,4.234391212463379,-5.219750881195068,0.36444804072380066,4
670,57.17044448852539,22.093917846679688,38.083282470703125,3.970756769180298,-4.617990016937256,0.7336490154266357,4
671,49.705257415771484,9.841938018798828,33.94759750366211,3.7248847484588623,-3.9402735233306885,1.0446982383728027,4
672,36.77670669555664,3.4577136039733887,28.903881072998047,3.536332368850708,-3.812577724456787,1.534157395362854,4
673,23.79520606994629,-0.9396191239356995,24.629981994628906,3.602811813354492,-3.3972740173339844,1.733273983001709,4
674,9.138697624206543,-6.1036601066589355,21.323509216308594,3.6653289794921875,-3.2718160152435303,1.9883917570114136,4
675,-0.007973321713507175,-5.256675720214844,15.642157554626465,3.7078187465667725,-3.152707099914551,2.176490068435669,4
676,-3.3382866382598877,-1.097120761871338,10.792402267456055,3.7275123596191406,-3.420527219772339,2.4449663162231445,4
677,4.84572172164917,4.022632122039795,6.907549858093262,3.8069281578063965,-3.423097848892212,2.495189666748047,4
678,25.383764266967773,-1.1846952438354492,2.8716254234313965,3.845675468444824,-3.4548609256744385,2.5798702239990234,4
679,44.218971252441406,2.054042339324951,-0.006628865376114845,3.700512170791626,-3.2957170009613037,2.7251594066619873,4
680,57.053253173828125,12.442005157470703,-1.8540277481079102,3.716204881668091,-2.562974691390991,2.565032482147217,4
681,64.2271728515625,24.5758056640625,-0.553678035736084,3.4621214866638184,-2.0431787967681885,2.6240200996398926,4
682,69.17095947265625,28.656824111938477,2.568150281906128,3.1854870319366455,-1.3241416215896606,2.5941708087921143,4
683,47.33053970336914,31.160926818847656,2.454063653945923,2.9069395065307617,-0.9697962999343872,2.747145175933838,4
684,21.879520416259766,27.837825775146484,0.49763789772987366,2.6207096576690674,-0.6429244875907898,2.8098366260528564,4
685,0.6325067281723022,26.446226119995117,-0.3656236529350281,2.3819026947021484,-0.5792566537857056,2.855916976928711,4
686,-4.543253421783447,30.29354476928711,0.6382048726081848,1.9704391956329346,-0.5596262216567993,2.8784372806549072,4
687,-12.165726661682129,29.277904510498047,1.2552884817123413,1.7444056272506714,-0.6525135040283203,2.871394395828247,4
688,-7.966531753540039,15.158634185791016,5.020415306091309,1.3498510122299194,-0.7344602346420288,2.8983523845672607,4
689,2.3231029510498047,-2.7362451553344727,10.13441276550293,1.322169542312622,-0.8801077604293823,2.970396041870117,4
690,7.633701801300049,-16.776018142700195,9.62838363647461,1.502234935760498,-0.7865581512451172,3.024698257446289,4
691,22.106096267700195,-20.83321762084961,10.829833030700684,1.8457411527633667,-0.7276929616928101,3.115567684173584,4
692,27.81450843811035,-26.93896484375,11.433320999145508,2.0209405422210693,-0.5241507887840271,3.2394003868103027,4
693,33.07993698120117,-16.61635398864746,12.358952522277832,2.4130446910858154,-0.08723516762256622,3.2925209999084473,4
694,33.54823684692383,5.421693325042725,16.549362182617188,2.4938905239105225,0.265299916267395,3.41300368309021,4
695,37.612979888916016,29.421707153320312,19.90735626220703,2.286748170852661,0.7001903653144836,3.551659107208252,4
696,40.029457092285156,61.6407356262207,24.451171875,1.8721942901611328,0.8088011741638184,3.8386001586914062,4
697,48.23676300048828,82.47709655761719,26.62076759338379,0.9690793752670288,1.466323733329773,4.017292022705078,4
698,58.95612716674805,89.89364624023438,25.728710174560547,0.23976531624794006,1.9317560195922852,4.315869331359863,4
699,68.9114990234375,80.92951202392578,27.408010482788086,-0.514073371887207,2.20886492729187,4.688778400421143,4
700,68.86199188232422,56.96659469604492,27.706546783447266,-1.524425983428955,3.265930652618408,4.897099018096924,4
701,66.27310180664062,26.35589599609375,30.01939582824707,-1.6884018182754517,3.680941581726074,5.310100078582764,4
702,51.6113166809082,7.661996841430664,31.2551212310791,-2.0088279247283936,4.699921131134033,5.579025745391846,4
703,28.443700790405273,-3.427661895751953,32.77967834472656,-1.722261905670166,4.8191962242126465,6.000979900360107,4
704,-3.9155619144439697,-10.66529369354248,31.829435348510742,-1.6047377586364746,5.227586269378662,6.346332550048828,4
705,-42.80657958984375,-27.41996192932129,30.222122192382812,-1.412703514099121,5.077409744262695,6.6616129875183105,4
706,-92.63801574707031,-57.489559173583984,25.53139305114746,-0.972475528717041,4.293487548828125,6.948207378387451,4
707,-139.81610107421875,-98.29695892333984,16.32367515563965,-0.23353931307792664,3.3381247520446777,7.2093095779418945,4
708,-134.79617309570312,-114.69664001464844,8.243195533752441,1.193192720413208,1.494750738143921,7.511036396026611,4
709,-81.90543365478516,-108.27493286132812,0.7442189455032349,2.2323548793792725,0.5447748303413391,7.549440860748291,4
710,-11.913593292236328,-88.09508514404297,-4.299676418304443,2.973764419555664,0.30301371216773987,7.404156684875488,4
711,41.03324890136719,-55.126895904541016,-8.263355255126953,4.055698394775391,0.47450336813926697,7.516800403594971,4
712,61.998130798339844,-9.212560653686523,-13.309919357299805,4.300690174102783,1.0479696989059448,7.269755840301514,4
713,52.200252532958984,52.36104202270508,-16.461816787719727,4.266918182373047,1.7679146528244019,7.095219135284424,4
714,36.51862335205078,106.35987854003906,-18.646682739257812,3.460278034210205,1.9311190843582153,6.833748817443848,4
715,17.783824920654297,133.9781036376953,-20.911806106567383,1.9462153911590576,2.3647027015686035,6.454310894012451,4
716,5.141585350036621,131.68728637695312,-24.333101272583008,0.705119788646698,2.4850001335144043,6.361154556274414,4
717,-4.632444858551025,106.05268096923828,-28.14565086364746,-0.9682188630104065,2.5476255416870117,5.973508358001709,4
718,-7.971123218536377,74.66931915283203,-28.424636840820312,-1.549292802810669,2.297004222869873,5.998206615447998,4
719,5.301940441131592,52.014591217041016,-28.37057876586914,-2.3441758155822754,2.4377517700195312,5.702281951904297,4
720,20.49020004272461,27.56287956237793,-25.602169036865234,-2.7510745525360107,2.5693788528442383,5.499134540557861,4
721,27.89177703857422,0.4941733181476593,-24.554733276367188,-2.8171072006225586,2.8410773277282715,5.366234302520752,4
722,19.493383407592773,-22.617998123168945,-25.231582641601562,-2.7755768299102783,3.107060670852661,5.145937442779541,4
723,-17.6103458404541,-38.12311935424805,-29.98027229309082,-2.5244760513305664,3.313621759414673,4.908962249755859,4
724,-65.64227294921875,-45.164039611816406,-37.527793884277344,-2.024026870727539,2.9333853721618652,4.622100830078125,4
725,-100.48670959472656,-27.019607543945312,-41.921512603759766,-1.5333800315856934,2.1286375522613525,4.238333225250244,4
726,-118.76736450195312,13.853285789489746,-42.55443572998047,-1.3782049417495728,0.7327780723571777,3.6684653759002686,4
727,-127.88262176513672,47.640769958496094,-40.72686767578125,-1.7991317510604858,-0.3369687497615814,3.1486856937408447,4
728,-109.85648345947266,66.72501373291016,-39.17786407470703,-2.383052110671997,-1.7949119806289673,2.6062448024749756,4
729,-61.78451919555664,70.64779663085938,-35.75731658935547,-3.1609044075012207,-2.5748298168182373,2.247316837310791,4
730,3.7165942192077637,63.69105911254883,-35.38388442993164,-3.8230695724487305,-2.972054958343506,1.9545396566390991,4
731,61.460086822509766,42.47012710571289,-36.353816986083984,-4.691498279571533,-2.823056936264038,1.5287209749221802,4
732,106.21058654785156,8.926228523254395,-37.893592834472656,-5.179649829864502,-2.1235625743865967,1.1441147327423096,4
733,135.02838134765625,-22.233510971069336,-38.7269287109375,-4.515603065490723,-0.455008864402771,1.2773505449295044,4
734,153.0955352783203,-52.0556526184082,-36.41423416137695,-3.973970413208008,0.633847713470459,0.7874675393104553,4
735,158.59805297851562,-71.95670318603516,-29.648662567138672,-3.2768235206604004,2.6951282024383545,0.7764714360237122,4
736,143.0586395263672,-72.40086364746094,-25.117769241333008,-2.6787166595458984,3.9118616580963135,0.20923259854316711,4
737,105.83146667480469,-70.65188598632812,-17.558324813842773,-1.842201590538025,5.386054515838623,0.009144415147602558,4
738,41.51264953613281,-56.29132080078125,-16.213956832885742,-1.3584818840026855,6.093675136566162,-0.408904105424881,4
739,-6.324984550476074,-44.483402252197266,-11.975444793701172,-1.0703651905059814,5.963261604309082,-1.0074169635772705,4
740,-52.49773025512695,-18.621578216552734,-5.8450775146484375,-0.5377829074859619,5.631414413452148,-1.2504879236221313,4
741,-79.66510772705078,6.531365394592285,-4.026147842407227,-0.4210785925388336,5.1277756690979,-1.2958426475524902,4
742,-95.38668823242188,21.216882705688477,-2.258727788925171,-0.6568840146064758,3.6618237495422363,-1.7321674823760986,4
743,-92.43846130371094,26.826805114746094,-0.6740652918815613,-1.050219178199768,3.258845090866089,-1.5230563879013062,4
744,-80.4791259765625,22.354694366455078,-4.183998107910156,-1.4274414777755737,1.9978108406066895,-1.7533044815063477,4
745,-64.96810913085938,7.915651798248291,-4.071429252624512,-1.5898797512054443,1.5739842653274536,-1.5759835243225098,4
746,-53.331077575683594,-5.507814407348633,-6.88673210144043,-1.4683645963668823,1.0056413412094116,-1.4979641437530518,4
747,-40.8814697265625,-3.648405075073242,-7.1078104972839355,-1.464718222618103,0.5319622755050659,-1.5610301494598389,4
748,-27.077184677124023,-8.10566520690918,-8.37907600402832,-1.4713528156280518,0.19651414453983307,-1.625542402267456,4
749,-10.020627975463867,-5.966116905212402,-11.896097183227539,-1.4387423992156982,0.07896476984024048,-1.6617010831832886,4
750,5.02815580368042,-4.099338531494141,-13.348039627075195,-1.4039690494537354,-0.03744525834918022,-1.8048231601715088,4
751,7.731284141540527,6.295175552368164,-10.579320907592773,-1.3458455801010132,0.05993584543466568,-1.9033147096633911,4
752,7.560805797576904,21.210309982299805,-9.024346351623535,-1.4000940322875977,0.24349652230739594,-1.9516521692276,4
753,2.837089776992798,30.013935089111328,-8.323180198669434,-1.7239242792129517,0.26612380146980286,-2.090585708618164,4
754,-8.15017318725586,25.42898941040039,-4.947451114654541,-2.123857259750366,0.5656419396400452,-2.071587562561035,4
755,-25.48690414428711,5.469925880432129,-4.508022785186768,-2.372345209121704,0.24811185896396637,-2.213728427886963,4
756,-41.40811538696289,-3.5866568088531494,-2.76312255859375,-2.387763023376465,0.1326071321964264,-2.1841981410980225,4
757,-52.693023681640625,1.0387656688690186,-2.082000494003296,-2.2257182598114014,-0.490336149930954,-2.2728793621063232,4
758,-54.255271911621094,-2.1264712810516357,-1.9760658740997314,-2.196342706680298,-0.7920787930488586,-2.1868488788604736,4
759,-45.9283447265625,-7.174623012542725,-2.0606846809387207,-2.1049530506134033,-1.33061945438385,-2.203712224960327,4
760,-50.605430603027344,-0.444408118724823,3.0387651920318604,-2.061187267303467,-1.8461105823516846,-2.2415080070495605,4
761,-59.26459884643555,1.311092495918274,6.126373291015625,-2.123643636703491,-2.3931005001068115,-2.2244393825531006,4
762,-56.12329864501953,-13.744142532348633,6.047872543334961,-2.2095584869384766,-2.9457595348358154,-2.152766704559326,4
763,-55.657379150390625,-20.750455856323242,4.943865776062012,-1.9626344442367554,-3.5263543128967285,-2.0956645011901855,4
764,-63.39234924316406,-20.491252899169922,5.333033561706543,-1.706398367881775,-4.198476791381836,-2.079263687133789,4
765,-46.933414459228516,-23.620832443237305,10.036591529846191,-1.4752333164215088,-4.577696800231934,-1.9070736169815063,4
766,2.337158679962158,-38.556304931640625,8.86939525604248,-1.1517143249511719,-5.076114177703857,-1.8327454328536987,4
767,60.04196548461914,-46.95681381225586,4.046150207519531,-0.5976223349571228,-4.635930061340332,-1.6196964979171753,4
768,98.08560180664062,-44.4968147277832,-1.8317126035690308,-0.34565070271492004,-3.6605491638183594,-1.3802062273025513,4
769,102.81844329833984,-43.6090202331543,-6.033816814422607,0.06728065013885498,-2.71124267578125,-1.3781251907348633,4
770,80.47742462158203,-39.75062942504883,-6.389779090881348,0.22462011873722076,-1.9937585592269897,-1.4044817686080933,4
771,46.34376525878906,-20.640438079833984,-5.464029788970947,0.8467544317245483,-1.1440917253494263,-1.530253291130066,4
772,17.609268188476562,7.3375725746154785,-3.977820634841919,0.9387630224227905,-0.6907016634941101,-1.5398032665252686,4
773,-10.367430686950684,25.840530395507812,-3.8909976482391357,0.7083601951599121,-0.5760732293128967,-1.5366735458374023,4
774,-43.195655822753906,22.580760955810547,-4.560227870941162,0.4103718101978302,-0.9500866532325745,-1.6053699254989624,4
775,-62.4731559753418,1.4161896705627441,-4.570523738861084,0.3840707838535309,-1.4425835609436035,-1.727847933769226,4
776,-62.2123908996582,-22.04400634765625,-7.6868577003479,0.56917405128479,-2.1150405406951904,-1.8427326679229736,4
777,-43.13775634765625,-31.247392654418945,-11.39955997467041,0.4793480932712555,-2.8090152740478516,-1.806395411491394,4
778,-11.108101844787598,-22.417606353759766,-11.590039253234863,0.7506234645843506,-2.9528982639312744,-1.877809762954712,4
779,12.758201599121094,-3.6945555210113525,-8.79208755493164,0.9933289885520935,-3.134958028793335,-1.998634934425354,4
780,29.749149322509766,10.531670570373535,-7.1377081871032715,1.0841058492660522,-2.6867213249206543,-2.101579427719116,4
781,35.23405075073242,28.01097869873047,-5.13620662689209,0.9238699078559875,-2.4640347957611084,-2.1597676277160645,4
782,21.126358032226562,53.2297477722168,0.16022031009197235,0.5146306753158569,-1.9646722078323364,-2.1750707626342773,4
783,-12.003116607666016,66.17845153808594,3.5627548694610596,-0.22002702951431274,-1.86464262008667,-2.104794979095459,4
784,-59.0355224609375,61.77119445800781,8.113729476928711,-1.0392897129058838,-2.2767550945281982,-2.0119500160217285,4
785,-110.55341339111328,46.128910064697266,15.447598457336426,-1.5734139680862427,-3.0185258388519287,-1.982364535331726,4
786,-148.88134765625,21.481718063354492,17.876548767089844,-2.0742523670196533,-4.701743125915527,-1.835838794708252,4
787,-157.8528594970703,-13.203243255615234,16.517492294311523,-2.056389808654785,-6.020135879516602,-1.7758076190948486,4
788,-129.87103271484375,-58.80651092529297,18.731884002685547,-1.6923701763153076,-8.068763732910156,-1.6867334842681885,4
789,-76.53981018066406,-98.02440643310547,21.72063446044922,-0.8346005082130432,-8.898961067199707,-1.5113251209259033,4
790,-12.505537033081055,-112.68529510498047,26.758676528930664,0.3457554876804352,-9.194972038269043,-1.2413824796676636,4
791,62.64101028442383,-101.71554565429688,33.3777961730957,1.7376432418823242,-9.017017364501953,-0.9858087301254272,4
792,120.27606201171875,-78.6229248046875,39.51568603515625,2.647138833999634,-8.028626441955566,-0.37023526430130005,4
793,162.37844848632812,-39.7038459777832,43.98752975463867,3.2513654232025146,-6.6555681228637695,0.18093115091323853,4
794,169.2345428466797,0.3004812002182007,45.23686981201172,3.43768048286438,-5.3755574226379395,0.7797941565513611,4
795,148.55421447753906,34.96294403076172,44.06563949584961,3.275286912918091,-3.201303005218506,1.2358715534210205,4
796,107.23339080810547,71.26689147949219,39.383296966552734,2.617710590362549,-2.2158429622650146,1.8676677942276,4
797,68.43216705322266,84.58865356445312,30.693744659423828,1.5674031972885132,-1.2793359756469727,2.481886148452759,4
798,22.942415237426758,82.80073547363281,20.99457550048828,0.7191674709320068,-1.1361017227172852,2.8288376331329346,4
799,0.09076520800590515,51.02212905883789,14.91211223602295,0.05552774667739868,-1.005113959312439,2.936826705932617,4
800,-6.733232498168945,7.136763572692871,11.779901504516602,-0.3119693696498871,-1.2578860521316528,3.085186004638672,4
801,-2.1053478717803955,-27.316633224487305,7.267308712005615,-0.1160392090678215,-1.2647664546966553,3.061149835586548,4
802,1.4872421026229858,-43.560970306396484,4.373745441436768,0.47827041149139404,-1.2100708484649658,2.9522738456726074,4
803,0.6992989182472229,-41.4134407043457,4.415127277374268,0.9972519874572754,-1.1879633665084839,2.9606363773345947,4
804,-2.5853092670440674,-17.636146545410156,5.211459636688232,1.3996490240097046,-1.1395894289016724,2.9797234535217285,4
805,21.0251522064209,9.699006080627441,9.443928718566895,1.4219294786453247,-1.3002694845199585,3.130167007446289,4
806,38.64891815185547,42.55035400390625,13.912718772888184,1.0801337957382202,-0.9291290640830994,3.2857067584991455,4
807,49.73422622680664,78.1666259765625,17.55576515197754,0.48177415132522583,-0.7561453580856323,3.5051381587982178,4
808,53.10967254638672,93.37269592285156,17.136829376220703,-0.7172281742095947,0.05127258226275444,3.7710583209991455,4
809,36.33394241333008,76.2697525024414,11.58521842956543,-1.422649621963501,0.16272464394569397,3.922952175140381,4
810,22.84067726135254,47.72138214111328,4.386166095733643,-1.9779276847839355,0.3403242528438568,4.001236915588379,4
811,19.796367645263672,17.3981990814209,0.9712740182876587,-2.32586669921875,0.662118136882782,4.013031482696533,4
812,10.001808166503906,-9.535919189453125,-1.6119825839996338,-2.3146250247955322,0.8507339358329773,3.990145444869995,4
813,-3.9490578174591064,-44.8486328125,-6.7091546058654785,-1.8789989948272705,0.9030764698982239,3.914067029953003,4
814,-7.812091827392578,-72.64873504638672,-10.175990104675293,-1.2153193950653076,0.7573171257972717,3.802708148956299,4
815,4.008119583129883,-82.09432220458984,-10.346556663513184,-0.3133337199687958,0.7759440541267395,3.673247814178467,4
816,21.422815322875977,-63.771461486816406,-8.081482887268066,0.2993220090866089,1.0104930400848389,3.5764856338500977,4
817,29.212656021118164,-36.47808074951172,-3.3096020221710205,1.0208630561828613,1.205959677696228,3.4935591220855713,4
818,30.308923721313477,3.883971691131592,0.5047150254249573,0.903158962726593,1.4299700260162354,3.4585070610046387,4
819,21.17933464050293,29.693767547607422,-0.5176218152046204,0.7876110076904297,1.8272647857666016,3.4678876399993896,4
820,14.60671615600586,35.81293487548828,-1.277862310409546,0.25870707631111145,2.0885589122772217,3.45266056060791,4
821,8.619840621948242,45.75917434692383,2.872058629989624,-0.30113574862480164,2.0925347805023193,3.4374406337738037,4
822,3.1771082878112793,50.82997512817383,5.041967868804932,-0.749627411365509,2.2208268642425537,3.4916298389434814,4
823,-1.4717693328857422,37.00767135620117,3.3241167068481445,-1.2275151014328003,2.2256953716278076,3.5582222938537598,4
824,-1.307789921760559,15.446603775024414,-1.0244135856628418,-1.6436916589736938,2.2441182136535645,3.572836399078369,4
825,6.745084762573242,3.784788131713867,-3.904113531112671,-1.720898985862732,2.328834295272827,3.580237627029419,4
826,6.948941230773926,-5.775746822357178,-7.671513557434082,-1.6249358654022217,2.352583646774292,3.5707826614379883,4
827,11.388321876525879,-9.901082038879395,-8.1587495803833,-1.4778804779052734,2.3797097206115723,3.515185594558716,4
828,6.080456256866455,1.9287117719650269,-8.442705154418945,-1.2411984205245972,2.6213033199310303,3.5002388954162598,4
829,1.0898845195770264,8.475452423095703,-7.602145195007324,-1.4244434833526611,2.6896822452545166,3.3585569858551025,4
830,-19.739521026611328,26.93391990661621,-6.382578372955322,-1.5572453737258911,2.587109327316284,3.2838635444641113,4
831,-34.039737701416016,26.26270866394043,-5.120810508728027,-1.9311097860336304,2.2190122604370117,3.1758875846862793,4
832,-29.780094146728516,19.72406005859375,-2.915442943572998,-2.246285915374756,1.8414974212646484,3.104015588760376,4
833,-19.822559356689453,2.513232469558716,1.1107088327407837,-2.387604236602783,1.655583143234253,3.1168808937072754,4
834,-9.212240219116211,-26.3544864654541,2.7223005294799805,-2.3441879749298096,1.4808305501937866,3.1354856491088867,4
835,0.25307005643844604,-51.84311294555664,1.2402883768081665,-1.8141448497772217,1.4752936363220215,3.2685623168945312,4
836,-2.044330596923828,-60.18158721923828,1.8856134414672852,-1.4644062519073486,1.5838168859481812,3.1965203285217285,4
837,-12.68114948272705,-55.14884567260742,3.264003038406372,-0.6463636755943298,1.5173450708389282,3.308706283569336,4
838,-18.991561889648438,-47.3489990234375,0.7549805045127869,-0.08231456577777863,1.3636977672576904,3.331014633178711,4
839,-26.593961715698242,-36.72410202026367,-1.9130557775497437,0.035086777061223984,1.19107985496521,3.1671690940856934,4
840,-27.807270050048828,-31.074316024780273,-5.417697906494141,0.6124705672264099,0.744214653968811,3.2099459171295166,4
841,-14.860031127929688,-16.739700317382812,-12.01984977722168,0.9041562676429749,0.6417720913887024,3.165027379989624,4
842,0.2208530604839325,6.11318826675415,-11.317888259887695,0.7493526935577393,0.5489690899848938,2.9227378368377686,4
843,-5.985770225524902,29.786582946777344,-4.652689456939697,0.5904833078384399,0.7010238170623779,2.834078788757324,4
844,-19.15472412109375,38.75099182128906,0.023839427158236504,0.18870453536510468,0.5665105581283569,2.761594533920288,4
845,-42.4466438293457,44.75166702270508,2.4997143745422363,-0.2506759762763977,0.3184795379638672,2.748649835586548,4
846,-64.46223449707031,45.014713287353516,5.398346424102783,-0.8694861531257629,-0.4065244793891907,2.6987645626068115,4
847,-71.84774017333984,29.446706771850586,8.111663818359375,-1.320878028869629,-1.3641188144683838,2.7186737060546875,4
848,-57.445335388183594,11.253657341003418,9.06443977355957,-1.4876835346221924,-1.810465931892395,2.8447983264923096,4
849,-21.483867645263672,0.3547499477863312,10.158493041992188,-1.4812254905700684,-2.1693155765533447,2.9782512187957764,4
850,17.070072174072266,-3.203569173812866,11.246679306030273,-1.3979252576828003,-2.052729368209839,3.1273415088653564,4
851,57.73109817504883,-14.794770240783691,13.043583869934082,-1.3000680208206177,-1.6024972200393677,3.2746071815490723,4
852,86.40543365478516,-22.5207576751709,15.148279190063477,-0.9432225823402405,-0.8187540769577026,3.4630117416381836,4
853,81.98573303222656,-30.684843063354492,16.573549270629883,-0.5561374425888062,0.2284689098596573,3.660407781600952,4
854,63.869056701660156,-29.649982452392578,18.447757720947266,-0.5660849809646606,0.8370786905288696,3.7694215774536133,4
855,21.760164260864258,-23.704540252685547,20.841760635375977,-0.080160953104496,1.3697021007537842,3.9707233905792236,4
856,-33.301185607910156,-21.636367797851562,21.703113555908203,0.09987720102071762,1.5397913455963135,4.188502788543701,4
857,-94.41373443603516,-27.525577545166016,18.526765823364258,0.6529784798622131,0.6857859492301941,4.401729106903076,4
858,-133.5044403076172,-36.71488952636719,14.447333335876465,0.601420521736145,-0.6470056772232056,4.5074052810668945,4
859,-136.99314880371094,-40.711830139160156,12.785049438476562,0.935853123664856,-1.7692934274673462,4.659676551818848,4
860,-118.4428939819336,-37.70377731323242,7.614338397979736,1.6223872900009155,-3.3060760498046875,4.826266288757324,4
861,-86.7923583984375,-45.801116943359375,5.197012901306152,2.035773992538452,-4.392751693725586,4.922957897186279,4
862,-46.18110656738281,-31.980924606323242,3.160479784011841,2.456441640853882,-5.078175067901611,4.998668193817139,4
863,-6.364711761474609,-12.071745872497559,1.1822375059127808,2.61704158782959,-5.260059356689453,5.03548002243042,4
864,36.997474670410156,18.076702117919922,-0.9474688768386841,2.778412342071533,-4.9540910720825195,5.011463642120361,4
865,49.63629150390625,36.44683837890625,-1.9420840740203857,2.3787128925323486,-4.439002990722656,4.986710548400879,4
866,55.39138412475586,52.52701187133789,-2.543513298034668,1.7577677965164185,-3.6165730953216553,4.916281223297119,4
867,41.82856750488281,56.69968795776367,-7.363595008850098,1.1692986488342285,-3.253709077835083,4.883172035217285,4
868,32.748992919921875,54.330345153808594,-16.447235107421875,0.5743723511695862,-2.9293363094329834,4.77311372756958,4
869,48.716312408447266,37.21432113647461,-20.319814682006836,0.040566522628068924,-2.7350172996520996,4.620678424835205,4
870,78.76654052734375,5.826488494873047,-21.70387077331543,-0.06253635138273239,-2.0829734802246094,4.336825847625732,4
871,107.69673919677734,-11.79210376739502,-18.332515716552734,-0.015995783731341362,-0.9453198909759521,4.048656463623047,4
872,113.06714630126953,-16.409709930419922,-15.335909843444824,0.3307403028011322,0.11162340641021729,3.8053393363952637,4
873,88.73368835449219,1.9736568927764893,-11.426008224487305,0.27963903546333313,1.3484441041946411,3.678462266921997,4
874,46.2099723815918,17.598234176635742,-8.074113845825195,0.04788386449217796,1.8998196125030518,3.653927803039551,4
875,4.748985290527344,27.29119300842285,-5.347153663635254,-0.16382336616516113,1.9710088968276978,3.620302677154541,4
876,-29.046476364135742,16.035966873168945,-2.009404420852661,-0.4100254476070404,1.7472898960113525,3.6025378704071045,4
877,-49.461875915527344,-8.917269706726074,-0.7307498455047607,-0.4560229480266571,1.119847059249878,3.6157379150390625,4
878,-46.574798583984375,-41.52059555053711,1.0104681253433228,-0.018844719976186752,0.623200535774231,3.5829834938049316,4
879,-20.66963005065918,-65.53890991210938,1.465475082397461,0.42234110832214355,0.22065089643001556,3.602907419204712,4
880,-2.029132127761841,-66.06348419189453,2.6794073581695557,1.3698118925094604,0.19407276809215546,3.5858047008514404,4
881,17.906688690185547,-39.045204162597656,6.181982517242432,1.6852877140045166,0.31407928466796875,3.6220507621765137,4
882,37.129798889160156,-12.469396591186523,9.959104537963867,2.151338815689087,0.7257277965545654,3.667353391647339,4
883,40.860294342041016,22.206226348876953,13.601410865783691,2.0728085041046143,1.1975857019424438,3.765698194503784,4
884,28.05415153503418,34.02519989013672,14.257367134094238,1.7048816680908203,1.8497308492660522,3.859480619430542,4
885,-6.620696544647217,37.32835006713867,12.836195945739746,1.2066510915756226,1.6761292219161987,4.080102920532227,4
886,-40.93914031982422,43.15104675292969,9.248543739318848,0.735546350479126,1.4696083068847656,4.21356201171875,4
887,-50.90511703491211,29.844146728515625,6.544183731079102,0.25443801283836365,0.8885214328765869,4.323849201202393,4
888,-47.251319885253906,6.000341892242432,1.194285273551941,0.23794828355312347,0.35008659958839417,4.3988494873046875,4
889,-37.909568786621094,-9.482637405395508,-4.5162224769592285,0.26353758573532104,-0.216609925031662,4.41555118560791,4
890,-17.62203598022461,-17.93726921081543,-5.834779262542725,0.4305827021598816,-0.3052343428134918,4.333690643310547,4
891,-3.0234620571136475,-8.28488826751709,-5.831145286560059,0.6262751221656799,-0.3200836777687073,4.264815330505371,4
892,-2.5877232551574707,8.840723037719727,-6.64955472946167,0.7716022729873657,-0.33849915862083435,4.21962308883667,4
893,-12.062246322631836,19.075151443481445,-5.491873264312744,0.5130506157875061,-0.40805965662002563,4.13926887512207,4
894,-13.146516799926758,29.73714828491211,-1.6600666046142578,0.22345790266990662,-0.584951639175415,4.096714496612549,4
895,-17.338211059570312,28.55011749267578,-2.021339178085327,-0.05427694693207741,-0.8302948474884033,4.094424247741699,4
896,-10.76482105255127,12.99166202545166,-4.695436000823975,-0.3719971477985382,-1.0038959980010986,4.062525272369385,4
897,19.355440139770508,-3.897357702255249,-4.557631969451904,-0.40032830834388733,-1.0002985000610352,4.015155792236328,4
898,47.7867431640625,-23.58090591430664,-5.8528666496276855,-0.3722861409187317,-0.4837602972984314,3.9349405765533447,4
899,55.63307571411133,-37.24726867675781,-8.16205883026123,-0.3121379613876343,0.2590533196926117,3.8417165279388428,4
900,44.838531494140625,-45.38902282714844,-9.03111457824707,0.4272821247577667,0.9429113268852234,3.761733293533325,4
901,32.83415603637695,-49.58372497558594,-6.986548900604248,0.953673779964447,1.1027560234069824,3.6901543140411377,4
902,25.048919677734375,-30.853759765625,-4.712974548339844,1.2370588779449463,1.5300376415252686,3.58992075920105,4
903,13.726593017578125,-15.240784645080566,-4.343725204467773,1.451027274131775,1.789655089378357,3.528224229812622,4
904,0.9739015698432922,-8.170135498046875,-1.4921129941940308,1.6981465816497803,1.7944127321243286,3.515120267868042,4
905,-12.95475959777832,5.468461036682129,3.100586414337158,1.8460681438446045,1.6503534317016602,3.54162859916687,4
906,-11.000280380249023,16.873998641967773,7.622930526733398,1.7025303840637207,1.50523841381073,3.582695245742798,4
907,-7.804793834686279,25.562639236450195,11.915082931518555,1.4104312658309937,1.4056895971298218,3.6657278537750244,4
908,-21.786521911621094,29.495380401611328,19.561744689941406,1.017754316329956,1.3126211166381836,3.7907164096832275,4
909,-42.36335372924805,19.969409942626953,26.092403411865234,0.6580055952072144,0.9873985648155212,3.9992330074310303,4
910,-59.58417510986328,6.0146379470825195,29.190032958984375,0.4929870069026947,0.44699326157569885,4.2817792892456055,4
911,-66.81475067138672,-0.5301859974861145,30.461414337158203,0.531003475189209,-0.5064629912376404,4.6538896560668945,4
912,-59.25431442260742,-6.036740303039551,33.62380599975586,0.6725819110870361,-0.8923694491386414,4.956076145172119,4
913,-41.951595306396484,-11.561366081237793,32.2276496887207,0.8624730706214905,-1.4385565519332886,5.311675548553467,4
914,-38.23874282836914,-11.162585258483887,32.394012451171875,0.8929491639137268,-1.944954752922058,5.639919757843018,4
915,-16.229982376098633,-8.233227729797363,32.50470733642578,1.0896357297897339,-2.2180862426757812,5.977121353149414,4
916,-6.058666229248047,0.5234221816062927,34.161643981933594,1.0890600681304932,-2.0618948936462402,6.258892059326172,4
917,14.679323196411133,19.704286575317383,32.638572692871094,1.0263307094573975,-2.046346426010132,6.598445415496826,4
918,23.42508888244629,26.481098175048828,33.05641555786133,0.6854279041290283,-1.8231385946273804,6.909538745880127,4
919,8.056036949157715,23.456459045410156,31.27402687072754,0.3729787766933441,-1.7313921451568604,7.243706226348877,4
920,13.688582420349121,14.080270767211914,31.237144470214844,0.2746492326259613,-1.562670111656189,7.569834232330322,4
921,19.22688102722168,8.398721694946289,29.80440902709961,0.10827181488275528,-1.409429669380188,7.873640060424805,4
922,34.25537109375,11.9638090133667,29.747112274169922,0.0008696253644302487,-1.026512861251831,8.153515815734863,4
923,34.63958740234375,10.681366920471191,25.990427017211914,-0.05094048008322716,-0.8766674399375916,8.453388214111328,4
924,41.48552322387695,17.06679344177246,20.73723602294922,-0.23598846793174744,-0.3360940217971802,8.67956256866455,4
925,44.128658294677734,20.707237243652344,16.3414306640625,-0.5012971758842468,-0.0041282582096755505,8.882955551147461,4
926,59.6974983215332,26.274023056030273,13.792254447937012,-0.8016387224197388,0.6057382225990295,9.034860610961914,4
927,63.777374267578125,32.60546112060547,12.18945598602295,-0.9695197939872742,1.2758628129959106,9.156194686889648,4
928,64.8886489868164,37.03825378417969,14.503071784973145,-1.3271279335021973,1.6012619733810425,9.300179481506348,4
929,51.45424270629883,43.18840789794922,15.75540828704834,-1.8309617042541504,2.5353524684906006,9.479156494140625,4
930,10.915772438049316,39.80080032348633,14.927178382873535,-2.229990243911743,2.4983580112457275,9.628911972045898,4
931,-28.311553955078125,12.480634689331055,14.55151081085205,-2.531771659851074,2.2316603660583496,9.769304275512695,4
932,-51.98115921020508,-14.037964820861816,12.126474380493164,-2.425416946411133,1.758926272392273,9.897930145263672,4
933,-57.35004425048828,-28.699068069458008,6.328202247619629,-1.9273337125778198,0.968341588973999,9.97485065460205,4
934,-49.19196319580078,-24.348894119262695,7.054214000701904,-1.682828664779663,0.5566110610961914,10.054665565490723,4
935,-30.650785446166992,-17.428678512573242,11.323918342590332,-1.4138879776000977,0.014183498919010162,10.126277923583984,4
936,-22.709957122802734,-12.920135498046875,11.742805480957031,-1.5438803434371948,0.03943978622555733,10.266597747802734,4
937,-3.813555955886841,-13.546117782592773,10.291451454162598,-1.2222737073898315,-0.20669077336788177,10.383517265319824,4
938,0.5843737721443176,-23.863256454467773,8.902016639709473,-1.1345270872116089,-0.10933144390583038,10.492386817932129,4
939,14.641403198242188,-28.968564987182617,8.670696258544922,-0.7198403477668762,0.04665515199303627,10.618693351745605,4
940,22.675100326538086,-27.273401260375977,8.478337287902832,-0.14365044236183167,0.23550555109977722,10.739584922790527,4
941,24.946081161499023,-25.6524715423584,5.60207462310791,-0.49551817774772644,0.5585033893585205,10.766849517822266,4
942,30.90459632873535,-16.45863151550293,4.254558563232422,-0.07522677630186081,0.8612971901893616,10.846240043640137,4
943,21.8220157623291,-2.4498369693756104,-1.9189268350601196,-0.0483907125890255,1.1044656038284302,10.843093872070312,4
944,10.135778427124023,3.6070477962493896,-8.080838203430176,0.04185502976179123,1.3186028003692627,10.81686782836914,4
945,-22.45863151550293,-3.1891367435455322,-13.741044998168945,-0.03659472241997719,0.8841204047203064,10.622273445129395,4
946,-38.33489227294922,-11.959416389465332,-21.71696662902832,0.02807474322617054,0.6379909515380859,10.461502075195312,4
947,-38.9014892578125,-14.268608093261719,-30.183849334716797,-8.442530815955251e-05,0.02914120815694332,10.137402534484863,4
948,-8.20350456237793,11.946898460388184,-30.96185874938965,-0.023318542167544365,-0.06596206873655319,9.84107780456543,4
949,12.442813873291016,30.248361587524414,-29.040084838867188,-0.29930204153060913,-0.1911323368549347,9.484505653381348,4
950,24.04552459716797,32.76960754394531,-29.781227111816406,-0.6300503611564636,0.18565478920936584,9.213467597961426,4
951,28.546476364135742,23.833328247070312,-27.870513916015625,-0.9909257292747498,0.584827721118927,8.930488586425781,4
952,34.65333938598633,21.83809471130371,-22.345407485961914,-1.0723059177398682,0.7531403303146362,8.678648948669434,4
953,32.889522552490234,22.414623260498047,-19.414579391479492,-1.3449302911758423,1.2842756509780884,8.502463340759277,4
954,18.591623306274414,12.65112018585205,-20.771404266357422,-1.5090796947479248,1.7362871170043945,8.342556953430176,4
955,9.395583152770996,-8.480175971984863,-24.799673080444336,-1.3478496074676514,1.284232497215271,8.030523300170898,4
956,-9.50107192993164,-14.23363208770752,-24.175006866455078,-1.170827865600586,1.2789583206176758,7.786018371582031,4
957,-27.146324157714844,-11.136343002319336,-22.07111358642578,-1.064805269241333,1.004934549331665,7.533806800842285,4
958,-40.46799850463867,-1.6955076456069946,-22.007883071899414,-0.8526829481124878,0.4719572365283966,7.305051803588867,4
959,-35.807945251464844,3.799657106399536,-22.698638916015625,-0.9887723922729492,-0.0049780732952058315,7.041361331939697,4
960,-12.790910720825195,5.172661781311035,-19.828596115112305,-1.0215938091278076,-0.09821321070194244,6.863635540008545,4
961,5.320250034332275,12.21825122833252,-19.157527923583984,-1.273871660232544,-0.11169330030679703,6.647921085357666,4
962,22.541900634765625,23.332218170166016,-16.568523406982422,-1.5930984020233154,0.1864846795797348,6.480979919433594,4
963,11.600422859191895,33.050445556640625,-12.63887882232666,-1.963580846786499,0.3912404477596283,6.335198402404785,4
964,-10.581571578979492,24.6107177734375,-10.578598022460938,-2.2533786296844482,0.29354289174079895,6.205461025238037,4
965,-10.27281379699707,8.283860206604004,-10.629392623901367,-2.408130168914795,0.2498406171798706,6.121757984161377,4
966,12.098736763000488,-19.436397552490234,-12.831536293029785,-2.2762668132781982,0.18857789039611816,5.989898204803467,4
967,39.967567443847656,-50.62645721435547,-13.251921653747559,-1.7695270776748657,0.49864503741264343,5.875490665435791,4
968,61.53044509887695,-67.62108612060547,-9.146018981933594,-0.9647953510284424,1.1099604368209839,5.791255950927734,4
969,54.86365509033203,-61.71430969238281,-3.741461992263794,-0.3816901445388794,1.9379642009735107,5.775503158569336,4
970,30.639379501342773,-33.568115234375,1.5158730745315552,0.11650718748569489,2.2429091930389404,5.720602989196777,4
971,10.3485746383667,-16.007923126220703,3.204984664916992,0.3688124120235443,2.599809408187866,5.783972263336182,4
972,-13.91299819946289,-2.8322572708129883,1.2703157663345337,0.027286607772111893,2.2183704376220703,5.666306972503662,4
973,-28.821062088012695,-2.410022735595703,1.6710447072982788,0.21343150734901428,1.8612780570983887,5.676147937774658,4
974,-36.97282028198242,0.28109604120254517,2.018618583679199,0.08710252493619919,1.5537641048431396,5.676469802856445,4
975,-34.79740524291992,-0.20345467329025269,3.0254108905792236,0.23654375970363617,1.1784578561782837,5.727229595184326,4
976,-32.91129684448242,-14.196699142456055,5.850460529327393,0.32248854637145996,0.9474340677261353,5.786018371582031,4
977,-19.889957427978516,-32.83284378051758,6.846199989318848,0.339077889919281,0.7448693513870239,5.804690361022949,4
978,-10.096012115478516,-43.35032653808594,6.127323150634766,0.9833089709281921,0.5593296885490417,5.921300888061523,4
979,2.9300479888916016,-59.84475326538086,6.960752964019775,1.690977931022644,0.5114507079124451,6.015560150146484,4
980,13.332228660583496,-58.66455841064453,9.287473678588867,2.137739419937134,0.740341067314148,6.065434455871582,4
981,13.337776184082031,-57.308502197265625,11.693052291870117,2.5637474060058594,0.9624284505844116,6.136697769165039,4
982,-4.4975905418396,-50.12753677368164,13.854815483093262,3.4017112255096436,1.0653005838394165,6.308212757110596,4
983,-23.944021224975586,-31.113637924194336,14.666478157043457,3.7626891136169434,0.8154207468032837,6.450992107391357,4
984,-44.187469482421875,-9.735669136047363,11.662827491760254,4.016387462615967,0.22553357481956482,6.6333327293396,4
985,-51.946895599365234,16.437477111816406,12.215801239013672,3.861924409866333,-0.3631046712398529,6.755239963531494,4
