,gyro.x,gyro.y,gyro.z,stabilizer.pitch,stabilizer.roll,stabilizer.yaw,label
0,0.006701336242258549,0.015436987392604351,0.19060631096363068,0.5452629923820496,0.5490251183509827,1.1442369222640991,1
1,0.13956008851528168,0.0037938470486551523,0.20719699561595917,0.5556182265281677,0.47410452365875244,1.1454153060913086,1
2,0.042670272290706635,0.0007044916856102645,0.10471640527248383,0.6292779445648193,0.5520280003547668,1.1459482908248901,1
3,0.006593305617570877,-0.01336731854826212,0.21610522270202637,0.4854274392127991,0.27966970205307007,1.147575855255127,1
4,-0.04732082411646843,0.10263759642839432,0.16878189146518707,0.6425959467887878,0.5401906967163086,1.1462898254394531,1
5,-0.058915331959724426,0.10408306866884232,0.09380563348531723,0.6244925856590271,0.7942622303962708,1.1467463970184326,1
6,0.08577582985162735,0.0001235877862200141,0.26787373423576355,0.6120239496231079,0.5858619213104248,1.1479454040527344,1
7,0.06198091804981232,0.019348252564668655,0.12820351123809814,0.6029587388038635,0.49966028332710266,1.1498366594314575,1
8,-0.03437173366546631,-0.023440882563591003,0.20915587246418,0.596902072429657,0.43650200963020325,1.1506291627883911,1
9,-0.018193772062659264,0.07204338908195496,0.26282238960266113,0.5917105078697205,0.45640233159065247,1.1512356996536255,1
10,0.0760752484202385,-0.1036173552274704,0.06297621876001358,0.5237036347389221,0.4717232584953308,1.1528964042663574,1
11,0.13102714717388153,-0.00429800059646368,0.27788954973220825,0.5400882959365845,0.4840839207172394,1.1526637077331543,1
12,0.02068929187953472,0.05819797143340111,0.24258901178836823,0.6169788241386414,0.49260032176971436,1.152734398841858,1
13,0.06703854352235794,-0.08693079650402069,0.2156943827867508,0.47538167238235474,0.5637004971504211,1.1560755968093872,1
14,0.021628865972161293,-0.053468551486730576,0.09221603721380234,0.639057457447052,0.5493621826171875,1.155236005783081,1
15,0.15719196200370789,-0.10919294506311417,0.12342752516269684,0.5574647188186646,0.53852778673172,1.155367136001587,1
16,-0.07521805167198181,0.04152976721525192,0.18266130983829498,0.5652016401290894,0.46079713106155396,1.1553499698638916,1
17,0.02455463446676731,-0.0912795290350914,0.18014155328273773,0.5711731314659119,0.47249355912208557,1.156186819076538,1
18,0.08966770023107529,-0.1446204036474228,0.18963520228862762,0.6495805978775024,0.48151901364326477,1.1560150384902954,1
19,-0.030924640595912933,-0.006227282341569662,0.19902785122394562,0.5618860721588135,0.5606144070625305,1.1573172807693481,1
20,0.039314113557338715,0.06281030923128128,0.17619426548480988,0.6404349207878113,0.3291349709033966,1.1570993661880493,1
21,0.059984318912029266,-0.1119164377450943,0.15864130854606628,0.553985595703125,0.30439478158950806,1.1601464748382568,1
22,0.01721428893506527,0.015443982556462288,0.16842877864837646,0.5617895126342773,0.5059532523155212,1.1605945825576782,1
23,0.010575187392532825,-0.011533918790519238,0.21295973658561707,0.567543625831604,0.7273253798484802,1.1612099409103394,1
24,0.08883737772703171,-0.054909396916627884,0.05894412100315094,0.5725176930427551,0.6005125641822815,1.1613281965255737,1
25,-0.006208084989339113,0.009742647409439087,0.1775548905134201,0.5759307146072388,0.7942662239074707,1.1622288227081299,1
26,0.06837707757949829,0.004519368521869183,0.20395982265472412,0.5787947177886963,0.7202288508415222,1.1627882719039917,1
27,0.129024475812912,-0.014292043633759022,0.12289876490831375,0.5815089344978333,0.16169168055057526,1.1614704132080078,1
28,-0.0795460119843483,-0.06778495013713837,0.14705204963684082,0.655460774898529,0.39316147565841675,1.1623872518539429,1
29,0.01349325105547905,-0.043681684881448746,0.20019683241844177,0.56666100025177,0.4204966127872467,1.1647478342056274,1
30,0.016413893550634384,-0.017885372042655945,0.16015982627868652,0.643155574798584,0.7979936599731445,1.1627423763275146,1
31,0.07570073753595352,0.061608053743839264,0.21261166036128998,0.555070161819458,0.5048927664756775,1.1648532152175903,1
32,0.008776773698627949,-0.030632968991994858,0.16468490660190582,0.5608453154563904,0.4998146593570709,1.1656131744384766,1
33,0.0590348094701767,-0.08673930168151855,0.14195731282234192,0.5607488751411438,0.4999053180217743,1.1662547588348389,1
34,-0.026527581736445427,0.011893512681126595,0.15999676287174225,0.5607596635818481,0.4997837543487549,1.1662274599075317,1
35,0.13971766829490662,0.010357238352298737,0.25190097093582153,0.5598565936088562,0.49970492720603943,1.1674144268035889,1
36,-0.06861736625432968,-0.03355182334780693,0.19872350990772247,0.5599170923233032,0.5001164674758911,1.168255090713501,1
37,0.03912031278014183,-0.05508298799395561,0.164586141705513,0.5598849058151245,0.49941909313201904,1.1691120862960815,1
38,-0.01912241242825985,0.01737213507294655,0.11091187596321106,0.56113201379776,0.42733967304229736,1.1686979532241821,1
39,0.09074025601148605,0.013962455093860626,0.2956981658935547,0.5615302324295044,0.5160940289497375,1.1703078746795654,1
40,0.013587536290287971,-0.059079982340335846,0.14215411245822906,0.5622671246528625,0.4417867362499237,1.170813798904419,1
41,0.0712491050362587,-0.04483472555875778,0.1029709205031395,0.5638808608055115,0.45675259828567505,1.1715863943099976,1
42,0.04311436414718628,0.0055528967641294,0.13639843463897705,0.5647419691085815,0.4676789343357086,1.171694278717041,1
43,0.02841905876994133,-0.01468625944107771,0.2486293613910675,0.5647610425949097,0.7539183497428894,1.1746243238449097,1
44,0.09443417936563492,-0.035328805446624756,0.20492221415042877,0.6340675950050354,0.48066550493240356,1.1735113859176636,1
45,0.0038100723177194595,-0.09449344128370285,0.18791374564170837,0.6171594262123108,0.48585695028305054,1.1743839979171753,1
46,0.02494239993393421,-0.011339781805872917,0.06773851066827774,0.603779673576355,0.2125219851732254,1.175628900527954,1
47,0.05664645507931709,0.0010061056818813086,0.13440681993961334,0.5256834030151367,0.5628917813301086,1.177503228187561,1
48,-0.015043005347251892,-0.012711741961538792,0.1564350426197052,0.46785399317741394,0.4779946506023407,1.1791253089904785,1
49,-0.056684356182813644,0.0009102266631089151,0.14210493862628937,0.6307747960090637,0.4829312860965729,1.1751326322555542,1
50,-0.0398351289331913,-0.02073046751320362,0.22090959548950195,0.6136784553527832,0.4861447215080261,1.1762319803237915,1
51,0.09089915454387665,-0.04291819408535957,0.17139890789985657,0.6014717817306519,0.48972219228744507,1.1776491403579712,1
52,0.09914589673280716,-0.11708282679319382,0.17301419377326965,0.5259838700294495,0.49353694915771484,1.1796109676361084,1
53,0.12205158174037933,0.08615181595087051,0.2551411986351013,0.5366594195365906,0.2943776845932007,1.1789045333862305,1
54,0.0447152704000473,-0.026223957538604736,0.17825888097286224,0.6113867163658142,0.6201793551445007,1.179927110671997,1
55,0.07233145087957382,-0.014073234982788563,0.15827997028827667,0.5999996662139893,0.7935644388198853,1.1812362670898438,1
56,0.015070650726556778,-0.018024427816271782,0.07943908870220184,0.5919666886329651,0.44496503472328186,1.1807003021240234,1
57,-0.015532228164374828,0.04371771588921547,0.1827627718448639,0.5845003724098206,0.457902193069458,1.1814274787902832,1
58,0.12468373030424118,-0.024732965975999832,0.14089436829090118,0.5110083222389221,0.5364687442779541,1.1824055910110474,1
59,0.02418956346809864,-0.11114440113306046,0.1796371340751648,0.5946745872497559,0.5263500809669495,1.1820743083953857,1
60,0.03028910793364048,0.03596802428364754,0.17893539369106293,0.45145225524902344,0.5188336372375488,1.1832852363586426,1
61,0.07571456581354141,-0.05117970332503319,0.20987282693386078,0.4820775091648102,0.5133296847343445,1.183514952659607,1
62,-0.00544768339022994,-0.020794318988919258,0.15912304818630219,0.5055932402610779,0.5079030394554138,1.1838393211364746,1
63,0.08854310214519501,-0.049553677439689636,0.29445749521255493,0.6599518060684204,0.7089876532554626,1.1890299320220947,1
64,0.015531372278928757,-0.016677960753440857,0.18606656789779663,0.5683047771453857,0.4486340284347534,1.1863871812820435,1
65,0.0032582932617515326,0.026047317311167717,0.1943843960762024,0.5695804357528687,0.45910629630088806,1.187097430229187,1
66,-0.02635936811566353,-0.03731086105108261,0.22433771193027496,0.6375583410263062,0.4659126400947571,1.1876332759857178,1
67,-0.06455611437559128,0.006437420845031738,0.20101675391197205,0.4872509837150574,0.47127875685691833,1.1902521848678589,1
68,0.0015396849485114217,-0.013546992093324661,0.16880439221858978,0.5110271573066711,0.47545820474624634,1.1909141540527344,1
69,0.018346834927797318,-0.08281990885734558,0.21132154762744904,0.5946844816207886,0.4132447838783264,1.1895784139633179,1
70,0.055282846093177795,0.04005781561136246,0.18811318278312683,0.5887126326560974,0.43432220816612244,1.1904808282852173,1
71,0.02742859534919262,-0.015177307650446892,0.19211216270923615,0.584412157535553,0.5148550868034363,1.1919196844100952,1
72,-0.018173381686210632,-0.04712514951825142,0.13633139431476593,0.5819655656814575,0.5078222155570984,1.1918526887893677,1
73,-0.02634676732122898,-0.09489789605140686,0.1950719654560089,0.5803600549697876,0.4367549419403076,1.1921443939208984,1
74,-0.030700908973813057,-0.05699010193347931,0.14993178844451904,0.5787162780761719,0.515841543674469,1.1926480531692505,1
75,-0.0010473718866705894,-0.019141271710395813,0.1409294456243515,0.57707679271698,0.5076267123222351,1.1929398775100708,1
76,-0.006713924463838339,-0.04294344782829285,0.24061936140060425,0.5765947103500366,0.5076103210449219,1.1934105157852173,1
77,0.01261698268353939,-0.10545607656240463,0.19971559941768646,0.5768167972564697,0.5065900683403015,1.1939191818237305,1
78,-0.01030187401920557,-0.20730005204677582,0.17978699505329132,0.5781955718994141,0.4387494623661041,1.1941440105438232,1
79,0.008049353025853634,0.0036699019838124514,0.1759839653968811,0.578940749168396,0.4560618996620178,1.1949596405029297,1
80,0.008124391548335552,0.0033543393947184086,0.2159934639930725,0.0,0.0,0.0,1
81,0.09253746271133423,0.0707218125462532,0.1392746865749359,1.662310751271434e-05,0.006163646932691336,0.002130315639078617,1
82,0.047018539160490036,-0.011263806372880936,0.0310318972915411,0.024064926430583,0.380153089761734,0.002680661389604211,1
83,0.028052709996700287,-0.06604613363742828,0.2301849126815796,0.06455978751182556,0.22857114672660828,0.004623069893568754,1
84,0.04685446247458458,0.0005138315027579665,0.18465475738048553,0.10821501165628433,0.12821324169635773,0.006917150691151619,1
85,0.03438316658139229,-0.06734054535627365,0.19655264914035797,0.15791791677474976,0.0751383900642395,0.008066533133387566,1
86,-0.0016591965686529875,0.058729033917188644,0.22607223689556122,0.20301629602909088,0.05252593755722046,0.010423723608255386,1
87,0.0496649295091629,-0.19137464463710785,0.23274067044258118,0.2591007947921753,0.05549468472599983,0.012447583489120007,1
88,0.004762555006891489,-0.05339857190847397,0.22205205261707306,0.3018140494823456,0.07141892611980438,0.014523759484291077,1
89,0.11197930574417114,-0.050446055829524994,0.1600584089756012,0.7847456336021423,0.10121819376945496,0.016213301569223404,1
90,0.1308925896883011,-0.08691027760505676,0.18783916532993317,0.2527432441711426,0.1339353621006012,0.017747381702065468,1
91,0.05896321311593056,-0.040273528546094894,0.19397184252738953,0.6917283535003662,-0.2174834907054901,0.023474039509892464,1
92,0.021701833233237267,-0.06338651478290558,0.06305859982967377,0.26307180523872375,-0.07016202807426453,0.023259833455085754,1
93,0.03748343512415886,-0.05222655460238457,0.16976381838321686,0.32444700598716736,0.6855413913726807,0.017554545775055885,1
94,0.0646796002984047,0.08312955498695374,0.1418755054473877,0.36560726165771484,0.2614496350288391,0.023127689957618713,1
95,-0.020334547385573387,0.004585110116750002,0.18800823390483856,0.3974550664424896,1.1149506568908691,0.01664005033671856,1
96,-0.053449831902980804,-0.05266108363866806,0.25628262758255005,0.4223979115486145,-0.18039754033088684,0.03173893317580223,1
97,0.04975422844290733,-0.029936805367469788,0.17943842709064484,0.44149985909461975,0.21454758942127228,0.02996152453124523,1
98,0.04629126191139221,0.06040554493665695,0.09706715494394302,0.4540102779865265,0.9452402591705322,0.023636694997549057,1
99,0.055892039090394974,-0.08830450475215912,0.1692890077829361,0.46776461601257324,0.10884104669094086,0.034539829939603806,1
100,0.09780257195234299,-0.04757250100374222,0.17382048070430756,0.4777112901210785,-0.030021551996469498,0.037644173949956894,1
101,0.02761095017194748,0.03593845292925835,0.14130350947380066,0.48379582166671753,0.07982660084962845,0.03787955641746521,1
102,-0.09241975098848343,-0.0993274450302124,0.19909995794296265,0.6829074025154114,0.1593475639820099,0.0381312258541584,1
103,0.0307976882904768,0.06477023661136627,0.15795612335205078,0.45100653171539307,0.22132229804992676,0.038897763937711716,1
104,-0.04302683472633362,-0.017236053943634033,0.15643270313739777,0.6463708877563477,0.2674272954463959,0.03968832641839981,1
105,0.1320863664150238,-0.010454872623085976,0.24285070598125458,0.6111149191856384,0.9854501485824585,0.02819240838289261,1
106,-0.03969790041446686,0.0012831158237531781,0.19046352803707123,0.4249396026134491,0.49800992012023926,0.03776976838707924,1
107,0.05195798724889755,-0.04305931553244591,0.1330745369195938,0.45364752411842346,0.31844469904899597,0.04277288168668747,1
108,0.08422445505857468,0.013844555243849754,0.21894413232803345,0.47379541397094727,0.3477340042591095,0.044017139822244644,1
109,-0.024783624336123466,-0.009789793752133846,0.1352897435426712,0.4906846582889557,0.36768969893455505,0.045838989317417145,1
110,-0.0005824810941703618,-0.08088778704404831,0.2013860046863556,0.503838837146759,0.3832824230194092,0.04703008383512497,1
111,0.05421754717826843,-0.04874277114868164,0.21060633659362793,0.6499091386795044,0.25987038016319275,0.05204574018716812,1
112,0.06115305423736572,0.03126168251037598,0.20881387591362,0.4868161976337433,0.44076189398765564,0.049469489604234695,1
113,0.1138196662068367,-0.0014530560001730919,0.1663873940706253,0.5003299713134766,0.440157949924469,0.05135039612650871,1
114,0.051898788660764694,-0.09300903230905533,0.2519889175891876,0.6370546817779541,0.3152276575565338,0.056510280817747116,1
115,0.10651469230651855,-0.03034628927707672,0.14040397107601166,0.6112356185913086,0.35018566250801086,0.05744634196162224,1
116,0.01896420679986477,-0.08025123178958893,0.15561312437057495,0.47485893964767456,0.4935617744922638,0.055276934057474136,1
117,-0.049068428575992584,-0.01634998992085457,0.17484228312969208,0.3801088035106659,0.017687303945422173,0.06391574442386627,1
118,0.025491910055279732,-0.008958421647548676,0.10694161802530289,0.5368317365646362,0.47149619460105896,0.05991474911570549,1
119,0.022033417597413063,-0.08262372016906738,0.23172210156917572,0.5412588119506836,0.5757555961608887,0.060160309076309204,1
120,0.07776499539613724,-0.015276959165930748,0.08704311400651932,0.5447705388069153,0.5421150326728821,0.06208937615156174,1
121,0.045979082584381104,0.041337307542562485,0.20584556460380554,0.5465651750564575,0.5179541707038879,0.06375765055418015,1
122,-0.021634651347994804,0.04255842790007591,0.25534725189208984,0.548665463924408,0.49963536858558655,0.06632021069526672,1
123,-0.029954569414258003,-0.03865187242627144,0.2069689929485321,0.4493754506111145,0.48592710494995117,0.06735247373580933,1
124,0.07356202602386475,0.051343727856874466,0.07147536426782608,0.47864943742752075,0.3743531107902527,0.07128628343343735,1
125,0.07081563770771027,0.04657885059714317,0.11653067171573639,0.5982950329780579,0.5918501615524292,0.070656917989254,1
126,0.008219847455620766,0.08790022879838943,0.2651517391204834,0.5864077210426331,0.45734891295433044,0.07410254329442978,1
127,0.0955633670091629,0.0008302252972498536,0.20237837731838226,0.5791243314743042,0.3612433671951294,0.07787728309631348,1
128,0.16589008271694183,-0.04774044454097748,0.19167062640190125,0.5746456980705261,0.3890897035598755,0.07880128175020218,1
129,0.09121600538492203,-0.035985447466373444,0.20034398138523102,0.5719291567802429,0.5014151334762573,0.07884802669286728,1
130,0.10542874038219452,-0.0993906781077385,0.2434803992509842,0.661267101764679,0.4913725256919861,0.08160100877285004,1
131,0.009447219781577587,0.05980794131755829,0.19003640115261078,0.5433509349822998,0.3932885527610779,0.08466967195272446,1
132,-0.02597632445394993,0.06023191660642624,0.1923862099647522,0.5470980405807495,0.49991247057914734,0.08379796147346497,1
133,0.037311628460884094,-0.10252391546964645,0.18202398717403412,0.5518823862075806,0.48873746395111084,0.08596210926771164,1
134,0.026374120265245438,0.006102628540247679,0.24714230000972748,0.5557187795639038,0.48114287853240967,0.08838258683681488,1
135,0.1011916920542717,-0.10113143920898438,0.2603767216205597,0.47457459568977356,0.13809490203857422,0.09551531076431274,1
136,-0.03609681874513626,-0.1015343889594078,0.19184133410453796,0.5854077935218811,0.5633395910263062,0.09179715812206268,1
137,0.021302038803696632,-0.04199899360537529,0.19783462584018707,0.6641323566436768,0.5354902744293213,0.09461741149425507,1
138,0.08174678683280945,-0.10144544392824173,0.09521747380495071,0.5566610097885132,0.5165565609931946,0.09517927467823029,1
139,0.05379224196076393,0.01818648725748062,0.15448741614818573,0.5606671571731567,0.5034193396568298,0.09677234292030334,1
140,-0.027483144775032997,-0.14096949994564056,0.07316280901432037,0.646213948726654,0.41181060671806335,0.1000964567065239,1
141,0.029029900208115578,-0.07911557704210281,0.25434941053390503,0.5475782752037048,0.7484050393104553,0.09377197176218033,1
142,0.0210266076028347,-0.03205285221338272,0.23116102814674377,0.5567936301231384,0.11370106041431427,0.10784896463155746,1
143,-0.060402046889066696,-0.02833138220012188,0.1357077658176422,0.5631132125854492,0.21509401500225067,0.10791223496198654,1
144,-0.06868674606084824,0.03170449286699295,0.03413420915603638,0.5678536295890808,0.44912615418434143,0.10504038631916046,1
145,-0.048218145966529846,0.009738139808177948,0.2383093535900116,0.5720527768135071,0.45874547958374023,0.1058303639292717,1
146,-0.02457071654498577,-0.09790945798158646,0.20631125569343567,0.5763694047927856,0.5481529235839844,0.10672823339700699,1
147,0.006634927354753017,0.01804957166314125,0.09148204326629639,0.5795729756355286,0.2870674729347229,0.11225426197052002,1
148,-0.005128983873873949,-0.016123445704579353,0.22370760142803192,0.5815662145614624,0.5035012364387512,0.11007923632860184,1
149,0.00973301287740469,-0.026983926072716713,0.1959681659936905,0.5839502811431885,0.6640457510948181,0.10951803624629974,1
150,0.031435947865247726,-0.03542030230164528,0.05736153572797775,0.6683586835861206,0.6176663637161255,0.11242938786745071,1
151,0.04705994203686714,0.04311098903417587,0.2010027915239334,0.5647333264350891,0.5009567737579346,0.11398907750844955,1
152,0.05978814512491226,-0.06267748773097992,0.14291894435882568,0.4897095859050751,0.577632486820221,0.11343862861394882,1
153,0.06123250350356102,0.0914669781923294,0.24825310707092285,0.5150951147079468,0.5526601672172546,0.11605288833379745,1
154,0.005556642543524504,-0.03686123341321945,0.2302449643611908,0.534367561340332,0.5329939723014832,0.11870379745960236,1
155,-0.0025196238420903683,-0.02021205611526966,0.1599494367837906,0.6286991238594055,0.5183127522468567,0.12242887914180756,1
156,0.048015981912612915,0.008993417955935001,0.13770687580108643,0.6182336211204529,0.42925959825515747,0.12479746341705322,1
157,0.020754924044013023,0.009302478283643723,0.1510210633277893,0.6087137460708618,0.5220203399658203,0.12460317462682724,1
158,0.04044806584715843,-0.04763619601726532,0.18723009526729584,0.6808713674545288,0.5118379592895508,0.12738320231437683,1
159,0.07266169041395187,0.03539661318063736,0.20690463483333588,0.5764732956886292,0.42621874809265137,0.12930695712566376,1
160,0.003968384116888046,0.05975295230746269,0.10316164046525955,0.5767107009887695,0.4416005611419678,0.1306508332490921,1
161,0.09519097954034805,-0.03866896033287048,0.22979941964149475,0.5771474242210388,0.7682320475578308,0.12645383179187775,1
162,-0.030212435871362686,-0.05779112130403519,0.22981218993663788,0.5783395767211914,0.5391393303871155,0.13276202976703644,1
163,0.13034656643867493,-0.04157897084951401,0.1746883988380432,0.5789892673492432,0.5261462926864624,0.13483639061450958,1
164,-0.08013684302568436,-0.03395775705575943,0.24790392816066742,0.5789186358451843,0.515637218952179,0.13658802211284637,1
165,-0.023312240839004517,-0.02083638682961464,0.21791154146194458,0.5789881944656372,0.662013590335846,0.13668258488178253,1
166,-0.03992997854948044,-0.00718395272269845,0.3395964801311493,0.5792840719223022,0.46335920691490173,0.14232665300369263,1
167,0.06130383908748627,-0.03410722687840462,0.14275535941123962,0.5799175500869751,0.31768983602523804,0.14702582359313965,1
168,0.11922428756952286,0.037826165556907654,0.12522439658641815,0.5800714492797852,0.364855021238327,0.1475013792514801,1
169,0.0380241833627224,0.014268262311816216,0.17756159603595734,0.5799494385719299,0.3996260464191437,0.14828351140022278,1
170,-0.03346032276749611,0.056642644107341766,0.16724275052547455,0.5807169675827026,0.49940457940101624,0.14874184131622314,1
171,0.05875685065984726,0.020052123814821243,0.19268672168254852,0.5804131031036377,0.7226855158805847,0.14731337130069733,1
172,0.08553905040025711,0.044448524713516235,0.15564803779125214,0.5811135172843933,0.4445734918117523,0.1525322049856186,1
173,-0.013834674842655659,-0.046944886445999146,0.21798618137836456,0.5821003913879395,0.3871475160121918,0.15497808158397675,1
174,0.026292525231838226,-0.06923028826713562,0.12155163288116455,0.5831446647644043,0.41771286725997925,0.15597271919250488,1
175,0.04957412928342819,-0.015444631688296795,0.2515714168548584,0.5834182500839233,0.5140272974967957,0.15585361421108246,1
176,-0.07511977851390839,0.022750232368707657,0.2918688654899597,0.5831708312034607,0.21916493773460388,0.16244633495807648,1
177,-0.05299733206629753,-0.017039604485034943,0.03467148169875145,0.5833879709243774,0.5851037502288818,0.15930892527103424,1
178,0.0894850343465805,0.011987852863967419,0.22194209694862366,0.5836357474327087,0.5660352110862732,0.16107557713985443,1
179,-0.1285681426525116,-0.07305566221475601,0.13035497069358826,0.5834025740623474,0.549582839012146,0.163000226020813,1
180,0.04094685986638069,-0.07973367720842361,0.2733551859855652,0.5853509902954102,0.5383530855178833,0.16476640105247498,1
181,0.03611087054014206,-0.060066089034080505,0.20803481340408325,0.587212860584259,0.4590572416782379,0.168152317404747,1
182,0.07154744118452072,-0.09607943147420883,0.16132301092147827,0.5875872373580933,0.4732103645801544,0.16986550390720367,1
183,-0.003680496709421277,-0.03609749302268028,0.21484632790088654,0.58797287940979,0.5532492995262146,0.17072176933288574,1
184,0.0005457992083393037,0.019132742658257484,0.09519767761230469,0.5879929065704346,0.5404859185218811,0.1727605015039444,1
185,-0.013907860033214092,-0.09476371109485626,0.15499623119831085,0.6591713428497314,0.5305100083351135,0.17495107650756836,1
186,0.09648340940475464,0.022223304957151413,0.19517074525356293,0.5703532099723816,0.45403364300727844,0.17648643255233765,1
187,0.08206925541162491,0.08812820166349411,0.11080186069011688,0.5750728845596313,0.7485905885696411,0.1745067685842514,1
188,0.021083081141114235,0.019306540489196777,0.14856936037540436,0.6485235691070557,0.683415949344635,0.1775139719247818,1
189,-0.1083851084113121,-0.08749449253082275,0.22004146873950958,0.563143789768219,0.35171249508857727,0.18206577003002167,1
190,0.029813354834914207,-0.05194614827632904,0.18419799208641052,0.5705336928367615,0.4609206020832062,0.18256601691246033,1
191,0.010864699259400368,0.14309661090373993,0.16328738629817963,0.5741763114929199,0.47106361389160156,0.18412090837955475,1
192,0.0037466634530574083,-0.06565485149621964,0.27273687720298767,0.5781185030937195,0.4780963063240051,0.1858677864074707,1
193,0.047354355454444885,-0.03749309852719307,0.17101681232452393,0.5779199004173279,0.47784116864204407,0.18789735436439514,1
194,-0.015760358422994614,-0.03984293341636658,0.08833079040050507,0.5776427388191223,0.477855384349823,0.18922264873981476,1
195,0.12544921040534973,0.013836161233484745,0.13764065504074097,0.5772071480751038,0.47795116901397705,0.19010372459888458,1
196,0.014663836918771267,-0.058820366859436035,0.23324663937091827,0.5766885280609131,0.47837111353874207,0.19149553775787354,1
197,0.11563396453857422,0.026964053511619568,0.21976932883262634,0.5763932466506958,0.4787520468235016,0.19328607618808746,1
198,0.05210678651928902,-0.08484001457691193,0.19903773069381714,0.5774864554405212,0.19818411767482758,0.1978694051504135,1
199,0.0643174797296524,-0.04542930796742439,0.2141885757446289,0.5785998106002808,0.5535740256309509,0.19653986394405365,1
200,0.09222452342510223,-0.05861335247755051,0.11912739276885986,0.579863429069519,0.5344980955123901,0.1986626833677292,1
201,-0.015489788725972176,-0.03196658939123154,0.19870229065418243,0.5802562236785889,0.7260723114013672,0.1977880597114563,1
202,0.1101178452372551,-0.008158683776855469,0.18530839681625366,0.5804592370986938,0.45533233880996704,0.20186004042625427,1
203,0.2017958164215088,-0.043234214186668396,0.13129937648773193,0.580936074256897,0.4660564363002777,0.20369575917720795,1
204,0.04253805801272392,0.049603886902332306,0.1686326265335083,0.5802572965621948,0.4668435752391815,0.20461073517799377,1
205,-0.04847780242562294,0.05019282177090645,0.22104917466640472,0.5790863037109375,0.46606123447418213,0.20625407993793488,1
206,0.08390817046165466,-0.06092112511396408,0.06576646119356155,0.5785190463066101,0.46569058299064636,0.2072175294160843,1
207,0.05017746984958649,0.03179420903325081,0.24598480761051178,0.5778635144233704,0.46628284454345703,0.20957554876804352,1
208,0.0352880135178566,0.010597096756100655,0.23439237475395203,0.5779926776885986,0.39964759349823,0.2121419459581375,1
209,-0.029012201353907585,-0.0066181812435388565,0.3376075327396393,0.5765945315361023,0.4851994812488556,0.2144014686346054,1
210,-0.3597354590892792,0.276061475276947,0.06444965302944183,0.5704934597015381,0.47418949007987976,0.21544601023197174,1
211,0.059216633439064026,-0.03912488371133804,-0.2955298125743866,0.6336837410926819,0.3990020155906677,0.21909011900424957,1
212,0.12660393118858337,-0.2759758532047272,1.2515838146209717,0.5423539876937866,0.4126259982585907,0.22111821174621582,1
213,0.46509209275245667,0.6275767683982849,-0.8379092812538147,0.4679044187068939,0.41965895891189575,0.22165600955486298,1
214,-1.289482831954956,1.0912396907806396,1.2909443378448486,0.47677838802337646,0.4758557379245758,0.2233419269323349,1
215,-1.4798502922058105,1.3300180435180664,-0.8737321496009827,0.4785168766975403,0.09322957694530487,0.21476292610168457,1
216,-4.114254951477051,2.607357978820801,-0.6095392107963562,0.6179090142250061,0.7226181030273438,0.22641482949256897,1
217,7.427141189575195,-6.585683822631836,-1.5717111825942993,0.6491215825080872,0.5593109726905823,0.20921511948108673,1
218,-6.630248069763184,7.594517707824707,-3.91186785697937,0.4674128293991089,0.09735338389873505,0.17543596029281616,1
219,11.805397987365723,-11.385187149047852,-8.31289291381836,0.6392256021499634,0.2090345323085785,0.11638893932104111,1
220,-11.293334007263184,11.4415283203125,-6.767406940460205,0.42971134185791016,0.17207454144954681,0.03751072660088539,1
221,11.597850799560547,-9.848215103149414,-3.9187142848968506,0.7816511988639832,0.13796399533748627,-0.014650578610599041,1
222,-0.8386295437812805,2.893537998199463,-2.6746232509613037,0.7612831592559814,-0.08051034063100815,-0.04507933929562569,1
223,-7.574806213378906,13.62817668914795,1.16026771068573,1.087847352027893,-0.20536449551582336,-0.057991933077573776,1
224,13.708662986755371,-13.234472274780273,-2.4011001586914062,1.3799083232879639,0.10109229385852814,-0.09149020165205002,1
225,4.6936774253845215,1.6185815334320068,0.3982733488082886,1.3068071603775024,0.04351383447647095,-0.0890626385807991,1
226,-11.828649520874023,4.800666332244873,0.29653850197792053,1.9651633501052856,-0.004876450169831514,-0.12077388167381287,1
227,-9.455636978149414,2.336878776550293,1.2433931827545166,1.839811086654663,-0.04298912361264229,-0.11750154197216034,1
228,4.187500953674316,7.9700398445129395,1.8535921573638916,2.458366632461548,0.10881790518760681,-0.16912506520748138,1
229,1.2065657377243042,-4.834935665130615,1.8809109926223755,2.994750738143921,0.03652728348970413,-0.15374049544334412,1
230,9.674566268920898,4.267414093017578,3.2938425540924072,3.4196975231170654,-0.1760200411081314,-0.08115740865468979,1
231,-3.5425028800964355,11.2488431930542,0.10457973927259445,4.110811233520508,-0.16838261485099792,-0.08845853805541992,1
232,-0.29433298110961914,35.74046325683594,-1.788622260093689,4.442087173461914,0.09135933965444565,-0.24662667512893677,1
233,-11.372398376464844,47.40057373046875,0.43122103810310364,3.8712408542633057,-0.1734188199043274,-0.16820964217185974,1
234,-1.2087032794952393,67.7959213256836,0.880699098110199,3.015801429748535,-0.15445038676261902,-0.20887048542499542,1
235,4.881045818328857,82.08560180664062,4.178364276885986,2.7999887466430664,-0.4408048391342163,-0.08525284379720688,1
236,15.042076110839844,95.15802764892578,4.59382963180542,1.6804325580596924,0.058325182646512985,-0.17894220352172852,1
237,29.72295570373535,103.05269622802734,5.368147850036621,-0.28992632031440735,0.39298850297927856,-0.08027990907430649,1
238,29.53729248046875,105.15858459472656,3.9128427505493164,-2.0140380859375,1.0172171592712402,-0.034366216510534286,1
239,23.132524490356445,94.2030258178711,5.337221622467041,-5.325207710266113,1.5182780027389526,0.09664099663496017,1
240,18.750205993652344,71.26174926757812,6.846750259399414,-2.6058313846588135,-0.053092144429683685,-0.2801133394241333,1
241,10.511916160583496,42.669925689697266,9.798529624938965,-2.9413392543792725,0.0663619413971901,-0.1914040744304657,1
242,3.8138253688812256,14.933813095092773,10.410383224487305,-4.262685775756836,0.5426031947135925,0.10815189778804779,1
243,-2.0971953868865967,-0.8746537566184998,7.026077747344971,-3.8917267322540283,0.6567575335502625,0.24662469327449799,1
244,-1.140446424484253,-3.798496723175049,6.76170539855957,-5.123873710632324,1.1129056215286255,0.5723714232444763,1
245,6.57342004776001,-3.664093255996704,6.31194543838501,-5.860255241394043,1.5008807182312012,0.8451948165893555,1
246,12.52389144897461,-1.9426295757293701,6.13132905960083,-9.193767547607422,2.2431201934814453,1.1778531074523926,1
247,14.813495635986328,-0.3406882882118225,5.711513519287109,-8.708490371704102,2.070403814315796,1.0235530138015747,1
248,12.948617935180664,-13.565733909606934,4.553100109100342,-7.005685806274414,2.132587432861328,1.2649849653244019,1
249,8.530010223388672,-33.07548904418945,5.56305456161499,-6.824071884155273,2.380190134048462,1.4416908025741577,1
250,-4.366544723510742,-50.763309478759766,5.845979690551758,-6.07236385345459,1.62189781665802,0.646182656288147,1
251,-19.09755516052246,-65.21495819091797,7.903557300567627,-5.561322212219238,1.7155752182006836,0.7825081944465637,1
252,-30.300045013427734,-73.43815612792969,8.120697975158691,-4.305542945861816,1.714273452758789,1.0950210094451904,1
253,-38.81490707397461,-72.90472412109375,6.023923873901367,-3.421299457550049,1.1290444135665894,0.8987215757369995,1
254,-34.876522064208984,-63.398170471191406,3.278226375579834,-2.697106122970581,0.5520786643028259,0.7548570036888123,1
255,-27.26005744934082,-46.599266052246094,1.5324403047561646,-3.0078203678131104,0.46301189064979553,0.8576358556747437,1
256,-16.132644653320312,-25.921178817749023,-0.8493813276290894,-3.0512285232543945,0.49828776717185974,1.0415247678756714,1
257,-1.0420817136764526,-11.87243938446045,-1.7144997119903564,-3.4907519817352295,0.8590937852859497,1.3179172277450562,1
258,12.299859046936035,-4.014266014099121,-3.031496286392212,-3.361731767654419,0.8368141055107117,1.3184386491775513,1
259,18.772323608398438,-2.9695112705230713,-4.038268566131592,-3.7129786014556885,1.3478785753250122,1.514432430267334,1
260,20.042922973632812,-14.960904121398926,-4.729062557220459,-3.610504388809204,1.6012946367263794,1.5297882556915283,1
261,10.991854667663574,-26.67791175842285,-7.568198204040527,-4.134565830230713,1.8807629346847534,1.4463366270065308,1
262,-9.268808364868164,-41.72907638549805,-7.736713409423828,-3.5695955753326416,2.0247740745544434,1.4205862283706665,1
263,-33.93128967285156,-54.7597770690918,-8.346796035766602,-3.5745279788970947,2.1295223236083984,1.3463691473007202,1
264,-55.45999526977539,-61.874534606933594,-8.264585494995117,-3.4739060401916504,1.7942630052566528,1.137560248374939,1
265,-67.01712799072266,-64.68187713623047,-7.274171829223633,-2.7010228633880615,0.9063363671302795,0.893868625164032,1
266,-69.81378173828125,-74.1155014038086,-6.788773059844971,-2.638746976852417,0.40007176995277405,0.784244179725647,1
267,-54.137908935546875,-80.7689437866211,-5.334649562835693,-1.5453922748565674,-0.780494213104248,0.5661593079566956,1
268,-24.035730361938477,-81.78533935546875,-3.3898098468780518,-1.811916708946228,-1.3844709396362305,0.5053282380104065,1
269,6.492981433868408,-80.42156219482422,-2.8407204151153564,-0.9234923124313354,-1.4018703699111938,0.5506536364555359,1
270,29.3507022857666,-74.85684967041016,-4.353204727172852,-1.1181111335754395,-1.3676598072052002,0.7143201231956482,1
271,43.66432571411133,-59.85847091674805,-5.874142646789551,-0.04368313029408455,-1.1888066530227661,0.5999622344970703,1
272,42.48163986206055,-52.15505599975586,-5.342076301574707,0.39564278721809387,-1.3930225372314453,0.5808635950088501,1
273,42.19093704223633,-52.508182525634766,-4.167047500610352,1.353360652923584,-1.222626805305481,0.4335949718952179,1
274,34.5875244140625,-56.78733444213867,-2.8479080200195312,2.758225679397583,-0.8896077871322632,0.15125979483127594,1
275,25.0793399810791,-73.8555679321289,-1.4822254180908203,3.5410656929016113,-0.8610270619392395,0.18449629843235016,1
276,13.614304542541504,-78.81647491455078,-2.5130388736724854,5.326228618621826,-0.3002862334251404,-0.1636153757572174,1
277,12.643632888793945,-61.66614532470703,-1.8312187194824219,6.842376708984375,-0.13787949085235596,-0.29623842239379883,1
278,13.74107837677002,-34.284645080566406,1.462239146232605,6.248276233673096,1.2064368724822998,-1.1118674278259277,1
279,9.191553115844727,6.799019813537598,7.9628777503967285,5.838956832885742,1.5979480743408203,-1.257590889930725,1
280,1.2973428964614868,35.87134552001953,12.02287483215332,7.008684158325195,1.566654086112976,-1.0998218059539795,1
281,-8.763897895812988,43.03313064575195,13.156445503234863,5.3683552742004395,-0.46990689635276794,0.9437069892883301,1
282,-27.14035415649414,34.879703521728516,6.138183116912842,4.7092180252075195,0.1950434297323227,0.3449815809726715,1
283,-32.90398025512695,21.143566131591797,9.144295692443848,5.449295997619629,0.2948887348175049,0.17089000344276428,1
284,-30.465761184692383,-1.359852910041809,12.12655258178711,6.1141133308410645,1.013288140296936,-0.7239267230033875,1
285,-25.33588409423828,-26.919031143188477,14.070760726928711,5.8883256912231445,0.28641772270202637,-0.22913330793380737,1
286,-22.347312927246094,-39.70890808105469,14.840283393859863,6.391746997833252,0.8173662424087524,-0.8597871661186218,1
287,-16.13910484313965,-37.65504837036133,16.526037216186523,6.697142124176025,0.16723324358463287,-0.3286411464214325,1
288,-13.108979225158691,-24.192604064941406,17.505329132080078,6.832507610321045,-0.3672865927219391,0.167286217212677,1
289,-9.90902042388916,-5.824684143066406,13.653428077697754,8.060973167419434,-0.5540950894355774,0.367988258600235,1
290,-2.7404239177703857,13.775473594665527,11.92883586883545,8.532121658325195,-0.8781173229217529,0.6823955774307251,1
291,1.26703679561615,37.25470733642578,11.358736991882324,6.363813877105713,-0.9327815175056458,0.9751916527748108,1
292,3.304417848587036,58.366363525390625,10.643044471740723,7.044565677642822,-1.2260637283325195,1.2916415929794312,1
293,1.9591871500015259,73.9930191040039,9.272197723388672,7.675747394561768,-1.5350489616394043,1.5532268285751343,1
294,1.1220216751098633,77.14541625976562,7.23325777053833,7.242375373840332,-1.4827698469161987,1.5373166799545288,1
295,0.04006700590252876,75.38590240478516,5.533578872680664,7.320879936218262,-1.879333734512329,1.8517735004425049,1
296,-1.9784648418426514,69.36907958984375,3.0026326179504395,6.230010509490967,-1.7361918687820435,1.8252339363098145,1
297,2.946643352508545,70.67794799804688,1.0434083938598633,5.778372764587402,-2.0442657470703125,2.0406062602996826,1
298,12.734381675720215,73.46564483642578,-0.1930759847164154,4.937196731567383,-2.034635305404663,2.0747222900390625,1
299,25.58568572998047,77.22178649902344,-1.564375877380371,4.411626815795898,-1.8375892639160156,1.9123824834823608,1
300,38.59785842895508,78.0092544555664,-1.4879947900772095,3.124809741973877,-1.4950238466262817,1.9297466278076172,1
301,44.72945785522461,79.18921661376953,-1.435246229171753,2.836137294769287,-1.3028260469436646,1.853034257888794,1
302,47.140140533447266,77.4246826171875,-2.7187657356262207,1.296579122543335,-0.43347734212875366,1.8217891454696655,1
303,46.27496337890625,72.5668716430664,-3.227902412414551,0.821760356426239,-0.2769054174423218,1.8249231576919556,1
304,33.80195617675781,58.68165588378906,-4.213709354400635,0.38464847207069397,-0.0847184881567955,1.802443027496338,1
305,22.663633346557617,47.93880844116211,-5.281240463256836,-0.6171074509620667,0.41509589552879333,1.8119776248931885,1
306,15.332467079162598,39.49729537963867,-5.94480562210083,-0.3147960305213928,0.5752305388450623,1.680856704711914,1
307,7.50398063659668,32.30297088623047,-6.283694267272949,-1.1246219873428345,0.9415547847747803,1.660581350326538,1
308,2.931352376937866,29.504594802856445,-5.411854267120361,-0.7416831851005554,0.9808000922203064,1.5864421129226685,1
309,2.8837246894836426,26.229562759399414,-3.7195584774017334,-1.140621304512024,1.2408359050750732,1.591528296470642,1
310,4.642992973327637,31.58817481994629,-1.9825716018676758,-1.0187920331954956,1.0295392274856567,1.5145854949951172,1
311,5.036487579345703,38.50931930541992,0.9862263798713684,-1.5086770057678223,1.1541355848312378,1.5059233903884888,1
312,4.200176239013672,46.979408264160156,2.7930452823638916,-1.1568573713302612,1.201741099357605,1.5995908975601196,1
313,1.9752274751663208,50.423500061035156,3.0850136280059814,-1.073127269744873,1.0814112424850464,1.641167402267456,1
314,-0.1903991401195526,51.8623161315918,2.941370725631714,-1.9429556131362915,1.2130413055419922,1.6681435108184814,1
315,-7.0638957023620605,57.6087646484375,1.9250835180282593,-1.9095118045806885,1.2060779333114624,1.7904666662216187,1
316,-10.850896835327148,60.93305969238281,-0.869559645652771,-2.8426456451416016,1.0861637592315674,1.7282882928848267,1
317,-13.1906099319458,62.07503890991211,-1.9006567001342773,-2.846292495727539,1.0869061946868896,1.8826549053192139,1
318,-9.03947925567627,58.175052642822266,-3.534931182861328,-3.8813982009887695,0.891968309879303,1.771494746208191,1
319,0.03423469141125679,54.50200271606445,-5.054647445678711,-4.3911566734313965,0.9550520777702332,1.8729698657989502,1
320,7.405789852142334,44.43490982055664,-4.7231035232543945,-5.1936421394348145,0.8687966465950012,1.757230520248413,1
321,13.346803665161133,34.17150115966797,-4.063135623931885,-5.736114501953125,0.9169566035270691,1.7080495357513428,1
322,14.09794807434082,28.98530387878418,-3.652881383895874,-6.643156051635742,1.1868623495101929,1.738582730293274,1
323,11.025054931640625,24.385513305664062,-3.4665300846099854,-6.692777156829834,1.101707100868225,1.5299111604690552,1
324,5.96477746963501,11.614740371704102,-2.3107120990753174,-6.856837749481201,1.178819179534912,1.4676392078399658,1
325,-1.4524753093719482,-2.8692047595977783,-0.7107075452804565,-7.40851354598999,1.3716676235198975,1.5330506563186646,1
326,-9.33903694152832,-12.462652206420898,-0.6093471646308899,-7.29697322845459,1.4120620489120483,1.5821069478988647,1
327,-9.374648094177246,-15.558309555053711,-2.449040651321411,-7.483590126037598,1.1950047016143799,1.3830288648605347,1
328,-7.484467506408691,-15.00905990600586,-2.6816532611846924,-7.304139137268066,1.3999414443969727,1.7031781673431396,1
329,-3.7152438163757324,-11.84134578704834,-2.6185686588287354,-7.455687046051025,1.3999353647232056,1.719762921333313,1
330,0.3800714910030365,-10.039552688598633,-2.8620493412017822,-6.889224052429199,1.3673453330993652,1.770377278327942,1
331,1.3418335914611816,-12.220664024353027,-2.7719247341156006,-7.034827709197998,1.4314011335372925,1.788583755493164,1
332,1.802446722984314,-15.859686851501465,-1.9776314496994019,-7.252816200256348,1.3438385725021362,1.5979313850402832,1
333,1.4934226274490356,-17.515220642089844,0.47140002250671387,-7.28229284286499,1.3514907360076904,1.5392229557037354,1
334,-2.6215567588806152,-20.520668029785156,1.5234754085540771,-7.339423656463623,0.6014280915260315,0.6340010166168213,1
335,-8.529772758483887,-24.832048416137695,3.9452755451202393,-7.0467352867126465,0.7630893588066101,0.8525336980819702,1
336,-11.774515151977539,-31.88634490966797,3.957245111465454,-6.739047527313232,0.723648726940155,0.9149265289306641,1
337,-13.119644165039062,-35.67876434326172,2.012704610824585,-6.376218795776367,0.3434026837348938,0.6628737449645996,1
338,-13.392036437988281,-39.52586364746094,2.3074183464050293,-5.7974019050598145,0.2808217406272888,0.7575868964195251,1
339,-6.704145431518555,-41.89000701904297,1.648296594619751,-5.1845784187316895,0.4435078501701355,1.0712846517562866,1
340,5.9246015548706055,-44.37971878051758,-0.09158854931592941,-4.562650203704834,0.46339523792266846,1.1852903366088867,1
341,15.751349449157715,-42.191585540771484,-0.1478583812713623,-3.816734790802002,0.6356590390205383,1.3075571060180664,1
342,21.620561599731445,-36.061031341552734,0.9190149307250977,-3.927672863006592,0.9066203832626343,1.3975496292114258,1
343,20.071252822875977,-23.366243362426758,1.599770188331604,-3.5956990718841553,1.9090189933776855,1.9550670385360718,1
344,7.176701068878174,-13.24340534210205,-0.7946513891220093,-3.1961429119110107,1.9935873746871948,1.8913761377334595,1
345,-9.869375228881836,-9.848576545715332,-1.9783275127410889,-3.010341167449951,1.9599477052688599,1.8164247274398804,1
346,-28.94615936279297,-9.420109748840332,-0.008164876140654087,-2.675316333770752,1.7430682182312012,1.7370023727416992,1
347,-41.615325927734375,-10.5957612991333,1.5274244546890259,-2.647333860397339,1.363839030265808,1.6535794734954834,1
348,-45.679080963134766,-14.065685272216797,2.4778711795806885,-2.983748435974121,0.6184363961219788,1.4620157480239868,1
349,-41.57606506347656,-18.896446228027344,4.30978536605835,-2.8292388916015625,-0.11519300192594528,1.38075590133667,1
350,-29.710662841796875,-22.757896423339844,6.155303955078125,-2.4597878456115723,-0.2195599228143692,1.5415679216384888,1
351,-12.067569732666016,-24.29148292541504,6.205053329467773,-2.066781520843506,-0.8008861541748047,1.5346136093139648,1
352,5.018019676208496,-19.339920043945312,6.532136917114258,-2.332913875579834,-1.2196636199951172,1.540906548500061,1
353,17.098880767822266,-10.120015144348145,7.492873668670654,-1.9535082578659058,-1.055821418762207,1.638812780380249,1
354,22.263669967651367,-2.052464485168457,6.89027214050293,-1.7983940839767456,-0.745891809463501,1.7456634044647217,1
355,22.906356811523438,2.2206058502197266,5.6794257164001465,-1.546089768409729,-0.6665143370628357,1.7712831497192383,1
356,19.923828125,-0.6500682234764099,5.021853923797607,-1.511441707611084,-0.2836492955684662,1.8436158895492554,1
357,12.670282363891602,-6.763547897338867,4.5308661460876465,-1.3504900932312012,-0.05051138252019882,1.8772495985031128,1
358,4.888608455657959,-13.753375053405762,4.293049335479736,-1.1888988018035889,0.12837772071361542,1.9121659994125366,1
359,-2.1989214420318604,-18.623184204101562,4.822184085845947,-0.8690322041511536,0.3293159604072571,1.936742901802063,1
360,-8.27919864654541,-19.33185386657715,5.246789932250977,-0.5903477072715759,0.2614612579345703,1.9712988138198853,1
361,-13.610979080200195,-15.31898307800293,5.876865386962891,-0.9013267755508423,-0.05077655240893364,2.0735902786254883,1
362,-18.385591506958008,-6.555807590484619,6.027886390686035,-0.6437439322471619,-0.2661180794239044,2.1273059844970703,1
363,-14.87794017791748,-0.23475000262260437,5.40117073059082,-0.5872495770454407,-0.12847773730754852,2.1709158420562744,1
364,-6.9272141456604,4.1857805252075195,4.859601974487305,-0.5514488220214844,-0.20202681422233582,2.2183594703674316,1
365,0.9503913521766663,5.343317031860352,5.202460765838623,-0.5772538781166077,-0.08818171173334122,2.2447469234466553,1
366,5.675559997558594,2.480825662612915,5.783079147338867,-0.5966534614562988,-0.19084085524082184,2.29935359954834,1
367,5.122978687286377,-2.070932388305664,5.938094139099121,-0.5733149647712708,-0.14986065030097961,2.3519463539123535,1
368,1.977081060409546,-6.662846565246582,5.683371543884277,-0.48577365279197693,0.4733430743217468,2.328907012939453,1
369,-2.687645435333252,-12.215655326843262,4.6494622230529785,-0.3315730392932892,-0.13641908764839172,2.4689760208129883,1
370,-9.498465538024902,-15.03160285949707,2.9030678272247314,-0.34250858426094055,-0.16164962947368622,2.526925802230835,1
371,-12.06571102142334,-12.272162437438965,0.5384026169776917,-0.5213916897773743,-1.4782377481460571,2.8025219440460205,1
372,-9.362629890441895,-8.75588321685791,-0.9702112078666687,-0.2582205533981323,-1.2841665744781494,2.7480075359344482,1
373,-0.40625789761543274,-4.641017913818359,-1.1703954935073853,-0.15221856534481049,-1.3614232540130615,2.7360680103302,1
374,11.080941200256348,-3.9711570739746094,-0.48320093750953674,-0.014082184992730618,-1.148272156715393,2.664862871170044,1
375,17.351640701293945,-6.170723915100098,-0.6352418065071106,0.1036716178059578,-0.9431823492050171,2.623121500015259,1
376,19.745935440063477,-11.755560874938965,-0.604159414768219,0.25655680894851685,-0.7377241849899292,2.5904815196990967,1
377,17.390708923339844,-15.568167686462402,-0.2283209264278412,0.4879274368286133,-0.42060375213623047,2.5414950847625732,1
378,12.725159645080566,-11.863079071044922,0.5771039724349976,0.5701165795326233,-0.18446385860443115,2.527772903442383,1
379,2.419063091278076,-3.164255142211914,0.7711041569709778,0.816747784614563,0.014500432647764683,2.4950509071350098,1
380,-4.967860221862793,6.82568883895874,-0.20807741582393646,0.7593031525611877,0.06904179602861404,2.5184805393218994,1
381,-7.57235860824585,15.015559196472168,-1.370095133781433,0.6189660429954529,0.08748231828212738,2.5106983184814453,1
382,-4.281481742858887,18.398605346679688,-1.9587292671203613,0.6586498618125916,0.0011390511645004153,2.474632978439331,1
383,0.9912305474281311,17.667442321777344,-2.37395977973938,0.35299456119537354,-0.016255877912044525,2.458872079849243,1
384,9.59410572052002,10.72713565826416,-2.5828356742858887,0.11543009430170059,0.07572069019079208,2.4174301624298096,1
385,16.73963165283203,2.18936824798584,-2.2563107013702393,-0.0003548618988133967,0.13092336058616638,2.3989810943603516,1
386,20.79142951965332,-5.604033470153809,-1.5294514894485474,0.012520712800323963,0.3610878586769104,2.35040283203125,1
387,18.766218185424805,-12.281465530395508,-0.30991676449775696,-0.1410200297832489,0.5494733452796936,2.354260206222534,1
388,11.688511848449707,-11.063529014587402,0.010134843178093433,0.35765114426612854,0.8218017816543579,2.3073174953460693,1
389,3.1776909828186035,-4.106526851654053,0.43261200189590454,0.4734880030155182,1.0308271646499634,2.280066967010498,1
390,-6.671945571899414,6.572952747344971,2.2792739868164062,0.6024876236915588,1.363995909690857,2.202258825302124,1
391,-12.91550064086914,16.9134521484375,4.088365077972412,0.41939109563827515,1.0256706476211548,2.301445484161377,1
392,-20.916095733642578,23.16843032836914,4.84069299697876,0.1002734825015068,0.8163257837295532,2.3649799823760986,1
393,-25.073680877685547,19.811256408691406,4.335923194885254,-0.1813727468252182,0.29816514253616333,2.4971401691436768,1
394,-25.765419006347656,12.399237632751465,2.9943883419036865,-0.3844870328903198,-0.2381640076637268,2.6102445125579834,1
395,-17.87948989868164,1.9552823305130005,2.0155224800109863,-0.877432107925415,-0.5604599714279175,2.642101287841797,1
396,-2.2572946548461914,-5.743607044219971,2.290731430053711,-0.7413864731788635,-0.7007033824920654,2.6597158908843994,1
397,14.43666934967041,-11.002528190612793,2.2300937175750732,-0.43918657302856445,-0.5923842191696167,2.6572370529174805,1
398,29.722503662109375,-13.423490524291992,3.1979079246520996,-0.45809832215309143,-0.5263986587524414,2.6898975372314453,1
399,37.59691619873047,-9.661559104919434,2.866983413696289,-0.2334648221731186,-0.24630847573280334,2.7158355712890625,1
400,35.76099395751953,-4.642843723297119,2.4774105548858643,0.2023221254348755,0.47581443190574646,2.67642879486084,1
401,27.93419075012207,0.20013785362243652,2.1155362129211426,0.22081509232521057,0.9531532526016235,2.681856155395508,1
402,13.857088088989258,4.181484699249268,1.8997979164123535,-0.3501887619495392,2.18932843208313,2.556889533996582,1
403,-3.3649680614471436,6.165451526641846,2.0869033336639404,-0.4707634449005127,3.712285280227661,2.3658077716827393,1
404,-23.861835479736328,5.617111682891846,3.751971960067749,-0.43007054924964905,3.4586145877838135,2.4326770305633545,1
405,-48.571685791015625,2.0324161052703857,4.109692573547363,-0.44391295313835144,2.810511589050293,2.5382730960845947,1
406,-66.81636810302734,-2.190937042236328,3.4514431953430176,-0.40715649724006653,2.357200860977173,2.590864896774292,1
407,-74.90481567382812,-5.982217788696289,3.501532554626465,-0.24618442356586456,1.3529003858566284,2.6900930404663086,1
408,-73.40332794189453,-9.30768871307373,4.31993293762207,-0.18760785460472107,0.5871294140815735,2.7208151817321777,1
409,-59.95820999145508,-11.123781204223633,5.884789943695068,-0.007331279572099447,-0.43640297651290894,2.8139119148254395,1
410,-41.74428176879883,-9.779814720153809,7.468409538269043,0.0965186282992363,-1.0477683544158936,2.872130870819092,1
411,-22.447574615478516,2.270526885986328,8.978615760803223,0.18647906184196472,-1.4370629787445068,2.937062978744507,1
412,-5.997615814208984,22.475439071655273,9.581754684448242,0.11284618824720383,-1.8165194988250732,3.035501003265381,1
413,2.2912566661834717,40.80485916137695,10.2562255859375,-0.052511706948280334,-1.9507147073745728,3.1323347091674805,1
414,3.1653685569763184,53.20606231689453,9.723600387573242,-0.619805634021759,-2.0450403690338135,3.2394156455993652,1
415,-4.149281978607178,56.026512145996094,8.759836196899414,-0.6678938269615173,-2.1454641819000244,3.3078486919403076,1
416,-11.3851900100708,50.72339630126953,7.752594470977783,-1.429595708847046,-2.270782470703125,3.405367851257324,1
417,-18.942264556884766,33.94895553588867,7.411952495574951,-1.8147615194320679,-2.423797130584717,3.447685956954956,1
418,-19.27939796447754,14.057209968566895,7.737135887145996,-2.2969765663146973,-2.796934127807617,3.525700569152832,1
419,-14.472140312194824,7.606361389160156,5.950044631958008,-2.380557060241699,-3.0429868698120117,3.578115940093994,1
420,-2.8990492820739746,3.0979650020599365,5.27863883972168,-2.4945504665374756,-3.1074934005737305,3.6469972133636475,1
421,10.66989517211914,-3.5036137104034424,5.1745452880859375,-2.4401142597198486,-3.205397129058838,3.6713454723358154,1
422,23.206571578979492,-4.27540397644043,4.567917823791504,-2.4054055213928223,-2.988694190979004,3.731375217437744,1
423,30.187166213989258,0.0753011703491211,4.360626697540283,-2.3662776947021484,-2.9218571186065674,3.763394832611084,1
424,28.74184799194336,4.823481559753418,3.1153757572174072,-2.315884828567505,-2.6661036014556885,3.7901647090911865,1
425,22.626066207885742,8.737812995910645,2.082263946533203,-2.343062162399292,-2.2367029190063477,3.8352248668670654,1
426,14.17483139038086,12.12784481048584,-0.01790068857371807,-2.354013204574585,-2.134650945663452,3.8064544200897217,1
427,7.144826412200928,12.24350357055664,-1.021429181098938,-2.553607225418091,-2.001253604888916,3.8302810192108154,1
428,4.468487739562988,12.964703559875488,-2.0442214012145996,-2.755908727645874,-2.036530017852783,3.818795680999756,1
429,6.86939001083374,13.213101387023926,-2.8897149562835693,-2.8706719875335693,-1.9889074563980103,3.793252468109131,1
430,10.809950828552246,11.699440002441406,-3.267080783843994,-3.0501468181610107,-2.12152361869812,3.7341790199279785,1
431,17.08993148803711,3.923311233520508,-2.9338443279266357,-3.158764600753784,-2.078174114227295,3.6821138858795166,1
432,23.894514083862305,-1.0869734287261963,-2.8071181774139404,-3.1687984466552734,-1.8518391847610474,3.6543447971343994,1
433,29.903820037841797,-3.1405818462371826,-2.9856693744659424,-3.1030149459838867,-1.6784218549728394,3.5951335430145264,1
434,33.55110549926758,-1.6640068292617798,-3.204335927963257,-3.0184695720672607,-1.4686957597732544,3.5321226119995117,1
435,30.776060104370117,2.650479316711426,-4.682583332061768,-3.1231260299682617,-1.2200579643249512,3.5154545307159424,1
436,25.427846908569336,7.186173915863037,-6.373477935791016,-3.1311469078063965,-0.7297154664993286,3.522726058959961,1
437,19.355432510375977,13.51290512084961,-9.588313102722168,-3.218078136444092,-0.5617086887359619,3.4440133571624756,1
438,14.80375862121582,18.32559585571289,-10.693824768066406,-3.386902093887329,-0.4668140113353729,3.336575508117676,1
439,14.874361991882324,17.309328079223633,-11.437575340270996,-3.5233824253082275,-0.4165097177028656,3.1882450580596924,1
440,19.020883560180664,9.705742835998535,-12.205085754394531,-3.546649694442749,-0.13305389881134033,3.092618942260742,1
441,26.327701568603516,1.1236472129821777,-13.757373809814453,-3.67423939704895,0.22136667370796204,3.0400338172912598,1
442,29.780601501464844,-13.599247932434082,-14.675390243530273,-3.610713243484497,0.7317927479743958,2.991889715194702,1
443,28.574970245361328,-31.771730422973633,-14.362833023071289,-3.5412404537200928,0.5226733684539795,2.6698620319366455,1
444,21.166841506958008,-44.57571029663086,-12.474441528320312,-3.1905481815338135,0.8249406814575195,2.526102066040039,1
445,14.224397659301758,-43.30101776123047,-11.95986557006836,-2.478079319000244,1.1556462049484253,2.411102771759033,1
446,7.3879852294921875,-33.86882019042969,-12.08088493347168,-2.410785675048828,1.3613299131393433,2.3201510906219482,1
447,1.4163818359375,-25.504501342773438,-12.091185569763184,-1.940527319908142,1.4516549110412598,2.1898581981658936,1
448,-0.6826874613761902,-20.51720428466797,-10.436201095581055,-1.667650580406189,1.3847993612289429,2.0322649478912354,1
449,-0.5971547365188599,-16.817922592163086,-9.288372039794922,-1.3289657831192017,1.2932875156402588,1.898917317390442,1
450,8.417478561401367,-16.337255477905273,-7.405179977416992,-1.1164253950119019,1.412100076675415,1.8347526788711548,1
451,18.685380935668945,-14.774561882019043,-6.284383296966553,-0.9949515461921692,1.6550769805908203,1.7927155494689941,1
452,24.252418518066406,-13.940980911254883,-4.264720916748047,-0.9707563519477844,1.94716477394104,1.739505648612976,1
453,22.980785369873047,-13.364171028137207,-2.6777570247650146,-0.8789197206497192,1.9981390237808228,1.655664086341858,1
454,12.392786979675293,-16.9954891204834,-1.2871334552764893,-0.6785945296287537,2.3688833713531494,1.65096914768219,1
455,-2.2581231594085693,-22.334096908569336,-0.8637345433235168,-0.4263247847557068,2.4748008251190186,1.6372498273849487,1
456,-16.095300674438477,-21.1328125,-0.5974730849266052,-0.2103266566991806,2.4176535606384277,1.6111605167388916,1
457,-27.999513626098633,-11.026719093322754,-0.8954107165336609,-0.054263636469841,2.135674238204956,1.5691618919372559,1
458,-31.363832473754883,1.220625877380371,-0.1681152880191803,0.08306513726711273,1.7818330526351929,1.5520849227905273,1
459,-25.212478637695312,3.0106258392333984,0.11147778481245041,0.012541216798126698,1.6392096281051636,1.5324541330337524,1
460,-15.284204483032227,1.8457895517349243,-1.0183062553405762,0.0758374035358429,1.2940330505371094,1.5605602264404297,1
461,-6.349636554718018,5.627584457397461,-1.9815062284469604,-0.03725861757993698,1.2500553131103516,1.5262895822525024,1
462,-0.3788541555404663,12.7153959274292,-2.956301212310791,-0.14617398381233215,1.1789113283157349,1.4939815998077393,1
463,4.799318790435791,18.530458450317383,-3.8970656394958496,-0.2885752320289612,1.1300805807113647,1.4620321989059448,1
464,6.720447540283203,20.467426300048828,-4.292178153991699,-0.49495214223861694,1.225195288658142,1.4163578748703003,1
465,9.144634246826172,13.132342338562012,-4.767866611480713,-0.6820976138114929,1.355745553970337,1.3793083429336548,1
466,10.683506965637207,-3.9629650115966797,-4.7747721672058105,-0.7111040949821472,1.3706434965133667,1.374382495880127,1
467,10.643003463745117,-16.723600387573242,-3.696359634399414,-0.6661800146102905,1.6262459754943848,1.3265392780303955,1
468,10.0256929397583,-25.378957748413086,-2.617807388305664,-0.7794914841651917,1.7983381748199463,1.2197858095169067,1
469,2.9763691425323486,-29.06092071533203,-2.304931640625,-0.38444164395332336,1.8321735858917236,1.2292605638504028,1
470,-12.911678314208984,-20.423460006713867,-3.629549026489258,-0.08907641470432281,1.6999815702438354,1.2163647413253784,1
471,-28.129301071166992,-8.067889213562012,-5.717962265014648,0.20367120206356049,1.5563701391220093,1.200028896331787,1
472,-37.51299285888672,-2.1533830165863037,-6.543872833251953,0.03363768756389618,1.34474778175354,1.0716094970703125,1
473,-36.24285888671875,1.1858265399932861,-6.571629524230957,-0.052178990095853806,1.0323206186294556,0.9706356525421143,1
474,-24.934452056884766,5.841819763183594,-6.732372760772705,-0.051587559282779694,0.6365907192230225,0.9118750095367432,1
475,-12.338390350341797,10.765621185302734,-6.163948059082031,-0.1950206458568573,0.5070013403892517,0.8062241077423096,1
476,0.520514190196991,15.366517066955566,-4.824484825134277,-0.26273539662361145,0.352812260389328,0.7555029392242432,1
477,8.467963218688965,18.95647430419922,-3.5195252895355225,-0.4048815667629242,0.3830869197845459,0.7030832171440125,1
478,12.193314552307129,13.323423385620117,-2.3693671226501465,-0.545291543006897,0.5145635604858398,0.6678456664085388,1
479,11.704099655151367,7.202324390411377,-2.253603935241699,-0.7004743814468384,0.5413656830787659,0.6572971343994141,1
480,6.187929153442383,2.6262998580932617,-1.434523582458496,-0.6708526611328125,0.6030976176261902,0.6589666604995728,1
481,-1.1341699361801147,-3.2959280014038086,-1.0278878211975098,-0.7125635743141174,0.721757173538208,0.6342365741729736,1
482,-9.118233680725098,-13.371790885925293,-1.2882882356643677,-0.5564307570457458,0.7057309746742249,0.6420668959617615,1
483,-13.2114839553833,-25.18526268005371,-1.869566559791565,-0.4541158676147461,0.5844355821609497,0.6271329522132874,1
484,-16.214170455932617,-26.557546615600586,-1.6563345193862915,-0.6005164384841919,0.5499618053436279,0.5439285635948181,1
485,-17.288270950317383,-21.596723556518555,-1.415157437324524,-0.12576843798160553,0.39795297384262085,0.5521456599235535,1
486,-14.720980644226074,-21.13719940185547,-1.2315466403961182,0.13978718221187592,0.32209861278533936,0.5316956639289856,1
487,-11.767486572265625,-13.610107421875,-1.1389813423156738,0.41430509090423584,0.05685475841164589,0.5421246290206909,1
488,-8.587038040161133,-10.330671310424805,-1.984851360321045,0.29913586378097534,0.07576669007539749,0.48561766743659973,1
489,-6.247220993041992,-1.9222655296325684,-2.1397624015808105,0.4774850010871887,-0.021669458597898483,0.47284889221191406,1
490,-3.9660043716430664,0.37263885140419006,-2.027604818344116,0.4161960482597351,-0.0010847507510334253,0.4308836758136749,1
491,-2.8921616077423096,5.420772075653076,-1.9260787963867188,0.3679336607456207,-0.10605636239051819,0.4194353222846985,1
492,-1.7434800863265991,9.078669548034668,-2.4386632442474365,0.398326575756073,-0.18652395904064178,0.4128512740135193,1
493,2.2504374980926514,2.27089786529541,-2.0438175201416016,0.43232864141464233,-0.07719481736421585,0.3714854121208191,1
494,4.786479473114014,-1.9794316291809082,-1.606199026107788,0.4600454866886139,-0.0758787989616394,0.35537126660346985,1
495,9.153923988342285,-5.248401165008545,-0.27327877283096313,0.47672614455223083,-0.007887224666774273,0.33391073346138,1
496,7.667020320892334,0.5891159176826477,1.365464687347412,0.5617284774780273,0.08344779908657074,0.3315120041370392,1
497,3.515188455581665,2.2727742195129395,3.2697622776031494,0.5742409825325012,0.13433697819709778,0.3502618074417114,1
498,-2.0192184448242188,0.01730993762612343,5.047868251800537,0.2818014621734619,0.1821785271167755,0.37765049934387207,1
499,-8.020803451538086,0.9149580597877502,6.562154769897461,0.3332390785217285,0.1351574957370758,0.4328722059726715,1
500,-14.278358459472656,6.893074035644531,7.7633514404296875,0.32662123441696167,-0.014539053663611412,0.5119481682777405,1
501,-19.996665954589844,11.608316421508789,8.307580947875977,0.14946359395980835,-0.10971280187368393,0.5768131017684937,1
502,-19.6785888671875,16.969146728515625,8.792062759399414,-0.023069286718964577,-0.18109123408794403,0.6357008814811707,1
503,-14.894623756408691,18.647891998291016,10.004268646240234,-0.1816483736038208,-0.4606798589229584,0.7393902540206909,1
504,-11.337310791015625,15.456074714660645,11.481642723083496,-0.3422606587409973,-0.5914146900177002,0.8324989080429077,1
505,-9.462590217590332,8.593753814697266,12.090720176696777,-0.4168340265750885,-0.7413206696510315,0.9481953978538513,1
506,-9.77592945098877,3.7079567909240723,12.487780570983887,-0.48379188776016235,-0.7189397215843201,1.0459585189819336,1
507,-9.808847427368164,0.5606566667556763,13.261582374572754,-0.5508224368095398,-0.7794799208641052,1.1668659448623657,1
508,-15.294589042663574,-2.019542932510376,13.399483680725098,-0.6440791487693787,-0.9601896405220032,1.317078948020935,1
509,-18.375164031982422,-1.7934359312057495,12.523252487182617,-0.48577576875686646,-1.1271082162857056,1.443306803703308,1
510,-18.787899017333984,-8.481163024902344,11.48955249786377,-0.37022414803504944,-1.2604939937591553,1.5531009435653687,1
511,-15.267102241516113,-20.372995376586914,9.413779258728027,-0.1869804710149765,-1.6734395027160645,1.6876875162124634,1
512,-12.123771667480469,-25.97414207458496,7.959357261657715,-0.003096092026680708,-1.3359005451202393,1.7309341430664062,1
513,-3.7814817428588867,-26.44763946533203,7.85928201675415,0.15881726145744324,-1.5609649419784546,1.839298129081726,1
514,9.800612449645996,-26.3870792388916,7.5474114418029785,0.642034649848938,-1.5105782747268677,1.8819046020507812,1
515,13.266100883483887,-15.488524436950684,6.470904350280762,0.7360351085662842,-1.4634342193603516,1.9932072162628174,1
516,12.997368812561035,-0.3982793986797333,5.2500529289245605,1.2351304292678833,-1.2956496477127075,2.0005481243133545,1
517,8.151972770690918,12.725473403930664,3.8302576541900635,0.713646411895752,-1.1022659540176392,2.1273932456970215,1
518,5.068210601806641,19.83053207397461,2.5026803016662598,0.5881527662277222,-1.0436265468597412,2.1674132347106934,1
519,0.1961618810892105,31.751384735107422,1.1140867471694946,0.3004801869392395,-1.0460442304611206,2.214578628540039,1
520,-3.6177961826324463,35.88972473144531,1.0251456499099731,-0.05215146020054817,-1.1149340867996216,2.240102529525757,1
521,-6.613736152648926,24.41852378845215,2.372959613800049,-0.30350953340530396,-1.237858533859253,2.238013982772827,1
522,-11.915645599365234,9.755289077758789,2.9047608375549316,-0.5046129822731018,-1.3468621969223022,2.2512705326080322,1
523,-13.514103889465332,-3.354088068008423,2.540166139602661,-0.5439034104347229,-1.3605432510375977,2.2529022693634033,1
524,-13.623685836791992,-17.436433792114258,2.332467555999756,-0.43327316641807556,-1.6234326362609863,2.2808494567871094,1
525,-9.185375213623047,-36.122406005859375,1.5764961242675781,0.01825125515460968,-1.767257809638977,2.259436845779419,1
526,-2.3881304264068604,-45.44853973388672,1.9879257678985596,0.39651480317115784,-1.897590160369873,2.288785696029663,1
527,1.1450270414352417,-46.4715690612793,3.393179178237915,1.2484358549118042,-1.927420973777771,2.2423112392425537,1
528,4.296557903289795,-38.50437927246094,4.780081748962402,0.9831998348236084,-1.5292491912841797,2.3955039978027344,1
529,4.959816932678223,-19.957609176635742,4.284149646759033,1.538266897201538,-1.4941998720169067,2.414982795715332,1
530,0.5514817833900452,-5.607158660888672,3.26391339302063,1.8007084131240845,-1.4849799871444702,2.452737808227539,1
531,-7.007082939147949,4.510891914367676,1.3293603658676147,1.9206846952438354,-1.4832464456558228,2.4699490070343018,1
532,-14.432907104492188,9.156950950622559,-0.16885828971862793,1.8233513832092285,-1.6775380373001099,2.5206172466278076,1
533,-14.756596565246582,9.329919815063477,-1.7914623022079468,1.749138593673706,-1.9460934400558472,2.538224458694458,1
534,-9.363078117370605,6.73492431640625,-2.885603666305542,1.6902587413787842,-2.0856759548187256,2.508553981781006,1
535,-4.027742862701416,8.087061882019043,-3.6410934925079346,1.641284465789795,-1.9872583150863647,2.4264237880706787,1
536,7.923890113830566,12.19131088256836,-2.84944486618042,1.4724360704421997,-1.9939169883728027,2.4025237560272217,1
537,15.360400199890137,10.527213096618652,-2.595174551010132,1.355379343032837,-2.4275834560394287,2.4961681365966797,1
538,18.059764862060547,4.014579772949219,-4.7480645179748535,1.1511844396591187,-1.8995271921157837,2.3948974609375,1
539,17.541318893432617,-5.472098350524902,-6.201301574707031,0.7878277897834778,-1.8275049924850464,2.4560177326202393,1
540,15.102063179016113,-10.466464042663574,-6.475889682769775,0.8773582577705383,-1.8433197736740112,2.4360427856445312,1
541,7.914255142211914,-10.893152236938477,-7.499053001403809,1.1584423780441284,-1.6176762580871582,2.309617519378662,1
542,5.023625373840332,-13.478065490722656,-7.642701625823975,1.228219747543335,-1.4044578075408936,2.217742681503296,1
543,2.949310064315796,-13.959760665893555,-8.35720443725586,1.5467584133148193,-1.3212050199508667,2.0913994312286377,1
544,3.2758331298828125,-12.828301429748535,-8.127480506896973,1.8449597358703613,-1.4051560163497925,2.0031540393829346,1
545,6.226176738739014,-3.058741331100464,-8.281338691711426,2.0376780033111572,-1.3735939264297485,1.909246563911438,1
546,7.312025547027588,10.241909980773926,-7.9121809005737305,1.6667169332504272,-1.2268506288528442,1.8854435682296753,1
547,9.208513259887695,26.267282485961914,-7.173786640167236,1.5251682996749878,-1.0688823461532593,1.786327600479126,1
548,11.490034103393555,30.33791160583496,-5.959688186645508,1.2875524759292603,-1.0299620628356934,1.7215358018875122,1
549,7.876416206359863,33.986751556396484,-5.017519950866699,0.9029973745346069,-1.143531322479248,1.7319464683532715,1
550,5.709614276885986,37.56528854370117,-4.491526126861572,0.3874949812889099,-0.9867095351219177,1.686586618423462,1
551,5.820558071136475,37.91139602661133,-3.8880064487457275,-0.14899680018424988,-1.0780757665634155,1.6983994245529175,1
552,9.350381851196289,32.898319244384766,-3.3340096473693848,-0.6363874673843384,-0.9017753005027771,1.6498889923095703,1
553,14.611348152160645,23.958459854125977,-3.3537163734436035,-0.780917227268219,-1.039744257926941,1.623762607574463,1
554,16.762470245361328,11.528837203979492,-3.583930730819702,-0.9825372695922852,-0.7178892493247986,1.5555812120437622,1
555,16.099082946777344,-4.443922519683838,-3.5748744010925293,-0.8785092830657959,-0.47406670451164246,1.4786320924758911,1
556,12.809814453125,-19.43515396118164,-4.148692607879639,-0.6765819191932678,-0.2622608244419098,1.4182034730911255,1
557,5.394344329833984,-25.839019775390625,-5.9405741691589355,-0.3744160532951355,-0.06636030972003937,1.3568930625915527,1
558,-2.0493993759155273,-27.24656105041504,-7.9743475914001465,0.13834510743618011,-0.0022875794675201178,1.2688418626785278,1
559,-4.614680290222168,-22.96466636657715,-10.109951972961426,0.23083727061748505,-0.24770811200141907,1.218429446220398,1
560,-8.346713066101074,-12.771102905273438,-12.555323600769043,0.2869342863559723,-0.6838715076446533,1.1519908905029297,1
561,-5.399510860443115,-3.5752511024475098,-13.849715232849121,0.5066654086112976,-0.7932259440422058,1.0229040384292603,1
562,-0.19251050055027008,12.016556739807129,-14.619294166564941,0.3593841791152954,-0.7543808817863464,0.887287974357605,1
563,6.2900471687316895,26.299110412597656,-15.276337623596191,0.19056649506092072,-0.628929615020752,0.731217086315155,1
564,20.302228927612305,31.635679244995117,-16.034074783325195,-0.0671745017170906,-0.6428699493408203,0.5791254043579102,1
565,33.77904510498047,24.943157196044922,-16.764684677124023,-0.313757061958313,-0.11397673189640045,0.39661404490470886,1
566,42.3303108215332,11.988005638122559,-17.2705135345459,-0.6409151554107666,-0.19113756716251373,0.24608871340751648,1
567,44.022335052490234,-1.8627077341079712,-16.639694213867188,-0.6483191251754761,0.6262977123260498,0.06305964291095734,1
568,44.18865203857422,-10.906949996948242,-15.090917587280273,-0.4695049226284027,0.9631531238555908,-0.10429228842258453,1
569,39.56199264526367,-13.73972225189209,-12.535842895507812,-0.3577990233898163,1.277111291885376,-0.2552222013473511,1
570,29.054454803466797,-12.900511741638184,-9.049142837524414,-0.22439245879650116,1.6344465017318726,-0.3782752752304077,1
571,16.064342498779297,-6.168186664581299,-6.966914176940918,-0.15197113156318665,1.951191782951355,-0.47228145599365234,1
572,4.287284851074219,-0.862597644329071,-5.475156784057617,-0.02425813488662243,2.2059102058410645,-0.536323070526123,1
573,-3.5800113677978516,-0.1427079141139984,-4.847443103790283,0.04041661322116852,2.277968406677246,-0.5839418172836304,1
574,-8.373381614685059,5.6689887046813965,-4.417484283447266,0.05646498501300812,2.1525654792785645,-0.6295889019966125,1
575,-9.101278305053711,15.267383575439453,-3.3312363624572754,-0.06083285063505173,2.0592846870422363,-0.6778860688209534,1
576,-2.6718361377716064,15.196090698242188,-1.7672486305236816,-0.26682528853416443,2.003648519515991,-0.7123841047286987,1
577,4.358412265777588,14.80543327331543,-0.14048448204994202,-0.4604872763156891,2.059157609939575,-0.7299083471298218,1
578,9.866082191467285,19.57929039001465,1.224679946899414,-0.7581731677055359,2.0671541690826416,-0.755211591720581,1
579,7.583699703216553,27.033926010131836,2.374438524246216,-1.0623565912246704,2.0307765007019043,-0.763621985912323,1
580,6.428751468658447,32.04218292236328,3.9968225955963135,-1.2334117889404297,2.516936779022217,-0.6792755722999573,1
581,2.289518117904663,31.685813903808594,5.0353522300720215,-1.8444985151290894,2.304861068725586,-0.7200702428817749,1
582,-5.5367112159729,27.921550750732422,5.456523418426514,-2.008709192276001,2.632115364074707,-0.5855028033256531,1
583,-12.969175338745117,19.968313217163086,5.459480285644531,-2.3257081508636475,1.9543979167938232,-0.6093578934669495,1
584,-16.52219009399414,9.234458923339844,5.935214042663574,-2.486811637878418,1.7680641412734985,-0.5466347336769104,1
585,-14.9216947555542,1.863977313041687,6.359312057495117,-2.4802756309509277,1.6356375217437744,-0.4523184299468994,1
586,-6.271243572235107,-2.898648738861084,6.419188499450684,-2.6771740913391113,1.5010249614715576,-0.44619622826576233,1
587,3.8848938941955566,-4.429358959197998,7.3592209815979,-2.5026841163635254,1.5161728858947754,-0.32233014702796936,1
588,15.035442352294922,-14.683329582214355,7.587821960449219,-2.2409205436706543,1.7101190090179443,-0.1571875959634781,1
589,21.206445693969727,-27.57933235168457,8.122081756591797,-1.8777333498001099,1.9650378227233887,-0.0017518869135528803,1
590,20.004863739013672,-32.17855453491211,8.943591117858887,-1.6721100807189941,2.335338592529297,0.08434607833623886,1
591,10.765519142150879,-26.302888870239258,10.95531940460205,-1.8454898595809937,2.2979326248168945,-0.0476924292743206,1
592,-1.7499377727508545,-15.367132186889648,13.57774829864502,-1.3398187160491943,2.336104393005371,0.1175723746418953,1
593,-16.23250961303711,-8.150237083435059,14.82132339477539,-1.0842130184173584,2.373009443283081,0.2990414798259735,1
594,-25.184589385986328,-0.2719299793243408,15.04352855682373,-0.8912438154220581,1.9690855741500854,0.425224244594574,1
595,-28.60491180419922,5.940812587738037,16.276309967041016,-0.9910109043121338,1.9234966039657593,0.5937546491622925,1
596,-26.72454071044922,9.6468505859375,17.600711822509766,-1.2421517372131348,1.4601635932922363,0.6543183326721191,1
597,-22.777742385864258,9.983981132507324,19.042245864868164,-1.5883928537368774,1.3652470111846924,0.7855616211891174,1
598,-14.585939407348633,6.752101421356201,20.537900924682617,-1.5763847827911377,1.0543369054794312,0.9910013675689697,1
599,-10.44047737121582,-0.11888838559389114,19.201860427856445,-1.6538035869598389,1.1598279476165771,1.2460969686508179,1
600,-7.90304708480835,-11.097999572753906,18.275041580200195,-1.562760591506958,0.996814489364624,1.4446289539337158,1
601,-1.4952116012573242,-28.799428939819336,18.53783416748047,-1.2166545391082764,0.9959214329719543,1.6905080080032349,1
602,1.9138232469558716,-33.2314453125,18.200424194335938,-1.0239496231079102,0.9830189943313599,1.8397984504699707,1
603,3.723524570465088,-32.906368255615234,18.543067932128906,-0.46993955969810486,1.0215733051300049,2.0776519775390625,1
604,0.4143204092979431,-34.478370666503906,16.906423568725586,-0.24101190268993378,1.0456907749176025,2.22563099861145,1
605,-4.643223762512207,-35.47749328613281,14.721916198730469,0.4807681739330292,0.9981561899185181,2.4700732231140137,1
606,-9.331727027893066,-30.7338924407959,14.125099182128906,0.9852046966552734,0.8640246987342834,2.6388673782348633,1
607,-18.284713745117188,-28.074018478393555,10.32947826385498,0.8662778735160828,0.6096206307411194,2.658163547515869,1
608,-23.930423736572266,-26.798383712768555,7.485833168029785,1.0703163146972656,0.47669556736946106,2.74212646484375,1
609,-17.729990005493164,-24.418163299560547,5.235729694366455,1.3956835269927979,0.27667686343193054,2.823939323425293,1
610,-13.473273277282715,-18.632585525512695,1.8687849044799805,1.7232325077056885,0.07851051539182663,2.8838624954223633,1
611,-11.889528274536133,-8.827306747436523,-1.0722341537475586,1.6747655868530273,0.009763449430465698,2.8602004051208496,1
612,-2.393282175064087,1.2914719581604004,-4.2669148445129395,1.7005127668380737,-0.1153142899274826,2.8376755714416504,1
613,8.241110801696777,4.043000221252441,-7.108244895935059,1.6191178560256958,0.004316467326134443,2.770136833190918,1
614,14.998541831970215,2.688369035720825,-8.017929077148438,1.6123889684677124,0.025059018284082413,2.7084200382232666,1
615,18.631458282470703,-3.9969406127929688,-8.907543182373047,1.735883116722107,0.3677140176296234,2.618121862411499,1
616,15.099574089050293,-12.196258544921875,-8.771997451782227,1.9780348539352417,0.4719676375389099,2.5561881065368652,1
617,9.72079086303711,-10.759976387023926,-8.121099472045898,1.9587699174880981,0.5094864368438721,2.4767954349517822,1
618,1.5495268106460571,-1.9906574487686157,-7.709300518035889,2.1698312759399414,0.5999306440353394,2.4049816131591797,1
619,-14.828372955322266,11.992508888244629,-9.146933555603027,2.251532793045044,0.48302870988845825,2.3560945987701416,1
620,-22.944286346435547,29.66535186767578,-9.21562671661377,2.063926935195923,0.16980978846549988,2.3014955520629883,1
621,-25.814491271972656,39.41697311401367,-11.049450874328613,1.569414734840393,-0.0778665766119957,2.2004306316375732,1
622,-19.029720306396484,43.34911346435547,-12.923169136047363,1.0451610088348389,-0.29420363903045654,2.0727460384368896,1
623,-1.5461361408233643,42.08393096923828,-13.3644437789917,0.4296056628227234,-0.3124522268772125,1.8986256122589111,1
624,10.465965270996094,33.94263458251953,-13.098088264465332,-0.09545312821865082,-0.3234635591506958,1.7624403238296509,1
625,18.43352699279785,21.652549743652344,-12.527721405029297,-0.44355496764183044,-0.24190843105316162,1.6364558935165405,1
626,24.392864227294922,11.206588745117188,-10.419453620910645,-0.5993933081626892,-0.038502469658851624,1.5107377767562866,1
627,19.408435821533203,2.82491135597229,-8.208394050598145,-0.6733270287513733,0.403105229139328,1.3767858743667603,1
628,7.910618305206299,-1.7835510969161987,-7.003554344177246,-0.7139535546302795,0.4669301211833954,1.313738226890564,1
629,-8.17629337310791,-5.352800369262695,-7.105435848236084,-1.1441376209259033,0.46697643399238586,1.2563751935958862,1
630,-21.15151596069336,-8.063427925109863,-8.098612785339355,-0.8758112192153931,0.3733738958835602,1.1810542345046997,1
631,-24.206247329711914,-14.209359169006348,-8.91795539855957,-0.6986159086227417,-0.08960004895925522,1.117146372795105,1
632,-18.206954956054688,-14.59150505065918,-8.480371475219727,-0.47086989879608154,-0.20788659155368805,1.0209869146347046,1
633,-5.799034118652344,-20.143314361572266,-7.312434673309326,-0.12421362847089767,-0.40620502829551697,0.9389815926551819,1
634,8.581249237060547,-28.329622268676758,-6.909472465515137,0.32011139392852783,-0.386891633272171,0.8583449125289917,1
635,19.014118194580078,-30.731632232666016,-6.292379856109619,0.30381888151168823,-0.15318579971790314,0.7959226369857788,1
636,25.099924087524414,-24.42021369934082,-4.363569736480713,0.8201773166656494,0.2092456966638565,0.7159175276756287,1
637,23.943580627441406,-11.629054069519043,-1.4270355701446533,0.9451301693916321,0.30519455671310425,0.6904284358024597,1
638,15.447877883911133,4.327232360839844,0.5640329718589783,1.1446478366851807,0.567003607749939,0.6703119277954102,1
639,3.526934862136841,18.714839935302734,2.160900592803955,1.060151219367981,0.7342846393585205,0.6763808727264404,1
640,-7.569485187530518,18.85296058654785,4.115380764007568,0.849116325378418,0.7778106331825256,0.7008451819419861,1
641,-17.974945068359375,14.083406448364258,7.530489444732666,0.6694831848144531,0.5603877305984497,0.7616903185844421,1
642,-31.13100814819336,10.304723739624023,9.164307594299316,0.5653941035270691,0.23428674042224884,0.8534511923789978,1
643,-38.54198455810547,0.34203803539276123,9.374530792236328,0.5524760484695435,-0.11687076091766357,0.9468830823898315,1
644,-35.36228942871094,-13.410687446594238,9.770915985107422,0.7262174487113953,-0.28976577520370483,1.0152935981750488,1
645,-23.799213409423828,-25.77534294128418,10.901254653930664,1.1131927967071533,-0.9027059078216553,1.138528823852539,1
646,-8.332470893859863,-28.683645248413086,12.173967361450195,1.6264954805374146,-1.1831525564193726,1.2515344619750977,1
647,8.197309494018555,-21.047826766967773,12.19575023651123,2.003937005996704,-1.1880590915679932,1.362961769104004,1
648,15.214615821838379,-5.620790481567383,10.170933723449707,2.262761116027832,-0.9851547479629517,1.4605069160461426,1
649,11.833101272583008,6.529114723205566,5.690819263458252,1.1485490798950195,-0.4536566138267517,1.5900404453277588,1
650,7.9001145362854,17.956762313842773,-0.6291831731796265,0.9784415364265442,-0.2272181510925293,1.6313892602920532,1
651,2.476250410079956,21.488746643066406,-5.319781303405762,0.8215253949165344,-0.09039858728647232,1.6077924966812134,1
652,-0.6450051665306091,19.51253318786621,-8.455007553100586,0.581473171710968,-0.2650618255138397,1.588236689567566,1
653,0.2901790142059326,19.658700942993164,-10.961885452270508,0.5187028646469116,-0.5954791307449341,1.5415377616882324,1
654,-0.6288133859634399,21.7988338470459,-12.850448608398438,0.2676166594028473,0.10329753905534744,1.3255336284637451,1
655,2.7506330013275146,23.086210250854492,-14.336301803588867,0.21346859633922577,-0.3197782635688782,1.240231990814209,1
656,5.343830108642578,20.20572280883789,-13.823657035827637,-0.14320939779281616,-0.26316046714782715,1.106874942779541,1
657,3.4222750663757324,14.826534271240234,-13.869033813476562,-0.3569064736366272,-0.2855820059776306,0.9776069521903992,1
658,5.005219459533691,1.4889591932296753,-13.417596817016602,-0.41110870242118835,-0.22952702641487122,0.8291016221046448,1
659,6.7094831466674805,-8.5573148727417,-13.021198272705078,-0.2679608464241028,-0.14899179339408875,0.6796661615371704,1
660,6.922234058380127,-8.829865455627441,-12.891222953796387,-0.35348930954933167,-0.2754444479942322,0.5804089903831482,1
661,3.6737232208251953,-3.2463200092315674,-12.8001070022583,-0.15123791992664337,-0.18666526675224304,0.43950366973876953,1
662,0.6104143261909485,7.500843524932861,-13.15323543548584,-0.01605488732457161,-0.14508898556232452,0.30062276124954224,1
663,0.7868644595146179,16.195438385009766,-11.99152946472168,-0.1248859316110611,-0.13448067009449005,0.17176389694213867,1
664,2.723151445388794,26.37251853942871,-10.659586906433105,-0.47161614894866943,-0.11013315618038177,0.06771279126405716,1
665,7.241726398468018,28.40511703491211,-8.581186294555664,-0.6921470165252686,-0.03365514799952507,-0.04299075901508331,1
666,8.433348655700684,28.794513702392578,-7.109663009643555,-1.0843745470046997,0.09013330936431885,-0.11925064027309418,1
667,7.4745283126831055,22.359359741210938,-4.708579063415527,-1.3449642658233643,0.22493289411067963,-0.1830509752035141,1
668,1.7104028463363647,15.550113677978516,-2.4495110511779785,-1.5853184461593628,0.22447247803211212,-0.22770333290100098,1
669,-5.657548904418945,11.488868713378906,-1.689304232597351,-1.7107144594192505,0.18575093150138855,-0.25560393929481506,1
670,-13.591310501098633,3.884875774383545,-0.22028981149196625,-1.7286522388458252,0.014275996945798397,-0.2843414843082428,1
671,-16.5985107421875,-12.509003639221191,0.6725186109542847,-1.619615912437439,-0.23930729925632477,-0.3046424388885498,1
672,-12.923722267150879,-28.820636749267578,1.1128437519073486,-1.473192811012268,-0.46829134225845337,-0.30565083026885986,1
673,-3.2686197757720947,-40.33124542236328,1.5263837575912476,-1.0195844173431396,-0.3537132143974304,-0.2702430784702301,1
674,11.099154472351074,-46.244571685791016,3.1343822479248047,-0.20153683423995972,-0.27548474073410034,-0.2652243673801422,1
675,19.95491600036621,-37.53845977783203,5.053779602050781,0.026984864845871925,0.06891162693500519,-0.18640649318695068,1
676,24.28843879699707,-14.954439163208008,6.1754841804504395,0.23347511887550354,0.2766897678375244,-0.12469092756509781,1
677,20.900278091430664,8.552046775817871,7.234980583190918,0.21192871034145355,0.3350752294063568,-0.06856270134449005,1
678,10.03539752960205,31.359189987182617,7.402321815490723,-0.04066003859043121,0.5090330243110657,0.012622025795280933,1
679,0.5188270807266235,44.22056198120117,7.7610344886779785,-0.4223836362361908,0.5893775224685669,0.09325841069221497,1
680,-9.11313247680664,45.76573181152344,8.124336242675781,-0.9611292481422424,0.5024546980857849,0.1817023605108261,1
681,-14.248785972595215,41.399269104003906,7.6668806076049805,-1.4305917024612427,0.4511711001396179,0.2728199362754822,1
682,-12.126629829406738,26.932186126708984,7.843334197998047,-1.8032618761062622,0.45284315943717957,0.3710903525352478,1
683,-7.728987216949463,-3.723121404647827,8.857925415039062,-1.8575828075408936,0.27495962381362915,0.4431154131889343,1
684,-5.891343593597412,-33.445228576660156,9.927406311035156,-1.4114924669265747,0.227867990732193,0.5357350707054138,1
685,-7.140689373016357,-54.1164665222168,11.344230651855469,-0.8783195614814758,0.33172425627708435,0.662932276725769,1
686,-7.829652309417725,-62.73073959350586,12.24760627746582,-0.27114999294281006,0.17495429515838623,0.7629375457763672,1
687,-11.836329460144043,-56.17770004272461,12.879557609558105,0.49161309003829956,-0.013350984081625938,0.8693416118621826,1
688,-16.927143096923828,-42.04948043823242,12.797478675842285,0.8235344886779785,0.029244916513562202,1.0194286108016968,1
689,-20.540451049804688,-28.388771057128906,10.522612571716309,1.1817620992660522,-0.17301012575626373,1.1406664848327637,1
690,-20.41387367248535,-9.561656951904297,8.248208045959473,1.472995638847351,-0.5525080561637878,1.2303762435913086,1
691,-12.98768138885498,3.95583176612854,6.977184772491455,1.5033228397369385,-0.6154825091362,1.3151663541793823,1
692,-3.6234095096588135,22.935970306396484,4.601239204406738,1.335754156112671,-0.7772350311279297,1.3788822889328003,1
693,-1.3721787929534912,37.53205490112305,2.8067493438720703,0.9608564376831055,-0.7605248093605042,1.420658826828003,1
694,3.744781494140625,47.06281280517578,3.1837942600250244,0.4652687907218933,-0.7599566578865051,1.446343183517456,1
695,2.6471107006073,46.70228958129883,1.139784574508667,-0.011282442137598991,-0.8078563213348389,1.4668915271759033,1
696,-1.7514543533325195,34.801151275634766,0.24850994348526,-0.608542263507843,-0.8146992325782776,1.4800472259521484,1
697,-1.3752892017364502,17.391029357910156,1.5872889757156372,-0.776917576789856,-0.8490889072418213,1.4715678691864014,1
698,-2.6445627212524414,-0.08700251579284668,2.148261070251465,-0.8204048871994019,-0.8165019154548645,1.476564645767212,1
699,-5.719944477081299,-20.957902908325195,1.9286246299743652,-0.5405954122543335,-0.9006137251853943,1.4774357080459595,1
700,-3.3433823585510254,-35.63602828979492,2.2318899631500244,-0.4380817413330078,-0.8993192315101624,1.5171442031860352,1
701,2.3039016723632812,-35.64107131958008,2.9150400161743164,0.2495509535074234,-0.9083167910575867,1.5164363384246826,1
702,5.600594520568848,-30.084373474121094,3.531794548034668,0.7846766710281372,-0.9287753701210022,1.531447172164917,1
703,6.348308086395264,-14.7574462890625,3.5304653644561768,1.1924551725387573,-0.753788411617279,1.5541714429855347,1
704,4.604399681091309,13.935844421386719,3.350930690765381,1.2211941480636597,-0.753275454044342,1.5976842641830444,1
705,-2.710684061050415,42.74422073364258,1.7971019744873047,0.6756065487861633,-0.7451621890068054,1.6617109775543213,1
706,-8.69736385345459,64.8721923828125,0.9531578421592712,-0.1319601982831955,-0.6162270307540894,1.7026262283325195,1
707,-10.251930236816406,70.9505844116211,0.4986983835697174,-1.232954502105713,-0.8070043325424194,1.7519118785858154,1
708,-9.896649360656738,62.50383377075195,-0.043404024094343185,-1.875351071357727,-1.1500468254089355,1.7354295253753662,1
709,-7.682672500610352,39.518795013427734,-0.6066609621047974,-2.4127986431121826,-0.9776941537857056,1.7256590127944946,1
710,4.815239906311035,9.969347953796387,0.027622634544968605,-2.717576742172241,-1.3258020877838135,1.6925122737884521,1
711,15.426437377929688,-13.498913764953613,1.860990047454834,-2.7261862754821777,-1.1318163871765137,1.7039378881454468,1
712,21.9583740234375,-24.44249725341797,2.9145967960357666,-2.286576271057129,-0.8052475452423096,1.7082433700561523,1
713,22.723974227905273,-25.75260353088379,4.071651458740234,-2.0773816108703613,-0.5081444382667542,1.7596477270126343,1
714,17.671552658081055,-30.689495086669922,7.709040641784668,-1.7446913719177246,-0.1690382957458496,1.8230130672454834,1
715,6.564425468444824,-38.39352798461914,10.61906623840332,-1.3725612163543701,-0.052131637930870056,1.8935480117797852,1
716,-8.191859245300293,-33.28019714355469,12.77779769897461,0.9035595059394836,1.1843764781951904,1.9759202003479004,1
717,-23.87413787841797,-19.142580032348633,12.493597030639648,0.9916508793830872,0.7993754744529724,2.0852410793304443,1
718,-38.19986343383789,-4.284290313720703,12.085124969482422,1.0784802436828613,0.5627544522285461,2.220184326171875,1
719,-43.30915069580078,13.62238597869873,11.615668296813965,0.8773277401924133,-0.23100490868091583,2.3189151287078857,1
720,-44.09086227416992,26.716876983642578,9.251260757446289,0.5873928666114807,-0.6662036776542664,2.4359586238861084,1
721,-30.571590423583984,41.79129409790039,8.749162673950195,0.010637951083481312,-1.2806941270828247,2.5294134616851807,1
722,-10.812811851501465,53.29178237915039,7.19822883605957,-0.5510662198066711,-1.5303975343704224,2.6083178520202637,1
723,4.139350891113281,56.64360046386719,7.744268894195557,-1.1644045114517212,-1.4813820123672485,2.6794819831848145,1
724,19.046768188476562,54.461971282958984,8.584460258483887,-1.868820309638977,-1.6365418434143066,2.7370283603668213,1
725,12.461690902709961,44.860660552978516,7.4784979820251465,-2.532188653945923,-1.3155659437179565,2.8349974155426025,1
726,8.31676197052002,24.891263961791992,7.748568058013916,-2.9848828315734863,-1.3226470947265625,2.891066074371338,1
727,-0.7011519074440002,2.3180508613586426,7.032816410064697,-3.1517200469970703,-1.276087999343872,2.9546892642974854,1
728,-6.7972798347473145,-19.13201141357422,6.132350444793701,-3.1700119972229004,-1.370393991470337,3.0154366493225098,1
729,-9.88471794128418,-29.09755516052246,5.814409255981445,-2.856104612350464,-1.5294415950775146,3.048691987991333,1
730,-6.934628486633301,-26.152751922607422,6.248050212860107,-2.564304828643799,-1.6885616779327393,3.0973427295684814,1
731,-8.490382194519043,-13.042251586914062,4.1790337562561035,-2.320849657058716,-1.8170400857925415,3.1465377807617188,1
732,-4.868809700012207,-3.158430576324463,4.852042198181152,-2.1911063194274902,-1.9151402711868286,3.184265375137329,1
733,4.934442520141602,14.833162307739258,5.255709648132324,-2.303335189819336,-1.9877023696899414,3.230750322341919,1
734,10.179585456848145,20.885412216186523,6.545570373535156,-2.5327095985412598,-1.7801578044891357,3.3340036869049072,1
735,23.46511459350586,19.179651260375977,8.699454307556152,-2.8033716678619385,-1.4838004112243652,3.4595208168029785,1
736,23.332056045532227,7.045391082763672,7.606921195983887,-3.295361042022705,-1.939847707748413,3.3759100437164307,1
737,25.011207580566406,-8.64342212677002,10.004549026489258,-3.2724921703338623,-1.8513429164886475,3.397062063217163,1
738,21.55537986755371,-15.682242393493652,10.277541160583496,-3.156024217605591,-1.5502334833145142,3.5233185291290283,1
739,11.841493606567383,-19.726810455322266,7.8637542724609375,-2.716207265853882,-1.289070725440979,3.595064640045166,1
740,13.97233772277832,-17.888395309448242,8.109090805053711,-3.054311990737915,-1.2412114143371582,3.753600597381592,1
741,10.384879112243652,-11.525394439697266,5.537633895874023,-2.8043603897094727,-1.2769194841384888,3.745823621749878,1
742,9.113421440124512,-11.17650032043457,4.39202356338501,-2.7636568546295166,-1.1064683198928833,3.8388640880584717,1
743,19.22713851928711,-17.7880916595459,3.8566129207611084,-2.4076170921325684,-0.7622981071472168,3.932624578475952,1
744,19.51666831970215,-31.822784423828125,4.008799076080322,-2.6366472244262695,-0.9817138314247131,3.8947174549102783,1
745,22.698060989379883,-31.83113670349121,4.472867012023926,-2.0515055656433105,-0.5874667763710022,3.96753191947937,1
746,20.706872940063477,-38.751220703125,4.974481582641602,-1.6684118509292603,-0.134870246052742,4.094958782196045,1
747,31.184541702270508,-38.154327392578125,5.89631986618042,-1.269349455833435,0.026131825521588326,4.119831085205078,1
748,23.69147300720215,-31.247804641723633,4.55793571472168,-1.0503705739974976,0.17268501222133636,4.143453121185303,1
749,21.778974533081055,-16.97967529296875,5.725156784057617,-0.7783758044242859,0.3348597288131714,4.17000675201416,1
750,11.668763160705566,-17.263601303100586,4.245855331420898,-0.7544254064559937,0.23115861415863037,4.149811267852783,1
751,10.207983016967773,-12.952681541442871,5.175023078918457,-0.6853702068328857,0.2984641492366791,4.189756870269775,1
752,7.020270824432373,-19.035919189453125,3.6524171829223633,-0.35298529267311096,0.3966801166534424,4.231581687927246,1
753,10.679142951965332,-19.394643783569336,4.182637691497803,-0.0615023598074913,0.6731978058815002,4.307027816772461,1
754,14.573846817016602,-16.199495315551758,1.9719551801681519,-0.03420216590166092,0.4546922445297241,4.282433986663818,1
755,15.285082817077637,-12.572599411010742,1.9425643682479858,0.2589975893497467,0.4555479884147644,4.280341625213623,1
756,16.3626651763916,-8.56175422668457,0.4173787236213684,0.31585854291915894,0.8634578585624695,4.320584297180176,1
757,19.030702590942383,-12.141995429992676,1.106864333152771,0.5273588299751282,1.2146016359329224,4.345948219299316,1
758,19.508094787597656,-20.93977928161621,-0.35517019033432007,0.3886251747608185,1.0983976125717163,4.310917854309082,1
759,14.270454406738281,-26.33710479736328,-1.7938790321350098,0.7789662480354309,1.7374472618103027,4.3227643966674805,1
760,8.38529109954834,-33.766239166259766,-2.88073992729187,1.2704942226409912,1.382856011390686,4.316704750061035,1
761,3.993192195892334,-36.63133239746094,-4.40146541595459,1.9822843074798584,1.5250511169433594,4.3148579597473145,1
762,0.7215669751167297,-31.950471878051758,-5.511079788208008,1.62679922580719,1.372031807899475,4.160740375518799,1
763,4.172946453094482,-21.238262176513672,-6.350872039794922,1.938877820968628,1.5579674243927002,4.079624652862549,1
764,15.969621658325195,-13.903058052062988,-6.8479814529418945,2.270714521408081,1.7923636436462402,4.009049415588379,1
765,17.06930160522461,-13.697737693786621,-8.955686569213867,2.6887693405151367,2.189344882965088,3.93654465675354,1
766,30.635604858398438,-14.19273567199707,-8.421920776367188,2.2225959300994873,2.1008858680725098,3.789944648742676,1
767,24.05771827697754,-13.565231323242188,-10.86739444732666,2.4245431423187256,2.6574511528015137,3.6268255710601807,1
768,22.53190803527832,-7.96871280670166,-10.002501487731934,2.631725788116455,3.0581374168395996,3.48858642578125,1
769,15.447426795959473,9.518145561218262,-10.504076957702637,2.2008631229400635,2.880530834197998,3.382797956466675,1
770,-1.7483909130096436,15.813925743103027,-12.984395027160645,2.010838508605957,3.0563924312591553,3.2251157760620117,1
771,-7.9650750160217285,12.756293296813965,-12.939971923828125,1.9161654710769653,3.348212242126465,2.9956917762756348,1
772,-12.613872528076172,12.893475532531738,-14.853426933288574,1.7430737018585205,2.8934051990509033,2.979443073272705,1
773,-13.961935043334961,8.79128360748291,-16.98386573791504,1.6935760974884033,2.7441723346710205,2.863499879837036,1
774,-16.240036010742188,2.097712993621826,-18.181785583496094,1.807383418083191,2.5550734996795654,2.780332326889038,1
775,-8.892971992492676,-7.3502960205078125,-19.67306137084961,1.8080484867095947,2.114070415496826,2.7053496837615967,1
776,-1.5523685216903687,-15.06849193572998,-21.82979965209961,2.3554768562316895,2.7596466541290283,2.3944015502929688,1
777,6.012256622314453,-17.188364028930664,-21.99091911315918,1.764993667602539,2.717843532562256,1.8754801750183105,1
778,12.551234245300293,-10.314752578735352,-18.640052795410156,2.0269739627838135,2.7123916149139404,1.7614951133728027,1
779,13.055351257324219,-5.334432601928711,-17.0372314453125,2.3184802532196045,2.896618604660034,1.654090404510498,1
780,5.565638542175293,-2.4243698120117188,-18.59109878540039,2.5169713497161865,3.0720462799072266,1.521189570426941,1
781,0.17384649813175201,-6.649056434631348,-19.482133865356445,2.7416810989379883,2.9918110370635986,1.4717016220092773,1
782,-4.826801300048828,-4.93220853805542,-18.323223114013672,2.094226837158203,2.998112916946411,0.9509164094924927,1
783,-10.694010734558105,-4.01015567779541,-15.717862129211426,2.2498855590820312,3.1211400032043457,0.7485116124153137,1
784,-14.333771705627441,-9.708291053771973,-13.50523853302002,2.206580638885498,2.7554824352264404,0.6654264330863953,1
785,-18.436580657958984,-15.386465072631836,-13.432767868041992,2.598726511001587,2.497408151626587,0.7017626762390137,1
786,-19.557289123535156,-16.29907989501953,-15.114672660827637,2.7145423889160156,2.437185287475586,0.46795037388801575,1
787,-17.47476577758789,-9.66225528717041,-15.022974014282227,3.073417901992798,2.223897695541382,0.43023088574409485,1
788,-12.758018493652344,4.077178478240967,-14.011298179626465,2.814913511276245,2.085442304611206,0.14938196539878845,1
789,-10.282720565795898,23.576881408691406,-13.233179092407227,2.5888803005218506,2.1549222469329834,-0.11165111511945724,1
790,-9.23215103149414,35.302978515625,-11.975286483764648,2.2035763263702393,2.001011371612549,-0.23545117676258087,1
791,-4.8321099281311035,30.169994354248047,-10.833234786987305,1.9447293281555176,1.8965485095977783,-0.28178033232688904,1
792,-1.2614699602127075,21.571361541748047,-9.915567398071289,1.6675716638565063,1.85897958278656,-0.38106220960617065,1
793,-0.754386305809021,18.158428192138672,-9.070497512817383,1.4719254970550537,1.8409554958343506,-0.4649673402309418,1
794,-2.963651180267334,12.627083778381348,-9.092674255371094,1.3432053327560425,1.8767461776733398,-0.5561233162879944,1
795,-3.945976734161377,1.436850666999817,-8.723036766052246,1.3099994659423828,1.8125739097595215,-0.60941481590271,1
796,-4.822813034057617,-5.278761863708496,-8.235222816467285,1.4949368238449097,1.7276939153671265,-0.6153490543365479,1
797,-5.419387340545654,-9.901711463928223,-6.896857261657715,1.293588638305664,1.6470117568969727,-0.7767561674118042,1
798,-7.092782020568848,-10.693367004394531,-4.575320243835449,2.2655582427978516,1.5126347541809082,-0.5132859945297241,1
799,-10.956582069396973,-8.2315673828125,-4.311752796173096,2.3114492893218994,1.3368910551071167,-0.5443329811096191,1
800,-14.591989517211914,7.3900275230407715,-6.627823829650879,2.466634511947632,1.108340859413147,-0.5149086117744446,1
801,-14.73285961151123,22.637380599975586,-6.0896806716918945,1.5855610370635986,0.9630875587463379,-0.7827449440956116,1
802,-7.2846174240112305,27.443603515625,-4.5230326652526855,1.2343335151672363,0.8177168369293213,-0.8415275812149048,1
803,1.2287894487380981,28.705305099487305,-5.101047039031982,1.4547885656356812,0.28286921977996826,-0.5753032565116882,1
804,7.368890762329102,27.22337532043457,-5.947300910949707,1.0483958721160889,0.43616124987602234,-0.6904865503311157,1
805,16.781755447387695,29.256044387817383,-6.596090316772461,-0.028530525043606758,1.2502923011779785,-1.1219987869262695,1
806,25.433473587036133,24.077495574951172,-3.5275661945343018,-0.32472312450408936,1.6297860145568848,-1.213698387145996,1
807,23.062362670898438,14.450809478759766,-3.1110568046569824,-0.48288777470588684,2.0030927658081055,-1.260330080986023,1
808,12.584839820861816,-2.185732364654541,-2.4199023246765137,-0.6757225394248962,2.218461275100708,-1.3203718662261963,1
809,-3.91658353805542,-17.47262954711914,-0.9860109090805054,-0.004740932025015354,2.1917521953582764,-1.2264673709869385,1
810,-20.31455421447754,-23.650100708007812,-0.9819610118865967,0.9846348166465759,1.882282018661499,-1.0702097415924072,1
811,-34.136783599853516,-21.531047821044922,-1.7582263946533203,1.627196192741394,1.0386525392532349,-0.9346906542778015,1
812,-39.40982437133789,-9.76213264465332,-2.0799288749694824,1.8390778303146362,0.33398962020874023,-0.8965293169021606,1
813,-31.02779769897461,7.082376956939697,-0.040447648614645004,1.773724913597107,-0.12413515895605087,-0.9071425795555115,1
814,-12.351941108703613,20.910438537597656,0.823593258857727,1.4866026639938354,-0.3926793336868286,-0.9181209206581116,1
815,9.420778274536133,35.95109558105469,1.473215937614441,3.080796718597412,0.9671556949615479,-0.9475975632667542,1
816,26.85260772705078,50.974273681640625,2.96040415763855,2.1628410816192627,1.420947551727295,-1.009766936302185,1
817,28.364946365356445,66.85486602783203,5.097413539886475,1.398498773574829,1.5174806118011475,-0.9277047514915466,1
818,16.199459075927734,78.57946014404297,5.66103458404541,0.6310158967971802,1.7176356315612793,-0.8491042256355286,1
819,-4.568722724914551,78.7803726196289,4.212351322174072,-0.5035492777824402,1.686610221862793,-0.7845302224159241,1
820,-24.714590072631836,67.5667953491211,2.168442487716675,-1.4709880352020264,1.5446064472198486,-0.7485909461975098,1
821,-36.17631530761719,55.77511215209961,1.3798131942749023,-2.3632307052612305,1.0029277801513672,-0.726294219493866,1
822,-44.35057067871094,41.04532241821289,0.5055259466171265,-2.703263759613037,0.9333879947662354,-0.6938215494155884,1
823,-46.61572265625,21.884201049804688,0.16040201485157013,-3.216365337371826,0.3808441758155823,-0.7091246247291565,1
824,-40.97473907470703,9.203704833984375,-0.46114301681518555,-3.4560844898223877,-0.25853076577186584,-0.7402101755142212,1
825,-29.327335357666016,3.736830949783325,-0.5223715901374817,-3.5504868030548096,-0.8833139538764954,-0.7940986752510071,1
826,-16.385072708129883,6.479393005371094,0.6403162479400635,-3.6420278549194336,-0.5640169978141785,-0.6703583598136902,1
827,-3.359545946121216,14.62359619140625,-0.11402998119592667,-3.6899139881134033,-0.6900200843811035,-0.6731963157653809,1
828,7.0375895500183105,20.81262969970703,0.14832353591918945,-4.095125675201416,-0.46882885694503784,-0.6026878952980042,1
829,13.112089157104492,21.012699127197266,0.920422375202179,-4.4512434005737305,-0.5156375169754028,-0.6528662443161011,1
830,18.5175724029541,10.219826698303223,3.7712817192077637,-4.569299697875977,-0.2924860715866089,-0.610975980758667,1
831,16.26786231994629,-1.7482017278671265,6.46052360534668,-4.635369300842285,-0.15677717328071594,-0.579055905342102,1
832,11.543746948242188,-17.970407485961914,8.363995552062988,-4.670474052429199,-0.005897714756429195,-0.4893788695335388,1
833,0.38413548469543457,-27.676767349243164,9.641172409057617,-4.265323638916016,-0.10261071473360062,-0.5043145418167114,1
834,-12.057812690734863,-31.50439453125,10.344449996948242,-3.7721946239471436,-0.31666091084480286,-0.5145222544670105,1
835,-25.586585998535156,-33.8802375793457,10.3924560546875,-3.866338014602661,-0.34631142020225525,-0.26205676794052124,1
836,-36.44761657714844,-31.78324317932129,9.958006858825684,-3.3937487602233887,-0.6719033718109131,-0.17376413941383362,1
837,-40.841941833496094,-26.269811630249023,8.567461967468262,-3.2375545501708984,-1.2553735971450806,-0.18139347434043884,1
838,-37.34389114379883,-17.147523880004883,6.93165922164917,-2.825937271118164,-1.8706260919570923,-0.26528510451316833,1
839,-30.875171661376953,-12.1654634475708,4.692893028259277,-2.561127185821533,-1.863623857498169,-0.011572269722819328,1
840,-12.254858016967773,-9.906856536865234,1.3405383825302124,-2.6275062561035156,-2.163999557495117,0.00016117114864755422,1
841,6.767042636871338,-5.498554229736328,-2.19387149810791,-2.504277467727661,-2.178941011428833,-0.016222165897488594,1
842,21.552764892578125,-8.254802703857422,-3.868237018585205,-2.4504802227020264,-2.226287603378296,-0.17049506306648254,1
843,31.256425857543945,-15.928354263305664,-3.620673656463623,-2.6754872798919678,-1.532182216644287,0.13456350564956665,1
844,33.05995559692383,-23.522563934326172,-5.14303731918335,-2.5978617668151855,-1.1123099327087402,0.18641270697116852,1
845,25.901460647583008,-24.3167724609375,-6.884513854980469,-2.066337823867798,-0.6917027235031128,0.11742209643125534,1
846,16.299287796020508,-29.55948257446289,-6.585091590881348,-1.878792643547058,-0.6608263254165649,-0.02665732055902481,1
847,-1.1637104749679565,-29.443279266357422,-5.863646030426025,-1.7075620889663696,-0.7181224822998047,-0.11663904041051865,1
848,-18.29424476623535,-20.7699031829834,-5.7711405754089355,-1.5689904689788818,-0.9984861016273499,-0.23076526820659637,1
849,-28.12001609802246,-5.429814338684082,-6.5449419021606445,-1.497741937637329,-1.078610897064209,-0.18847627937793732,1
850,-30.294445037841797,4.471892356872559,-6.8392229080200195,-1.3622829914093018,-1.6337019205093384,-0.42407411336898804,1
851,-23.315385818481445,0.7257866859436035,-5.962740421295166,-1.8598610162734985,-1.0291004180908203,0.02228751964867115,1
852,-11.81393814086914,-4.974939823150635,-6.373330593109131,-1.8331432342529297,-1.4817167520523071,-0.14440345764160156,1
853,2.4382760524749756,-14.40024185180664,-6.127096652984619,-1.7632648944854736,-1.7713215351104736,-0.27095940709114075,1
854,13.680766105651855,-25.67819595336914,-5.52455997467041,-1.3764386177062988,-1.6717835664749146,-0.3658003807067871,1
855,17.22125244140625,-33.63097381591797,-5.8610053062438965,-1.4716914892196655,-1.576727271080017,-0.3206771910190582,1
856,12.396522521972656,-34.230140686035156,-7.012289524078369,-0.8791432976722717,-1.4444477558135986,-0.4738018214702606,1
857,3.528135299682617,-29.599580764770508,-7.446865558624268,-0.6324857473373413,-1.3052005767822266,-0.49776649475097656,1
858,-6.706506252288818,-22.314069747924805,-8.29012680053711,-0.37750548124313354,-1.4247853755950928,-0.5936533212661743,1
859,-12.951396942138672,-23.360660552978516,-9.595125198364258,0.22176341712474823,-1.6380598545074463,-0.8358469009399414,1
860,-16.308002471923828,-21.999828338623047,-10.826208114624023,0.23459979891777039,-1.68209969997406,-0.8526389598846436,1
861,-13.578975677490234,-15.19952392578125,-12.350438117980957,0.4266863465309143,-1.6958918571472168,-0.9050617814064026,1
862,0.4781486392021179,-9.601683616638184,-13.139832496643066,0.460527628660202,-1.7949682474136353,-0.9570176601409912,1
863,16.70728874206543,-13.940418243408203,-14.003655433654785,0.6973254084587097,-1.6656216382980347,-1.095332384109497,1
864,28.728883743286133,-26.907039642333984,-13.664926528930664,0.9405750632286072,-1.4527884721755981,-1.261112093925476,1
865,41.65513229370117,-40.46428298950195,-12.188600540161133,1.5735304355621338,-0.9097009897232056,-1.5416862964630127,1
866,42.669010162353516,-42.73871994018555,-10.715728759765625,1.3371775150299072,-0.7845293283462524,-1.4528700113296509,1
867,42.01176834106445,-41.42781066894531,-5.950500965118408,2.5835721492767334,0.1111777052283287,-1.7695425748825073,1
868,31.106124877929688,-20.589277267456055,-1.6470662355422974,2.656900644302368,0.447317898273468,-1.724998116493225,1
869,15.438779830932617,5.335423946380615,2.6402199268341064,2.6104378700256348,0.651071310043335,-1.689142107963562,1
870,-7.493097305297852,34.44601058959961,3.4796390533447266,2.3744730949401855,0.33122649788856506,-1.5790194272994995,1
871,-20.687742233276367,43.98273849487305,6.759443759918213,2.057708263397217,0.2769474685192108,-1.517613172531128,1
872,-27.12235450744629,36.16397476196289,9.366769790649414,1.7189838886260986,0.13185474276542664,-1.4842712879180908,1
873,-26.1143741607666,16.0967960357666,11.406696319580078,1.4080578088760376,-0.16994233429431915,-1.3981592655181885,1
874,-17.46856689453125,-0.29423296451568604,13.100321769714355,1.3847988843917847,-0.5674341917037964,-1.2828391790390015,1
875,-9.881174087524414,-10.133471488952637,14.560654640197754,1.1168735027313232,-0.5110797882080078,-1.179720401763916,1
876,1.9364262819290161,-15.37757396697998,16.83395767211914,1.4790641069412231,-0.6242023706436157,-1.0808031558990479,1
877,14.269682884216309,-9.183409690856934,19.255565643310547,1.6764845848083496,-0.5336223244667053,-0.9469117522239685,1
878,16.420793533325195,3.859567880630493,21.359371185302734,1.2012302875518799,-0.16718217730522156,-0.7398518323898315,1
879,12.876678466796875,20.122907638549805,23.808666229248047,1.2405704259872437,0.03274277597665787,-0.5524538159370422,1
880,2.195265054702759,26.09101676940918,24.13204002380371,0.9996715784072876,0.20417912304401398,-0.32434168457984924,1
881,-13.230110168457031,21.67774200439453,22.217622756958008,0.7872549295425415,0.10438211262226105,-0.04545772448182106,1
882,-23.299055099487305,8.767498016357422,21.600168228149414,0.5995155572891235,0.11319027841091156,0.14592726528644562,1
883,-25.874361038208008,-5.322292327880859,19.636213302612305,0.6885132789611816,-0.25465714931488037,0.3857581615447998,1
884,-24.340465545654297,-16.96999740600586,19.88055992126465,0.7496800422668457,-0.5627952218055725,0.6005745530128479,1
885,-18.16977310180664,-23.86687660217285,19.464326858520508,1.1380977630615234,-1.0523217916488647,0.8453518748283386,1
886,-10.789440155029297,-23.998382568359375,18.715490341186523,0.9636120796203613,-0.9611577391624451,0.9935657978057861,1
887,-2.3393611907958984,-26.699296951293945,17.29279327392578,1.3941110372543335,-1.1349821090698242,1.1840510368347168,1
888,2.006561279296875,-25.231952667236328,13.951703071594238,1.7395267486572266,-0.9705002307891846,1.2898386716842651,1
889,3.5849106311798096,-20.862545013427734,13.505301475524902,2.19899845123291,-0.9790694713592529,1.425449252128601,1
890,9.280679702758789,-2.345749616622925,13.621319770812988,2.32871150970459,-0.8598731160163879,1.5430551767349243,1
891,12.52203369140625,22.385982513427734,12.964811325073242,1.9102603197097778,-0.684134304523468,1.7000681161880493,1
892,6.321702480316162,42.52172088623047,11.298930168151855,1.5919945240020752,-0.659103512763977,1.8934482336044312,1
893,-11.96704387664795,44.76911544799805,9.085053443908691,1.2025701999664307,-0.5621539354324341,1.9920763969421387,1
894,-26.239593505859375,26.522363662719727,6.198765277862549,0.8125767111778259,-0.8979257345199585,2.1532039642333984,1
895,-39.49205780029297,-9.598906517028809,2.599263906478882,0.650652289390564,-1.2183870077133179,2.221261501312256,1
896,-38.721717834472656,-40.59126281738281,-1.4697682857513428,1.1260737180709839,-1.732533574104309,2.246619701385498,1
897,-29.5054931640625,-60.76016616821289,-5.496269702911377,1.476812481880188,-2.033486843109131,2.2247836589813232,1
898,-12.229823112487793,-63.26503372192383,-8.170215606689453,1.753252387046814,-1.9711278676986694,2.1267666816711426,1
899,10.247777938842773,-49.49431228637695,-9.245287895202637,2.4844889640808105,-2.0923171043395996,2.049166440963745,1
900,25.3077335357666,-29.83421516418457,-8.524120330810547,3.106694221496582,-2.1927382946014404,2.0228257179260254,1
901,33.06266784667969,-0.9342790842056274,-9.851923942565918,3.5611796379089355,-1.7366009950637817,1.8432068824768066,1
902,31.640010833740234,20.16690444946289,-9.13343620300293,3.5663459300994873,-1.300700306892395,1.715285301208496,1
903,23.04353904724121,35.66847610473633,-8.599603652954102,3.3125,-0.8544451594352722,1.5853840112686157,1
904,9.743866920471191,38.62760543823242,-8.5703125,2.7988789081573486,-1.0673662424087524,1.7393707036972046,1
905,-0.15615864098072052,30.54731559753418,-7.032197952270508,2.3106167316436768,-0.8121467232704163,1.6040468215942383,1
906,-7.736818313598633,24.75287628173828,-5.726250648498535,1.9335474967956543,-0.6469517946243286,1.4683072566986084,1
907,-14.73086166381836,19.80706787109375,-3.5178158283233643,1.6542212963104248,-0.9338904619216919,1.5094573497772217,1
908,-17.582359313964844,7.511499881744385,-2.1945791244506836,1.5193729400634766,-1.2154330015182495,1.5211114883422852,1
909,-12.830438613891602,-1.2171404361724854,-1.484671711921692,1.4682329893112183,-1.4037727117538452,1.4977232217788696,1
910,-3.6389217376708984,-4.639780044555664,-0.16235078871250153,1.6065906286239624,-1.5617446899414062,1.4721770286560059,1
911,1.1732014417648315,-4.765368938446045,-0.541842520236969,2.00203275680542,-1.5183870792388916,1.3748260736465454,1
912,7.70751953125,-3.6944053173065186,-2.475907802581787,1.6682544946670532,-1.460112452507019,1.4183087348937988,1
913,10.132668495178223,-1.4363009929656982,-2.627188205718994,2.4135563373565674,-1.328442096710205,1.2432204484939575,1
914,13.29820728302002,-1.9707025289535522,-2.6591899394989014,2.85335636138916,-0.9127062559127808,1.0146832466125488,1
915,10.937191009521484,-2.690617561340332,-2.1041364669799805,1.1136982440948486,-1.4342480897903442,1.5568244457244873,1
916,7.154480934143066,6.850019931793213,-2.411177396774292,1.2171627283096313,-1.1749992370605469,1.4679778814315796,1
917,9.260254859924316,15.218189239501953,-1.7235357761383057,1.171852946281433,-1.0965847969055176,1.444944143295288,1
918,10.531432151794434,14.35358715057373,-1.8735432624816895,1.042819619178772,-1.2274980545043945,1.4966717958450317,1
919,11.883086204528809,15.601339340209961,-3.0874459743499756,0.9053179621696472,-1.007531762123108,1.4382882118225098,1
920,12.170793533325195,15.447285652160645,-4.722970485687256,0.8326320052146912,-0.7815206050872803,1.361194133758545,1
921,14.507630348205566,12.842028617858887,-6.977396011352539,0.6917549967765808,-0.6165503263473511,1.3008594512939453,1
922,13.909138679504395,11.214691162109375,-8.180366516113281,0.5807691812515259,-0.3638054132461548,1.200992465019226,1
923,11.413358688354492,8.120556831359863,-11.102118492126465,0.5089719295501709,-0.21333573758602142,1.1129869222640991,1
924,9.203752517700195,6.411885738372803,-13.684898376464844,0.6215816140174866,-0.02587544545531273,0.967893123626709,1
925,6.596642971038818,-2.9620778560638428,-14.228119850158691,0.6517267227172852,0.11149273067712784,0.816973865032196,1
926,2.338644027709961,-12.507039070129395,-14.953123092651367,0.7435992956161499,0.19492055475711823,0.6679461002349854,1
927,-5.789959907531738,-15.228135108947754,-14.512017250061035,1.0207270383834839,0.18378260731697083,0.5184177160263062,1
928,-11.80387020111084,-15.54347038269043,-13.852949142456055,1.1695599555969238,0.05879368633031845,0.38648417592048645,1
929,-10.900930404663086,-7.12843656539917,-13.4728364944458,1.3356788158416748,-0.11776882410049438,0.2589954137802124,1
930,-6.281495571136475,5.492027282714844,-12.965944290161133,1.2622932195663452,-0.2526131570339203,0.13135385513305664,1
931,2.0576207637786865,9.283854484558105,-12.116462707519531,1.359344720840454,-0.28848087787628174,-0.003123183036223054,1
932,12.793159484863281,15.334346771240234,-11.540986061096191,1.2036033868789673,-0.17499002814292908,-0.14193041622638702,1
933,21.192766189575195,27.441659927368164,-9.505722999572754,1.0598700046539307,0.08969388157129288,-0.28073975443840027,1
934,27.606204986572266,39.11814880371094,-6.589770317077637,0.7192999124526978,0.17429699003696442,-0.36107027530670166,1
935,27.669349670410156,43.77085494995117,-4.299394130706787,0.24086801707744598,0.2574339509010315,-0.406486451625824,1
936,25.835224151611328,35.99253463745117,-2.034228801727295,-0.07928092032670975,0.7292525768280029,-0.4651857614517212,1
937,17.441940307617188,29.562440872192383,1.0674703121185303,-0.4615001082420349,0.8142922520637512,-0.46815553307533264,1
938,3.9769515991210938,21.15742301940918,3.7964274883270264,-0.721322774887085,0.974853515625,-0.4515007734298706,1
939,-11.834491729736328,7.688141822814941,5.794022560119629,-0.9644761085510254,0.9131326079368591,-0.41323697566986084,1
940,-21.003427505493164,-3.370419502258301,4.860673904418945,-1.006608009338379,0.8583245277404785,-0.3504444360733032,1
941,-22.963451385498047,-10.765641212463379,2.2351279258728027,-0.9565120339393616,0.5917040705680847,-0.29923585057258606,1
942,-17.932552337646484,-15.54094123840332,0.3451654016971588,-0.7144569158554077,0.49072834849357605,-0.24637125432491302,1
943,-9.402375221252441,-13.596464157104492,-0.6549585461616516,-0.43609192967414856,0.25017037987709045,-0.228645458817482,1
944,0.3679124414920807,-1.5225096940994263,-1.3011343479156494,-0.25300097465515137,0.15866678953170776,-0.22695262730121613,1
945,10.353672981262207,13.764018058776855,-0.6123863458633423,-0.37348178029060364,0.3069385588169098,-0.2452140748500824,1
946,17.045141220092773,32.33286666870117,0.5468368530273438,-0.6011015772819519,0.4439791738986969,-0.26123228669166565,1
947,14.961413383483887,45.25102996826172,1.0400547981262207,-1.1650410890579224,0.7137790322303772,-0.2793598473072052,1
948,9.068451881408691,45.82695007324219,1.3228144645690918,-1.5467609167099,0.8523290157318115,-0.25820988416671753,1
949,0.6710466742515564,38.0324592590332,1.2778880596160889,-1.7672090530395508,0.9537872076034546,-0.19740065932273865,1
950,-6.087823867797852,18.38692283630371,0.832414984703064,-2.2103068828582764,0.9257983565330505,-0.19358624517917633,1
951,-14.368392944335938,-3.2289299964904785,-0.6633464694023132,-2.2969048023223877,0.7729518413543701,-0.1807604283094406,1
952,-21.20865821838379,-30.4051513671875,-2.4098665714263916,-2.0263185501098633,0.8048058748245239,-0.09186327457427979,1
953,-27.120798110961914,-48.87794494628906,-5.36876106262207,-1.7684910297393799,0.3961660861968994,-0.1845746785402298,1
954,-34.02630615234375,-52.67343521118164,-8.357686042785645,-1.0602480173110962,-0.02476612664759159,-0.23925116658210754,1
955,-37.65676498413086,-48.344974517822266,-10.513304710388184,-0.8976790308952332,-0.05891450121998787,-0.29354918003082275,1
956,-34.894229888916016,-33.43511199951172,-9.773277282714844,-0.1450325846672058,-0.3792564570903778,-0.32954728603363037,1
957,-31.403244018554688,-2.3928234577178955,-8.344260215759277,-0.0484575554728508,-0.8833523988723755,-0.5144007205963135,1
958,-29.148178100585938,26.882925033569336,-7.653422832489014,0.1272488683462143,-1.3229528665542603,-0.6173205375671387,1
959,-19.986385345458984,45.28687286376953,-7.866916179656982,-0.38170406222343445,-1.6618441343307495,-0.7482038140296936,1
960,1.034376859664917,45.68599319458008,-9.715925216674805,-0.7747584581375122,-1.6154546737670898,-0.7658931612968445,1
961,20.14215087890625,30.42446517944336,-10.848743438720703,-1.3235416412353516,-1.496351718902588,-0.840363085269928,1
962,30.358234405517578,14.548201560974121,-10.835003852844238,-1.5459613800048828,-1.3610594272613525,-0.9602566957473755,1
963,30.618322372436523,0.8066294193267822,-10.473665237426758,-1.6634536981582642,-0.8625015616416931,-1.0078741312026978,1
964,23.368791580200195,-16.36311912536621,-9.16713809967041,-1.603598713874817,-0.4859655201435089,-1.0890817642211914,1
965,14.985274314880371,-32.6352653503418,-8.878976821899414,-1.271005392074585,-0.23661594092845917,-1.1782772541046143,1
966,2.705937147140503,-42.95003128051758,-7.826667785644531,-0.8727279901504517,-0.07924044877290726,-1.2689831256866455,1
967,-10.416533470153809,-45.08594512939453,-6.625062465667725,-0.35325831174850464,-0.12752698361873627,-1.3772581815719604,1
968,-19.726133346557617,-40.25808334350586,-3.343663454055786,0.007047995459288359,-0.2851705849170685,-1.4648845195770264,1
969,-25.161184310913086,-27.855669021606445,-0.49185481667518616,0.5635377168655396,-0.6499003171920776,-1.5529733896255493,1
970,-20.98719024658203,-13.996176719665527,3.029008150100708,0.8816091418266296,-1.0324499607086182,-1.5902550220489502,1
971,-8.71826171875,12.274675369262695,5.786171913146973,0.9658284187316895,-1.288400411605835,-1.568603277206421,1
972,2.792461633682251,38.147422790527344,7.989573955535889,0.7720405459403992,-1.3386441469192505,-1.5043504238128662,1
973,12.748242378234863,57.478858947753906,8.0657320022583,-0.017470821738243103,-1.1997441053390503,-1.3965303897857666,1
974,20.7824764251709,58.01068878173828,8.314449310302734,-0.7761579751968384,-0.9129411578178406,-1.2917925119400024,1
975,24.4904727935791,47.372867584228516,8.995698928833008,-1.2264249324798584,-0.5420584678649902,-1.1989266872406006,1
976,20.12165641784668,24.89405632019043,7.756105899810791,-1.5626604557037354,-0.3283981382846832,-1.126681923866272,1
977,12.672957420349121,-2.346203088760376,5.836299896240234,-1.726569652557373,-0.20878228545188904,-1.0709303617477417,1
978,2.9880359172821045,-22.612276077270508,4.30702018737793,-1.4865473508834839,-0.07139236479997635,-1.0204181671142578,1
979,-6.547480583190918,-38.85240936279297,3.3089852333068848,-1.1769404411315918,0.13663744926452637,-0.9381036162376404,1
980,-12.842679977416992,-47.43437194824219,1.4667772054672241,-0.8878753781318665,-0.11597661674022675,-0.9454378485679626,1
981,-11.813944816589355,-43.577919006347656,-0.7003814578056335,-0.22955632209777832,-0.2486499547958374,-0.936348021030426,1
982,-8.525334358215332,-33.18312072753906,-2.8334152698516846,0.22122587263584137,-0.4246821105480194,-0.9570921659469604,1
983,-6.685955047607422,-18.284746170043945,-4.374438762664795,0.46170374751091003,-0.5513966083526611,-0.9901933073997498,1
