,gyro.x,gyro.y,gyro.z,stabilizer.pitch,stabilizer.roll,stabilizer.yaw,label
0,-0.09859100729227066,0.13758498430252075,-0.008428599685430527,0.47247228026390076,0.5308244228363037,-5.636167049407959,1
1,0.13321958482265472,0.035318002104759216,0.1890876740217209,0.4714466333389282,0.5309831500053406,-5.62946081161499,1
2,0.020351361483335495,0.01411657128483057,0.09975801408290863,0.4713074564933777,0.5308797955513,-5.622377395629883,1
3,0.02702813781797886,-0.02822069823741913,0.1539546698331833,0.47094231843948364,0.5306107997894287,-5.615715503692627,1
4,-0.07930023968219757,0.040326520800590515,0.015137136913836002,0.47043177485466003,0.5301125645637512,-5.609324932098389,1
5,0.006131777539849281,-0.005546891130506992,0.07724469155073166,0.470121830701828,0.5291237235069275,-5.603383541107178,1
6,0.12141808867454529,-0.07656512409448624,0.04482746124267578,0.4756404161453247,0.5326093435287476,-5.5968708992004395,1
7,-0.02656492590904236,0.011381013318896294,0.010867875069379807,0.4751304090023041,0.5323601961135864,-5.591299533843994,1
8,0.09264358878135681,-0.016710540279746056,0.13650880753993988,0.4746141731739044,0.5320000648498535,-5.584256649017334,1
9,-0.1578490287065506,0.04680103063583374,0.11583765596151352,0.4736589193344116,0.5307435393333435,-5.5776896476745605,1
10,0.03572919964790344,-0.014536534436047077,0.13138803839683533,0.4791223108768463,0.5327677130699158,-5.571571350097656,1
11,0.008273635059595108,0.03318621590733528,0.05221067741513252,0.47799330949783325,0.5324377417564392,-5.565093517303467,1
12,0.058191362768411636,0.03875922039151192,0.12388068437576294,0.47737592458724976,0.531849205493927,-5.558929920196533,1
13,0.00928704347461462,0.14039215445518494,0.17185084521770477,0.47603839635849,0.5316953063011169,-5.5516252517700195,1
14,0.06640135496854782,-0.053484056144952774,0.0396815724670887,0.47551229596138,0.5310443043708801,-5.545171737670898,1
15,0.07503769546747208,0.026966150850057602,0.009299484081566334,0.47500237822532654,0.5315317511558533,-5.539093494415283,1
16,-0.0237791258841753,0.06346884369850159,0.07240940630435944,0.47363078594207764,0.5307563543319702,-5.533231735229492,1
17,0.042560119181871414,0.13001613318920135,0.034133948385715485,0.4724809229373932,0.5301414132118225,-5.5272603034973145,1
18,-0.032157253473997116,0.02670586109161377,0.010005226358771324,0.47139865159988403,0.5302088260650635,-5.521330833435059,1
19,-0.01019999012351036,-0.003212234703823924,0.13995261490345,0.47075197100639343,0.5297002196311951,-5.515057563781738,1
20,-0.020516114309430122,-0.07507681846618652,0.02887553721666336,0.477202832698822,0.5308475494384766,-5.508834362030029,1
21,-0.006283919792622328,0.09885596483945847,0.07083771377801895,0.4762779176235199,0.5305964350700378,-5.502635955810547,1
22,0.020753756165504456,-0.01556096225976944,0.030426034703850746,0.4754905700683594,0.5301058888435364,-5.496565818786621,1
23,0.05199187248945236,-0.016233833506703377,0.15435069799423218,0.47494781017303467,0.5298864841461182,-5.490189075469971,1
24,-0.046525418758392334,0.03390263020992279,0.09718184173107147,0.47431477904319763,0.5298095345497131,-5.483189105987549,1
25,0.05976732447743416,0.08896579593420029,0.003752560820430517,0.473163366317749,0.529344379901886,-5.476799011230469,1
26,0.026505134999752045,0.08859262615442276,0.030634930357336998,0.47192835807800293,0.5285438895225525,-5.4711995124816895,1
27,0.10457996279001236,0.13999558985233307,0.02359156869351864,0.4705672562122345,0.5287793278694153,-5.465007781982422,1
28,-0.03192758560180664,-0.08108452707529068,0.18348480761051178,0.47065192461013794,0.5293163657188416,-5.459218978881836,1
29,0.02037845365703106,0.06405103206634521,0.13452458381652832,0.46935856342315674,0.5288277864456177,-5.4521379470825195,1
30,0.07488921284675598,0.08982818573713303,0.10711377114057541,0.46851179003715515,0.5287736058235168,-5.445849895477295,1
31,-0.02756311185657978,0.029937781393527985,0.17170390486717224,0.4673367142677307,0.5285909175872803,-5.439350605010986,1
32,0.006815464701503515,-0.04727567732334137,0.06547709554433823,0.467105895280838,0.5280342102050781,-5.432673454284668,1
33,0.044327836483716965,-0.052160318940877914,-0.011298173107206821,0.46640723943710327,0.527590811252594,-5.4274725914001465,1
34,0.11233507841825485,0.11166137456893921,0.11219362914562225,0.4655834436416626,0.5280782580375671,-5.42161226272583,1
35,0.09554646909236908,0.08849101513624191,0.0651172623038292,0.46504348516464233,0.5285087823867798,-5.414812088012695,1
36,-0.023606183007359505,0.017414432018995285,0.023367544636130333,0.46426501870155334,0.5275835394859314,-5.40918493270874,1
37,0.1221981793642044,0.0004226556629873812,0.16339559853076935,0.4636058807373047,0.5276047587394714,-5.403071880340576,1
38,-0.020223531872034073,-0.007877654395997524,0.03715934604406357,0.46266984939575195,0.5273875594139099,-5.3962931632995605,1
39,0.05452796816825867,0.010207333602011204,0.015153433196246624,0.4622259736061096,0.5268895030021667,-5.390467643737793,1
40,-0.03650694712996483,0.142767071723938,0.05526241287589073,0.4608003497123718,0.5265520811080933,-5.384408950805664,1
41,0.14951129257678986,0.004585193935781717,0.13964475691318512,0.45978403091430664,0.5267619490623474,-5.378479957580566,1
42,0.04180452972650528,-0.008376389741897583,0.07805934548377991,0.45978403091430664,0.5267619490623474,-5.378479957580566,1
43,0.014833320863544941,-0.039615802466869354,-0.013428296893835068,0.4594404399394989,0.526982843875885,-5.371917247772217,1
44,-0.024898972362279892,0.02261221967637539,0.06274683773517609,0.46519774198532104,0.5293775200843811,-5.366826057434082,1
45,0.03598017618060112,0.07682383060455322,0.06482415646314621,0.4648224711418152,0.5283352136611938,-5.361193656921387,1
46,-0.022972406819462776,-0.04368775337934494,0.03441660851240158,0.46370071172714233,0.527915894985199,-5.355031967163086,1
47,0.024328550323843956,0.05438210442662239,-0.005093533545732498,0.4633115530014038,0.5279868245124817,-5.348849773406982,1
48,-0.05366213619709015,0.014020842500030994,0.0659458115696907,0.4624381363391876,0.5272983908653259,-5.342855453491211,1
49,0.041040848940610886,-0.020611824467778206,-0.04765795171260834,0.4678201675415039,0.5290206670761108,-5.337620735168457,1
50,-0.05252864211797714,0.04916703701019287,0.05449344590306282,0.47361627221107483,0.5318371057510376,-5.332530498504639,1
51,0.03946778178215027,0.021312475204467773,0.09680330753326416,0.47280317544937134,0.530684769153595,-5.327208995819092,1
52,0.011248068884015083,0.06838834285736084,0.0264920424669981,0.47218841314315796,0.5302711725234985,-5.320765018463135,1
53,0.027809781953692436,-0.04610561579465866,0.13960795104503632,0.47135990858078003,0.5301684141159058,-5.314741134643555,1
54,-0.011831843294203281,0.08732934296131134,0.06761021167039871,0.47097763419151306,0.5290223360061646,-5.308157444000244,1
55,0.033836591988801956,0.027816398069262505,-0.012943930923938751,0.4697358310222626,0.5288028120994568,-5.3022685050964355,1
56,-0.015931058675050735,0.07330399006605148,0.07554978877305984,0.46875905990600586,0.5285749435424805,-5.296874046325684,1
57,-0.030931096524000168,0.052499864250421524,0.1650811731815338,0.4674380123615265,0.5279588103294373,-5.290853977203369,1
58,0.1151227355003357,0.006872016005218029,-0.028309766203165054,0.46607014536857605,0.5275025367736816,-5.28431510925293,1
59,0.09127024561166763,-0.061196956783533096,0.0760943815112114,0.4715063273906708,0.5307095050811768,-5.278716087341309,1
60,-0.0331987701356411,0.05417299643158913,0.06596304476261139,0.4772728979587555,0.5332903861999512,-5.272631645202637,1
61,0.08532066643238068,-0.026882829144597054,0.02526894398033619,0.4768184721469879,0.5325238108634949,-5.266993045806885,1
62,-0.14733250439167023,-0.10941778123378754,0.14065104722976685,0.476156622171402,0.5323041081428528,-5.261338233947754,1
63,-0.009595093317329884,-0.0170357134193182,0.059340160340070724,0.48173263669013977,0.5323664546012878,-5.254938125610352,1
64,0.07720254361629486,0.015108286403119564,0.07204088568687439,0.48156896233558655,0.5318233966827393,-5.248788833618164,1
65,0.01700165867805481,-0.006248187273740768,-0.03407248482108116,0.4815007746219635,0.5314396619796753,-5.243070602416992,1
66,-0.014178942888975143,-0.043363917618989944,-0.06874702870845795,0.48045918345451355,0.531275749206543,-5.237660884857178,1
67,-0.023564457893371582,-0.014479229226708412,-0.001091410988010466,0.48050373792648315,0.5304745435714722,-5.232905864715576,1
68,-0.06157390773296356,0.031712740659713745,-0.03133367747068405,0.48017337918281555,0.5298672914505005,-5.227774620056152,1
69,0.13649597764015198,0.10593631863594055,0.14949333667755127,0.4795650541782379,0.5287191271781921,-5.222338676452637,1
70,0.04872575402259827,0.05410030111670494,0.08633045107126236,0.47853413224220276,0.5288918614387512,-5.216609001159668,1
71,-0.05380191281437874,0.03243859112262726,-0.028590228408575058,0.4774463176727295,0.5289584398269653,-5.210702419281006,1
72,-0.005588706117123365,-0.017391450703144073,0.07775042206048965,0.4824758470058441,0.5301223397254944,-5.204704284667969,1
73,0.0333968885242939,0.11741762608289719,0.016768695786595345,0.4881279766559601,0.5322449803352356,-5.1995134353637695,1
74,0.04775819554924965,0.023399442434310913,0.08856160938739777,0.48696643114089966,0.5320100784301758,-5.193867206573486,1
75,0.05757662281394005,-0.04634036868810654,-0.039301611483097076,0.4920955300331116,0.5346170663833618,-5.187808513641357,1
76,-0.018346192315220833,0.1118675172328949,0.03627556934952736,0.49838948249816895,0.537734866142273,-5.182090759277344,1
77,0.15284176170825958,0.09808405488729477,0.1577053964138031,0.4975329339504242,0.5373847484588623,-5.17696475982666,1
78,0.020699480548501015,-0.08508679270744324,0.18579168617725372,0.49602019786834717,0.5376747250556946,-5.170949935913086,1
79,-0.06650715321302414,0.029040871188044548,0.10455858707427979,0.5022222399711609,0.539915919303894,-5.164259433746338,1
80,0.10889693349599838,0.04108254984021187,-0.03249238803982735,0.5016112923622131,0.5387431383132935,-5.157641410827637,1
81,-0.024597804993391037,0.04534173756837845,0.07064502686262131,0.5007568597793579,0.5387542843818665,-5.152366638183594,1
82,0.10817816853523254,0.021934159100055695,0.13304685056209564,0.5001143217086792,0.5386655926704407,-5.146851539611816,1
83,-0.020609328523278236,0.03263238072395325,0.027404077351093292,0.0,0.0,0.0,1
84,0.039373453706502914,-0.008652083575725555,0.09626516699790955,-0.0003867196792270988,5.8465637266635895e-05,0.0006964866770431399,1
85,-0.07408223301172256,0.0910046249628067,0.008368978276848793,0.008256964385509491,0.016313889995217323,0.001778511330485344,1
86,0.08076325803995132,-0.0718701183795929,0.061753954738378525,0.03736710175871849,0.038435522466897964,0.0019280227134004235,1
87,0.026739470660686493,0.036771226674318314,0.025240948423743248,0.09480541199445724,0.08417075872421265,0.0023301204200834036,1
88,0.057934653013944626,0.06657792627811432,-0.00249226251617074,0.15865537524223328,0.13779009878635406,0.0027193045243620872,1
89,0.16027021408081055,0.02945551648736,0.08279802650213242,0.22258494794368744,0.19503702223300934,0.002757568145170808,1
90,0.06998204439878464,0.062286216765642166,0.03426545113325119,0.2872360348701477,0.2540932297706604,0.003315723966807127,1
91,0.07020948082208633,-0.03278098627924919,0.001960958354175091,0.3408104181289673,0.29989200830459595,0.003372199134901166,1
92,0.09505593776702881,0.09284613281488419,0.07447060197591782,0.39252063632011414,0.34009185433387756,0.003413284430280328,1
93,0.030319230630993843,0.07897380739450455,0.057532258331775665,0.4272831082344055,0.3778330385684967,0.004005043301731348,1
94,-0.07670506089925766,0.1063513234257698,-0.08688393980264664,0.45612823963165283,0.4073048233985901,0.004646648652851582,1
95,-0.03269089013338089,0.039921749383211136,-0.012344161979854107,0.4814872145652771,0.4292285144329071,0.004124938510358334,1
96,0.09026084840297699,-0.009101636707782745,-0.0414729118347168,0.5057979822158813,0.4498198926448822,0.0038662550505250692,1
97,0.12642896175384521,0.08180704712867737,0.033619459718465805,0.5430241227149963,0.49427664279937744,0.0030796932987868786,1
98,0.037446558475494385,0.009644292294979095,0.1874939203262329,0.5576304793357849,0.5115826725959778,0.003274523885920644,1
99,0.1846460998058319,-0.021061288192868233,0.011442780494689941,0.5710472464561462,0.5295493602752686,0.004645275417715311,1
100,0.06854941695928574,0.1539825052022934,0.07951397448778152,0.5790889263153076,0.5428446531295776,0.004835390020161867,1
101,0.027057787403464317,-0.043790314346551895,0.06519412994384766,0.5897232890129089,0.5534767508506775,0.005409640725702047,1
102,0.006630403455346823,-0.02460930310189724,0.04650663584470749,0.6004387736320496,0.56265789270401,0.005845580715686083,1
103,-0.024667728692293167,-0.050016261637210846,0.07451119273900986,0.6109222769737244,0.5695869326591492,0.006333116441965103,1
104,0.0055749849416315556,0.008220507763326168,0.008463325910270214,0.6192063093185425,0.5755476355552673,0.007139235734939575,1
105,0.06100732833147049,0.02469223365187645,-0.012503270991146564,0.625715970993042,0.5822204947471619,0.0071571990847587585,1
106,0.09468762576580048,0.07482883334159851,0.06668578833341599,0.6301476955413818,0.5888808965682983,0.006878141313791275,1
107,0.0005199646111577749,0.0063213808462023735,0.1057446226477623,0.6349812150001526,0.5929346680641174,0.007462011184543371,1
108,0.01828080229461193,0.09999172389507294,0.035707250237464905,0.6340084075927734,0.5923559665679932,0.008256709203124046,1
109,0.06464215368032455,0.06762736290693283,0.007549092173576355,0.6326416730880737,0.5917128920555115,0.008623814210295677,1
110,0.08122262358665466,0.06349709630012512,0.1611008495092392,0.6316443681716919,0.5915905833244324,0.008873668499290943,1
111,0.005452153272926807,0.03018299490213394,0.025222156196832657,0.6308096051216125,0.591590404510498,0.01020222157239914,1
112,0.05169579014182091,0.03539569303393364,0.21083496510982513,0.6298210024833679,0.5910485982894897,0.010695516131818295,1
113,0.02326933480799198,-0.019602617248892784,0.02715468592941761,0.6290242671966553,0.5909305810928345,0.012368375435471535,1
114,0.05891808494925499,0.008238915354013443,0.015648845583200455,0.6284902691841125,0.5906801819801331,0.012840242125093937,1
115,0.048673443496227264,0.0287928469479084,0.03550783544778824,0.6277265548706055,0.5906376838684082,0.013256296515464783,1
116,0.14074154198169708,-0.0091744065284729,0.10416220873594284,0.627177894115448,0.590596079826355,0.013695120811462402,1
117,0.02433277852833271,0.04964098334312439,-0.07977861166000366,0.6267672181129456,0.5910742878913879,0.014260095544159412,1
118,0.07497429847717285,-0.0026767319068312645,0.06109365075826645,0.6258895397186279,0.590888261795044,0.013790124095976353,1
119,-0.047349389642477036,-0.0064152078703045845,0.0005181435262784362,0.6253610253334045,0.5907841920852661,0.0144667848944664,1
120,0.019416725262999535,0.14517764747142792,0.033205851912498474,0.6247914433479309,0.5896409153938293,0.01454737689346075,1
121,0.02126561850309372,-0.02333696372807026,0.19145549833774567,0.6232465505599976,0.5890383124351501,0.014770016074180603,1
122,0.04238090664148331,0.17079845070838928,0.04585178941488266,0.6223180294036865,0.5887117981910706,0.01632115989923477,1
123,0.0751219391822815,0.05484241619706154,0.050329502671957016,0.6204426884651184,0.5885178446769714,0.01679799146950245,1
124,0.029503285884857178,0.0899927169084549,0.11431779712438583,0.6193863749504089,0.5889497995376587,0.0170343816280365,1
125,0.07973741739988327,-0.05892949178814888,0.0029135572258383036,0.6180403232574463,0.5888200402259827,0.017878379672765732,1
126,-0.02918236330151558,0.06983324140310287,0.0450558178126812,0.6176072359085083,0.5887792706489563,0.018333150073885918,1
127,-0.07069381326436996,0.08626166731119156,0.17265518009662628,0.6164806485176086,0.5877808332443237,0.018971635028719902,1
128,-0.0982598289847374,0.06497938930988312,0.02560323290526867,0.6151013970375061,0.5866442322731018,0.020334087312221527,1
129,0.1243119090795517,0.11145856231451035,5.9913480072282255e-05,0.6137997508049011,0.585628092288971,0.020684028044342995,1
130,-0.07170195877552032,0.0595778189599514,0.011349689215421677,0.6120849847793579,0.5860472321510315,0.0206689964979887,1
131,0.06431935727596283,0.02111293375492096,0.12315317988395691,0.6111005544662476,0.5851306319236755,0.0208248533308506,1
132,0.05497150123119354,0.05431902036070824,0.01936035417020321,0.6104457378387451,0.5850136280059814,0.021855507045984268,1
133,0.04930005222558975,-0.02733425796031952,-0.03170716017484665,0.6095471978187561,0.5850449800491333,0.022084474563598633,1
134,0.031131427735090256,0.13628718256950378,0.029765954241156578,0.6090558171272278,0.584964394569397,0.02188051864504814,1
135,0.0748135894536972,0.010068828240036964,0.02341303601861,0.6076738834381104,0.5849475860595703,0.021950790658593178,1
136,0.06508728116750717,0.057360243052244186,-0.08162184059619904,0.6070640087127686,0.5852486491203308,0.02209239825606346,1
137,0.011779523454606533,0.012227758765220642,0.04312106966972351,0.6059763431549072,0.5853348970413208,0.021749677136540413,1
138,-0.04138915613293648,0.11727441102266312,0.10228439420461655,0.6051560044288635,0.5848799347877502,0.02226492390036583,1
139,0.08027888089418411,0.07870713621377945,0.1618441641330719,0.6038939356803894,0.5839073061943054,0.023164259269833565,1
140,0.03485856205224991,0.07204990833997726,0.09712765365839005,0.6025455594062805,0.5839124917984009,0.02443573996424675,1
141,0.07077287137508392,0.061919134110212326,0.07185077667236328,0.6011433601379395,0.5836986303329468,0.025398394092917442,1
142,0.005636445712298155,0.045342545956373215,0.1116613894701004,0.6001535654067993,0.5837053656578064,0.02619077078998089,1
143,0.07071465253829956,0.0278448686003685,-0.01469025295227766,0.5994042158126831,0.5835419297218323,0.027164902538061142,1
144,-0.04586370289325714,0.008982621133327484,0.12352988123893738,0.5987178683280945,0.5834723711013794,0.027370424941182137,1
145,-0.03699880838394165,0.03681616857647896,0.10543420910835266,0.5980992317199707,0.5824760794639587,0.028633538633584976,1
146,-0.03714977949857712,0.06647317856550217,0.07044792920351028,0.5972772836685181,0.5816525816917419,0.029514752328395844,1
147,-0.014194896444678307,0.005788525100797415,0.05235784128308296,0.5958839058876038,0.5806047320365906,0.03022398240864277,1
148,0.03542209416627884,0.04159098491072655,0.159580796957016,0.5948019027709961,0.5800302028656006,0.030965425074100494,1
149,0.022256072610616684,0.11001577973365784,0.04074042662978172,0.5935883522033691,0.5800018906593323,0.032163552939891815,1
150,0.059148531407117844,0.05883757397532463,0.040528859943151474,0.5920210480690002,0.5797253847122192,0.032537348568439484,1
151,-0.014576945453882217,0.03462835028767586,0.1456921547651291,0.5908032655715942,0.5795960426330566,0.033041246235370636,1
152,0.02017867937684059,-0.013243813067674637,0.02003302052617073,0.589926540851593,0.5792443752288818,0.03415529802441597,1
153,0.08491820842027664,0.07590986788272858,0.14796948432922363,0.5891427397727966,0.5788916349411011,0.03474827855825424,1
154,0.12051427364349365,-0.03589027374982834,0.044009286910295486,0.588200569152832,0.5785835385322571,0.035777390003204346,1
155,-0.0025210799649357796,0.028568921610713005,0.0626721978187561,0.5877142548561096,0.5788733959197998,0.03586049750447273,1
156,-0.043356139212846756,0.11734625697135925,0.011412767693400383,0.5864371061325073,0.5783494114875793,0.0363059937953949,1
157,0.07467935234308243,-0.028111068531870842,0.09152110666036606,0.5848677754402161,0.5776286721229553,0.036673691123723984,1
158,0.0005544399609789252,0.0018631699495017529,0.026097537949681282,0.5840826034545898,0.5778250694274902,0.037415340542793274,1
159,-0.07277119904756546,0.0004981541424058378,0.1530284881591797,0.583643913269043,0.5774875283241272,0.037950191646814346,1
160,0.01708053983747959,0.043796438723802567,0.1681859940290451,0.5829405784606934,0.5764431953430176,0.0392703115940094,1
161,0.07314109057188034,0.0025190820451825857,0.12312537431716919,0.5816943049430847,0.576048731803894,0.0405646376311779,1
162,-0.09933461993932724,-0.047203149646520615,0.06880736351013184,0.5810216665267944,0.5761857628822327,0.04147285595536232,1
163,-0.09142007678747177,-0.052474621683359146,0.1745598018169403,0.5809457302093506,0.5750235915184021,0.0424061194062233,1
164,-0.042005304247140884,-0.07899127155542374,0.05353637412190437,0.5808504223823547,0.5741560459136963,0.043853748589754105,1
165,0.039373815059661865,-0.010817490518093109,0.1816006749868393,0.5808700323104858,0.573363721370697,0.04463774338364601,1
166,0.058081235736608505,0.07634997367858887,0.1244141161441803,0.5802828073501587,0.5731849074363708,0.04646235704421997,1
167,-0.01788557879626751,0.014809747226536274,-0.015286648645997047,0.5791112780570984,0.5731046795845032,0.04750226065516472,1
168,0.10189034044742584,0.07429467141628265,0.08040160685777664,0.5781955718994141,0.5727891325950623,0.04767514020204544,1
169,0.03582441434264183,0.027537845075130463,0.15265224874019623,0.5768703818321228,0.5730242729187012,0.04834680259227753,1
170,-0.015468746423721313,-0.05491117388010025,0.13641981780529022,0.5758460760116577,0.5725259780883789,0.049686066806316376,1
171,-0.014383861795067787,0.17931132018566132,-0.03168261796236038,0.5757832527160645,0.5719091296195984,0.050950560718774796,1
172,-0.09756158292293549,0.03807154297828674,0.061004407703876495,0.5740306973457336,0.5712020397186279,0.051199644804000854,1
173,0.03641069680452347,0.027489284053444862,0.10270348191261292,0.572761595249176,0.5700127482414246,0.05176045000553131,1
174,0.0020101345144212246,0.009840933606028557,0.0149412602186203,0.5716838836669922,0.5695592761039734,0.05227922275662422,1
175,0.0003538449527695775,0.002741393866017461,0.11468397080898285,0.5708616971969604,0.5689020752906799,0.052385952323675156,1
176,0.11128899455070496,-0.0035053323954343796,0.1570020616054535,0.5702347755432129,0.5685912370681763,0.05339457094669342,1
177,0.11712059378623962,0.025546696037054062,0.026764141395688057,0.5697436332702637,0.5687681436538696,0.054738931357860565,1
178,0.12201590090990067,0.0710899606347084,0.11490961164236069,0.5688531398773193,0.5691226124763489,0.05518357828259468,1
179,0.055873800069093704,0.13226744532585144,0.1283293515443802,0.5677006244659424,0.569443941116333,0.05624533072113991,1
180,0.039921075105667114,0.12855471670627594,0.11733102053403854,0.5663267970085144,0.5693506598472595,0.05727800354361534,1
181,0.03867590054869652,-0.04531512409448624,-0.011600436642765999,0.5647464394569397,0.5691230893135071,0.05846281349658966,1
182,0.0794728547334671,-0.03168616071343422,0.0035252892412245274,0.5644541382789612,0.5686981081962585,0.058773186057806015,1
183,0.19663703441619873,0.04834969341754913,0.028465846553444862,0.5643002986907959,0.5688685774803162,0.05908185988664627,1
184,-0.08014184981584549,0.00229591503739357,0.13206128776073456,0.5633692741394043,0.5696877241134644,0.059250425547361374,1
185,0.022413868457078934,0.12497442215681076,0.03194349631667137,0.5626052618026733,0.5685211420059204,0.060018930584192276,1
186,0.036920174956321716,-0.03404030203819275,0.05039234086871147,0.5610229969024658,0.5680958032608032,0.06029053032398224,1
187,0.038794368505477905,0.0069353594444692135,0.06368691474199295,0.5604127049446106,0.5677310824394226,0.060931719839572906,1
188,0.06846601516008377,-0.0574626587331295,0.05722920224070549,0.5596657395362854,0.5673577189445496,0.06146727129817009,1
189,0.12650662660598755,0.15322110056877136,0.08109714835882187,0.5595819354057312,0.56746906042099,0.06197706609964371,1
190,0.12974101305007935,-0.04064173251390457,0.09349120408296585,0.5582593679428101,0.5680989027023315,0.06259782612323761,1
191,-0.07346288859844208,-0.055598679929971695,0.0035454046446830034,0.5579826235771179,0.5687107443809509,0.06323178857564926,1
192,0.11647050082683563,0.05826611444354057,0.0012090782402083278,0.5578256249427795,0.5675669312477112,0.06345808506011963,1
193,0.03836267814040184,0.1043933853507042,0.04798176884651184,0.5566374659538269,0.5677511096000671,0.06353510171175003,1
194,0.10335862636566162,-0.03081803396344185,0.1473959982395172,0.5551005005836487,0.5677807927131653,0.06383603066205978,1
195,-0.10150162130594254,-0.14619316160678864,0.03791237622499466,0.5544925332069397,0.5681296586990356,0.0651240274310112,1
196,0.004498091991990805,0.05449139326810837,0.12465407699346542,0.5548540949821472,0.5668451189994812,0.06540393829345703,1
197,0.05207926779985428,0.08359769731760025,0.0722460150718689,0.5538362264633179,0.56629878282547,0.0661349669098854,1
198,0.0031144972890615463,0.06255821138620377,-0.03769786283373833,0.5526952147483826,0.5662907361984253,0.06668296456336975,1
199,-0.05048306658864021,-0.04964660108089447,0.08163576573133469,0.5517778992652893,0.5660153031349182,0.06658968329429626,1
200,-0.10125900059938431,-0.0659126415848732,0.06977429986000061,0.5515291690826416,0.5651153326034546,0.06713911145925522,1
201,-0.10233880579471588,0.028382519260048866,0.06785085797309875,0.5512558817863464,0.5636134743690491,0.0675063207745552,1
202,-0.03412223234772682,0.009311926551163197,0.03495435789227486,0.5504171848297119,0.5622284412384033,0.06791761517524719,1
203,0.02866840362548828,0.06516841053962708,0.0527876578271389,0.5495747923851013,0.5615536570549011,0.06859135627746582,1
204,0.004916795063763857,0.056878190487623215,0.13878139853477478,0.5484148263931274,0.5614469051361084,0.06948955357074738,1
205,-0.01037660613656044,0.040884338319301605,0.10502277314662933,0.5473291277885437,0.5614269375801086,0.07063472270965576,1
206,0.007816486060619354,0.044157251715660095,0.15257644653320312,0.5464271903038025,0.5612102746963501,0.07139164954423904,1
207,0.07459872215986252,0.05822783336043358,-0.02546660043299198,0.5456167459487915,0.5607108473777771,0.07236067205667496,1
208,0.018319932743906975,0.04738474637269974,0.18327805399894714,0.5445175170898438,0.560454785823822,0.07217428833246231,1
209,0.050768692046403885,-0.018406789749860764,0.06951667368412018,0.5433580875396729,0.5601615309715271,0.0735759511590004,1
210,-0.011418168433010578,0.021535607054829597,0.14173047244548798,0.5427418351173401,0.5602586269378662,0.0741518884897232,1
211,0.006057904101908207,-0.04386468231678009,-0.02774081565439701,0.5426576137542725,0.56020188331604,0.07525314390659332,1
212,0.02601979672908783,0.13856177031993866,0.06555431336164474,0.5428438186645508,0.5603925585746765,0.0752020999789238,1
213,-0.28091514110565186,0.04516574740409851,0.19154804944992065,0.5417091250419617,0.5609345436096191,0.07582782953977585,1
214,0.352308988571167,0.43743300437927246,0.06478717178106308,0.5366407632827759,0.5523812174797058,0.07748657464981079,1
215,0.25492289662361145,-0.06383352726697922,-0.34720903635025024,0.5246930122375488,0.549328088760376,0.07984884828329086,1
216,0.469857394695282,-0.34601178765296936,0.658150315284729,0.5137265920639038,0.5433225035667419,0.08073297888040543,1
217,0.21484868228435516,0.13689258694648743,-0.5283629894256592,0.5080567002296448,0.538528323173523,0.08497080951929092,1
218,-0.5851771831512451,0.7125927209854126,-0.35917991399765015,0.49808043241500854,0.529498279094696,0.08235971629619598,1
219,-0.1406690776348114,0.25022056698799133,1.1577098369598389,0.4859556555747986,0.5154975056648254,0.07664080709218979,1
220,0.22124555706977844,1.5131549835205078,-0.5674000382423401,0.478680282831192,0.5074796676635742,0.08235875517129898,1
221,1.5135865211486816,-1.6680920124053955,1.8844170570373535,0.45679450035095215,0.503234326839447,0.0786409005522728,1
222,1.830871343612671,-3.407710313796997,-1.165326476097107,0.47102904319763184,0.5054357647895813,0.09556920826435089,1
223,-3.3138790130615234,5.269649028778076,0.8848036527633667,0.5133560299873352,0.5309486389160156,0.08654984086751938,1
224,-1.155173420906067,0.7646965980529785,2.927502393722534,0.46055370569229126,0.49826541543006897,0.093325175344944,1
225,4.641149520874023,-9.005017280578613,6.577108383178711,0.42477449774742126,0.457750141620636,0.12636423110961914,1
226,-8.666217803955078,8.928810119628906,8.560970306396484,0.5066723823547363,0.5041214823722839,0.1909235268831253,1
227,-0.1185513585805893,-8.110690116882324,10.68689250946045,0.3882959485054016,0.45658034086227417,0.2777614891529083,1
228,1.7382228374481201,-4.7863450050354,11.710857391357422,0.40288102626800537,0.40099188685417175,0.3790852725505829,1
229,-0.12352423369884491,-2.2156848907470703,12.907430648803711,0.5025221705436707,0.47966474294662476,0.4951976537704468,1
230,-10.973819732666016,0.3884236216545105,10.553553581237793,0.5232356786727905,0.4765363931655884,0.62199467420578,1
231,6.094959735870361,8.892334938049316,9.742467880249023,0.47674113512039185,0.3109261393547058,0.7298301458358765,1
232,5.854907989501953,-2.5475382804870605,5.789826393127441,0.33209213614463806,0.3928946852684021,0.8240984678268433,1
233,-10.434431076049805,-10.087023735046387,2.6118953227996826,0.4178846776485443,0.365126371383667,0.8814519047737122,1
234,-3.2518680095672607,-4.536518096923828,0.28426268696784973,0.50348299741745,0.26742714643478394,0.9092386960983276,1
235,-6.587839603424072,-11.418961524963379,-2.6178526878356934,0.6008488535881042,0.20083031058311462,0.9080714583396912,1
236,-1.8582268953323364,-6.431835651397705,-5.175907611846924,0.7109367251396179,0.13624770939350128,0.8823583722114563,1
237,-3.101778268814087,-7.042734622955322,-8.011940002441406,0.7978513836860657,0.09845047444105148,0.8313766717910767,1
238,-1.069102168083191,-2.18993878364563,-8.39556884765625,0.8378005623817444,0.07436719536781311,0.7536273002624512,1
239,-1.5815212726593018,2.431462287902832,-7.4551472663879395,0.7958451509475708,0.0649254098534584,0.6722921133041382,1
240,-1.0038648843765259,2.6223716735839844,-6.714408874511719,0.7276794910430908,0.053119588643312454,0.5998701453208923,1
241,5.0305657386779785,-0.6341910362243652,-5.0122246742248535,0.6872355937957764,0.084379643201828,0.5330220460891724,1
242,13.125125885009766,2.2386865615844727,-3.23345685005188,0.9224396347999573,0.1502024233341217,0.4665989577770233,1
243,11.264142990112305,0.045968443155288696,-2.875570297241211,2.2034881114959717,-0.05707318335771561,0.37138453125953674,1
244,6.009434700012207,1.329886794090271,-2.883338212966919,0.531345546245575,0.1698230803012848,0.4440353214740753,1
245,3.5822174549102783,4.335368633270264,-1.5027133226394653,-0.4555321931838989,1.7719627618789673,0.37041375041007996,1
246,-12.14993667602539,7.0504231452941895,0.761887788772583,-1.4209645986557007,2.4176688194274902,0.36931464076042175,1
247,-19.737712860107422,0.09590188413858414,2.421630859375,0.9971320033073425,1.3527982234954834,0.45948073267936707,1
248,-22.64321517944336,-15.226710319519043,1.6671361923217773,0.9631094336509705,0.7583598494529724,0.4689481556415558,1
249,-26.366796493530273,-19.690696716308594,0.35142549872398376,-0.4797743856906891,0.3185501992702484,0.34519535303115845,1
250,-26.547494888305664,-17.572309494018555,0.951361358165741,-0.5759437084197998,-0.26754581928253174,0.32014647126197815,1
251,-25.840486526489258,-10.465920448303223,2.0659189224243164,-0.7030027508735657,0.2663300037384033,0.3885380029678345,1
252,-20.897289276123047,-9.851304054260254,3.6730141639709473,1.6657391786575317,-0.595677375793457,0.3537028133869171,1
253,-18.322467803955078,-14.843667984008789,3.100555181503296,2.1570165157318115,-1.4842137098312378,0.3867708742618561,1
254,-9.283952713012695,-22.134807586669922,2.8663511276245117,1.6697803735733032,-1.3734285831451416,0.4585188031196594,1
255,2.1639256477355957,-21.144916534423828,2.7584211826324463,2.510841131210327,-0.12393048405647278,0.28867417573928833,1
256,9.776119232177734,-9.889721870422363,4.79120397567749,2.0118014812469482,0.382766991853714,0.3389366567134857,1
257,9.257560729980469,6.423065662384033,6.640092849731445,1.90433669090271,0.3799712657928467,0.43280717730522156,1
258,-3.2940640449523926,19.297088623046875,4.664951324462891,0.4060196280479431,1.7624417543411255,0.4105389714241028,1
259,-18.628862380981445,28.14329719543457,4.300434589385986,2.1543118953704834,1.004982590675354,0.46681496500968933,1
260,-24.754709243774414,27.986522674560547,5.011634826660156,2.878530740737915,-0.7677870988845825,0.8074556589126587,1
261,-32.2398681640625,26.144390106201172,2.032259225845337,4.723235130310059,-2.8127708435058594,1.2076889276504517,1
262,-33.48293685913086,29.815065383911133,-0.5299144387245178,5.020310878753662,-3.4640047550201416,1.214989423751831,1
263,-25.215587615966797,28.93739891052246,0.36241206526756287,6.630662441253662,-3.585875988006592,0.46303290128707886,1
264,121.9896011352539,21.504487991333008,-2.4003114700317383,6.855464458465576,-3.3643970489501953,-0.061496417969465256,1
265,226.68931579589844,26.171175003051758,-11.601432800292969,7.913045406341553,-3.245283603668213,-0.15703655779361725,1
266,-40.67067337036133,-126.67842102050781,-18.026165008544922,8.298494338989258,-0.38965141773223877,-0.9410766363143921,1
267,-61.22578048706055,66.66220092773438,-5.195821285247803,8.68576431274414,-2.5864715576171875,0.8406643867492676,1
268,-48.546424865722656,98.1082534790039,-2.452627420425415,7.488595008850098,-2.887688159942627,0.5297874212265015,1
269,-34.15755081176758,111.79439544677734,-3.0036540031433105,5.477766990661621,-3.117658853530884,0.6052486896514893,1
270,-8.93043041229248,128.5203094482422,3.622159719467163,2.5524280071258545,-2.811107635498047,0.7363407015800476,1
271,14.106569290161133,137.91238403320312,3.4102132320404053,-1.2872658967971802,-0.7003455758094788,0.22199027240276337,1
272,57.66404724121094,141.42369079589844,5.52331018447876,-6.6598334312438965,0.31858569383621216,1.0268995761871338,1
273,81.23242950439453,120.50076293945312,9.202988624572754,-10.507960319519043,2.511723756790161,1.3810430765151978,1
274,86.16551208496094,93.91632843017578,12.309566497802734,-11.040350914001465,2.095184326171875,1.011772871017456,1
275,72.62548828125,61.15461349487305,18.894086837768555,-10.621771812438965,1.7612724304199219,0.23278972506523132,1
276,56.65495300292969,16.742116928100586,23.986156463623047,-10.611034393310547,3.06906795501709,1.064897060394287,1
277,33.03043746948242,-38.2609977722168,20.771167755126953,-10.57174301147461,3.5514888763427734,1.1512748003005981,1
278,2.5480027198791504,-90.96024322509766,14.56122875213623,-9.171304702758789,4.466503143310547,2.2901086807250977,1
279,-26.163808822631836,-124.20743560791016,9.144916534423828,-6.860596656799316,4.420877933502197,2.7062933444976807,1
280,-44.18284606933594,-135.29859924316406,4.41239595413208,-4.474325656890869,4.010841369628906,2.9059581756591797,1
281,-50.704864501953125,-125.05421447753906,2.0378222465515137,-3.1296451091766357,3.5674149990081787,2.8628222942352295,1
282,-51.90414810180664,-96.94339752197266,1.8487082719802856,-0.9235954284667969,2.502139091491699,2.5599873065948486,1
283,-53.694515228271484,-54.8471794128418,2.1843247413635254,0.07758625596761703,1.9551045894622803,2.5033047199249268,1
284,-57.989402770996094,-3.8135287761688232,3.3641979694366455,0.6782240867614746,0.5956547856330872,1.901262640953064,1
285,-48.42174530029297,40.143577575683594,4.6043782234191895,0.8983896970748901,0.8117223381996155,2.5153632164001465,1
286,-31.667940139770508,71.70423889160156,4.743513107299805,-0.2276584953069687,0.06370758265256882,2.2400975227355957,1
287,-2.8557605743408203,87.36241149902344,6.576721668243408,-1.4933627843856812,0.412532776594162,2.3742804527282715,1
288,20.987586975097656,80.37044525146484,9.227028846740723,-2.8956363201141357,0.12165569514036179,2.259223699569702,1
289,33.08871841430664,62.10041046142578,9.455201148986816,-3.3497869968414307,0.21517406404018402,2.38177490234375,1
290,27.045154571533203,28.915525436401367,9.860569953918457,-4.128106117248535,0.5691666603088379,2.43440842628479,1
291,12.860597610473633,-6.1547369956970215,10.409035682678223,-4.224450588226318,0.5270332098007202,2.4353182315826416,1
292,-2.7211828231811523,-33.41429138183594,7.587715148925781,-3.8324546813964844,0.7421382069587708,2.599104404449463,1
293,-13.189696311950684,-44.63795471191406,5.866851806640625,-3.43562912940979,0.3942592144012451,2.5270020961761475,1
294,-15.137876510620117,-46.812984466552734,4.728976249694824,-3.0788776874542236,0.17090682685375214,2.5346617698669434,1
295,-12.417413711547852,-36.27516174316406,3.6754374504089355,-2.688056230545044,0.022562149912118912,2.578538179397583,1
296,-4.9204559326171875,-17.613882064819336,5.111416339874268,-1.7874270677566528,-1.9277870655059814,1.7556473016738892,1
297,4.581906795501709,-1.6238017082214355,4.576783657073975,-1.9121454954147339,-1.6945027112960815,1.9810936450958252,1
298,28.97480583190918,17.015356063842773,1.332651138305664,-1.9693396091461182,-1.270572304725647,2.1854641437530518,1
299,41.80095672607422,25.947065353393555,-1.4972831010818481,-2.213296890258789,-0.2974036633968353,2.4579384326934814,1
300,54.05238723754883,30.291296005249023,-4.2576003074646,-2.130162239074707,0.21901683509349823,2.4182615280151367,1
301,48.63172912597656,27.41360092163086,-4.260443687438965,-2.917163133621216,0.7931570410728455,2.4525818824768066,1
302,34.71268081665039,20.5867977142334,-4.444252967834473,-3.3561408519744873,1.6166573762893677,2.5326931476593018,1
303,14.334600448608398,6.998064041137695,-5.384117603302002,-3.5115909576416016,1.9050357341766357,2.4813878536224365,1
304,-4.355143070220947,-5.444681167602539,-5.954183578491211,-3.8001868724823,2.8519365787506104,2.726745367050171,1
305,-21.651269912719727,-18.275156021118164,-7.273377895355225,-3.6724226474761963,2.8468925952911377,2.6986730098724365,1
306,-33.91707992553711,-29.551321029663086,-8.300095558166504,-3.527625322341919,2.1872777938842773,2.4142441749572754,1
307,-38.13469314575195,-34.1671028137207,-7.500133514404297,-2.8511431217193604,1.7279784679412842,2.362046718597412,1
308,-38.666725158691406,-33.376956939697266,-7.063614368438721,-2.9181976318359375,0.44048061966896057,1.8175053596496582,1
309,-35.721187591552734,-30.92266082763672,-6.361292839050293,-2.6428065299987793,-0.19621703028678894,1.6239627599716187,1
310,-27.142208099365234,-28.756521224975586,-6.6000542640686035,-2.270486831665039,-0.4738847017288208,1.5969874858856201,1
311,-6.489465236663818,-26.243282318115234,-7.167633533477783,-1.9360840320587158,-0.6123001575469971,1.574989914894104,1
312,18.29347038269043,-23.072622299194336,-6.862098693847656,-1.6432487964630127,-0.6784271001815796,1.502275824546814,1
313,41.09566116333008,-17.42772102355957,-4.75226354598999,-1.283818244934082,-0.1993769109249115,1.4940203428268433,1
314,57.60315704345703,-8.434453964233398,-2.5507900714874268,-1.0543605089187622,0.5255119800567627,1.511866807937622,1
315,57.83365249633789,1.250423789024353,-0.8455631136894226,-1.2491945028305054,0.6325556635856628,1.4059444665908813,1
316,50.31688690185547,5.867176532745361,0.5829759240150452,-1.2492539882659912,1.4754823446273804,1.430800437927246,1
317,32.57276916503906,10.62412166595459,2.1561014652252197,-1.467983603477478,1.7022477388381958,1.404550552368164,1
318,13.489956855773926,9.963019371032715,2.177774429321289,-1.565287470817566,1.9918277263641357,1.4298005104064941,1
319,-6.64068603515625,3.792494058609009,0.9816307425498962,-1.5406177043914795,2.032963275909424,1.4452251195907593,1
320,-17.09642219543457,-10.479962348937988,0.7308774590492249,-1.443439245223999,1.9691379070281982,1.4673893451690674,1
321,-27.823699951171875,-26.246631622314453,-0.11148164421319962,-1.4615592956542969,1.8556833267211914,1.46292245388031,1
322,-25.34764289855957,-42.85536193847656,-2.5829784870147705,-0.8495540618896484,1.5083317756652832,1.4850388765335083,1
323,-19.300935745239258,-48.01070785522461,-3.678075075149536,-0.2236066609621048,1.5052436590194702,1.482151985168457,1
324,-12.759326934814453,-43.813209533691406,-4.949515342712402,0.32834434509277344,1.4355199337005615,1.4466137886047363,1
325,-8.220730781555176,-32.344993591308594,-6.096217632293701,0.6104543209075928,1.2971919775009155,1.3669729232788086,1
326,-5.070847034454346,-12.208394050598145,-5.57064962387085,0.8798089623451233,1.2277045249938965,1.293684482574463,1
327,-3.4055418968200684,7.384511947631836,-5.699520587921143,0.9580952525138855,1.3325934410095215,1.2193193435668945,1
328,-2.295030117034912,22.125085830688477,-5.598109722137451,0.753820538520813,1.3069111108779907,1.149720549583435,1
329,-4.923607349395752,31.010534286499023,-6.0234055519104,0.43075427412986755,1.192107081413269,1.100374460220337,1
330,-10.29053020477295,28.146976470947266,-7.139855861663818,0.2756580412387848,1.0867680311203003,1.0706061124801636,1
331,-11.15530014038086,21.59048080444336,-8.56818962097168,-0.030413515865802765,0.9378406405448914,1.0057392120361328,1
332,-14.08128547668457,15.346989631652832,-10.711159706115723,-0.24594658613204956,0.7583702206611633,0.9326092600822449,1
333,-14.858842849731445,1.6048610210418701,-11.357146263122559,-0.3628098666667938,0.6261321902275085,0.827823281288147,1
334,-13.4711275100708,-8.067625045776367,-12.868659019470215,-0.2866996228694916,0.49040350317955017,0.7179630398750305,1
335,-5.4503679275512695,-14.602015495300293,-13.482393264770508,-0.012676762416958809,0.5009853839874268,0.5813876390457153,1
336,0.4089711904525757,-15.500154495239258,-13.430903434753418,0.15729419887065887,0.4679339528083801,0.44522595405578613,1
337,1.5328730344772339,-13.648123741149902,-13.092416763305664,0.31891804933547974,0.48776182532310486,0.3088693916797638,1
338,4.207505226135254,-11.100079536437988,-13.382556915283203,0.523032546043396,0.535573422908783,0.17491494119167328,1
339,5.7623395919799805,-2.3125593662261963,-13.369362831115723,0.6253371238708496,0.6139082908630371,0.032620932906866074,1
340,5.356041431427002,9.558135986328125,-13.057156562805176,0.48146694898605347,0.6994444131851196,-0.11122766882181168,1
341,4.929769992828369,15.528083801269531,-11.862950325012207,0.28403741121292114,0.7019835114479065,-0.23250266909599304,1
342,3.5464138984680176,20.576385498046875,-10.582415580749512,0.14600791037082672,0.76543790102005,-0.35155683755874634,1
343,2.862672805786133,20.547319412231445,-9.462220191955566,0.10287760943174362,0.7363122701644897,-0.4378419816493988,1
344,1.9375861883163452,16.64063835144043,-9.15175724029541,0.0699811577796936,0.7729699611663818,-0.5272186994552612,1
345,3.2344086170196533,11.505722999572754,-7.2712321281433105,-0.22443266212940216,0.7400530576705933,-0.6152917146682739,1
346,3.7528762817382812,8.133943557739258,-4.936992168426514,-0.18642409145832062,0.7209749221801758,-0.6724401712417603,1
347,2.6448891162872314,5.913430690765381,-3.028322696685791,-0.3462580740451813,0.8543197512626648,-0.7354893088340759,1
348,-0.17684046924114227,7.097976207733154,-2.099881172180176,-0.3319114148616791,0.7874853014945984,-0.7492284774780273,1
349,-6.108802795410156,10.15372371673584,-2.7438907623291016,-0.40613698959350586,0.7739067673683167,-0.7697820067405701,1
350,-9.949798583984375,6.623363494873047,-2.0957579612731934,-0.6583446860313416,0.8136141896247864,-0.8093587756156921,1
351,-11.60828971862793,4.911642074584961,-2.9195799827575684,-0.7208077907562256,0.7132490277290344,-0.8301284313201904,1
352,-12.1245756149292,-1.0840544700622559,-3.6730539798736572,-0.7086585760116577,0.5024043321609497,-0.8471832275390625,1
353,-6.5788774490356445,-7.914115905761719,-3.387971878051758,-0.6836243867874146,0.30302324891090393,-0.8757283091545105,1
354,2.4858243465423584,-9.627179145812988,-2.9536328315734863,-0.5655321478843689,0.2962413430213928,-0.9145370721817017,1
355,4.392797470092773,-0.46490487456321716,-3.100198745727539,-0.46243253350257874,0.3362637460231781,-0.9483561515808105,1
356,7.616702079772949,9.159929275512695,-2.8616907596588135,-0.7328259348869324,-0.11819413304328918,-0.9437428712844849,1
357,14.484405517578125,12.308202743530273,-0.4860495924949646,-0.8788999319076538,0.02730603516101837,-0.9698823094367981,1
358,21.099891662597656,12.151867866516113,2.175044536590576,-1.0704807043075562,0.5900511145591736,-0.986020028591156,1
359,17.517606735229492,5.905084609985352,3.4120359420776367,-1.0765187740325928,1.4870764017105103,-0.9886330366134644,1
360,2.9107158184051514,-3.4277689456939697,4.990059852600098,-1.4401899576187134,0.9469550848007202,-0.9258859753608704,1
361,-13.768905639648438,-14.272442817687988,6.358020305633545,-0.9672897458076477,1.1023008823394775,-0.8810884952545166,1
362,-25.295045852661133,-23.995901107788086,6.749719619750977,-0.9807711243629456,0.56781405210495,-0.8184666633605957,1
363,-31.227815628051758,-29.321796417236328,7.043072700500488,-0.8282604217529297,0.13599249720573425,-0.7516956925392151,1
364,-24.420324325561523,-28.25851058959961,8.561773300170898,-0.27898165583610535,-0.3403933644294739,-0.6799277663230896,1
365,-12.533071517944336,-18.45611000061035,8.665780067443848,0.12618213891983032,-0.6552155017852783,-0.5933932065963745,1
366,4.806790828704834,-8.160990715026855,9.54863452911377,0.34710612893104553,-0.5013784170150757,-0.5082297325134277,1
367,18.700021743774414,6.716689586639404,9.58607292175293,0.431819885969162,-0.08657506853342056,-0.4252401292324066,1
368,20.784893035888672,15.619854927062988,9.6506986618042,0.2807464897632599,0.09732670336961746,-0.32048559188842773,1
369,20.720016479492188,21.244291305541992,10.372601509094238,-0.13218927383422852,0.6699033975601196,-0.22674338519573212,1
370,14.05284595489502,18.793018341064453,10.135514259338379,-0.3554309904575348,1.0678017139434814,-0.13414353132247925,1
371,3.7001430988311768,9.474089622497559,9.370874404907227,-0.5453206300735474,1.0611547231674194,-0.02110258862376213,1
372,-5.739387035369873,-1.2107691764831543,9.692291259765625,-0.5662083029747009,0.9814257621765137,0.0806109681725502,1
373,-18.311376571655273,-8.085009574890137,9.85356616973877,-0.2985020875930786,0.9499079585075378,0.16936668753623962,1
374,-25.422224044799805,-12.636008262634277,9.524139404296875,-0.26151877641677856,0.5236268043518066,0.2810092866420746,1
375,-28.054264068603516,-16.547544479370117,10.859712600708008,0.02209804765880108,0.3196581304073334,0.38263776898384094,1
376,-27.147241592407227,-12.992402076721191,11.23794937133789,0.26233595609664917,0.04516332224011421,0.4908592998981476,1
377,-17.23978614807129,-6.572704792022705,12.189754486083984,0.39723384380340576,1.533730387687683,0.4681401252746582,1
378,-15.58608627319336,-1.789671540260315,12.045592308044434,0.44670701026916504,1.0630799531936646,0.6126529574394226,1
379,-14.23813247680664,2.296815872192383,13.030410766601562,0.3444175720214844,0.813847541809082,0.7474867105484009,1
380,-18.023216247558594,8.186071395874023,11.35161018371582,0.30935969948768616,0.31851959228515625,0.9078982472419739,1
381,-27.633155822753906,11.820730209350586,9.193199157714844,0.343855619430542,0.04269205778837204,1.0221022367477417,1
382,-33.71261215209961,12.656716346740723,8.89634895324707,0.10809217393398285,-0.5024356842041016,1.1422390937805176,1
383,-34.66347885131836,12.75786018371582,9.1661958694458,-0.047233060002326965,-0.7692142128944397,1.2226563692092896,1
384,-27.75033187866211,10.83492660522461,7.965982437133789,-0.10825633257627487,-1.1358827352523804,1.3090375661849976,1
385,-19.38481903076172,6.359478950500488,7.270820140838623,-0.11480464041233063,-1.5063397884368896,1.393588662147522,1
386,-3.882317304611206,1.0888047218322754,7.60145902633667,-0.12684349715709686,-1.7961233854293823,1.4774223566055298,1
387,8.792379379272461,1.4436349868774414,7.070629119873047,-0.11193964630365372,-1.8291683197021484,1.54933500289917,1
388,11.366320610046387,5.6987996101379395,4.542340278625488,-0.22131165862083435,-1.7390844821929932,1.6245861053466797,1
389,13.21473217010498,7.545095920562744,4.1902008056640625,-0.2244597226381302,-1.608760952949524,1.6534898281097412,1
390,8.563324928283691,7.414651393890381,3.65059494972229,-0.3935486674308777,-1.5973739624023438,1.7157604694366455,1
391,-1.3502464294433594,10.289430618286133,1.6068575382232666,-0.42411595582962036,-1.6105730533599854,1.737992286682129,1
392,-13.46649169921875,7.1063008308410645,0.5748014450073242,-0.5963371396064758,-1.8723472356796265,1.7815775871276855,1
393,-19.059123992919922,5.293984413146973,1.187052607536316,-0.5717277526855469,-1.581705927848816,1.7440145015716553,1
394,-16.229387283325195,3.8895070552825928,1.1235859394073486,-0.6010592579841614,-1.9476155042648315,1.7554080486297607,1
395,-12.16075611114502,-2.3782503604888916,0.7437065839767456,-0.6329962015151978,-2.0692269802093506,1.772465705871582,1
396,-4.789922714233398,-7.691477298736572,1.4904439449310303,-0.5636476278305054,-2.239480972290039,1.781654715538025,1
397,1.8222808837890625,-5.791006565093994,-0.2136596143245697,-0.474035382270813,-2.2704713344573975,1.7951701879501343,1
398,11.020557403564453,-2.481882095336914,-0.22439683973789215,-0.42749395966529846,-2.153543472290039,1.8005790710449219,1
399,16.7276554107666,1.2390780448913574,2.0269954204559326,-0.443224161863327,-1.9346249103546143,1.8174878358840942,1
400,15.33150577545166,4.805189609527588,2.5345685482025146,-0.5230128765106201,-1.9206990003585815,1.8546864986419678,1
401,10.765016555786133,3.6082310676574707,1.3051972389221191,-0.4555208683013916,-1.8639448881149292,1.8405669927597046,1
402,11.15230941772461,0.48817142844200134,0.8052676916122437,-0.5106359720230103,-1.6706631183624268,1.8583159446716309,1
403,5.980452537536621,1.1398719549179077,-0.6510792970657349,-0.5522149205207825,-1.6183788776397705,1.8672969341278076,1
404,0.5561195015907288,1.3771709203720093,-3.423910140991211,-0.5944579839706421,-1.5694645643234253,1.855908751487732,1
405,1.7113012075424194,-1.4001383781433105,-3.5687711238861084,-0.6080540418624878,-1.5430811643600464,1.8223094940185547,1
406,10.186297416687012,-2.7819607257843018,-2.3851606845855713,-0.5843163132667542,-1.434870719909668,1.7890218496322632,1
407,19.306127548217773,1.7890321016311646,-2.0275614261627197,-0.44806182384490967,-1.1704137325286865,1.7330034971237183,1
408,22.062746047973633,6.8481125831604,-1.8010482788085938,-0.5478453636169434,-1.1977152824401855,1.7303444147109985,1
409,24.58721160888672,10.161870956420898,-0.2254362851381302,-0.7051714062690735,-0.9222452044487,1.7406224012374878,1
410,25.051315307617188,14.407580375671387,2.6386055946350098,-0.9185818433761597,-0.7774826884269714,1.767896056175232,1
411,22.874849319458008,11.920999526977539,4.3684983253479,-1.049401044845581,-0.5675008296966553,1.798045039176941,1
412,14.930503845214844,4.537519454956055,3.214754581451416,-1.160839557647705,-0.2957557737827301,1.8436120748519897,1
413,7.452945232391357,2.120736598968506,0.825786292552948,-0.9719961881637573,-0.3746815621852875,1.8188000917434692,1
414,1.8968666791915894,3.5032098293304443,-0.4217373728752136,-1.0333402156829834,-0.2422235757112503,1.8325124979019165,1
415,2.0668790340423584,3.765228033065796,0.27456966042518616,-1.0418081283569336,-0.160749614238739,1.8253085613250732,1
416,2.9049763679504395,4.167811393737793,0.2518204152584076,-1.1176708936691284,-0.07986979931592941,1.835613489151001,1
417,1.3335843086242676,14.566853523254395,-0.22115065157413483,-1.2745028734207153,-0.22526410222053528,1.837152123451233,1
418,2.4538376331329346,26.662744522094727,2.0027670860290527,-1.6074517965316772,-0.12988795340061188,1.8632586002349854,1
419,3.1897215843200684,34.10468292236328,4.231952667236328,-1.8909929990768433,-0.10160506516695023,1.8868110179901123,1
420,-0.231749027967453,34.110992431640625,3.60333514213562,-1.7671581506729126,-0.3139748275279999,1.8607338666915894,1
421,-1.0759798288345337,34.51751708984375,3.486670970916748,-2.197021484375,-0.24384820461273193,1.9112221002578735,1
422,3.9710440635681152,28.042869567871094,3.952672004699707,-2.60636043548584,-0.3965657651424408,1.9281542301177979,1
423,12.546975135803223,15.556636810302734,4.479360103607178,-2.7301814556121826,-0.28795626759529114,1.9630639553070068,1
424,16.61334228515625,5.720964431762695,2.9649851322174072,-2.4919180870056152,-0.061990946531295776,1.9949082136154175,1
425,16.83523178100586,-3.243035078048706,2.6433582305908203,-2.5856363773345947,-0.07783456146717072,1.9910821914672852,1
426,15.309693336486816,-13.127589225769043,3.0591983795166016,-2.4354145526885986,0.30211547017097473,2.0580344200134277,1
427,12.959003448486328,-13.363259315490723,3.3005967140197754,-2.25482177734375,0.45715445280075073,2.085397481918335,1
428,3.8033769130706787,-13.391007423400879,1.8672189712524414,-2.0638983249664307,0.7034032344818115,2.1406421661376953,1
429,-6.3063764572143555,-9.576065063476562,1.4525823593139648,-2.0430383682250977,0.6164714694023132,2.1367530822753906,1
430,-11.027741432189941,-7.7314453125,0.07670071721076965,-1.905834436416626,0.6942716836929321,2.186415433883667,1
431,-11.714062690734863,2.996946096420288,-0.9411246180534363,-1.909926176071167,0.5480912923812866,2.175340414047241,1
432,-6.644886493682861,15.135332107543945,-0.8598206639289856,-2.0991852283477783,0.405799925327301,2.1532154083251953,1
433,-0.2765481770038605,16.545562744140625,1.1907548904418945,-2.28912091255188,0.3675583600997925,2.154158115386963,1
434,8.417702674865723,9.2037992477417,4.639997482299805,-2.388385534286499,0.1481202095746994,2.1219847202301025,1
435,10.309619903564453,0.4160292148590088,5.853461265563965,-2.4351253509521484,0.5936062932014465,2.2610719203948975,1
436,9.596830368041992,-9.852110862731934,5.351914882659912,-2.393026828765869,0.9471809267997742,2.379101276397705,1
437,7.9788618087768555,-20.649229049682617,5.3745012283325195,-2.2527825832366943,1.2412115335464478,2.4780619144439697,1
438,0.2340366393327713,-19.465436935424805,5.393476486206055,-1.8853440284729004,1.2062957286834717,2.519122362136841,1
439,-7.226264953613281,-11.61308479309082,5.79007625579834,-1.7768336534500122,1.2027151584625244,2.5691299438476562,1
440,-14.795269966125488,4.231654644012451,4.910104274749756,-1.7992424964904785,1.068562388420105,2.6040923595428467,1
441,-19.275720596313477,17.204946517944336,5.313881874084473,-1.9772858619689941,1.294758915901184,2.7303545475006104,1
442,-24.954317092895508,27.35255241394043,4.321131229400635,-2.3306448459625244,0.6363242268562317,2.660867214202881,1
443,-31.373790740966797,27.99698257446289,4.4557623863220215,-2.3520748615264893,-0.08212898671627045,2.6371583938598633,1
444,-31.636430740356445,21.243871688842773,6.817317485809326,-2.3393585681915283,-0.04640592262148857,2.8081371784210205,1
445,-26.878995895385742,8.46711254119873,5.634465217590332,-2.547475576400757,-0.5314355492591858,2.8263473510742188,1
446,-14.915384292602539,0.764568567276001,4.492611408233643,-2.59302020072937,-0.8553940057754517,2.858103036880493,1
447,-5.036470413208008,-4.495070934295654,4.3823699951171875,-2.529417037963867,-0.9758965373039246,2.906712293624878,1
448,2.212029218673706,-14.90353775024414,3.8316802978515625,-2.3216118812561035,-0.6495154500007629,3.0438921451568604,1
449,14.336661338806152,-23.95641326904297,3.316338062286377,-1.951821208000183,-0.708709716796875,3.061338186264038,1
450,18.572357177734375,-24.99455451965332,2.668943405151367,-1.763373613357544,-0.4179951846599579,3.1237313747406006,1
451,13.663925170898438,-12.613656044006348,0.46731266379356384,-1.9014840126037598,-0.3078781068325043,3.121514081954956,1
452,7.733310699462891,5.843233108520508,-0.1108090877532959,-1.8328593969345093,-0.2090686708688736,3.1228437423706055,1
453,-0.2573644518852234,15.367912292480469,-0.7619801163673401,-1.6951193809509277,-0.6046550273895264,3.0315346717834473,1
454,-8.031510353088379,21.586097717285156,-1.1337934732437134,-1.5611180067062378,-0.05309955030679703,3.138200521469116,1
455,-7.424354076385498,17.239850997924805,-2.2334418296813965,-1.1267235279083252,-0.18685123324394226,3.117405652999878,1
456,-2.4512991905212402,8.168608665466309,-4.90249490737915,-1.2810864448547363,-0.25814947485923767,3.082275867462158,1
457,3.25862979888916,-2.0008835792541504,-6.360291957855225,-1.5124253034591675,-0.3212854266166687,3.021310567855835,1
458,11.55835247039795,-7.631222248077393,-6.493012428283691,-1.456390619277954,-0.32907962799072266,2.9479727745056152,1
459,17.640331268310547,-1.410897135734558,-7.104012489318848,-1.4970293045043945,-0.13849295675754547,2.888077735900879,1
460,20.500614166259766,8.59533405303955,-7.350759983062744,-1.7488994598388672,0.04053425416350365,2.813183307647705,1
461,20.413721084594727,18.905488967895508,-7.791003227233887,-2.0081787109375,0.16039007902145386,2.724459171295166,1
462,15.560681343078613,31.94093132019043,-8.197922706604004,-2.2188310623168945,0.3162133991718292,2.6407885551452637,1
463,8.938234329223633,34.41499328613281,-8.836682319641113,-2.614983320236206,0.30534064769744873,2.536745071411133,1
464,2.1185076236724854,31.993221282958984,-9.027731895446777,-2.8489065170288086,0.18744967877864838,2.4228036403656006,1
465,-3.057831048965454,23.981624603271484,-7.425905704498291,-3.2876741886138916,0.2059444934129715,2.339539051055908,1
466,-4.217721939086914,12.978348731994629,-5.667729377746582,-3.5427486896514893,0.035503942519426346,2.245500326156616,1
467,-5.323831558227539,0.4677184522151947,-5.751888751983643,-3.564352035522461,0.008518089540302753,2.1933541297912598,1
468,-1.611833930015564,-6.12407112121582,-5.386834621429443,-3.5228936672210693,0.0018115099519491196,2.1477181911468506,1
469,7.522295951843262,-6.705638408660889,-4.803426742553711,-3.4350461959838867,0.03386227414011955,2.102012872695923,1
470,18.693239212036133,-3.378760576248169,-3.4790356159210205,-3.5268759727478027,0.3184981346130371,2.1000516414642334,1
471,24.548044204711914,3.8909764289855957,-1.4769985675811768,-3.47097110748291,0.05365168675780296,1.9445648193359375,1
472,27.303682327270508,6.3294901847839355,0.5061673521995544,-3.6442642211914062,0.2609919011592865,1.9173475503921509,1
473,28.167572021484375,2.4808576107025146,2.355226516723633,-3.71055006980896,0.6496012210845947,1.959064245223999,1
474,25.799734115600586,-6.621555328369141,3.4133477210998535,-3.725090265274048,0.7918007969856262,1.944773554801941,1
475,22.13763999938965,-19.296371459960938,3.9502921104431152,-3.46225905418396,1.1208103895187378,2.0078797340393066,1
476,14.949495315551758,-29.839353561401367,3.8687655925750732,-3.2322654724121094,1.3440686464309692,2.049217700958252,1
477,7.291031837463379,-36.433082580566406,4.27278995513916,-2.8585269451141357,1.3695764541625977,2.0522451400756836,1
478,-0.24252861738204956,-35.60721969604492,4.822946548461914,-2.367774724960327,1.4217619895935059,2.0977799892425537,1
479,-5.208135604858398,-27.906652450561523,5.556490421295166,-2.275899887084961,1.443517804145813,2.1321792602539062,1
480,-7.817813873291016,-13.570317268371582,7.2759318351745605,-2.203029155731201,1.3272314071655273,2.15659761428833,1
481,-10.494158744812012,2.5836472511291504,7.666011333465576,-2.052319288253784,1.2322137355804443,2.2386388778686523,1
482,-14.478253364562988,8.668217658996582,6.448870658874512,-2.018512725830078,1.0864282846450806,2.315167188644409,1
483,-13.668941497802734,6.4295759201049805,5.3506951332092285,-2.0169546604156494,0.9995294809341431,2.4032015800476074,1
484,-7.368651390075684,4.536507606506348,4.898000240325928,-2.517086982727051,0.9718450307846069,2.4194960594177246,1
485,-3.5581459999084473,1.1534878015518188,2.7236199378967285,-2.5556156635284424,0.9049848318099976,2.458730936050415,1
486,-0.6034080982208252,-6.235201835632324,0.3283287286758423,-2.3655221462249756,0.9293914437294006,2.508119583129883,1
487,3.3954195976257324,-16.464019775390625,-0.5207833647727966,-2.4247922897338867,0.980333685874939,2.4900169372558594,1
488,7.13673210144043,-21.256450653076172,-0.9741004109382629,-2.025909662246704,1.0187880992889404,2.501845121383667,1
489,5.062706470489502,-16.84950065612793,-2.361394166946411,-1.985356330871582,0.9486998915672302,2.435220241546631,1
490,1.4476490020751953,-13.648824691772461,-2.4628593921661377,-2.0806682109832764,0.9866335988044739,2.3785834312438965,1
491,4.498446941375732,-10.25710391998291,-2.5335638523101807,-2.052208662033081,1.0081491470336914,2.337390184402466,1
492,8.91880989074707,-16.093809127807617,-1.2648712396621704,-1.7211506366729736,1.1527643203735352,2.3546857833862305,1
493,14.597774505615234,-29.163307189941406,-2.040231466293335,-1.1797988414764404,1.2225626707077026,2.368028163909912,1
494,19.6419620513916,-41.714927673339844,-1.5286312103271484,-1.2060672044754028,1.392890214920044,2.2891440391540527,1
495,24.489336013793945,-54.430816650390625,1.0759695768356323,-0.4592911899089813,1.7194942235946655,2.3195273876190186,1
496,22.427547454833984,-55.97520065307617,1.379109501838684,-0.18249012529850006,1.7834538221359253,2.2623157501220703,1
497,16.402347564697266,-54.77497863769531,2.1505179405212402,0.586906373500824,2.181711435317993,2.3014583587646484,1
498,3.121189832687378,-41.44112014770508,1.3410112857818604,1.1953181028366089,2.115861177444458,2.314791679382324,1
499,-7.635399341583252,-30.902172088623047,2.3795089721679688,1.634033441543579,2.061624050140381,2.3341238498687744,1
500,-8.986144065856934,-24.43174934387207,2.362520694732666,1.8925936222076416,1.8797879219055176,2.353994607925415,1
501,-10.697548866271973,-17.515064239501953,0.5199911594390869,2.368624687194824,1.8366222381591797,2.402549982070923,1
502,-7.211374282836914,-6.575492858886719,0.5542299151420593,2.776439666748047,1.7154573202133179,2.4610252380371094,1
503,1.660563588142395,5.228392124176025,5.2843499183654785,2.07708740234375,1.6597461700439453,2.354947328567505,1
504,8.959033012390137,8.459376335144043,9.167976379394531,2.007575750350952,1.7072269916534424,2.426852226257324,1
505,10.856549263000488,13.970653533935547,9.467355728149414,1.9348416328430176,1.9115265607833862,2.5034871101379395,1
506,10.615155220031738,17.145448684692383,10.800007820129395,1.749016523361206,2.128225803375244,2.567974090576172,1
507,8.870708465576172,20.413036346435547,12.144805908203125,1.5935912132263184,2.2877132892608643,2.6683104038238525,1
508,4.192304611206055,19.130382537841797,13.495490074157715,1.4280366897583008,2.2943766117095947,2.8280999660491943,1
509,-4.607281684875488,15.270195007324219,14.458587646484375,1.3102805614471436,2.2611658573150635,3.0030558109283447,1
510,-17.591033935546875,11.001564979553223,15.55664348602295,1.25440514087677,2.032545566558838,3.227726936340332,1
511,-23.24481773376465,4.846757411956787,17.447406768798828,1.2066699266433716,1.7425919771194458,3.4328434467315674,1
512,-28.378164291381836,-0.8588244318962097,17.2675838470459,0.7143950462341309,1.3586583137512207,3.5439658164978027,1
513,-31.835731506347656,-6.647111892700195,17.228422164916992,0.7404919862747192,1.173977255821228,3.6744585037231445,1
514,-30.430667877197266,-7.322200775146484,18.92487144470215,0.8788810968399048,0.7991046905517578,3.8877861499786377,1
515,-32.25371170043945,-9.31052017211914,17.812726974487305,1.208216905593872,0.3575936555862427,4.176024436950684,1
516,-25.822391510009766,-12.090516090393066,17.969621658325195,1.4655849933624268,0.20053264498710632,4.317323684692383,1
517,-14.042141914367676,-13.744780540466309,16.775556564331055,1.1377099752426147,0.1317911297082901,4.365303993225098,1
518,-1.18401038646698,-10.204086303710938,18.180116653442383,1.4968349933624268,0.033232856541872025,4.5758161544799805,1
519,3.7729358673095703,-8.471248626708984,19.02170181274414,1.556221842765808,0.21681329607963562,4.690672874450684,1
520,2.2852272987365723,-16.484500885009766,19.375844955444336,1.8625367879867554,0.2506519854068756,4.900501728057861,1
521,-2.205047369003296,-19.513418197631836,19.014955520629883,2.233105421066284,0.12384391576051712,5.156260013580322,1
522,-18.618728637695312,-24.477693557739258,13.605721473693848,2.0471901893615723,-0.11025971174240112,5.364960193634033,1
523,-15.211915016174316,-28.861753463745117,10.641268730163574,2.430875301361084,-0.3311980366706848,5.508718490600586,1
524,-19.768341064453125,-28.08463478088379,6.08315896987915,2.8744919300079346,-0.48385894298553467,5.592238426208496,1
525,-14.133854866027832,-12.862568855285645,3.8719091415405273,3.220795154571533,-0.618239164352417,5.614168167114258,1
526,-14.492534637451172,2.366347551345825,0.48340392112731934,3.292813301086426,-0.8448426723480225,5.692745685577393,1
527,-4.090114593505859,26.08277702331543,-2.1469743251800537,3.0132832527160645,-0.9738464951515198,5.703638553619385,1
528,-5.750541687011719,40.728763580322266,-6.321508407592773,2.5659186840057373,-1.0586376190185547,5.6772074699401855,1
529,1.9002745151519775,59.44331359863281,-9.006397247314453,1.9217066764831543,-0.9860957860946655,5.547910213470459,1
530,1.2695608139038086,63.63166809082031,-9.839770317077637,1.1348936557769775,-0.9478057622909546,5.449911594390869,1
531,10.543575286865234,51.886314392089844,-8.33199405670166,0.6129122376441956,-0.8188788890838623,5.301847457885742,1
532,14.71433162689209,27.678688049316406,-10.581107139587402,0.11875265091657639,-0.6018457412719727,5.163610458374023,1
533,22.410797119140625,-1.0280276536941528,-9.695897102355957,0.24964606761932373,-0.27293649315834045,4.955979347229004,1
534,25.45278549194336,-25.503461837768555,-8.547321319580078,0.6167799234390259,-0.18853197991847992,4.888525485992432,1
535,25.7053165435791,-38.882972717285156,-6.8251495361328125,1.1086633205413818,-0.13624584674835205,4.87113618850708,1
536,16.988903045654297,-32.754249572753906,-6.866025447845459,1.2290092706680298,0.3593965172767639,4.726372241973877,1
537,6.2251811027526855,-13.491121292114258,-7.39050817489624,1.7278475761413574,0.28402847051620483,4.698225975036621,1
538,-4.312809944152832,7.4189863204956055,-6.066112518310547,1.7685610055923462,0.43513861298561096,4.580414295196533,1
539,-15.40733814239502,29.583789825439453,-2.9636409282684326,1.4318747520446777,0.07812139391899109,4.648835182189941,1
540,-27.618120193481445,37.39755630493164,-1.8913519382476807,0.897620439529419,0.06958465278148651,4.568354606628418,1
541,-33.99298858642578,38.21588897705078,-0.763444721698761,0.48041385412216187,-0.16511429846286774,4.535454750061035,1
542,-32.00699996948242,40.764034271240234,0.4358994662761688,-0.11379367858171463,-0.7197542786598206,4.623630046844482,1
543,-22.37110137939453,40.751220703125,0.8368951678276062,-0.6859213709831238,-1.134098768234253,4.685568809509277,1
544,-13.942052841186523,32.82382583618164,-1.1203269958496094,-1.1000034809112549,-1.393972635269165,4.699982166290283,1
545,0.9086514711380005,19.8105411529541,-0.7027605772018433,-1.2447303533554077,-1.4350138902664185,4.658060073852539,1
546,18.18872833251953,10.982359886169434,-1.52447509765625,-1.5963956117630005,-1.2065465450286865,4.6424479484558105,1
547,27.721843719482422,6.327376365661621,-1.8245757818222046,-1.615517020225525,-0.7788418531417847,4.5850982666015625,1
548,35.912200927734375,0.6632452011108398,-2.6461901664733887,-1.6951262950897217,-0.3625131845474243,4.561866283416748,1
549,37.98279571533203,-0.49817147850990295,-2.604036331176758,-1.571790099143982,0.07339390367269516,4.506788730621338,1
550,29.541934967041016,2.60530161857605,-3.901277780532837,-1.4748005867004395,0.6146054267883301,4.446868896484375,1
551,17.562549591064453,5.033769607543945,-6.197192668914795,-1.5177961587905884,0.8460936546325684,4.395288944244385,1
552,1.2497601509094238,8.858345985412598,-6.692515850067139,-1.5339194536209106,0.7358130812644958,4.327971935272217,1
553,-13.759835243225098,9.52584171295166,-5.960657119750977,-1.5738451480865479,0.5809804201126099,4.258418560028076,1
554,-19.45966339111328,10.570225715637207,-4.7144951820373535,-1.6774985790252686,0.408609002828598,4.205428123474121,1
555,-21.019577026367188,3.5934345722198486,-3.2675344944000244,-1.7118792533874512,0.05919026955962181,4.158439636230469,1
556,-13.812466621398926,-10.156003952026367,-2.4630913734436035,-1.6540861129760742,-0.24784113466739655,4.120297908782959,1
557,-5.238422870635986,-17.073562622070312,-1.9394091367721558,-1.2584824562072754,-0.4039105176925659,4.07451057434082,1
558,5.135947227478027,-27.466909408569336,-1.5704960823059082,-1.2888283729553223,-0.019005827605724335,4.116875171661377,1
559,13.465700149536133,-38.160911560058594,-1.64107084274292,-0.6567246913909912,-0.266470730304718,4.037424087524414,1
560,12.984983444213867,-39.543373107910156,-2.444511890411377,-0.2779044508934021,-0.00895768217742443,4.035953044891357,1
561,3.512057304382324,-30.67152214050293,-3.2320377826690674,0.10837087780237198,0.01925826258957386,3.9977633953094482,1
562,-4.686237812042236,-25.06100082397461,-4.6846795082092285,0.44014447927474976,-0.11868133395910263,3.940743923187256,1
563,-9.780396461486816,-17.084638595581055,-6.33921480178833,0.4308799207210541,-0.20295359194278717,3.9039275646209717,1
564,-13.003775596618652,-10.669877052307129,-8.942436218261719,0.641213059425354,-0.3257349729537964,3.818084478378296,1
565,-13.485004425048828,-0.6156571507453918,-11.33784008026123,0.6965096592903137,-0.4588437080383301,3.717263698577881,1
566,-6.846193313598633,10.352585792541504,-12.270101547241211,0.5724852085113525,-0.5565798878669739,3.601020574569702,1
567,1.0707247257232666,22.763750076293945,-13.816998481750488,0.4167703688144684,-0.5775017738342285,3.4694223403930664,1
568,5.933045387268066,32.208038330078125,-15.02760124206543,0.0642559826374054,-0.4057563841342926,3.330604314804077,1
569,14.963176727294922,35.880455017089844,-14.87103271484375,-0.4856487214565277,-0.18026018142700195,3.1985325813293457,1
570,19.135961532592773,31.148269653320312,-15.785361289978027,-0.8283377289772034,-0.012717514298856258,3.04296875,1
571,22.171314239501953,19.805374145507812,-16.48191261291504,-0.9601564407348633,0.0796339139342308,2.8690810203552246,1
572,25.35210609436035,10.068400382995605,-17.867252349853516,-0.9809472560882568,0.44490423798561096,2.6890389919281006,1
573,21.651147842407227,6.215859413146973,-18.897947311401367,-0.9971843957901001,0.8505200743675232,2.5066280364990234,1
574,14.189827919006348,6.547430992126465,-18.650236129760742,-1.0891062021255493,0.3397473990917206,2.2888243198394775,1
575,5.950112342834473,8.475808143615723,-17.755064010620117,-1.0891062021255493,0.3397473990917206,2.2888243198394775,1
576,2.3817687034606934,8.3178071975708,-16.353046417236328,-1.0903236865997314,0.5941550135612488,2.0921003818511963,1
577,0.19846811890602112,9.495670318603516,-14.80037784576416,-1.1458580493927002,0.6656150221824646,1.9276758432388306,1
578,0.03307845816016197,9.568282127380371,-13.975149154663086,-1.280829668045044,0.7098608016967773,1.781838059425354,1
579,2.5261929035186768,10.419316291809082,-12.998390197753906,-1.4277843236923218,0.46001866459846497,1.6210384368896484,1
580,3.616713523864746,6.443216800689697,-11.645925521850586,-1.4778844118118286,0.5514876246452332,1.4931960105895996,1
581,7.124270915985107,-0.5888919234275818,-10.628158569335938,-1.6044374704360962,0.5986469388008118,1.3772542476654053,1
582,11.174105644226074,-5.476902484893799,-10.15549373626709,-1.5525319576263428,0.7760515213012695,1.2835440635681152,1
583,17.62464141845703,-13.742533683776855,-7.909122467041016,-1.3166621923446655,0.8704108595848083,1.1783301830291748,1
584,21.932920455932617,-17.88420867919922,-6.192447185516357,-0.9866719841957092,1.145358920097351,1.0975050926208496,1
585,21.203279495239258,-15.476572036743164,-4.129133224487305,-1.0919415950775146,1.600478172302246,1.0571532249450684,1
586,17.594684600830078,-12.639846801757812,-2.2741405963897705,-1.1222058534622192,1.5011720657348633,0.9497894048690796,1
587,7.41797399520874,-17.732637405395508,-0.7698096036911011,-1.0661840438842773,1.679914116859436,0.9192457795143127,1
588,-6.092504501342773,-21.254497528076172,0.035568226128816605,-0.7045500874519348,1.7395631074905396,0.912319004535675,1
589,-10.39589786529541,-29.75439453125,1.4380525350570679,-0.2552298605442047,1.720698356628418,0.9270263314247131,1
590,-14.530672073364258,-29.06647300720215,3.32173490524292,-0.3757069408893585,1.5466831922531128,0.8866376876831055,1
591,-17.826475143432617,-16.490930557250977,4.358561038970947,-0.1553485244512558,1.3111168146133423,0.8933955430984497,1
592,-19.400487899780273,2.183377504348755,5.06059455871582,0.0657191351056099,1.1884855031967163,0.9410253167152405,1
593,-14.640092849731445,16.461523056030273,5.419835090637207,0.166120707988739,1.0724687576293945,1.0072723627090454,1
594,-5.924102783203125,28.116872787475586,4.384510040283203,-0.13547232747077942,0.8980770707130432,1.043095588684082,1
595,3.0444395542144775,28.207998275756836,2.691124200820923,-0.3087775409221649,0.8642944693565369,1.1049038171768188,1
596,12.037378311157227,18.06487274169922,1.5977671146392822,-0.664307713508606,0.9839311838150024,1.1344618797302246,1
597,18.21581268310547,1.1137878894805908,1.382356882095337,-0.5771552920341492,1.2218183279037476,1.1930011510849,1
598,19.202180862426758,-14.862994194030762,1.0642210245132446,-0.5549039244651794,1.4405282735824585,1.2176917791366577,1
599,15.256065368652344,-25.699594497680664,1.2956033945083618,-0.2181144505739212,1.6445873975753784,1.2492810487747192,1
600,9.398221969604492,-28.707687377929688,2.659569501876831,0.08357402682304382,1.920693039894104,1.2662900686264038,1
601,-2.0934083461761475,-16.94931983947754,2.574002981185913,0.0315345898270607,1.894716739654541,1.2334717512130737,1
602,-15.89171028137207,-0.9091267585754395,2.600111961364746,0.3282049298286438,1.7492661476135254,1.2674051523208618,1
603,-25.315248489379883,14.662405014038086,2.516324996948242,0.2775001525878906,1.7233153581619263,1.2817153930664062,1
604,-26.535995483398438,26.249277114868164,2.034719228744507,0.07817406207323074,1.2785706520080566,1.3002256155014038,1
605,-26.770633697509766,31.237751007080078,0.7478150725364685,-0.046256259083747864,0.8967985510826111,1.3468544483184814,1
606,-16.05596160888672,22.483665466308594,0.9182326197624207,-0.4056449234485626,0.5939679741859436,1.351151943206787,1
607,0.3337777853012085,8.462876319885254,1.2670814990997314,-0.603425145149231,0.4186515212059021,1.368990182876587,1
608,10.762338638305664,2.972527265548706,0.8689458966255188,-0.6261131167411804,1.0748871564865112,1.391380786895752,1
609,13.526437759399414,2.971315860748291,0.47338131070137024,-0.5813971161842346,1.2086987495422363,1.411202073097229,1
610,3.4647209644317627,2.984245777130127,0.5342639684677124,-0.6123886704444885,1.3369944095611572,1.4156124591827393,1
611,-13.83603286743164,-5.682190895080566,-0.08811558037996292,-0.6749597787857056,1.2450369596481323,1.4164655208587646,1
612,-33.96249771118164,-9.392110824584961,-2.278113842010498,-0.5526444315910339,1.0031403303146362,1.4243884086608887,1
613,-45.14091491699219,-11.033830642700195,-4.820662021636963,-0.4602869153022766,0.6866926550865173,1.4023908376693726,1
614,-45.1083869934082,-7.208911418914795,-6.376810550689697,-0.2849789261817932,0.44013628363609314,1.3664599657058716,1
615,-39.772727966308594,1.7218730449676514,-7.6989569664001465,-0.21336312592029572,0.1071532592177391,1.3040038347244263,1
616,-28.443811416625977,13.167312622070312,-7.831920146942139,-0.3017285168170929,-0.5638138055801392,1.2186325788497925,1
617,-17.19322395324707,22.16446876525879,-8.416885375976562,-0.4119122326374054,-0.8692886829376221,1.1390857696533203,1
618,-5.443497657775879,29.449459075927734,-8.68692398071289,-0.7121692299842834,-0.98056560754776,1.0507142543792725,1
619,5.790203094482422,28.390241622924805,-8.675734519958496,-1.0072786808013916,-1.0733743906021118,0.9592829346656799,1
620,19.32309341430664,22.450939178466797,-9.200918197631836,-1.268504023551941,-0.9603365063667297,0.8687624931335449,1
621,25.604251861572266,16.305662155151367,-9.92814826965332,-1.506117343902588,-0.7978538870811462,0.7746676206588745,1
622,27.255765914916992,0.3185397684574127,-10.367335319519043,-1.4939777851104736,-0.5524175763130188,0.6657030582427979,1
623,22.365812301635742,-17.7283878326416,-9.420695304870605,-1.5192556381225586,-0.25852170586586,0.553248405456543,1
624,9.336026191711426,-35.19384002685547,-9.094426155090332,-1.1088935136795044,-0.027493640780448914,0.44701117277145386,1
625,-6.661707878112793,-49.56795120239258,-10.23009204864502,-0.967430055141449,0.05193227902054787,0.36704209446907043,1
626,-21.70937728881836,-55.0297966003418,-11.577047348022461,-0.035128820687532425,-0.22326214611530304,0.21514691412448883,1
627,-29.677753448486328,-46.32896423339844,-11.98606014251709,0.2533388137817383,-0.3580068051815033,0.1240810677409172,1
628,-31.08860969543457,-30.046741485595703,-11.419073104858398,0.6981012225151062,-0.6754100918769836,0.009752962738275528,1
629,-28.93867301940918,-15.100783348083496,-9.821617126464844,1.0086085796356201,-0.9828159213066101,-0.09939185529947281,1
630,-19.277984619140625,-1.9585597515106201,-8.15385913848877,0.8850983381271362,-1.262987732887268,-0.16669505834579468,1
631,-9.766112327575684,6.643125534057617,-7.445326805114746,0.8961859941482544,-1.4069633483886719,-0.24697661399841309,1
632,1.863629698753357,6.898148536682129,-6.127837657928467,0.6531360149383545,-1.5355972051620483,-0.2992112934589386,1
633,9.753474235534668,5.066896438598633,-5.2997355461120605,0.5851165652275085,-1.5254466533660889,-0.3632352650165558,1
634,17.849681854248047,6.6075053215026855,-3.90392804145813,0.616571307182312,-1.4591293334960938,-0.4251498878002167,1
635,17.80152702331543,11.264898300170898,-2.3348286151885986,0.5990901589393616,-1.1899101734161377,-0.4814489483833313,1
636,16.844989776611328,17.101634979248047,-0.9742244482040405,0.41801831126213074,-0.9290360808372498,-0.5050168037414551,1
637,15.628850936889648,22.73172378540039,1.5052733421325684,0.30552101135253906,-1.0055954456329346,-0.5100529193878174,1
638,12.538800239562988,19.25562858581543,4.056849956512451,-0.04379339516162872,-0.6848207712173462,-0.4868448078632355,1
639,5.075282096862793,16.219470977783203,6.6562323570251465,-0.16092036664485931,-0.5872405171394348,-0.4572449028491974,1
640,0.74579918384552,16.514020919799805,8.059164047241211,-0.32600316405296326,-0.5283068418502808,-0.3944642245769501,1
641,-6.173680782318115,16.917444229125977,9.368295669555664,-0.5731325745582581,-0.47161781787872314,-0.30098262429237366,1
642,-11.293818473815918,13.387654304504395,9.531718254089355,-0.7294504046440125,-0.5716627836227417,-0.2085704654455185,1
643,-7.3429155349731445,6.506780624389648,8.682511329650879,-0.8629650473594666,-0.6795130968093872,-0.11595050245523453,1
644,3.5923867225646973,3.635209321975708,8.259360313415527,-0.7910717725753784,-0.6695549488067627,-0.060896795243024826,1
645,12.491449356079102,2.64314341545105,8.905865669250488,-0.8337659239768982,-0.6439270377159119,0.02044251561164856,1
646,18.236228942871094,2.936168670654297,10.935591697692871,-0.7734633088111877,-0.46222543716430664,0.09267748147249222,1
647,18.459077835083008,3.9828433990478516,12.69414234161377,-0.8038347959518433,-0.2670547664165497,0.20358209311962128,1
648,12.869194984436035,9.281448364257812,14.2960844039917,-0.9344834685325623,-0.30261585116386414,0.35122057795524597,1
649,3.199357271194458,11.01523208618164,15.422430038452148,-1.5138493776321411,-0.18096159398555756,0.5822919011116028,1
650,-6.881749153137207,2.135042190551758,16.764427185058594,-1.5459266901016235,-0.14941316843032837,0.7252376675605774,1
651,-16.325786590576172,-8.312904357910156,17.541290283203125,-1.5303651094436646,0.021641403436660767,0.8947884440422058,1
652,-24.325294494628906,-18.8271484375,16.211956024169922,-1.5628501176834106,-0.5319435596466064,1.0615084171295166,1
653,-26.808639526367188,-25.262672424316406,14.966889381408691,-1.0992933511734009,-0.9197129607200623,1.1720805168151855,1
654,-22.803592681884766,-28.60594367980957,14.972992897033691,-0.8542984127998352,-1.187210202217102,1.3256863355636597,1
655,-15.462313652038574,-28.768230438232422,13.8541841506958,-0.22903452813625336,-1.3868200778961182,1.4380323886871338,1
656,-7.2190117835998535,-24.687644958496094,11.244159698486328,-0.3366905450820923,-1.1631152629852295,1.663944959640503,1
657,1.8996983766555786,-21.390289306640625,8.097405433654785,0.20788393914699554,-1.232749581336975,1.735269546508789,1
658,5.620850563049316,-15.467113494873047,6.394907474517822,0.5164735317230225,-1.2029038667678833,1.8076553344726562,1
659,6.946445941925049,-12.37311840057373,4.143801689147949,0.6744860410690308,-1.1497002840042114,1.8758265972137451,1
660,4.741480827331543,-5.826866149902344,2.819221258163452,0.42934373021125793,-1.2250434160232544,1.9718246459960938,1
661,1.280946969985962,3.446432590484619,1.2104023694992065,0.500031054019928,-1.1563949584960938,1.9965507984161377,1
662,3.061711311340332,2.8761723041534424,0.8648717999458313,0.4318855404853821,-1.1269465684890747,2.0182299613952637,1
663,5.679825305938721,4.0818772315979,-0.6490786075592041,0.43512803316116333,-1.000504732131958,2.0164098739624023,1
664,5.910201549530029,11.875763893127441,-1.346656084060669,0.46213117241859436,-0.9751353859901428,1.9958370923995972,1
665,7.933166027069092,10.665510177612305,-1.0346481800079346,0.35186660289764404,-0.9185775518417358,1.9813594818115234,1
666,9.221684455871582,2.7166945934295654,-2.4059040546417236,0.28915128111839294,-0.7891430854797363,1.9606701135635376,1
667,12.630301475524902,-9.090139389038086,-4.382679462432861,0.36048465967178345,-0.565362811088562,1.9108330011367798,1
668,9.24985122680664,-12.77083969116211,-5.753594875335693,0.6253160834312439,-0.6141855716705322,1.8476226329803467,1
669,3.9853081703186035,-10.491287231445312,-7.553315162658691,0.1669730544090271,-0.4758700430393219,1.8852341175079346,1
670,-2.3868231773376465,-0.9363920092582703,-9.101797103881836,0.4681050181388855,-0.7374361753463745,1.7981654405593872,1
671,-4.1614484786987305,6.619669437408447,-10.386665344238281,0.29421961307525635,-0.3801528513431549,1.7066491842269897,1
672,-3.272371530532837,15.14125919342041,-11.715688705444336,0.3214570879936218,-0.5466424822807312,1.5998705625534058,1
673,4.341620445251465,21.047056198120117,-12.828353881835938,0.1253412812948227,-0.6723737120628357,1.4990750551223755,1
674,11.895012855529785,19.80027961730957,-14.162184715270996,-0.09054069221019745,-0.4256367087364197,1.3561583757400513,1
675,19.248960494995117,15.366374015808105,-14.558578491210938,-0.2586519420146942,-0.18211647868156433,1.2008520364761353,1
676,27.702442169189453,5.449275493621826,-14.36392593383789,-0.3083336353302002,0.028024250641465187,1.0419447422027588,1
677,29.578052520751953,-1.83175528049469,-14.089698791503906,-0.22128935158252716,0.32630836963653564,0.8819342851638794,1
678,23.479944229125977,-1.7718440294265747,-12.919732093811035,-0.1494889110326767,0.6770819425582886,0.7326667308807373,1
679,11.874767303466797,-2.557147979736328,-11.157615661621094,-0.0028005326166749,0.8061450123786926,0.5998743176460266,1
680,-2.4220519065856934,-7.547725200653076,-9.64061450958252,0.17652824521064758,0.882902979850769,0.4830538034439087,1
681,-16.691469192504883,-13.605073928833008,-7.5452704429626465,0.434659868478775,0.801099956035614,0.3857146203517914,1
682,-27.558517456054688,-20.677602767944336,-6.689249038696289,-0.3629690110683441,0.44241660833358765,0.33159053325653076,1
683,-33.71828079223633,-17.617521286010742,-5.499847412109375,-0.030278820544481277,0.09869996458292007,0.27458757162094116,1
684,-33.96791076660156,-10.11500358581543,-3.112109422683716,0.280800998210907,-0.22508160769939423,0.22320809960365295,1
685,-26.602996826171875,-14.820992469787598,0.8950597643852234,0.4709336757659912,-0.4334964156150818,0.18322758376598358,1
686,-14.976095199584961,-23.858592987060547,4.619617462158203,0.5230867266654968,-0.4270433485507965,0.16810522973537445,1
687,-5.5602827072143555,-31.090686798095703,6.311087131500244,1.0239014625549316,-0.6528201699256897,0.22107520699501038,1
688,2.839670181274414,-28.8808536529541,7.104605674743652,1.3235665559768677,-0.7156996130943298,0.28673678636550903,1
689,9.856661796569824,-17.18922996520996,7.0788960456848145,1.756894826889038,-0.6449094414710999,0.353776752948761,1
690,10.646218299865723,-4.039744853973389,6.908808708190918,1.830376386642456,-0.4232442378997803,0.4129883348941803,1
691,6.935379981994629,10.513099670410156,5.69884729385376,1.5146993398666382,-0.3031558394432068,0.4853770136833191,1
692,4.0707244873046875,22.113162994384766,5.196061134338379,1.3981080055236816,-0.2421313375234604,0.5428894758224487,1
693,7.746001720428467,20.469497680664062,7.046957015991211,1.254876732826233,-0.17900285124778748,0.5900483727455139,1
694,10.977865219116211,13.957070350646973,9.646980285644531,0.9961927533149719,-0.14040914177894592,0.6662531495094299,1
695,8.717677116394043,4.393239498138428,13.407259941101074,0.944372832775116,-0.16369296610355377,0.781378984451294,1
696,4.803429126739502,-11.127691268920898,16.48824119567871,1.0041040182113647,0.09065255522727966,0.876349925994873,1
697,-7.009969234466553,-12.174653053283691,19.600557327270508,0.9816189408302307,0.13288289308547974,1.041008710861206,1
698,-21.98350715637207,-1.2105073928833008,22.399215698242188,1.2177186012268066,-0.1137893870472908,1.2695610523223877,1
699,-31.59333038330078,2.858166217803955,21.720020294189453,1.320005178451538,-0.3272557258605957,1.4898033142089844,1
700,-31.057199478149414,0.47398999333381653,21.308530807495117,1.3805292844772339,-0.8704227805137634,1.7560101747512817,1
701,-29.368600845336914,3.0519392490386963,19.946792602539062,1.353625774383545,-1.0047574043273926,1.926776647567749,1
702,-15.812950134277344,-0.4941202402114868,18.26110076904297,1.4133540391921997,-1.5800018310546875,2.1870369911193848,1
703,-1.86989426612854,5.777427673339844,14.779623031616211,1.4383368492126465,-1.7563279867172241,2.367016553878784,1
704,18.147769927978516,13.926191329956055,12.707937240600586,1.3489669561386108,-1.6506025791168213,2.484023332595825,1
705,35.064239501953125,17.635236740112305,11.571496963500977,1.0802377462387085,-1.237256646156311,2.559926986694336,1
706,41.293556213378906,19.4505615234375,12.54245376586914,0.9208952784538269,-0.6311444044113159,2.608208656311035,1
707,38.23709487915039,22.6450138092041,13.00715446472168,0.7206391096115112,0.0073495241813361645,2.6806511878967285,1
708,25.968833923339844,26.58321189880371,13.524121284484863,0.3143208622932434,0.21066881716251373,2.864128589630127,1
709,1.899045705795288,28.561296463012695,12.009370803833008,-0.054060809314250946,0.45100274682044983,3.009263753890991,1
710,-24.632749557495117,25.782197952270508,8.933449745178223,-0.4111534655094147,0.11718098819255829,3.1993160247802734,1
711,-39.30341339111328,21.111474990844727,5.730916976928711,-0.7045046091079712,-0.3098793923854828,3.322267532348633,1
712,-43.12146759033203,15.228994369506836,2.897308349609375,-0.8428305983543396,-0.675752580165863,3.3736226558685303,1
713,-38.54515075683594,6.721560001373291,-0.09204551577568054,-1.021586537361145,-1.0590616464614868,3.396892786026001,1
714,-28.702239990234375,-5.4327569007873535,-3.3424599170684814,-0.9473307728767395,-1.7902164459228516,3.4142048358917236,1
715,-13.42536735534668,-22.819141387939453,-7.73861837387085,-0.7307239770889282,-1.148803949356079,3.3339638710021973,1
716,4.2607245445251465,-36.118892669677734,-11.033912658691406,-0.4873010516166687,-1.5292543172836304,3.269296646118164,1
717,16.9029483795166,-37.6220588684082,-13.92814826965332,0.11601733416318893,-1.4035096168518066,3.1474525928497314,1
718,28.296171188354492,-28.56975555419922,-15.91029167175293,0.5172165036201477,-0.8538711667060852,3.0081846714019775,1
719,32.81373977661133,-8.937482833862305,-17.086894989013672,0.4125116169452667,-1.026357889175415,2.9066200256347656,1
720,31.077869415283203,11.130682945251465,-17.5018367767334,0.46164968609809875,-0.5877854824066162,2.7424585819244385,1
721,24.285249710083008,25.934484481811523,-18.238670349121094,0.36020025610923767,-0.27794867753982544,2.5669052600860596,1
722,10.535149574279785,41.13918685913086,-18.717683792114258,0.06984592974185944,-0.22191762924194336,2.3895657062530518,1
723,-6.25792932510376,47.45972442626953,-19.402420043945312,-0.37585654854774475,-0.07277397066354752,2.2033421993255615,1
724,-17.955110549926758,41.656707763671875,-22.02165412902832,-0.989607572555542,-0.28714197874069214,2.0202696323394775,1
725,-19.932973861694336,23.450448989868164,-24.675188064575195,-1.3296687602996826,-0.5997327566146851,1.7924656867980957,1
726,-11.068650245666504,-4.178277492523193,-26.537538528442383,-1.5743203163146973,-0.6952592134475708,1.5487216711044312,1
727,3.196881055831909,-24.85261344909668,-26.834814071655273,-1.4509403705596924,-0.8017258644104004,1.2831926345825195,1
728,15.940847396850586,-36.34919357299805,-26.46537208557129,-0.9098031520843506,-0.7385101318359375,1.0061311721801758,1
729,26.62611198425293,-43.770973205566406,-24.8853816986084,-0.3611226975917816,-0.6179084777832031,0.7341482043266296,1
730,32.26536560058594,-43.28812026977539,-22.21242332458496,0.13708706200122833,-0.2455529421567917,0.4949306845664978,1
731,31.941673278808594,-36.19099044799805,-18.35811424255371,0.6221473813056946,0.21497152745723724,0.2812248766422272,1
732,24.140172958374023,-23.73821258544922,-14.845858573913574,0.6837990283966064,0.6629741191864014,0.12163493782281876,1
733,9.671060562133789,-2.3718581199645996,-11.75158405303955,1.6812816858291626,1.029657244682312,-0.061141788959503174,1
734,-8.79878044128418,21.376678466796875,-8.82742691040039,1.722549319267273,0.48023200035095215,-0.19674015045166016,1
735,-24.574424743652344,45.92518615722656,-6.329269886016846,1.3702149391174316,0.2747853696346283,-0.2832591235637665,1
736,-27.01363754272461,62.29158401489258,-3.5538859367370605,0.7777335047721863,0.051115743815898895,-0.3461821973323822,1
737,-22.031288146972656,61.51629638671875,-1.3608834743499756,-0.14625480771064758,-0.14546960592269897,-0.3902878761291504,1
738,-9.298370361328125,45.19575500488281,-0.28257670998573303,-0.7376728057861328,-0.48922231793403625,-0.4059833884239197,1
739,6.784487247467041,14.492712020874023,0.9179327487945557,-1.4189903736114502,-0.6027458310127258,-0.4191471040248871,1
740,20.216655731201172,-13.51901626586914,0.8377798795700073,-1.429273009300232,-0.3818470537662506,-0.40840211510658264,1
741,27.019189834594727,-30.613618850708008,0.5020475387573242,-1.1443284749984741,-0.023216065019369125,-0.3932182788848877,1
742,28.441438674926758,-43.34831619262695,0.7068494558334351,-0.9554430842399597,0.20759186148643494,-0.3930474519729614,1
743,24.928844451904297,-44.248191833496094,0.7917454838752747,-0.3258991241455078,0.4630224406719208,-0.3875385820865631,1
744,17.06853675842285,-34.668190002441406,-0.27780407667160034,0.38753074407577515,0.7377375364303589,-0.37706896662712097,1
745,11.263484954833984,-17.366060256958008,-1.4952061176300049,0.45971283316612244,1.0342845916748047,-0.38584768772125244,1
746,5.213592052459717,7.946370601654053,-1.985459804534912,0.7924346923828125,1.0663387775421143,-0.4006345272064209,1
747,-1.171858310699463,35.5420036315918,-2.691937208175659,0.6802631616592407,1.0809911489486694,-0.4229985773563385,1
748,-8.063338279724121,57.228851318359375,-2.9302964210510254,0.1255427449941635,1.145728349685669,-0.4587617516517639,1
749,-15.395456314086914,68.18724822998047,-2.912977933883667,-0.7809453010559082,1.0053737163543701,-0.5130553841590881,1
750,-19.989397048950195,65.4669189453125,-2.3707056045532227,-1.6041499376296997,0.7521436214447021,-0.5528295636177063,1
751,-17.050216674804688,49.202762603759766,-1.9401819705963135,-2.4342055320739746,0.5869125723838806,-0.5891607403755188,1
752,-9.044764518737793,25.265811920166016,-1.8961396217346191,-3.0532066822052,0.23315900564193726,-0.6386258006095886,1
753,2.117921829223633,-1.3290616273880005,-1.1291782855987549,-3.169802665710449,0.33711710572242737,-0.6094568967819214,1
754,16.813262939453125,-28.041894912719727,-0.16092246770858765,-3.0095551013946533,0.38978666067123413,-0.5928493142127991,1
755,23.80554962158203,-53.54534912109375,1.2668020725250244,-2.4921605587005615,0.6731558442115784,-0.5376861691474915,1
756,25.511606216430664,-64.71549224853516,3.328144073486328,-2.0331523418426514,0.909254252910614,-0.5392859578132629,1
757,21.57038116455078,-58.07981491088867,4.2898359298706055,0.6858264803886414,1.164424180984497,-0.2386840134859085,1
758,7.749630451202393,-34.62460708618164,4.170162200927734,1.1416095495224,1.5017735958099365,-0.20335374772548676,1
759,-9.872270584106445,2.2525980472564697,4.435482501983643,1.5847164392471313,1.2981228828430176,-0.2107265591621399,1
760,-25.995878219604492,44.389774322509766,5.2565131187438965,0.966643214225769,1.148775339126587,-0.28078168630599976,1
761,-35.12161636352539,78.1688232421875,7.643194675445557,0.21549241244792938,0.788410484790802,-0.29682067036628723,1
762,-36.26240158081055,95.57510375976562,9.378548622131348,-0.8438707590103149,0.3619597852230072,-0.27978718280792236,1
763,-32.50307083129883,93.47730255126953,9.758622169494629,-2.0981674194335938,0.006286117248237133,-0.23928698897361755,1
764,-22.98116683959961,72.29420471191406,9.493245124816895,-2.9968888759613037,-0.14124366641044617,-0.11113251745700836,1
765,-8.507851600646973,42.540225982666016,8.396090507507324,-3.7659902572631836,-0.2929731011390686,-0.011259582825005054,1
766,2.185969591140747,13.68030834197998,4.875914096832275,-4.430807590484619,-0.3630598485469818,0.04744905233383179,1
767,9.031521797180176,-11.160080909729004,3.3932230472564697,-4.382938385009766,-0.2414233535528183,0.14595702290534973,1
768,11.669866561889648,-28.40386962890625,2.6984241008758545,-4.246933460235596,-0.17542098462581635,0.17649556696414948,1
769,9.14688491821289,-35.94243621826172,1.8505609035491943,-3.830212354660034,0.08880558609962463,0.2707885503768921,1
770,4.224412441253662,-41.870548248291016,0.5110555291175842,-3.4416961669921875,0.21280404925346375,0.3022860288619995,1
771,-5.130772590637207,-36.651268005371094,-0.8916577696800232,-2.9627108573913574,0.09275083988904953,0.24547740817070007,1
772,-12.664100646972656,-32.49247360229492,-2.2758281230926514,-2.2663755416870117,0.13942870497703552,0.3099459707736969,1
773,-17.835155487060547,-19.18901252746582,-4.518852233886719,-0.9190258979797363,-0.32502368092536926,0.2364303469657898,1
774,-22.074886322021484,1.2395200729370117,-5.646193981170654,-0.6407900452613831,-0.8519746661186218,0.05858708545565605,1
775,-21.412813186645508,16.403228759765625,-7.078457355499268,-0.7016053199768066,-0.8918606638908386,0.07032638788223267,1
776,-13.589193344116211,23.28558921813965,-8.27333927154541,-1.3712648153305054,-1.4552733898162842,-0.16068600118160248,1
777,0.3295670747756958,20.967498779296875,-9.042752265930176,-1.5868759155273438,-1.6172850131988525,-0.25596344470977783,1
778,15.604063034057617,9.480676651000977,-10.771977424621582,-1.7584643363952637,-0.9865019917488098,-0.14826512336730957,1
779,31.44439697265625,-3.5553479194641113,-12.712491989135742,-2.1736135482788086,-1.0603641271591187,-0.32728469371795654,1
780,38.03042984008789,-10.08279800415039,-12.84653091430664,-1.8606040477752686,-0.3102705180644989,-0.3129793405532837,1
781,35.40752410888672,-15.477773666381836,-14.460921287536621,-1.5167672634124756,1.4515756368637085,0.023569097742438316,1
782,28.352643966674805,-19.573261260986328,-17.44194984436035,-1.5160353183746338,1.646180272102356,-0.1682349145412445,1
783,14.771807670593262,-14.229958534240723,-19.27887725830078,-1.1991853713989258,1.910243272781372,-0.3551965653896332,1
784,-6.544675350189209,-5.202661037445068,-18.051786422729492,-1.8540468215942383,1.8186540603637695,-0.64046710729599,1
785,-30.07729721069336,7.424753189086914,-17.076086044311523,-2.0783045291900635,1.4456735849380493,-0.930368959903717,1
786,-51.46225357055664,22.34290313720703,-14.763142585754395,-2.189589023590088,1.0979421138763428,-1.1163301467895508,1
787,-60.69356918334961,23.69375991821289,-12.628265380859375,-2.4463818073272705,0.2511017918586731,-1.369125485420227,1
788,-55.5834846496582,15.664986610412598,-11.603829383850098,-2.795400381088257,-0.1592746526002884,-1.439571499824524,1
789,-38.20842361450195,-7.494727611541748,-11.129302024841309,-2.885451555252075,-0.6445761322975159,-1.528038501739502,1
790,-15.782073020935059,-31.020679473876953,-10.765374183654785,-2.756523609161377,-1.1991933584213257,-1.694974660873413,1
791,5.855335712432861,-46.03352355957031,-10.146544456481934,-1.990052342414856,-1.3643511533737183,-1.777263879776001,1
792,22.880659103393555,-51.86070251464844,-10.661853790283203,-2.20475172996521,-1.046251893043518,-1.7942556142807007,1
793,34.052284240722656,-51.11134338378906,-11.14475154876709,-1.9279890060424805,-0.8114528059959412,-1.887434720993042,1
794,37.42403793334961,-43.45577621459961,-10.427414894104004,-1.3045727014541626,-0.3592221438884735,-1.9530391693115234,1
795,27.715160369873047,-28.569719314575195,-9.042498588562012,-1.166617751121521,-0.2412789762020111,-2.1271114349365234,1
796,8.677597045898438,-12.550932884216309,-5.906485080718994,-0.8850693106651306,0.03893526270985603,-2.2113380432128906,1
797,-12.597904205322266,-0.654399573802948,-2.928469657897949,-0.7642475366592407,0.07049078494310379,-2.283093214035034,1
798,-28.919883728027344,7.410726070404053,-1.9373595714569092,-0.746389627456665,-0.1464989334344864,-2.3339309692382812,1
799,-40.5408821105957,10.624242782592773,-2.6744720935821533,-1.21023428440094,-0.3668654263019562,-2.3301186561584473,1
800,-41.03666305541992,4.390283584594727,-4.032207012176514,-1.173924446105957,-1.086620569229126,-2.4285738468170166,1
801,-30.213665008544922,-11.183176040649414,-3.9734911918640137,-1.2013928890228271,-1.5622477531433105,-2.484309673309326,1
802,-10.689616203308105,-38.661190032958984,-3.4970805644989014,-1.4914449453353882,-1.5663193464279175,-2.445556879043579,1
803,13.337198257446289,-66.71603393554688,-1.8450145721435547,-0.7501986026763916,-1.4565761089324951,-2.458731174468994,1
804,31.239078521728516,-78.52027130126953,1.1115264892578125,-0.21391946077346802,-1.4485794305801392,-2.4691033363342285,1
805,34.61439514160156,-75.91328430175781,5.01025915145874,0.8064189553260803,-1.094517469406128,-2.462744951248169,1
806,26.97748374938965,-56.47217559814453,8.05925178527832,1.4890283346176147,-0.982688844203949,-2.408724069595337,1
807,11.523026466369629,-25.045494079589844,9.721877098083496,1.8552429676055908,-0.6519468426704407,-2.291027307510376,1
808,-4.567214488983154,12.695507049560547,9.738926887512207,1.9524521827697754,-0.5981782674789429,-2.172905921936035,1
809,-14.833797454833984,43.79776382446289,9.621346473693848,1.69979989528656,-0.7702980637550354,-2.05584979057312,1
810,-17.68701934814453,58.62232971191406,10.586739540100098,1.1280914545059204,-1.0413423776626587,-1.935989499092102,1
811,-12.143601417541504,50.1825065612793,11.930058479309082,0.4919605553150177,-1.1379526853561401,-1.8430310487747192,1
812,-5.099792957305908,20.213407516479492,12.767900466918945,0.15242603421211243,-1.2156392335891724,-1.7584387063980103,1
813,2.947986364364624,-12.850618362426758,13.001640319824219,0.011870497837662697,-1.2466691732406616,-1.6431915760040283,1
814,12.444694519042969,-40.813446044921875,13.508037567138672,0.08884258568286896,-1.1275733709335327,-1.5121654272079468,1
815,18.545183181762695,-60.82660675048828,14.322286605834961,0.7331162095069885,-0.8813652396202087,-1.4250513315200806,1
816,21.242856979370117,-65.8698501586914,15.671279907226562,1.2804789543151855,-0.5715123414993286,-1.2870752811431885,1
817,17.563879013061523,-61.87630844116211,15.130760192871094,2.0742452144622803,-0.42492982745170593,-1.136679768562317,1
818,9.766888618469238,-57.79912185668945,14.579473495483398,2.4905381202697754,-0.36589208245277405,-0.9240089654922485,1
819,-4.925704479217529,-47.47639846801758,12.361639976501465,3.1858890056610107,-0.32305195927619934,-0.7783834338188171,1
820,-10.913926124572754,-31.979108810424805,10.109472274780273,3.8016281127929688,-0.2284110188484192,-0.7233425974845886,1
821,-11.629759788513184,-27.761598587036133,8.747615814208984,4.076324462890625,-0.2938661277294159,-0.6366413831710815,1
822,-11.078369140625,-24.635086059570312,7.82293176651001,4.513393878936768,-0.5176805257797241,-0.5175994634628296,1
823,-6.01798152923584,-12.72560977935791,7.144808769226074,4.513451099395752,-0.5414599180221558,-0.45899227261543274,1
824,0.7945584058761597,7.238095760345459,6.514965534210205,4.66154146194458,-0.629622220993042,-0.3765333890914917,1
825,3.756730079650879,23.646032333374023,5.294712543487549,4.617271900177002,-0.6391494870185852,-0.3144494295120239,1
826,1.0820417404174805,33.2392692565918,3.089195489883423,4.4230499267578125,-0.6044731736183167,-0.2695201337337494,1
827,-2.6963040828704834,35.02133560180664,1.3022359609603882,3.986173629760742,-0.5352885723114014,-0.2703646123409271,1
828,-2.463231325149536,22.7694149017334,1.6781078577041626,3.5876235961914062,-0.6064664721488953,-0.22806982696056366,1
829,-3.159947156906128,6.979014873504639,0.060464102774858475,3.3626391887664795,-0.671779990196228,-0.18433988094329834,1
830,-1.729438066482544,-8.285561561584473,-1.5208475589752197,3.442564010620117,-0.8952668905258179,-0.0526655912399292,1
831,-0.2544569671154022,-18.21095848083496,-2.6811654567718506,3.6121082305908203,-0.8492520451545715,-0.11926127225160599,1
832,3.203868865966797,-17.00394058227539,-3.2617111206054688,4.073455333709717,-0.8473943471908569,-0.17079108953475952,1
833,6.0596723556518555,-2.6714401245117188,-3.364377737045288,4.475050449371338,-0.7845660448074341,-0.24497824907302856,1
834,6.493146896362305,19.483478546142578,-3.087852954864502,3.489661931991577,-0.6902522444725037,-0.1994515210390091,1
835,10.137796401977539,40.15961456298828,-2.57057785987854,3.3337008953094482,-0.5817967057228088,-0.2660035192966461,1
836,17.158573150634766,42.97214126586914,-0.7157037258148193,2.8428025245666504,-0.41425248980522156,-0.33733028173446655,1
837,22.337718963623047,31.27984619140625,0.4652656018733978,2.320448398590088,-0.2082444280385971,-0.36393338441848755,1
838,22.651058197021484,15.888882637023926,1.6697155237197876,2.137906312942505,-0.002046015113592148,-0.36069855093955994,1
839,20.788307189941406,-5.026341438293457,1.4400907754898071,2.1348960399627686,0.28008532524108887,-0.40086930990219116,1
840,16.555225372314453,-19.719804763793945,0.255622535943985,2.3707053661346436,0.5340065360069275,-0.43498533964157104,1
841,5.045133113861084,-28.357460021972656,0.26369816064834595,2.691140651702881,0.6270599365234375,-0.3943808972835541,1
842,-12.989724159240723,-27.442514419555664,-2.1496503353118896,3.062411069869995,0.44907233119010925,-0.2456984668970108,1
843,-30.60209846496582,-14.866320610046387,-6.06644868850708,3.3170597553253174,0.37342262268066406,-0.307914674282074,1
844,-43.4632453918457,-1.1517051458358765,-8.503885269165039,3.505326986312866,-0.005763349588960409,-0.3225768208503723,1
845,-44.79111099243164,12.764141082763672,-11.33014965057373,3.618349313735962,-0.5800997018814087,-0.3055296242237091,1
846,-35.6225700378418,26.136281967163086,-12.196220397949219,3.45000958442688,-1.0798683166503906,-0.37605637311935425,1
847,-12.30067253112793,31.060819625854492,-9.706926345825195,2.989901065826416,-1.2479139566421509,-0.6141617894172668,1
848,19.234268188476562,36.099212646484375,-5.090065956115723,2.5318105220794678,-1.2232908010482788,-0.808747410774231,1
849,49.80405044555664,41.46897506713867,0.6153668761253357,2.0700206756591797,-0.8482933640480042,-0.9850584864616394,1
850,67.35820770263672,45.564842224121094,5.762531280517578,1.4574066400527954,-0.2859671413898468,-1.0129109621047974,1
851,69.07550811767578,47.651763916015625,10.00782299041748,1.0309700965881348,0.6787728667259216,-1.1298247575759888,1
852,60.20133590698242,50.92451858520508,13.989660263061523,0.5635992884635925,0.899023711681366,-0.7695809006690979,1
853,36.81800079345703,51.41291809082031,18.44281005859375,0.12949097156524658,1.3565301895141602,-0.5540931820869446,1
854,7.706681251525879,46.37809371948242,20.822071075439453,-0.43256327509880066,1.7790851593017578,-0.3821282386779785,1
855,-19.326284408569336,34.33065414428711,22.68330955505371,-0.9315736889839172,1.7305371761322021,-0.11196748167276382,1
856,-39.0240592956543,16.29021453857422,23.18990135192871,-1.1871708631515503,1.5161312818527222,0.14005333185195923,1
857,-48.868919372558594,-0.9317083358764648,23.108837127685547,-1.2976670265197754,0.9615828990936279,0.42284736037254333,1
858,-46.35717010498047,-15.290678977966309,23.2146053314209,-1.0769734382629395,0.5643852353096008,0.662932813167572,1
859,-35.3299560546875,-20.583993911743164,23.80157470703125,-0.7774181962013245,0.1784304678440094,0.9027941823005676,1
860,-19.177318572998047,-18.083080291748047,24.293800354003906,-0.4462398290634155,-0.289864718914032,1.169264793395996,1
861,-1.4245564937591553,-5.218032360076904,24.332874298095703,-0.38743194937705994,-0.3971887230873108,1.390861988067627,1
862,9.628055572509766,4.072904586791992,23.54650115966797,-0.2867600917816162,-0.10633580386638641,1.6232725381851196,1
863,5.7708539962768555,11.90783977508545,20.665956497192383,-0.33114442229270935,0.006616377737373114,1.854766607284546,1
864,-2.378077745437622,14.882012367248535,16.351537704467773,-0.38951998949050903,0.03413882106542587,2.064577579498291,1
865,-15.85262680053711,12.774327278137207,12.777435302734375,-0.6245971322059631,-0.11485008895397186,2.2156426906585693,1
866,-32.43312072753906,3.5341365337371826,7.687047004699707,-0.6915015578269958,-0.19818417727947235,2.349292755126953,1
867,-36.572021484375,-8.70047664642334,4.762754917144775,-0.7297675609588623,-0.620076596736908,2.418731927871704,1
868,-37.97200393676758,-8.41761589050293,1.3124418258666992,-0.5878757834434509,-1.2470154762268066,2.44983172416687,1
869,-30.16871452331543,-0.21793869137763977,-1.9243247509002686,-0.5818939208984375,-1.5848376750946045,2.467055559158325,1
870,-13.203845024108887,15.353130340576172,-5.118951320648193,-0.6195889711380005,-1.4206962585449219,2.500481367111206,1
871,3.9459068775177,27.17980194091797,-7.685861587524414,-0.7927495837211609,-1.541907548904419,2.446977138519287,1
872,13.027342796325684,30.61874771118164,-10.577342987060547,-1.1789405345916748,-1.5132343769073486,2.362545967102051,1
873,14.299398422241211,24.55656623840332,-12.920435905456543,-1.3937932252883911,-1.3092219829559326,2.261469602584839,1
874,9.568164825439453,4.316205024719238,-14.464022636413574,-1.5617754459381104,-1.271600604057312,2.104235887527466,1
875,1.691087245941162,-20.34076499938965,-15.5784330368042,-1.4437711238861084,-1.2568339109420776,1.933968186378479,1
876,-3.2291083335876465,-39.98408889770508,-16.415719985961914,-0.8852977752685547,-1.2648457288742065,1.7519385814666748,1
877,-5.429835319519043,-48.6259765625,-17.6236629486084,-0.6278494000434875,-1.1822577714920044,1.6378921270370483,1
878,-3.402475357055664,-50.22270584106445,-18.94550895690918,0.26687517762184143,-1.2593424320220947,1.4286214113235474,1
879,-4.325540065765381,-40.29816818237305,-18.91874122619629,0.24663248658180237,-1.3181198835372925,1.2977365255355835,1
880,-1.9161447286605835,-23.22651481628418,-18.36507797241211,0.8068301677703857,-1.3716167211532593,1.0963997840881348,1
881,2.393885374069214,-8.856225967407227,-18.472349166870117,0.8612192273139954,-1.4407893419265747,0.9292959570884705,1
882,10.404803276062012,9.343755722045898,-17.43161964416504,0.9633574485778809,-1.253260612487793,0.7748615741729736,1
883,18.38148307800293,29.072649002075195,-16.238994598388672,0.7651000618934631,-1.2516623735427856,0.6011059284210205,1
884,24.816303253173828,44.35162353515625,-14.03079891204834,0.4979236423969269,-1.039406418800354,0.43941470980644226,1
885,27.04917335510254,52.39971160888672,-11.550313949584961,-0.20856522023677826,-0.6731173992156982,0.3494788706302643,1
886,26.018339157104492,48.193180084228516,-9.802202224731445,-0.7248077988624573,-0.22782975435256958,0.2524991035461426,1
887,20.09152603149414,29.533952713012695,-8.723429679870605,-1.2270312309265137,-0.2264702022075653,0.11420002579689026,1
888,11.053763389587402,0.5223762392997742,-7.65545129776001,-1.4304616451263428,-0.24708431959152222,-0.026638364419341087,1
889,-0.844910204410553,-28.255197525024414,-7.178192138671875,-1.166729211807251,-0.2690485715866089,-0.1605421006679535,1
890,-7.810451507568359,-51.632164001464844,-8.267962455749512,-0.7924581170082092,-0.20595160126686096,-0.22958700358867645,1
891,-12.153985977172852,-62.25727081298828,-10.033415794372559,0.030226530507206917,-0.2537418305873871,-0.33309268951416016,1
892,-12.550920486450195,-58.051658630371094,-11.181437492370605,0.0958142876625061,-0.34881824254989624,-0.3830333650112152,1
893,-10.279309272766113,-41.21906661987305,-11.78363037109375,0.6783604621887207,-0.473896324634552,-0.4894094467163086,1
894,-4.188826560974121,-16.390600204467773,-12.199320793151855,1.4223018884658813,-0.6862496137619019,-0.6477506756782532,1
895,-0.010241401381790638,10.27535343170166,-11.341104507446289,1.5883965492248535,-0.5601052045822144,-0.7410681247711182,1
896,3.358766794204712,42.110260009765625,-11.190950393676758,0.9021704196929932,-0.5978973507881165,-0.8265488743782043,1
897,6.849106311798096,59.36155700683594,-10.54859733581543,0.23437295854091644,-0.4262438416481018,-0.9259703159332275,1
898,13.910097122192383,62.44929504394531,-7.958434581756592,-0.35551318526268005,-0.4264371991157532,-1.0409481525421143,1
899,20.68549156188965,50.32145309448242,-6.28922700881958,-1.262716293334961,-0.29439520835876465,-1.1073378324508667,1
900,26.854883193969727,31.586217880249023,-4.9062819480896,-1.6188265085220337,0.022658662870526314,-1.1621443033218384,1
901,28.212709426879883,11.752556800842285,-3.820627212524414,-1.7530486583709717,0.4259950518608093,-1.1968910694122314,1
902,25.85280990600586,-12.083440780639648,-2.355311870574951,-1.6251133680343628,0.4466610252857208,-1.2818676233291626,1
903,18.70709800720215,-30.051193237304688,-1.3559449911117554,-1.3460758924484253,0.8927524089813232,-1.2694134712219238,1
904,8.410300254821777,-45.30344009399414,-1.1340969800949097,-0.7878168821334839,0.8220605850219727,-1.3367503881454468,1
905,-0.699857771396637,-48.33695602416992,-2.3770291805267334,-0.23644888401031494,0.8993504047393799,-1.3541350364685059,1
906,-3.5444419384002686,-52.31862258911133,-2.4671926498413086,0.5838387608528137,0.9131239056587219,-1.3689682483673096,1
907,-4.448313236236572,-49.31801986694336,-0.17939138412475586,0.516379714012146,0.6564533114433289,-1.4724164009094238,1
908,-0.7203609943389893,-51.54233169555664,4.237969875335693,1.3687692880630493,0.6335791349411011,-1.4429842233657837,1
909,5.764965057373047,-42.53647994995117,6.854332447052002,1.528186321258545,0.6890374422073364,-1.4254519939422607,1
910,5.914767742156982,-16.976669311523438,9.10621452331543,2.1338918209075928,0.7477395534515381,-1.337249517440796,1
911,0.7594664096832275,17.937402725219727,10.571914672851562,2.120297908782959,0.8697584271430969,-1.2579866647720337,1
912,1.0790985822677612,49.410987854003906,14.62264347076416,1.8326709270477295,0.9170891046524048,-1.1468511819839478,1
913,2.7524518966674805,73.20944213867188,18.565452575683594,1.0450056791305542,0.9632939696311951,-1.021891474723816,1
914,3.3590855598449707,78.19542694091797,21.583370208740234,0.07050454616546631,0.8536927700042725,-0.8580736517906189,1
915,2.764300584793091,61.72068405151367,23.39264678955078,-0.686220109462738,0.9356341361999512,-0.62873774766922,1
916,4.441188812255859,30.98061180114746,22.858095169067383,-1.346178650856018,1.026038646697998,-0.4018832743167877,1
917,0.043415699154138565,-6.055114269256592,20.77246856689453,-1.4199204444885254,1.0934486389160156,-0.14108756184577942,1
918,-3.3185501098632812,-36.049625396728516,18.608644485473633,-0.9622960090637207,0.939706027507782,0.11885619908571243,1
919,-7.237883567810059,-55.092254638671875,17.60447883605957,-0.41965973377227783,0.9582112431526184,0.3337535560131073,1
920,-9.436476707458496,-62.35523223876953,17.49406623840332,0.3344610035419464,0.8437821269035339,0.538093626499176,1
921,-11.671616554260254,-64.06342315673828,16.157899856567383,1.1488687992095947,0.834628164768219,0.7485061883926392,1
922,-8.696976661682129,-55.34657669067383,14.491637229919434,1.8979252576828003,0.6004862785339355,0.9193518161773682,1
923,-4.101165771484375,-37.4977912902832,12.963421821594238,2.2667205333709717,0.5805362462997437,1.0216126441955566,1
924,5.399686813354492,-9.240931510925293,12.370650291442871,2.567593812942505,0.6688390374183655,1.1333719491958618,1
925,10.916007041931152,25.909574508666992,12.634413719177246,2.407749652862549,0.8012260794639587,1.2082630395889282,1
926,8.896919250488281,59.658042907714844,13.262151718139648,1.9787635803222656,0.960787296295166,1.3105818033218384,1
927,1.739788293838501,81.53641510009766,14.3799409866333,1.0983985662460327,0.8924186825752258,1.4217398166656494,1
928,-12.39152717590332,93.60411834716797,15.703621864318848,0.09815356135368347,0.8067397475242615,1.5533939599990845,1
929,-28.02889633178711,89.8468017578125,16.410171508789062,-0.8151363730430603,0.5588211417198181,1.7390978336334229,1
930,-38.77962112426758,69.41063690185547,16.23291015625,-1.6831347942352295,0.17594890296459198,1.9178292751312256,1
931,-40.838340759277344,37.98470687866211,13.928760528564453,-2.1980888843536377,-0.1637336015701294,2.1028945446014404,1
932,-32.16877365112305,2.1628527641296387,10.362570762634277,-2.450183868408203,-0.45284828543663025,2.250530242919922,1
933,-17.40532875061035,-23.996166229248047,6.249588489532471,-2.3451147079467773,-0.8607062697410583,2.3561596870422363,1
934,-2.7687506675720215,-37.4453239440918,1.1373881101608276,-1.8360849618911743,-1.007169246673584,2.451896905899048,1
935,14.256299018859863,-36.800262451171875,-2.0146377086639404,-1.37569260597229,-0.897134006023407,2.492344856262207,1
936,28.104360580444336,-23.20588493347168,-3.9369683265686035,-0.968142032623291,-0.7580759525299072,2.475546360015869,1
937,34.70710372924805,-4.317031383514404,-3.6492350101470947,-0.8330664038658142,-0.2953360378742218,2.4646384716033936,1
938,34.40098571777344,7.987250328063965,-4.438893795013428,-0.8037627339363098,0.27698373794555664,2.4676403999328613,1
939,31.25665283203125,23.565271377563477,-3.812927722930908,-1.000585675239563,0.36534562706947327,2.3745739459991455,1
940,20.869644165039062,38.766788482666016,-3.5538673400878906,-1.3682595491409302,0.58145672082901,2.3172359466552734,1
941,8.617546081542969,43.00704574584961,-3.5932443141937256,-1.8196287155151367,0.7651501297950745,2.2810091972351074,1
942,-6.918734073638916,33.60586929321289,-2.962327718734741,-2.225034475326538,0.7911956906318665,2.244908571243286,1
943,-19.84747886657715,14.952499389648438,-2.467339515686035,-2.480391263961792,0.66159987449646,2.2124722003936768,1
944,-29.437923431396484,0.28469064831733704,-3.194340467453003,-2.5267603397369385,0.4854704439640045,2.207700252532959,1
945,-29.234163284301758,-12.525236129760742,-4.345733642578125,-2.3451485633850098,0.008225594647228718,2.130469799041748,1
946,-25.386798858642578,-18.547992706298828,-5.702824592590332,-2.3100693225860596,-0.2787874639034271,2.0785205364227295,1
947,-16.66446876525879,-21.02372932434082,-7.055835723876953,-1.9038020372390747,-0.613011360168457,2.008268356323242,1
948,-6.0528788566589355,-15.687929153442383,-8.63245677947998,-1.8239095211029053,-0.6360214352607727,1.9821803569793701,1
949,3.609639883041382,-1.7977629899978638,-8.707797050476074,-1.6651275157928467,-0.6412396430969238,1.9161945581436157,1
950,9.214482307434082,5.667840003967285,-9.513276100158691,-1.6812463998794556,-0.5989226698875427,1.8303405046463013,1
951,8.504144668579102,5.293145656585693,-10.670069694519043,-1.6850998401641846,-0.5832718014717102,1.7074429988861084,1
952,5.152394771575928,1.6721277236938477,-11.42089557647705,-1.6626479625701904,-0.4413140118122101,1.621849536895752,1
953,3.9161784648895264,-7.453042030334473,-11.839415550231934,-1.5493210554122925,-0.4905720055103302,1.4691507816314697,1
954,1.4011201858520508,-10.194204330444336,-11.400596618652344,-1.6274157762527466,-0.5637021660804749,1.3152743577957153,1
955,-3.696639060974121,-6.444932460784912,-10.940452575683594,-1.771166205406189,-0.5411052107810974,1.2143301963806152,1
956,-6.456111431121826,-5.795531272888184,-11.108863830566406,-1.6303019523620605,-0.5853201746940613,1.1026709079742432,1
957,-4.756002426147461,-3.0917844772338867,-11.220219612121582,-1.5207388401031494,-0.6389535665512085,0.9947841167449951,1
958,-4.311794281005859,-4.5353240966796875,-11.637127876281738,-1.5739185810089111,-0.6750593185424805,0.8925418257713318,1
959,-0.8519864678382874,-2.89884352684021,-12.640460014343262,-1.472960352897644,-0.6828038096427917,0.7859249711036682,1
960,3.861056089401245,-4.898108959197998,-13.424074172973633,-1.298976182937622,-0.7775529623031616,0.6218656301498413,1
961,14.044503211975098,-15.568026542663574,-13.366564750671387,-1.2374358177185059,-0.7326048016548157,0.4897187054157257,1
962,27.484628677368164,-26.246829986572266,-12.880756378173828,-1.071262240409851,-0.6443831920623779,0.3366309404373169,1
963,36.67011260986328,-31.80984115600586,-12.175086975097656,-0.8898060917854309,-0.1773008555173874,0.2783828675746918,1
964,43.359619140625,-36.145816802978516,-10.876452445983887,-0.5336306691169739,0.19105762243270874,0.15308159589767456,1
965,41.95842742919922,-37.17808532714844,-8.623178482055664,-0.19149978458881378,0.6614103317260742,0.057667456567287445,1
966,29.6872615814209,-33.38876724243164,-7.269979953765869,0.0069031985476613045,1.1624606847763062,0.005710911471396685,1
967,13.905620574951172,-27.215099334716797,-6.308187484741211,0.38080283999443054,1.357728123664856,-0.09871672093868256,1
968,-2.3553500175476074,-12.077936172485352,-5.738748073577881,0.6279518008232117,1.4389878511428833,-0.1747875213623047,1
969,-13.574228286743164,2.2707393169403076,-3.933257579803467,0.8451521992683411,1.3408201932907104,-0.24663099646568298,1
970,-15.563377380371094,7.884613513946533,0.02713911049067974,0.518484890460968,0.9926000833511353,-0.3162976801395416,1
971,-10.82758903503418,13.106654167175293,4.338526725769043,0.3576306402683258,0.7169028520584106,-0.3286527693271637,1
972,-2.6641006469726562,8.748692512512207,7.027696132659912,0.20549863576889038,0.6147856116294861,-0.28335562348365784,1
973,7.7994794845581055,-0.35811764001846313,10.569920539855957,0.14869998395442963,0.6608743071556091,-0.20165258646011353,1
974,17.42140769958496,-10.175386428833008,13.07606029510498,0.17650394141674042,0.8045281171798706,-0.08982740342617035,1
975,14.960519790649414,-15.921018600463867,13.97568416595459,0.5120893120765686,1.081126093864441,0.06089174747467041,1
976,4.385676860809326,-16.864229202270508,14.40378475189209,0.6856152415275574,1.2013782262802124,0.19930458068847656,1
977,-7.179323673248291,-22.23111343383789,14.033628463745117,0.6427719593048096,1.0667986869812012,0.32119759917259216,1
978,-21.286420822143555,-20.289867401123047,10.666228294372559,0.8553081750869751,0.9622340202331543,0.4507567584514618,1
979,-24.70167350769043,-19.985454559326172,8.356511116027832,1.1873044967651367,0.5632891654968262,0.57579106092453,1
980,-20.279016494750977,-19.085573196411133,5.145979404449463,1.5046778917312622,0.29857492446899414,0.6689165234565735,1
981,-9.966760635375977,-17.896114349365234,1.8603745698928833,1.6357842683792114,0.0441562682390213,0.7148619294166565,1
982,-0.12420927733182907,-19.647153854370117,-2.482591390609741,1.7938801050186157,0.11751645058393478,0.7027310132980347,1
