,gyro.x,gyro.y,gyro.z,stabilizer.pitch,stabilizer.roll,stabilizer.yaw,label
0,-0.0999472588300705,-0.15592540800571442,0.029380137100815773,0.44821885228157043,0.8808714747428894,-0.037170249968767166,1
1,-0.027926906943321228,0.002343169180676341,0.052776992321014404,0.44449058175086975,0.9520727396011353,-0.037254706025123596,1
2,0.0645659789443016,0.026947053149342537,-0.06282693147659302,0.44066959619522095,0.9437198042869568,-0.036711275577545166,1
3,-0.02891056053340435,0.024596435949206352,-0.033995822072029114,0.4401453733444214,0.9432699680328369,-0.03715374693274498,1
4,-0.0048160795122385025,0.008984110318124294,0.07605936378240585,0.37420547008514404,0.8752061724662781,-0.036704324185848236,1
5,-0.018062083050608635,-0.060809146612882614,-0.058432117104530334,0.4502578377723694,0.9501954913139343,-0.03718457743525505,1
6,0.10849276930093765,0.0545259490609169,0.04801427200436592,0.45009109377861023,0.9492748975753784,-0.03747183829545975,1
7,0.04175104573369026,0.1012202575802803,0.030993089079856873,0.3823038637638092,0.8826059103012085,-0.03668610006570816,1
8,-0.05636683106422424,0.05491350218653679,0.019819263368844986,0.4565916061401367,0.9578877687454224,-0.03747802600264549,1
9,0.05869807302951813,0.05789896100759506,0.0025506659876555204,0.45050036907196045,0.9505112767219543,-0.03721422702074051,1
10,0.06531142443418503,-0.046231672167778015,-0.07942073047161102,0.44612663984298706,0.8828344941139221,-0.03714972361922264,1
11,-0.025685805827379227,0.018390515819191933,0.08313383162021637,0.38007983565330505,0.8320607542991638,-0.03687635809183121,1
12,-0.02953810803592205,0.018348008394241333,-0.07079361379146576,0.3932409882545471,0.8560116291046143,-0.036577556282281876,1
13,-0.027834175154566765,0.11537864059209824,-0.006015392020344734,0.4659937918186188,1.0007176399230957,-0.03806423023343086,1
14,-0.06308680027723312,0.07213536649942398,0.04841936379671097,0.45641615986824036,1.046434998512268,-0.038567136973142624,1
15,-0.0014045715797692537,0.07796710729598999,0.020058728754520416,0.44426867365837097,0.9946020841598511,-0.03804987668991089,1
16,0.045314688235521317,0.013310139067471027,-0.03727639466524124,0.37683436274528503,0.8516698479652405,-0.03721557557582855,1
17,0.02480960264801979,-0.07990788668394089,-0.11138412356376648,0.4527125954627991,0.9965749382972717,-0.037950851023197174,1
18,0.021922878921031952,-0.010680312290787697,0.0750093162059784,0.4477757513523102,0.9795301556587219,-0.038589004427194595,1
19,0.08740215003490448,-0.0858248770236969,0.07223474979400635,0.38030925393104553,0.8408620953559875,-0.03776684030890465,1
20,0.04289979487657547,-0.06058678403496742,-0.015023945830762386,0.39308568835258484,0.9264906644821167,-0.03717128932476044,1
21,-0.07187678664922714,0.03291673585772514,-0.012929022312164307,0.40283921360969543,0.928101122379303,-0.037322212010622025,1
22,0.0662795901298523,0.03316766768693924,0.03699112311005592,0.4100612998008728,0.8647343516349792,-0.03757701441645622,1
23,-0.010415337048470974,-0.0081475293263793,0.1016138568520546,0.415184885263443,0.9440540671348572,-0.03724716603755951,1
24,-0.10145306587219238,0.1196441799402237,0.020516568794846535,0.4822239875793457,0.9405676126480103,-0.03754879906773567,1
25,0.06903549283742905,0.09471973776817322,-0.05822988227009773,0.4679933190345764,0.9364789724349976,-0.03708731755614281,1
26,0.025759531185030937,-0.004500370938330889,-0.036862052977085114,0.3938347101211548,0.8722248077392578,-0.03648170828819275,1
27,-0.04625630006194115,0.11783041805028915,-0.03269953280687332,0.40228548645973206,0.8866711258888245,-0.03649093955755234,1
28,0.05363427847623825,-0.07004943490028381,0.101039819419384,0.4076022207736969,0.8969069719314575,-0.03649287670850754,1
29,0.04270052909851074,0.030812494456768036,0.11673131585121155,0.4132362902164459,0.9058284163475037,-0.035723235458135605,1
30,0.003635219531133771,0.05498572066426277,-0.011868208646774292,0.41702279448509216,0.9132171869277954,-0.03475925326347351,1
31,0.08064312487840652,0.05902048572897911,0.04963704198598862,0.4160490930080414,0.9127521514892578,-0.034594714641571045,1
32,0.05202840268611908,0.027813974767923355,0.08148161321878433,0.41525691747665405,0.9125837683677673,-0.03440657630562782,1
33,-0.00757539551705122,0.05327114090323448,-0.004777826834470034,0.4165125787258148,0.9789433479309082,-0.033812470734119415,1
34,0.032171837985515594,0.058968622237443924,0.061524104326963425,0.4171541929244995,0.9022592902183533,-0.033614981919527054,1
35,-0.05974610522389412,-0.03368028998374939,-0.028952086344361305,0.41751828789711,0.9700813889503479,-0.033629320561885834,1
36,0.008044726215302944,0.01424227561801672,0.016917547211050987,0.4191059470176697,0.9574187397956848,-0.033238913863897324,1
37,-0.05994001030921936,-0.09694027900695801,-0.0211168322712183,0.48327597975730896,0.9488869905471802,-0.033698175102472305,1
38,-0.0995369479060173,-0.14004291594028473,0.024413535371422768,0.4067964255809784,0.8780658841133118,-0.03314051777124405,1
39,-0.0004173468623775989,0.03496933728456497,0.00496502174064517,0.47526219487190247,0.9505794644355774,-0.033971525728702545,1
40,0.0666620284318924,-0.008632122538983822,0.023648416623473167,0.4622236490249634,0.9426013827323914,-0.03401815891265869,1
41,-0.08514593541622162,0.05947038158774376,-0.08943107724189758,0.3895553648471832,0.8742359280586243,-0.03315231204032898,1
42,-0.002189680002629757,-0.06572699546813965,-0.030859336256980896,0.3970690667629242,0.6949286460876465,-0.03347492963075638,1
43,0.003440484404563904,0.09945371001958847,0.03064730577170849,0.46705150604248047,1.0014798641204834,-0.03593757376074791,1
44,-0.02441832236945629,0.0022778331767767668,0.00027339847292751074,0.45543527603149414,0.9813480973243713,-0.035576142370700836,1
45,0.03563714772462845,0.05420853570103645,0.020875969901680946,0.38450270891189575,0.9023853540420532,-0.03446583449840546,1
46,0.07051307708024979,0.1951899230480194,0.003817210206761956,0.3935805857181549,0.9063856601715088,-0.034228987991809845,1
47,0.034084320068359375,-0.017552891746163368,-0.003066406352445483,0.39886555075645447,0.9733567833900452,-0.03432091698050499,1
48,0.06835604459047318,0.00710339704528451,-0.11597870290279388,0.46721532940864563,0.9602764248847961,-0.03519049659371376,1
49,0.11182207614183426,-0.0074818329885602,-0.018721092492341995,0.45566263794898987,0.9504286646842957,-0.03572986647486687,1
50,-0.006868231110274792,0.012422499246895313,-0.07234636694192886,0.44709512591362,0.943842887878418,-0.036271702498197556,1
51,0.07492479681968689,0.039659883826971054,-0.026058001443743706,0.440560907125473,0.9381550550460815,-0.036701325327157974,1
52,0.052914101630449295,-0.04085807502269745,-0.08543465286493301,0.3725124001502991,0.8712714314460754,-0.036153171211481094,1
53,-0.057599473744630814,0.049364056438207626,-0.03537336736917496,0.38499003648757935,0.8209705352783203,-0.0369560532271862,1
54,-0.019685527309775352,-0.017523057758808136,-0.04879779741168022,0.3937813639640808,0.9713774919509888,-0.03747100755572319,1
55,0.06853725761175156,0.07479870319366455,0.0228139478713274,0.40143126249313354,0.769959568977356,-0.03853306174278259,1
56,-0.050705961883068085,-0.09371375292539597,0.043570272624492645,0.46935775876045227,0.9971152544021606,-0.039092209190130234,1
57,0.07038814574480057,-0.06790986657142639,0.03307468444108963,0.4590495228767395,0.9789733290672302,-0.03858615458011627,1
58,0.04370366409420967,-0.055723924189805984,0.09669845551252365,0.38829654455184937,0.9026668667793274,-0.03739529103040695,1
59,-0.07012541592121124,-0.019914284348487854,-0.05399998277425766,0.39837169647216797,1.0336501598358154,-0.03711570426821709,1
60,-0.11606493592262268,-0.03688806667923927,-0.04076061770319939,0.4681706428527832,1.00534987449646,-0.03806811943650246,1
61,-0.0949113667011261,0.043187256902456284,-0.11899000406265259,0.4578036069869995,0.9825257658958435,-0.03819699212908745,1
62,0.04282649606466293,-0.004121992737054825,0.03434913977980614,0.4487416446208954,0.9648407697677612,-0.03908047080039978,1
63,-0.0775303915143013,0.01345879677683115,-0.09526512026786804,0.37930765748023987,0.8265745639801025,-0.03885277733206749,1
64,-0.06639718264341354,0.00295370165258646,-0.0569518506526947,0.38950780034065247,0.8470823764801025,-0.03957343474030495,1
65,-0.006797499023377895,0.06298961490392685,-0.11414075642824173,0.39736995100975037,0.799592137336731,-0.0400189533829689,1
66,0.008773930370807648,-0.02544955164194107,-0.11250409483909607,0.4029805064201355,1.016920566558838,-0.04074966162443161,1
67,-0.022229298949241638,-0.025221608579158783,0.06269076466560364,0.4712366461753845,0.9921404123306274,-0.04287158325314522,1
68,-0.022459596395492554,0.14062665402889252,0.020295938476920128,0.4599930942058563,0.972634494304657,-0.0423663854598999,1
69,-0.03351229429244995,-0.013793584890663624,0.07463362067937851,0.38697078824043274,0.8313918709754944,-0.04141369089484215,1
70,-0.08320439606904984,-0.02250063419342041,-0.10099860280752182,0.3959466814994812,0.8509313464164734,-0.04123663529753685,1
71,-0.019895531237125397,0.10418903082609177,0.016597401350736618,0.46500441431999207,0.9287804961204529,-0.043107133358716965,1
72,0.04823602735996246,-0.0045957076363265514,0.08691363781690598,0.45253491401672363,0.9254574179649353,-0.04255256801843643,1
73,-0.00272809574380517,-0.0947130098938942,-0.01221255399286747,0.44434854388237,0.923062264919281,-0.04201336205005646,1
74,0.10277514904737473,-0.06491129100322723,-0.005437975283712149,0.4390231668949127,0.9842191934585571,-0.04273247346282005,1
75,0.03963414207100868,-0.06612466275691986,0.004941214807331562,0.43445640802383423,0.968650758266449,-0.04286344349384308,1
76,0.007631732616573572,0.041394416242837906,0.0017748706741258502,0.4315507709980011,0.956178605556488,-0.0426616333425045,1
77,0.0545748732984066,0.000492691935505718,-0.0380152091383934,0.36437052488327026,0.8195043802261353,-0.041700784116983414,1
78,-0.049440521746873856,-0.04632939025759697,0.015073422342538834,0.37775176763534546,0.9065195322036743,-0.04194336012005806,1
79,0.04630467668175697,-0.037650976330041885,0.030324650928378105,0.38865017890930176,0.8449119925498962,-0.04248408228158951,1
80,0.0247026514261961,-0.0054968879558146,0.016717126592993736,0.3977067172527313,0.7991330623626709,-0.04248705133795738,1
81,-0.059708330780267715,-0.055184345692396164,0.06639563292264938,0.5304713249206543,0.9541340470314026,-0.04503227025270462,1
82,0.046691495925188065,-0.05924779549241066,-0.0718626007437706,0.5047838687896729,0.9438312649726868,-0.04366394877433777,1
83,-0.0882474035024643,0.014524831436574459,0.003829071531072259,0.3584449887275696,0.9368261098861694,-0.042106594890356064,1
84,0.050303347408771515,-0.060508452355861664,-0.044729627668857574,0.3727652430534363,0.8673037886619568,-0.04200660437345505,1
85,0.0029242723248898983,0.12309271842241287,-0.036041319370269775,0.3841453194618225,0.8786590695381165,-0.04298698529601097,1
86,-0.0644761398434639,-0.047780316323041916,-0.05342966690659523,0.39105451107025146,0.9501883387565613,-0.04308353736996651,1
87,0.04426472634077072,0.015294515527784824,-0.04474791884422302,0.3981890380382538,0.8776441216468811,-0.043548598885536194,1
88,0.060701265931129456,-0.012430097907781601,0.0011130250059068203,0.40333348512649536,0.9497259855270386,-0.0433771051466465,1
89,-0.020250443369150162,0.015019325539469719,0.07061652839183807,0.4710460603237152,0.941033661365509,-0.04420437291264534,1
90,0.06844455748796463,-0.007411056663841009,-0.04881396144628525,0.4589400887489319,0.9336056709289551,-0.04352334514260292,1
91,-0.05931217223405838,0.06624481827020645,-0.003958500921726227,0.3864626884460449,0.8028222918510437,-0.042831216007471085,1
92,0.10126755386590958,-0.06744609773159027,-0.037859171628952026,0.39370280504226685,0.9555390477180481,-0.04330984875559807,1
93,0.056307580322027206,0.04773972928524017,-0.017642967402935028,0.40052714943885803,0.8203145265579224,-0.04369523376226425,1
94,-0.0728568434715271,0.025579454377293587,0.02717580646276474,0.4046138823032379,0.8439918160438538,-0.04402432590723038,1
95,-0.07547607272863388,0.014026166871190071,0.10203248262405396,0.40834537148475647,0.7977919578552246,-0.04410400614142418,1
96,-0.00023837956541683525,-0.01192039716988802,-0.05392192304134369,0.4743627905845642,1.015720009803772,-0.04504309222102165,1
97,0.047776442021131516,0.020241547375917435,-0.008884098380804062,0.4613388478755951,0.9927506446838379,-0.04520876333117485,1
98,0.03985273465514183,-0.09477327018976212,0.07049277424812317,0.45103588700294495,0.9757062196731567,-0.04477464035153389,1
99,-0.07962612062692642,0.028563860803842545,-0.03425544127821922,0.4446548819541931,0.9625020027160645,-0.044489387422800064,1
100,-0.09425416588783264,0.006927573587745428,-0.03632444143295288,0.37527960538864136,0.8875651955604553,-0.04415591433644295,1
101,-0.07675611227750778,-0.023244138807058334,0.1182113066315651,0.38657498359680176,0.9575047492980957,-0.04467418044805527,1
102,0.11069564521312714,-0.0260769035667181,-0.08109265565872192,0.39574187994003296,0.9478447437286377,-0.04404779523611069,1
103,-0.017691638320684433,0.0673680528998375,0.10227344930171967,0.4028543531894684,0.6901211142539978,-0.04474562779068947,1
104,-0.025655314326286316,-0.11094683408737183,-0.051101863384246826,0.470786452293396,0.9988727569580078,-0.045100145041942596,1
105,-0.11349210888147354,0.11350845545530319,0.04861295595765114,0.39772146940231323,0.9801474809646606,-0.04435084015130997,1
106,0.02407986670732498,0.0700419470667839,-0.03213079273700714,0.403251975774765,0.9015774726867676,-0.04392857849597931,1
107,0.05768929794430733,-0.05927165225148201,-0.025918863713741302,0.4073216915130615,0.9697344899177551,-0.04416215792298317,1
108,-0.0034287984017282724,-0.039474308490753174,0.06541666388511658,0.4118478000164032,0.9587461352348328,-0.04408065602183342,1
109,0.01394703146070242,0.006927290931344032,-0.026936767622828484,0.4154932498931885,0.8864566683769226,-0.043416596949100494,1
110,-0.010556591674685478,-0.040288228541612625,-0.01827292889356613,0.41756290197372437,0.8948505520820618,-0.04330535978078842,1
111,0.017000960186123848,0.07606663554906845,0.0013503587106242776,0.42035815119743347,0.9647502899169922,-0.04363493248820305,1
112,0.06811472028493881,-0.027663247659802437,0.12343184649944305,0.42129528522491455,0.9551585912704468,-0.0435003936290741,1
113,-0.10005093365907669,0.10338738560676575,-0.062186431139707565,0.4226917326450348,0.8846737742424011,-0.04231986030936241,1
114,-0.01195099949836731,0.028995051980018616,0.10168702900409698,0.42305874824523926,0.9560966491699219,-0.04252117872238159,1
115,0.027214718982577324,-0.059282250702381134,-0.07568594813346863,0.42432701587677,0.884501576423645,-0.04167351871728897,1
116,-0.054765734821558,-0.048867229372262955,0.04169056564569473,0.4261474907398224,0.8938503861427307,-0.04202372208237648,1
117,-0.06177724152803421,-0.024216923862695694,-0.020583098754286766,0.4276670217514038,0.9634873270988464,-0.04196103289723396,1
118,0.1219528317451477,-0.04013941437005997,0.030036861076951027,0.4920351803302765,0.9526064395904541,-0.04230988398194313,1
119,0.024659227579832077,-0.021422596648335457,0.020297298207879066,0.41479381918907166,0.7572562098503113,-0.040110234171152115,1
120,-0.016677124425768852,-0.0055845375172793865,-0.05303872749209404,0.4825851619243622,1.050713062286377,-0.04274303466081619,1
121,-0.11396442353725433,0.03622031956911087,0.03478473052382469,0.47013428807258606,1.019432544708252,-0.042330168187618256,1
122,-0.05553407222032547,-0.038610488176345825,0.023110484704375267,0.39702850580215454,0.9936736822128296,-0.04137740656733513,1
123,0.026313429698348045,-0.10934222489595413,-0.024384908378124237,0.46895691752433777,0.9743155241012573,-0.041079357266426086,1
124,0.007488051895052195,0.0593009777367115,0.03601757436990738,0.4610624611377716,0.9603174924850464,-0.041152581572532654,1
125,-0.060973040759563446,0.02580958418548107,-0.0920042097568512,0.39042291045188904,0.8230445384979248,-0.039872583001852036,1
126,0.02175060845911503,-0.04787297546863556,-0.005892681889235973,0.4632250666618347,0.9079399704933167,-0.041504036635160446,1
127,0.028954006731510162,0.05961086228489876,-0.045075979083776474,0.45619726181030273,0.909654974937439,-0.04135431349277496,1
128,0.1172214224934578,-0.1807554066181183,-0.12251092493534088,0.38657769560813904,0.8484033346176147,-0.040381114929914474,1
129,-0.13624656200408936,-0.012134648859500885,0.07982891798019409,0.3994022011756897,0.9296522736549377,-0.041802484542131424,1
130,-0.06649626791477203,0.0335906445980072,-0.10136570036411285,0.40773290395736694,0.9251300692558289,-0.041650716215372086,1
131,-0.10837070643901825,0.05221664905548096,-0.025955261662602425,0.413451224565506,0.8591383695602417,-0.042384542524814606,1
132,-0.11938809603452682,-0.07863724231719971,-0.027364665642380714,0.41788265109062195,0.9344335198402405,-0.042772796005010605,1
133,-0.10218711197376251,0.012250795029103756,0.018901024013757706,0.4223790764808655,0.8654839992523193,-0.04287723824381828,1
134,-0.07993105053901672,0.04910483956336975,0.04241489991545677,0.42487043142318726,0.9393715262413025,-0.04272080212831497,1
135,0.023322582244873047,-0.003987328615039587,-0.00803242065012455,0.42625024914741516,0.9321603775024414,-0.04251014441251755,1
136,0.03191593289375305,0.024278884753584862,-7.031784480204806e-05,0.4270242750644684,0.801690399646759,-0.04219527542591095,1
137,-0.038831837475299835,0.023505527526140213,-0.04207739233970642,0.490476131439209,0.9770140051841736,-0.04370078071951866,1
138,0.0027019164990633726,0.12403500825166702,0.015766439959406853,0.47495004534721375,0.9619919657707214,-0.04375757277011871,1
139,0.15579964220523834,0.05250246077775955,-0.028607681393623352,0.46183592081069946,0.9509068727493286,-0.04344310238957405,1
140,0.013362240977585316,-0.0024524519685655832,-0.018051043152809143,0.4525448977947235,0.9442535638809204,-0.043663378804922104,1
141,0.040110666304826736,0.013524842448532581,-0.07899682223796844,0.38297131657600403,0.8746199607849121,-0.04272201657295227,1
142,-0.061650682240724564,0.03575337305665016,0.009726441465318203,0.39360183477401733,0.8854993581771851,-0.04340962693095207,1
143,-0.0327366478741169,-0.04813066124916077,0.09296807646751404,0.40133050084114075,0.8930787444114685,-0.04332040622830391,1
144,-0.06912966072559357,0.08572790771722794,-0.1351432353258133,0.4711460471153259,0.96245276927948,-0.04333408921957016,1
145,0.05979882925748825,0.05856490135192871,-0.033399224281311035,0.3963678479194641,0.8880540728569031,-0.04283630847930908,1
146,0.06202128157019615,-0.02150385081768036,-0.024862093850970268,0.46572181582450867,0.9593053460121155,-0.044337473809719086,1
147,0.10439933836460114,0.009069224819540977,-0.042887136340141296,0.4557255506515503,0.9498586654663086,-0.04418196156620979,1
148,0.11158639937639236,0.06258834153413773,-0.047593362629413605,0.44841471314430237,0.9432075619697571,-0.044189468026161194,1
149,0.058251142501831055,0.03527653217315674,0.0471302829682827,0.4416756331920624,0.9382259249687195,-0.04445194825530052,1
150,0.06184844672679901,-0.017376039177179337,0.07413063943386078,0.43657979369163513,0.9966798424720764,-0.04431678727269173,1
151,-0.04553339630365372,-0.03321056067943573,-0.09309423714876175,0.4333863854408264,0.9774681329727173,-0.04340492933988571,1
152,-0.05603308975696564,0.0393628291785717,0.030897440388798714,0.43108105659484863,0.9620916247367859,-0.04365520179271698,1
153,-0.06911086291074753,0.031671252101659775,-0.019094860181212425,0.3662910759449005,0.8236665725708008,-0.042658448219299316,1
154,-0.08188530802726746,0.021390996873378754,-0.09373928606510162,0.44312310218811035,0.908358633518219,-0.04354037344455719,1
155,0.009680474177002907,-0.11197187006473541,-0.07387158274650574,0.3747345805168152,0.8461348414421082,-0.04317864775657654,1
156,-0.1267346739768982,0.12447625398635864,0.0671624094247818,0.38792213797569275,0.9261735081672668,-0.043853022158145905,1
157,0.09284422546625137,-0.17323610186576843,-0.06065429747104645,0.39544352889060974,0.8589326739311218,-0.043713316321372986,1
158,0.05894288420677185,0.13834893703460693,0.09431219846010208,0.40408435463905334,0.9366621971130371,-0.04392913356423378,1
159,-0.009574725292623043,0.01592334732413292,0.054972026497125626,0.4711414575576782,0.9327132701873779,-0.044355884194374084,1
160,-0.022858690470457077,-0.01232806034386158,0.05532192811369896,0.39640504121780396,0.8656443357467651,-0.04280185326933861,1
161,0.07255551964044571,-0.0353342741727829,-0.09673704206943512,0.4663809835910797,0.9409011006355286,-0.0433497354388237,1
162,-0.01585599221289158,0.013089007697999477,-0.05705713480710983,0.4564893841743469,0.9354787468910217,-0.04383990541100502,1
163,0.04879041388630867,-0.03172289952635765,0.004405254032462835,0.0,0.0,0.0,1
164,-0.023076994344592094,0.029538840055465698,0.008758113719522953,0.003904264187440276,0.10458380728960037,-0.0001389418466715142,1
165,0.019475756213068962,0.01487712748348713,-0.005351554602384567,0.014527696184813976,-0.311052531003952,0.00018344442651141435,1
166,0.040224090218544006,0.061375346034765244,0.08125364780426025,0.0354953370988369,0.14568574726581573,-0.0004943646490573883,1
167,0.04774335026741028,-0.10941973328590393,0.07841859012842178,0.542770266532898,0.052930258214473724,-0.0003250797453802079,1
168,-0.09076105803251266,-0.004805549047887325,-0.08532056957483292,-0.14993475377559662,0.019230857491493225,0.00021244205709081143,1
169,-0.009322828613221645,0.007429701276123524,-0.0389430858194828,0.4910801649093628,0.02451099455356598,0.000551641162019223,1
170,-0.07960301637649536,-0.02079785242676735,-0.008193662390112877,-0.1738509237766266,-0.4736584424972534,0.00011359323980286717,1
171,0.059626150876283646,-0.06585806608200073,0.05049849674105644,-0.06155790388584137,-0.22301968932151794,0.0003696155617944896,1
172,0.08536288142204285,0.05664877966046333,0.039844486862421036,0.028368735685944557,-0.023384738713502884,0.0006496439455077052,1
173,0.019423028454184532,-0.02111927606165409,0.007335816044360399,0.09567677229642868,0.1322752684354782,0.0008332774741575122,1
174,0.0926930233836174,-0.0073701124638319016,0.01892789639532566,0.15095260739326477,0.2544466257095337,0.0007486363756470382,1
175,-0.03407298028469086,-0.0542382076382637,0.004398235585540533,0.1937093734741211,0.7316422462463379,0.0001708117633825168,1
176,-0.05459250137209892,-0.05166567489504814,0.005565114319324493,0.2269023358821869,0.33561959862709045,0.0018551595276221633,1
177,0.02411581575870514,0.046684037894010544,0.12259579449892044,0.2559243440628052,0.7458804845809937,0.00032968155574053526,1
178,0.12149208784103394,0.003653948428109288,-0.03144247829914093,0.2755294442176819,0.4186728000640869,0.002891617128625512,1
179,-0.01622793823480606,0.021269144490361214,-0.022315386682748795,0.5702104568481445,0.7746175527572632,0.0020752607379108667,1
180,0.06893152743577957,-0.04020214080810547,0.003630097256973386,0.24200956523418427,0.23004089295864105,0.004439639393240213,1
181,0.06310175359249115,0.04495956748723984,0.011099924333393574,0.2721590995788574,0.3690911531448364,0.0033016749657690525,1
182,0.00034726038575172424,0.008338427171111107,-0.018186884000897408,0.2925509810447693,0.9276998043060303,-0.0019251485355198383,1
183,0.07395316660404205,-0.039365075528621674,0.012641383334994316,0.3105630874633789,0.6592733263969421,0.0007543402025476098,1
184,0.017522668465971947,-0.087735615670681,0.09127248823642731,0.5301932692527771,0.8901193141937256,0.0011856543133035302,1
185,-0.019016705453395844,0.024416537955403328,-0.021273229271173477,0.293622225522995,0.46949735283851624,0.0035802582278847694,1
186,-0.0030811941251158714,-0.01826564595103264,-0.005700657144188881,0.49810075759887695,0.9182984828948975,0.0008635501726530492,1
187,-0.02044815756380558,0.0885450467467308,0.020971739664673805,0.4645514488220215,1.0560460090637207,-0.002112030051648617,1
188,-0.09916870296001434,0.00547713553532958,0.03848082572221756,0.27213209867477417,0.647321343421936,3.7767993489978835e-05,1
189,0.028662240132689476,-0.024328382685780525,0.056009020656347275,0.3244694173336029,0.7136067152023315,0.0011175157269462943,1
190,-0.08227469772100449,0.06424388289451599,-0.011051245965063572,0.3416878581047058,0.7382925748825073,0.0015429637860506773,1
191,0.027567358687520027,0.01604500226676464,0.053750865161418915,0.35375574231147766,0.6140410304069519,0.003181761596351862,1
192,-0.010546286590397358,-0.03273283317685127,-0.008860533125698566,0.3638908267021179,0.6684160828590393,0.002686401829123497,1
193,-0.024019282311201096,-0.019933614879846573,-0.019724415615200996,0.5068321824073792,0.976267397403717,0.0010165171697735786,1
194,-0.10728088766336441,-0.004508351907134056,-0.03427736833691597,0.3500571846961975,0.8069900870323181,0.00016097103070933372,1
195,0.06470513343811035,-0.023186514154076576,-0.10386107116937637,0.36403021216392517,0.8113237023353577,0.0003497733559925109,1
196,0.07095152884721756,0.05496819689869881,0.017081797122955322,0.3756355941295624,0.8175564408302307,-0.0005876460927538574,1
197,0.04787462204694748,0.06484740227460861,-0.09272798895835876,0.5022592544555664,0.9424250721931458,0.0004535588377621025,1
198,0.0743599683046341,0.007968934252858162,-0.04461836814880371,0.4765874743461609,0.9166767597198486,-0.0005352800362743437,1
199,0.06328179687261581,-0.07190769910812378,-0.043030839413404465,0.3462243676185608,0.7858180999755859,-0.0023236465640366077,1
200,-0.03907883167266846,-0.012590612284839153,-0.01298916433006525,0.3638942539691925,0.8025463223457336,-0.002583722583949566,1
201,-0.020356258377432823,0.0379476472735405,-0.008985678665339947,0.48431989550590515,0.9226914644241333,-0.0018018324626609683,1
202,0.0042757089249789715,0.018148187547922134,-0.054127007722854614,0.465669721364975,0.9047552943229675,-0.0021189304534345865,1
203,0.046997394412755966,0.03176657482981682,-0.07952602952718735,0.34860342741012573,0.5812045931816101,-7.815479330020025e-05,1
204,0.04985731467604637,0.013795647770166397,-0.06779264658689499,0.36465391516685486,0.7531618475914001,-0.0030044286977499723,1
205,0.01651727966964245,-0.09615566581487656,-0.008199450559914112,0.37710055708885193,0.7815099954605103,-0.003477020189166069,1
206,-0.026881441473960876,0.034853771328926086,-0.03966722637414932,0.38744911551475525,0.9982439279556274,-0.006862659938633442,1
207,0.023181669414043427,-0.061728134751319885,-0.011080484837293625,0.4900389313697815,0.9645010828971863,-0.003908575512468815,1
208,-0.18209463357925415,0.23182892799377441,0.30073216557502747,0.4721401631832123,0.9402109980583191,-0.004409025888890028,1
209,0.9267385601997375,-0.18889951705932617,-0.7431666851043701,0.45328089594841003,0.9143256545066833,-0.0036183574702590704,1
210,0.33499452471733093,-0.6688350439071655,-0.3649047315120697,0.3473040759563446,0.8083131909370422,-0.004433542490005493,1
211,1.1329106092453003,0.1069289818406105,-1.048903226852417,0.36640945076942444,0.8131538033485413,-0.007719734217971563,1
212,1.5034669637680054,-1.4815977811813354,1.2305997610092163,0.45665472745895386,0.9083793759346008,-0.008776681497693062,1
213,-1.7649489641189575,0.3071689307689667,0.9787166118621826,0.44685059785842896,0.889122724533081,-0.00806970614939928,1
214,0.1117786169052124,0.6566648483276367,-2.1244852542877197,0.4202694296836853,0.8441678285598755,-0.013204789720475674,1
215,1.4036332368850708,-1.5064505338668823,1.2460203170776367,0.40723952651023865,0.8153515458106995,-0.010766844265162945,1
216,-1.5551280975341797,3.0243797302246094,-2.5572662353515625,0.4136427044868469,0.7180402874946594,-0.009151513688266277,1
217,-7.593100547790527,8.507808685302734,-5.894444942474365,0.5370460152626038,0.6119077205657959,-0.009930788539350033,1
218,-7.55950927734375,9.321473121643066,-3.1755270957946777,0.38001522421836853,0.6734145283699036,-0.05689499154686928,1
219,-13.70688247680664,14.927738189697266,-8.596616744995117,0.6196666359901428,0.5963072776794434,-0.08742725849151611,1
220,-8.006356239318848,9.81021499633789,-11.283342361450195,0.36680129170417786,0.5896673202514648,-0.1588117927312851,1
221,5.589975357055664,-0.6996829509735107,-3.8823249340057373,0.747883677482605,0.9429014921188354,-0.2796112895011902,1
222,-0.9691809415817261,-2.0105395317077637,1.763423204421997,0.7868544459342957,0.9982390403747559,-0.3454546332359314,1
223,-1.2857751846313477,1.6067719459533691,1.537880301475525,0.753287136554718,0.8926659226417542,-0.330868124961853,1
224,-6.665707588195801,-3.3900234699249268,-0.3272401690483093,0.5942798852920532,0.8948153853416443,-0.31691861152648926,1
225,10.69698429107666,-4.310938835144043,1.883952260017395,1.4594457149505615,1.0139554738998413,-0.30427661538124084,1
226,-9.425175666809082,2.3311569690704346,3.524512529373169,1.2471574544906616,0.9150201082229614,-0.29047098755836487,1
227,-5.298365116119385,8.998174667358398,5.970319747924805,1.6663668155670166,0.8268860578536987,-0.2421269714832306,1
228,7.905978679656982,8.89655590057373,10.702034950256348,1.5003671646118164,0.8548098206520081,-0.2107546180486679,1
229,-18.738080978393555,38.48222732543945,10.287336349487305,1.5928539037704468,0.7701401114463806,-0.0815635472536087,1
230,-0.18717986345291138,17.71377182006836,8.26636791229248,2.41728138923645,0.5684651136398315,0.057895928621292114,1
231,-14.720632553100586,38.82649230957031,8.053314208984375,1.9293742179870605,0.4420834481716156,0.17171791195869446,1
232,-3.1302196979522705,40.5560417175293,4.93560791015625,2.234342575073242,0.07016343623399734,0.29956328868865967,1
233,-10.223740577697754,58.67361831665039,4.387106895446777,1.4989646673202515,0.32110512256622314,0.3038628399372101,1
234,-9.94365406036377,56.660850524902344,1.0404406785964966,1.6650612354278564,0.6119264960289001,0.2403935045003891,1
235,-24.581806182861328,70.00686645507812,1.9602774381637573,0.8388360142707825,0.5318148732185364,0.274824321269989,1
236,-31.57471466064453,65.46987915039062,2.931015729904175,0.6660028696060181,0.4132067561149597,0.26518845558166504,1
237,-38.09830093383789,65.29243469238281,5.111130237579346,-0.41081055998802185,0.04114040359854698,0.31851208209991455,1
238,-38.188533782958984,66.5150146484375,6.778168678283691,-1.3673315048217773,-0.22377505898475647,0.3707742691040039,1
239,-37.65024185180664,67.99891662597656,8.431402206420898,-2.8446125984191895,-0.8130586743354797,0.46736854314804077,1
240,-34.933162689208984,56.77827072143555,9.215278625488281,-3.4505152702331543,-1.1997120380401611,0.5274002552032471,1
241,-29.846553802490234,43.52762222290039,7.212971210479736,-4.566827774047852,-1.9240716695785522,0.5544212460517883,1
242,-16.186933517456055,26.13490104675293,6.360249042510986,-5.5102972984313965,-2.17802095413208,0.7234333157539368,1
243,0.14248915016651154,1.8450896739959717,4.7460784912109375,-6.45095157623291,-3.324211597442627,0.3757418096065521,1
244,17.98111343383789,-26.838823318481445,6.2637200355529785,-6.281308650970459,-4.187254428863525,-0.23221351206302643,1
245,39.45509338378906,-52.6849250793457,7.628981113433838,-6.805240631103516,-3.5834662914276123,0.47104236483573914,1
246,56.24161911010742,-65.04198455810547,6.333869457244873,-7.387449264526367,-3.7952542304992676,0.4913598299026489,1
247,66.97046661376953,-67.67327117919922,5.679701328277588,-7.082091331481934,-3.1221811771392822,0.8567723035812378,1
248,71.2980728149414,-68.13701629638672,3.9461772441864014,-7.488811016082764,-2.8231804370880127,1.0484822988510132,1
249,64.91842651367188,-71.61943054199219,3.8020150661468506,-7.441006660461426,-2.4762325286865234,1.0459564924240112,1
250,54.03154373168945,-72.21487426757812,6.265769004821777,-7.189378261566162,-2.4246163368225098,0.657868504524231,1
251,42.707557678222656,-63.75331115722656,8.969644546508789,-7.722711086273193,-2.6180272102355957,0.4387471377849579,1
252,36.734622955322266,-59.487213134765625,9.279651641845703,-7.040632247924805,-1.9054237604141235,0.8073660731315613,1
253,30.413171768188477,-64.73577117919922,8.481978416442871,-7.209712505340576,-1.785101294517517,0.8610780835151672,1
254,26.3643856048584,-78.93094635009766,9.144163131713867,-7.387427806854248,-1.8443303108215332,0.8692018985748291,1
255,20.581037521362305,-84.0691146850586,10.567718505859375,-8.051307678222656,-2.0518784523010254,0.9248151183128357,1
256,15.494562149047852,-86.62846374511719,11.534730911254883,-6.970911026000977,-1.7753826379776,1.0295475721359253,1
257,16.768352508544922,-90.29545593261719,12.287466049194336,-6.645407199859619,-1.9058949947357178,0.9795305132865906,1
258,20.864662170410156,-95.6114501953125,13.23397445678711,-5.210981845855713,-1.5050243139266968,1.2202454805374146,1
259,25.83913803100586,-93.1300277709961,13.550609588623047,-3.990640163421631,-1.4596202373504639,1.1514641046524048,1
260,30.47722816467285,-82.61304473876953,13.478915214538574,-2.5205087661743164,-0.8199021220207214,1.485692024230957,1
261,31.335983276367188,-72.5901107788086,13.250632286071777,-1.4794673919677734,-0.49994996190071106,1.605331301689148,1
262,25.318923950195312,-63.478763580322266,12.400304794311523,-0.16675394773483276,0.2993246912956238,1.8745254278182983,1
263,14.494575500488281,-50.91867446899414,12.569377899169922,0.9981896281242371,0.6378288865089417,1.959606409072876,1
264,-1.5136826038360596,-33.24846649169922,12.377131462097168,1.4144328832626343,1.026955246925354,2.1048531532287598,1
265,-15.780242919921875,-13.305959701538086,10.439911842346191,1.990716814994812,1.1087404489517212,2.2231993675231934,1
266,-20.8233642578125,7.939910888671875,9.673684120178223,2.38836407661438,1.0147892236709595,2.336312770843506,1
267,-23.889259338378906,21.852537155151367,7.987887859344482,2.580563545227051,1.001566767692566,2.399775505065918,1
268,-26.838502883911133,30.209516525268555,7.349560260772705,2.392096519470215,1.1985993385314941,2.306535005569458,1
269,-30.27395248413086,33.6205940246582,6.000020503997803,2.1025607585906982,0.9706974625587463,2.366182327270508,1
270,-30.58774185180664,28.969764709472656,3.2520456314086914,1.8869024515151978,0.49131056666374207,2.5471723079681396,1
271,-29.825040817260742,18.722980499267578,0.8380172252655029,1.5117712020874023,-0.155338317155838,2.754176616668701,1
272,-18.53339385986328,4.398403644561768,-1.7175835371017456,1.5369230508804321,-0.12434608489274979,2.6179332733154297,1
273,-3.8539113998413086,-7.720282554626465,-2.1244468688964844,1.7383028268814087,-0.41381189227104187,2.67014479637146,1
274,14.253388404846191,-13.049168586730957,-2.0430431365966797,1.8604847192764282,-0.3073449432849884,2.5632612705230713,1
275,26.713035583496094,-10.04440975189209,-1.047791838645935,2.1075096130371094,-0.161037415266037,2.5273983478546143,1
276,28.46782112121582,1.1345667839050293,1.6164991855621338,2.3866257667541504,0.10558485239744186,2.512057304382324,1
277,19.71157455444336,13.595084190368652,2.7788426876068115,2.7616536617279053,0.39534226059913635,2.534787654876709,1
278,4.788497447967529,25.566801071166992,2.1732382774353027,2.4353654384613037,0.6419421434402466,2.5286061763763428,1
279,-15.827259063720703,33.88642883300781,2.928548812866211,2.58231782913208,0.6421607732772827,2.6346700191497803,1
280,-31.86174201965332,41.76459884643555,4.6164960861206055,2.122122049331665,0.4827061891555786,2.675891876220703,1
281,-40.80863952636719,41.15816879272461,6.334110260009766,1.8026413917541504,0.1910373419523239,2.7328906059265137,1
282,-45.5053596496582,37.21126174926758,5.751465320587158,1.5234050750732422,-0.3817521631717682,2.9026429653167725,1
283,-41.56645202636719,31.395986557006836,4.25166654586792,1.5540032386779785,-0.598724901676178,2.869004249572754,1
284,-31.770322799682617,26.820175170898438,2.584160804748535,1.0860189199447632,-0.9972737431526184,2.891240358352661,1
285,-15.970094680786133,25.442825317382812,2.668055534362793,0.8414442539215088,-1.4462385177612305,2.961183547973633,1
286,1.8591790199279785,24.67984962463379,1.1107443571090698,0.9938496947288513,-1.370111346244812,2.851773738861084,1
287,12.46059799194336,29.944257736206055,0.8080273866653442,0.7483923435211182,-1.4692996740341187,2.8853554725646973,1
288,18.156368255615234,33.30342483520508,-1.9618796110153198,0.9905948638916016,-1.4345366954803467,2.8424782752990723,1
289,18.877378463745117,38.49646759033203,-4.82478666305542,0.5694811344146729,-1.2036218643188477,2.818978786468506,1
290,20.24895668029785,45.08209228515625,-5.438949108123779,1.0135416984558105,-0.8967682719230652,2.6118199825286865,1
291,13.801661491394043,48.486473083496094,-6.40558385848999,0.5678855180740356,-0.702989399433136,2.560786008834839,1
292,5.603544235229492,49.986602783203125,-7.0376667976379395,0.7943372130393982,-0.49803394079208374,2.3994734287261963,1
293,-5.503379821777344,58.16073226928711,-6.990436553955078,0.047428227961063385,-0.3967851400375366,2.344346761703491,1
294,-17.621257781982422,65.88211059570312,-7.39286994934082,0.23513269424438477,-0.48724111914634705,2.227513074874878,1
295,-25.338741302490234,70.64542388916016,-6.890924453735352,-0.6290876865386963,-0.7390071153640747,2.1705870628356934,1
296,-31.989240646362305,74.521240234375,-6.299430847167969,-1.7106561660766602,-0.9699300527572632,2.1039109230041504,1
297,-27.15131378173828,74.708251953125,-4.935819625854492,-1.7649916410446167,-1.122869849205017,1.9714422225952148,1
298,-15.161232948303223,69.54878997802734,-2.2862191200256348,-2.9328207969665527,-1.5614759922027588,1.9235754013061523,1
299,-0.028029965236783028,59.8610954284668,-0.3730410933494568,-3.1496641635894775,-1.6720558404922485,1.8348251581192017,1
300,14.40411376953125,46.84785842895508,0.9577845931053162,-4.159602165222168,-1.6704012155532837,1.8730264902114868,1
301,25.67072296142578,38.46585464477539,3.54870867729187,-4.686116695404053,-1.4460508823394775,1.9130678176879883,1
302,27.55621337890625,30.950929641723633,5.400907039642334,-5.79143762588501,-1.190610647201538,2.057302236557007,1
303,19.635541915893555,23.337657928466797,6.806605815887451,-5.8522138595581055,-1.0876682996749878,1.9527580738067627,1
304,10.752568244934082,11.499944686889648,7.112751483917236,-6.774575710296631,-0.9085248112678528,2.075204610824585,1
305,-1.071648120880127,0.6247471570968628,6.3593339920043945,-6.491404056549072,-0.7255373597145081,2.125331163406372,1
306,-11.22766399383545,-7.649318695068359,5.938648700714111,-6.93042516708374,-0.726871907711029,2.207263708114624,1
307,-16.860185623168945,-7.591233730316162,5.314759254455566,-6.912539005279541,-0.7600856423377991,2.3234591484069824,1
308,-18.351730346679688,-8.069519996643066,5.648921012878418,-6.533327102661133,-0.9016445875167847,2.366694450378418,1
309,-9.39622688293457,-6.499118328094482,6.262737274169922,-6.690812110900879,-1.1235244274139404,2.397401809692383,1
310,-0.7073980569839478,-6.3784499168396,7.146285533905029,-6.45911979675293,-1.1460025310516357,2.5317635536193848,1
311,9.889206886291504,-5.093489646911621,7.177618980407715,-6.386650562286377,-1.2362200021743774,2.539273262023926,1
312,16.85252571105957,-1.7970435619354248,7.617725372314453,-6.3128743171691895,-1.1300411224365234,2.6322479248046875,1
313,16.682294845581055,-2.6998088359832764,6.2267351150512695,-6.246677875518799,-0.9040571451187134,2.761793613433838,1
314,11.899577140808105,0.7356624007225037,5.403138160705566,-6.150835037231445,-0.7610520124435425,2.794999599456787,1
315,5.385453701019287,-1.3232945203781128,3.6914970874786377,-6.124689102172852,-0.6079079508781433,2.866487741470337,1
316,-1.8601160049438477,-9.260513305664062,0.7162984013557434,-5.97076416015625,-0.47846630215644836,2.9408926963806152,1
317,-10.410818099975586,-13.278238296508789,-1.5494846105575562,-5.974441051483154,-0.4909626245498657,2.952016830444336,1
318,-13.417474746704102,-11.875545501708984,-2.0909361839294434,-5.851837158203125,-0.6269273161888123,2.9003562927246094,1
319,-10.440336227416992,-13.841506958007812,-2.4235377311706543,-5.702084064483643,-0.6746304631233215,2.9519765377044678,1
320,-7.201050281524658,-11.064080238342285,-3.571213722229004,-5.458890914916992,-0.8989877700805664,2.84458589553833,1
321,2.4812631607055664,-6.409113883972168,-4.324510097503662,-5.271698474884033,-0.918855607509613,2.8633387088775635,1
322,12.313162803649902,-6.875339031219482,-4.626646995544434,-5.3676042556762695,-0.9364032745361328,2.8194315433502197,1
323,19.242849349975586,-8.297821044921875,-4.407301902770996,-5.09077787399292,-0.7891809344291687,2.805162191390991,1
324,21.531248092651367,-8.3309965133667,-4.429689884185791,-5.0877766609191895,-0.5367411375045776,2.8188400268554688,1
325,15.555821418762207,-0.9329841136932373,-4.405213832855225,-5.082913875579834,-0.3311689496040344,2.7818517684936523,1
326,9.135154724121094,1.0386117696762085,-3.672471523284912,-5.1313934326171875,-0.1226416677236557,2.7633681297302246,1
327,-1.8769062757492065,-2.7878916263580322,-2.6707136631011963,-4.780268669128418,-0.02724708802998066,2.7205448150634766,1
328,-12.538640975952148,-5.890091896057129,-3.0650322437286377,-4.762291431427002,-0.10098251700401306,2.646333932876587,1
329,-18.867094039916992,-9.105243682861328,-4.179403781890869,-4.81372594833374,-0.3350999653339386,2.5454418659210205,1
330,-13.339334487915039,-17.37508201599121,-3.1765735149383545,-4.76495885848999,-0.4415786862373352,2.5437490940093994,1
331,-3.077028512954712,-20.749059677124023,-2.720038890838623,-4.257584095001221,-0.622005045413971,2.5094738006591797,1
332,6.490321636199951,-17.764402389526367,-1.2756733894348145,-4.123759746551514,-0.5719210505485535,2.5302109718322754,1
333,12.04481315612793,-12.947253227233887,-0.6953831911087036,-4.000663757324219,-0.5209153294563293,2.5187337398529053,1
334,12.870077133178711,-5.384713649749756,-0.68205726146698,-3.871061086654663,-0.3765299916267395,2.5262370109558105,1
335,9.447708129882812,2.058864116668701,-0.5045425891876221,-3.956149101257324,-0.2785133421421051,2.50659441947937,1
336,3.578479528427124,4.8233256340026855,1.0713293552398682,-3.970855712890625,-0.09139673411846161,2.5286171436309814,1
337,0.6492010951042175,-1.2210010290145874,2.0483129024505615,-3.6187288761138916,-0.1343429833650589,2.5207509994506836,1
338,0.5342133641242981,-9.666685104370117,2.1586668491363525,-3.6451077461242676,-0.14994803071022034,2.5285842418670654,1
339,1.4658361673355103,-13.487862586975098,1.3211089372634888,-3.535809278488159,-0.10426024347543716,2.5626578330993652,1
340,0.6051965951919556,-12.429032325744629,1.337693452835083,-3.4815285205841064,-0.11316623538732529,2.5708417892456055,1
341,-3.5483810901641846,-10.354104042053223,1.7854987382888794,-3.404310703277588,-0.058249883353710175,2.591482162475586,1
342,-6.594588756561279,-8.343602180480957,-0.019097773358225822,-3.2748472690582275,-0.07129383832216263,2.612417221069336,1
343,-7.383821964263916,-7.5958452224731445,-1.6736401319503784,-3.229839563369751,-0.011500183492898941,2.636120557785034,1
344,-4.732014179229736,-10.899117469787598,-2.4786183834075928,-3.1660900115966797,-0.18032841384410858,2.6072049140930176,1
345,-1.2397757768630981,-19.866853713989258,-2.5525288581848145,-3.0963146686553955,-0.3563850224018097,2.564011573791504,1
346,5.386007785797119,-29.297700881958008,-2.266005754470825,-2.8129780292510986,-0.39032721519470215,2.5429859161376953,1
347,10.587347030639648,-33.46390914916992,-0.8284974098205566,-2.7781965732574463,-0.32458603382110596,2.5095598697662354,1
348,15.225549697875977,-32.38264465332031,3.0052921772003174,-2.4254748821258545,-0.8141652941703796,2.4529833793640137,1
349,19.54561996459961,-27.654142379760742,7.0169854164123535,-2.1427512168884277,-0.4907350242137909,2.4884541034698486,1
350,19.099916458129883,-18.733932495117188,10.112454414367676,-1.0353672504425049,0.3779427409172058,2.587390184402466,1
351,8.917916297912598,-1.931372046470642,12.673314094543457,-1.2658698558807373,-0.5806994438171387,2.7134969234466553,1
352,-5.020290851593018,14.13659381866455,14.29393196105957,-1.3126816749572754,-0.3120725154876709,2.8186635971069336,1
353,-16.922056198120117,16.710866928100586,14.47311782836914,-1.4399397373199463,-0.2621459364891052,2.951615571975708,1
354,-22.62401008605957,5.503989219665527,13.376664161682129,-1.4967000484466553,-0.14763674139976501,3.068014144897461,1
355,-21.903085708618164,-9.825187683105469,10.76951789855957,-1.5398355722427368,-0.4343317449092865,3.22068190574646,1
356,-16.493688583374023,-16.01789665222168,7.829103469848633,-1.4408398866653442,-0.5236948728561401,3.3171188831329346,1
357,-9.26209831237793,-22.108469009399414,4.419460296630859,-1.2833243608474731,-0.8061648011207581,3.4195027351379395,1
358,-0.172585129737854,-30.747648239135742,1.0682350397109985,-1.2140982151031494,-0.9678166508674622,3.4825026988983154,1
359,8.477089881896973,-31.74073028564453,-1.7343018054962158,-1.005710482597351,-0.918392539024353,3.491114616394043,1
360,11.631248474121094,-28.806520462036133,-4.344529151916504,-1.0702567100524902,-0.28297343850135803,3.365940809249878,1
361,14.081782341003418,-26.352310180664062,-6.410817623138428,-0.589939534664154,-0.05269007012248039,3.302219867706299,1
362,12.567282676696777,-16.730920791625977,-9.729406356811523,-0.2478431612253189,0.1887703239917755,3.212531805038452,1
363,6.438288688659668,-3.553685426712036,-11.937676429748535,0.020659253001213074,0.33078306913375854,3.112736463546753,1
364,0.30414050817489624,7.296428680419922,-12.458748817443848,0.08770650625228882,0.2620392441749573,3.0433149337768555,1
365,-5.991097927093506,14.302379608154297,-13.25749683380127,0.04072871059179306,0.3797280490398407,2.890252113342285,1
366,-12.058399200439453,15.640414237976074,-14.22524642944336,-0.1308005005121231,0.24323555827140808,2.7883481979370117,1
367,-13.684571266174316,11.254776954650879,-15.205795288085938,-0.3334904909133911,0.22683051228523254,2.6147236824035645,1
368,-15.251690864562988,4.626588821411133,-16.76915740966797,-0.4216201901435852,-0.03222395107150078,2.514007329940796,1
369,-15.63621997833252,-5.844902038574219,-18.154409408569336,-0.4213685691356659,-0.35917767882347107,2.425208568572998,1
370,-11.864578247070312,-8.780632972717285,-19.643613815307617,-0.3323538899421692,-0.5376405119895935,2.267606496810913,1
371,-7.089282989501953,-9.856290817260742,-22.9204158782959,-0.15872937440872192,-0.7333499193191528,2.1074352264404297,1
372,0.9166055917739868,-6.020467758178711,-25.089229583740234,0.057746771723032,-0.9787178039550781,1.9515900611877441,1
373,13.013809204101562,-0.3786754012107849,-25.49057960510254,0.5689619779586792,-0.81584233045578,1.6550683975219727,1
374,20.89752769470215,2.885289192199707,-24.86691665649414,0.5373427271842957,-0.3518367111682892,1.2569692134857178,1
375,21.228179931640625,6.699134826660156,-22.46615982055664,0.09434565156698227,0.6055788993835449,0.6985806822776794,1
376,10.44658374786377,10.174616813659668,-20.17172622680664,0.13480201363563538,0.8177280426025391,0.4809487462043762,1
377,-8.274029731750488,10.211766242980957,-19.339990615844727,0.10622961074113846,0.798816442489624,0.34275639057159424,1
378,-21.791046142578125,9.995854377746582,-19.14469337463379,0.08046755194664001,0.6478193998336792,0.1984977126121521,1
379,-30.631362915039062,4.598339557647705,-20.368032455444336,0.015724793076515198,0.35053351521492004,0.0492827408015728,1
380,-29.63534164428711,-3.5976362228393555,-20.90260887145996,-0.04485093429684639,0.06733320653438568,-0.15827779471874237,1
381,-17.517126083374023,-12.602084159851074,-20.6231689453125,-0.009343798272311687,-0.5280664563179016,-0.25030937790870667,1
382,4.084654331207275,-16.190156936645508,-19.313016891479492,0.2833764851093292,-0.8495949506759644,-0.391983300447464,1
383,21.721681594848633,-14.060776710510254,-17.313467025756836,2.2223668098449707,-0.8106737732887268,-0.48067203164100647,1
384,30.964136123657227,-7.1972761154174805,-15.8562593460083,2.233510971069336,-0.5185136198997498,-0.7148418426513672,1
385,29.716747283935547,14.794673919677734,-12.879971504211426,2.2542052268981934,-0.14281432330608368,-0.9146379232406616,1
386,25.15301513671875,47.34403610229492,-8.550416946411133,1.9420504570007324,0.1602223962545395,-1.0466392040252686,1
387,12.206303596496582,61.40415573120117,-6.481954097747803,1.463868498802185,0.43063658475875854,-1.1437195539474487,1
388,-5.7517852783203125,65.09779357910156,-4.95739221572876,0.660396158695221,0.5605273842811584,-1.2159420251846313,1
389,-21.118873596191406,60.91852951049805,-2.89145827293396,0.03658989444375038,0.5550044178962708,-1.2687788009643555,1
390,-28.799007415771484,48.43705749511719,-0.8524095416069031,-0.668594241142273,0.3211328387260437,-1.2734326124191284,1
391,-25.8190860748291,33.22267532348633,-0.152409166097641,-1.116677165031433,0.16932889819145203,-1.325051188468933,1
392,-17.877695083618164,21.104358673095703,0.5570028424263,-1.6440564393997192,-0.24030442535877228,-1.2895104885101318,1
393,-8.876502990722656,8.562821388244629,-0.9159090518951416,-1.7308470010757446,-0.11957484483718872,-1.3837954998016357,1
394,-0.8663962483406067,-5.448108196258545,-0.2812468707561493,-1.8877886533737183,-0.2742959260940552,-1.4011774063110352,1
395,-3.226303815841675,-2.581587314605713,-0.8918394446372986,-1.9499858617782593,-0.29083311557769775,-1.4070050716400146,1
396,-6.1210103034973145,6.027554512023926,-1.3939340114593506,-1.9666783809661865,-0.407509446144104,-1.3988109827041626,1
397,-10.059703826904297,15.150888442993164,-2.386688470840454,-2.1599280834198,-0.5660055875778198,-1.4071049690246582,1
398,-9.988786697387695,18.30695152282715,-4.54196834564209,-2.483694553375244,-0.7737622857093811,-1.4313323497772217,1
399,-9.61653995513916,15.195276260375977,-4.344581127166748,-2.1928436756134033,-0.38072165846824646,-1.4955265522003174,1
400,-4.226224422454834,17.406421661376953,-3.9394257068634033,-2.3720028400421143,-0.5574462413787842,-1.5373420715332031,1
401,-0.0017392835579812527,20.105751037597656,-3.522869348526001,-2.543065309524536,-0.45733779668807983,-1.5855395793914795,1
402,-2.210772752761841,13.613842010498047,-2.4383742809295654,-2.7385969161987305,-0.5008496046066284,-1.6260120868682861,1
403,-4.361310005187988,9.336426734924316,-0.32084473967552185,-2.872504949569702,-0.5531252026557922,-1.655389428138733,1
404,-7.616100311279297,1.1172317266464233,-0.009149367921054363,-2.9255564212799072,-0.4328855872154236,-1.65578031539917,1
405,-9.02003288269043,-6.581379413604736,-0.8274819254875183,-2.912355422973633,-0.5126627683639526,-1.6589378118515015,1
406,-6.6504740715026855,-8.504900932312012,0.7368377447128296,-2.838102102279663,-0.5516654849052429,-1.6605063676834106,1
407,-8.037819862365723,-5.348269939422607,2.9956846237182617,-2.7110137939453125,-0.6989997625350952,-1.664081335067749,1
408,-12.611409187316895,-0.6277639269828796,3.847513198852539,-2.6152732372283936,-0.6532140374183655,-1.621681809425354,1
409,-18.005765914916992,7.584254741668701,3.3554434776306152,-2.6673166751861572,-0.7541096210479736,-1.5811971426010132,1
410,-18.607357025146484,15.605754852294922,2.9032139778137207,-2.6558735370635986,-0.8697196841239929,-1.5404129028320312,1
411,-12.336740493774414,25.44944953918457,2.651857376098633,-2.930166006088257,-1.0665614604949951,-1.5123735666275024,1
412,-2.0720975399017334,42.99382400512695,4.187709331512451,-3.093989133834839,-1.1668701171875,-1.4874259233474731,1
413,4.506843090057373,42.87871551513672,6.6581597328186035,-3.689741373062134,-1.1884201765060425,-1.446968913078308,1
414,6.326994895935059,37.24718475341797,10.054061889648438,-3.7635412216186523,-1.0865890979766846,-1.3989778757095337,1
415,0.9011586904525757,22.785114288330078,13.242361068725586,-4.24161958694458,-1.091360330581665,-1.327327013015747,1
416,-3.095141649246216,8.060125350952148,17.687374114990234,-4.288647174835205,-0.9594433307647705,-1.1941545009613037,1
417,-7.689210891723633,-11.479036331176758,20.120710372924805,-4.424396514892578,-0.9695696234703064,-1.021927833557129,1
418,-15.259078979492188,-23.595203399658203,23.094213485717773,-4.2512054443359375,-0.9860624074935913,-0.8159732222557068,1
419,-21.387191772460938,-27.69969940185547,25.105758666992188,-3.9531378746032715,-1.249420166015625,-0.6319985389709473,1
420,-24.328662872314453,-22.143661499023438,25.10999870300293,-3.661883592605591,-1.5952095985412598,-0.4307892918586731,1
421,-26.123836517333984,-3.829969882965088,23.592660903930664,-3.459111213684082,-1.5105903148651123,-0.06589310616254807,1
422,-26.59459114074707,17.528011322021484,22.07280921936035,-3.5066394805908203,-1.746432900428772,0.191062331199646,1
423,-24.643800735473633,26.80063819885254,19.16288185119629,-3.6667163372039795,-2.1875617504119873,0.346915066242218,1
424,-19.424423217773438,28.3684024810791,17.943628311157227,-3.991396188735962,-2.376441478729248,0.5595375299453735,1
425,-16.524890899658203,19.915130615234375,15.430009841918945,-4.270224571228027,-2.3500616550445557,0.8054029941558838,1
426,-12.760488510131836,10.532719612121582,13.813908576965332,-4.494039058685303,-2.558718681335449,0.9358894228935242,1
427,-2.8403844833374023,7.240115642547607,11.324482917785645,-4.564252853393555,-2.6379616260528564,1.078379511833191,1
428,8.779338836669922,5.6096954345703125,10.280920028686523,-4.719749927520752,-2.7811717987060547,1.1650995016098022,1
429,16.37423324584961,3.484437942504883,8.974929809570312,-4.806401252746582,-2.7227752208709717,1.2682576179504395,1
430,15.606473922729492,-5.000729560852051,7.437401294708252,-4.789255619049072,-2.4682512283325195,1.391074299812317,1
431,9.065106391906738,-17.169530868530273,4.590912342071533,-4.719151020050049,-2.295656442642212,1.462496042251587,1
432,3.6477909088134766,-31.392921447753906,1.1998411417007446,-4.5380778312683105,-2.2200379371643066,1.5018715858459473,1
433,-2.2781941890716553,-36.04323196411133,-3.4668772220611572,-4.044439315795898,-2.2200613021850586,1.4623810052871704,1
434,-2.698934555053711,-33.207332611083984,-6.07529878616333,-3.6806628704071045,-2.3070993423461914,1.4150158166885376,1
435,2.948350429534912,-29.539325714111328,-8.815760612487793,-3.2038581371307373,-2.400921106338501,1.3184248208999634,1
436,12.05665397644043,-19.790380477905273,-10.757076263427734,-2.936965227127075,-2.392338991165161,1.2595829963684082,1
437,21.84593963623047,-12.022323608398438,-11.984053611755371,-2.6818459033966064,-2.166571855545044,1.2076548337936401,1
438,29.205066680908203,-1.3644180297851562,-12.13400650024414,-2.4960625171661377,-1.865763783454895,1.1204354763031006,1
439,31.493759155273438,4.30610990524292,-11.902478218078613,-2.502699136734009,-1.6619431972503662,0.9885874390602112,1
440,27.429500579833984,11.690245628356934,-9.763479232788086,-2.543564558029175,-1.419012188911438,0.8517450094223022,1
441,18.444746017456055,16.657390594482422,-9.68445873260498,-2.695207118988037,-1.1513381004333496,0.7562406659126282,1
442,5.421792507171631,23.05554962158203,-8.881186485290527,-2.921565055847168,-0.8813917636871338,0.6934813857078552,1
443,-5.279148578643799,25.53703498840332,-8.002821922302246,-3.25622296333313,-0.8158717155456543,0.6242280602455139,1
444,-13.899906158447266,20.525529861450195,-6.42397928237915,-3.4998972415924072,-1.0548274517059326,0.48539116978645325,1
445,-15.318235397338867,13.547243118286133,-5.034317493438721,-3.391707420349121,-1.2839628458023071,0.3304850459098816,1
446,-6.0055251121521,-2.3541173934936523,-2.474297046661377,-3.7391984462738037,-1.3285220861434937,0.3335947096347809,1
447,1.4459482431411743,-12.266692161560059,-1.4032628536224365,-3.6877827644348145,-1.117953896522522,0.3712027370929718,1
448,7.2278642654418945,-27.762052536010742,-0.9961949586868286,-3.4663546085357666,-1.419724941253662,0.26105406880378723,1
449,11.980011940002441,-39.78220748901367,-1.2356079816818237,-3.2747786045074463,-1.392168402671814,0.25136807560920715,1
450,14.188746452331543,-36.1209831237793,-2.181058406829834,-2.65912127494812,-1.2095831632614136,0.23509885370731354,1
451,13.555094718933105,-27.927553176879883,-4.133596420288086,-2.0273261070251465,-1.0615493059158325,0.19344010949134827,1
452,11.951754570007324,-9.238927841186523,-4.259425163269043,-1.6316052675247192,-0.8502259254455566,0.16756586730480194,1
453,8.067538261413574,7.431789875030518,-3.967264175415039,-1.7223354578018188,-0.8040980696678162,0.13853462040424347,1
454,1.706300973892212,19.46113395690918,-3.8418705463409424,-2.0704145431518555,-0.6771825551986694,0.13216425478458405,1
455,-0.7352017760276794,16.042333602905273,-0.8887251615524292,-2.292232036590576,-0.6566685438156128,0.0954255759716034,1
456,0.25498175621032715,-0.1075296700000763,2.3950796127319336,-2.464897632598877,-0.6811484694480896,0.07742562144994736,1
457,0.3150939643383026,-16.426345825195312,6.597830772399902,-2.3859128952026367,-0.7504376173019409,0.07993465662002563,1
458,3.1619787216186523,-27.98549461364746,11.186813354492188,-2.1811320781707764,-0.7345417141914368,0.13558652997016907,1
459,0.40421009063720703,-24.17401695251465,13.985198020935059,-1.723984956741333,-0.6777661442756653,0.23809319734573364,1
460,0.9442513585090637,-20.549808502197266,15.946029663085938,-1.468584656715393,-0.6410658359527588,0.3812292218208313,1
461,1.0829366445541382,-8.753857612609863,17.195919036865234,-1.226758360862732,-0.6086333990097046,0.5418902635574341,1
462,-1.7264058589935303,0.2785482108592987,16.06784439086914,-1.1542773246765137,-0.5219606757164001,0.7158893346786499,1
463,-3.6117753982543945,4.181623458862305,13.269465446472168,-1.214428186416626,-0.5445041656494141,0.8800826072692871,1
464,-4.749844551086426,6.688103199005127,11.259134292602539,-1.2060428857803345,-0.6059882044792175,1.018275260925293,1
465,-4.849981784820557,11.583901405334473,9.849469184875488,-1.2389837503433228,-0.5366215705871582,1.1332470178604126,1
466,-0.4335554838180542,16.485544204711914,8.129036903381348,-1.3539085388183594,-0.5463839173316956,1.2312870025634766,1
467,1.8757736682891846,19.745159149169922,6.503667831420898,-1.5560070276260376,-0.5731261968612671,1.3139961957931519,1
468,2.4180121421813965,17.679950714111328,5.135565280914307,-1.8108004331588745,-0.5606056451797485,1.3797531127929688,1
469,1.8489102125167847,7.4162116050720215,4.000916481018066,-1.9365644454956055,-0.5236725211143494,1.4341332912445068,1
470,-2.229698657989502,-1.4477009773254395,2.92507266998291,-2.0141243934631348,-0.5013725757598877,1.4767091274261475,1
471,1.864241361618042,-13.355929374694824,1.1338396072387695,-2.1442036628723145,-0.535893976688385,1.506622314453125,1
472,10.981109619140625,-26.17131805419922,1.4711533784866333,-2.068270444869995,-0.5107790231704712,1.5202183723449707,1
473,15.67261791229248,-33.82798767089844,4.507161617279053,-1.850629210472107,-0.3563626706600189,1.531151294708252,1
474,13.877294540405273,-38.61164855957031,6.552552223205566,-1.2992159128189087,-0.12797704339027405,1.5720808506011963,1
475,5.90602970123291,-36.91229248046875,8.687079429626465,-0.8012537360191345,0.008629909716546535,1.637381911277771,1
476,-4.591130256652832,-25.524396896362305,9.525681495666504,-0.6556494832038879,0.028806904330849648,1.7130587100982666,1
477,-14.593568801879883,-9.353815078735352,9.075878143310547,-0.2695918381214142,-0.047886766493320465,1.819449543952942,1
478,-20.096572875976562,10.303559303283691,7.5197248458862305,-0.17001867294311523,-0.2784850597381592,1.9226319789886475,1
479,-18.704830169677734,19.805028915405273,6.091108322143555,-0.36972761154174805,-0.4527270495891571,1.9889719486236572,1
480,-12.722640991210938,19.376802444458008,5.791318893432617,-0.5897611379623413,-0.6946092844009399,2.05214524269104,1
481,-5.530447483062744,11.028347969055176,3.297175884246826,-0.8035911321640015,-0.6987882852554321,2.0815844535827637,1
482,0.9964037537574768,2.688467264175415,1.3266310691833496,-0.8698911070823669,-0.7960073351860046,2.1293675899505615,1
483,6.712146282196045,-1.9676706790924072,-0.36840686202049255,-0.7541762590408325,-0.7834119200706482,2.16019868850708,1
484,9.591978073120117,-4.923715114593506,-1.446894645690918,-0.8969414830207825,-0.690997838973999,2.1460559368133545,1
485,8.284628868103027,-9.162479400634766,-3.1580824851989746,-0.7807134985923767,-0.4919213056564331,2.1160781383514404,1
486,1.915756344795227,-8.70921516418457,-5.217158794403076,-0.5705531239509583,-0.44260403513908386,2.1018338203430176,1
487,0.29110828042030334,-4.868086338043213,-6.381950378417969,-0.6198148727416992,-0.4880695044994354,2.0605902671813965,1
488,0.48436689376831055,-0.6868495345115662,-7.609323978424072,-0.5795621871948242,-0.5031716823577881,1.9996591806411743,1
489,5.30518913269043,-5.753507137298584,-8.130231857299805,-0.5864850282669067,-0.5034629702568054,1.9234373569488525,1
490,10.30544662475586,-19.080820083618164,-7.541644096374512,-0.41682419180870056,-0.35269540548324585,1.8260644674301147,1
491,12.187090873718262,-35.045867919921875,-7.39264440536499,-0.19102157652378082,-0.20548371970653534,1.7395647764205933,1
492,11.379975318908691,-41.7746696472168,-6.558488845825195,0.3160616159439087,-0.10439598560333252,1.6756510734558105,1
493,8.950846672058105,-40.53586959838867,-5.478530406951904,0.6666858196258545,-0.06263162940740585,1.6202194690704346,1
494,5.304014205932617,-29.54093360900879,-5.577629566192627,1.1375327110290527,0.0871695950627327,1.5546369552612305,1
495,0.640510618686676,-10.8871431350708,-5.491152286529541,1.3643215894699097,0.1745443344116211,1.4868218898773193,1
496,-2.3177857398986816,16.68021583557129,-5.257429599761963,1.6570923328399658,0.18655242025852203,1.4438780546188354,1
497,-0.4147437512874603,41.513587951660156,-4.954670429229736,1.5218560695648193,0.15296082198619843,1.397688388824463,1
498,1.0334535837173462,58.66047286987305,-3.6276519298553467,0.9653124213218689,0.13069476187229156,1.3338738679885864,1
499,1.4317033290863037,63.6624641418457,-1.7753826379776,0.39489954710006714,0.13548456132411957,1.2976164817810059,1
500,3.759209632873535,52.12352752685547,-0.42213451862335205,-0.26484617590904236,0.14288687705993652,1.2739083766937256,1
501,2.2604942321777344,23.931493759155273,0.776581883430481,-0.9028751850128174,0.17420940101146698,1.2538517713546753,1
502,0.2354765087366104,-12.25483512878418,0.8649502992630005,-1.2427312135696411,0.2015509307384491,1.2558443546295166,1
503,-3.8036999702453613,-45.840484619140625,1.2245620489120483,-1.035883903503418,0.19971045851707458,1.2903531789779663,1
504,-8.23067855834961,-67.5764389038086,2.3659021854400635,-0.5027438402175903,0.207855224609375,1.3166536092758179,1
505,-10.127921104431152,-73.23273468017578,3.5607357025146484,0.40799370408058167,-0.0023486141581088305,1.413974642753601,1
506,-13.538373947143555,-59.678104400634766,3.501690626144409,1.2751550674438477,-0.17050129175186157,1.488868236541748,1
507,-18.534141540527344,-32.368927001953125,2.8702545166015625,1.8314329385757446,-0.1069750115275383,1.4528374671936035,1
508,-20.720592498779297,5.202583312988281,1.3283730745315552,2.343364953994751,-0.40971654653549194,1.5423920154571533,1
509,-15.481553077697754,33.51362228393555,1.5474553108215332,2.1758415699005127,-0.4568021297454834,1.4737565517425537,1
510,-5.234746932983398,49.325897216796875,1.4280492067337036,1.7084859609603882,-0.7158450484275818,1.5003434419631958,1
511,3.2484488487243652,50.62418746948242,0.991564154624939,1.410893201828003,-0.7518242597579956,1.5112818479537964,1
512,11.441100120544434,42.354244232177734,-0.22591888904571533,0.7971740365028381,-0.6453836560249329,1.4641194343566895,1
513,17.697439193725586,31.085617065429688,-0.106500044465065,0.32134246826171875,-0.5398308634757996,1.4591865539550781,1
514,17.341835021972656,19.60491180419922,-0.7957074046134949,0.11898941546678543,-0.2765575647354126,1.4287277460098267,1
515,13.252958297729492,11.908111572265625,-0.5480579733848572,-0.2126476913690567,-0.15831010043621063,1.4338299036026,1
516,7.125036239624023,4.357168197631836,0.7042198777198792,-0.2429027259349823,0.05165575072169304,1.4128550291061401,1
517,-2.331684112548828,-3.8425257205963135,1.3968465328216553,-0.34348630905151367,0.08566153794527054,1.4351409673690796,1
518,-12.149642944335938,-12.15322208404541,1.7493672370910645,-0.2519177794456482,0.03803112357854843,1.4668937921524048,1
519,-19.787473678588867,-13.453866958618164,1.7610387802124023,-0.28855887055397034,-0.16279587149620056,1.5027207136154175,1
520,-22.145700454711914,-9.335704803466797,0.7546568512916565,0.06758826971054077,-0.2713291049003601,1.5138810873031616,1
521,-20.850589752197266,3.19588565826416,0.7464702725410461,0.17669181525707245,-0.6394197940826416,1.5676730871200562,1
522,-15.676271438598633,14.192660331726074,-0.7027916312217712,0.07633507251739502,-0.8338830471038818,1.5610511302947998,1
523,-7.575949668884277,25.231977462768555,-2.423548460006714,-0.10813847929239273,-1.0339882373809814,1.557382345199585,1
524,7.171216011047363,29.338455200195312,-2.975132465362549,-0.4613528251647949,-1.0846306085586548,1.5080058574676514,1
525,20.705272674560547,22.945035934448242,-4.207784652709961,-0.6140875220298767,-1.037233591079712,1.486124873161316,1
526,28.0345401763916,11.895182609558105,-5.518978595733643,-0.8330299854278564,-0.7089089155197144,1.4095877408981323,1
527,27.019025802612305,7.150461673736572,-5.051377296447754,-0.7969996333122253,-0.2704911530017853,1.3199830055236816,1
528,20.0709228515625,-0.48482292890548706,-5.479167938232422,-0.8660822510719299,-0.12410791963338852,1.2980577945709229,1
529,11.850793838500977,-1.6990357637405396,-3.5753731727600098,-0.744587242603302,0.1353464275598526,1.2393550872802734,1
530,-0.42133137583732605,6.098869323730469,-0.8624160885810852,-0.7374442219734192,0.3274157643318176,1.1821881532669067,1
531,-10.530547142028809,17.46649932861328,0.43157142400741577,-0.7556836009025574,0.2581876218318939,1.1858434677124023,1
532,-18.924545288085938,22.609603881835938,1.9566493034362793,-0.9786361455917358,0.09102495014667511,1.1986390352249146,1
533,-21.23525047302246,20.68649673461914,3.9238758087158203,-1.1519582271575928,-0.12186893820762634,1.2238796949386597,1
534,-15.974282264709473,15.840258598327637,5.652881622314453,-1.4208019971847534,-0.43612906336784363,1.270398736000061,1
535,-8.632664680480957,10.77762508392334,7.2725701332092285,-1.4556416273117065,-0.4910890758037567,1.312493920326233,1
536,-2.399548292160034,8.335728645324707,7.507339954376221,-1.7794296741485596,-0.5680322051048279,1.3684775829315186,1
537,3.806596279144287,2.1211724281311035,7.666234016418457,-1.8108681440353394,-0.6142395734786987,1.4488327503204346,1
538,6.0461835861206055,-4.106091022491455,5.8602118492126465,-1.8276808261871338,-0.562676727771759,1.5253955125808716,1
539,0.23682382702827454,-5.634155750274658,2.971944570541382,-1.8672438859939575,-0.47143638134002686,1.5817817449569702,1
540,-8.714658737182617,-3.006495952606201,-0.7651696801185608,-1.6973719596862793,-0.4526509642601013,1.6251457929611206,1
541,-18.04933738708496,2.9823896884918213,-5.679956436157227,-1.6178309917449951,-0.5682031512260437,1.634463906288147,1
542,-16.97711181640625,14.032445907592773,-8.125112533569336,-1.5237613916397095,-0.48126277327537537,1.5946537256240845,1
543,-11.648818016052246,18.975845336914062,-9.890625,-1.7519736289978027,-0.7728747725486755,1.516695261001587,1
544,0.08039878308773041,16.8955020904541,-11.047752380371094,-2.0101897716522217,-0.978883683681488,1.4188865423202515,1
545,14.65984058380127,7.0078511238098145,-10.702022552490234,-2.26587176322937,-0.9339512586593628,1.3109210729599,1
546,23.84918785095215,-1.498026728630066,-9.958975791931152,-2.344278335571289,-0.7399173378944397,1.2051808834075928,1
547,21.135828018188477,-9.374570846557617,-9.818378448486328,-2.2100088596343994,-0.45983007550239563,1.1096796989440918,1
548,8.91205883026123,-11.203021049499512,-9.934078216552734,-2.283423662185669,-0.47688326239585876,0.9920996427536011,1
549,-1.375010371208191,-3.0062384605407715,-9.70864200592041,-2.0839452743530273,-0.3035295307636261,0.9025635719299316,1
550,-9.3515043258667,-2.634918689727783,-10.015313148498535,-1.9427279233932495,-0.38166338205337524,0.79721599817276,1
551,-7.498892784118652,-8.225997924804688,-10.084136009216309,-1.9166666269302368,-0.37215784192085266,0.707466185092926,1
552,-3.7282142639160156,-8.976297378540039,-10.473328590393066,-1.7317153215408325,-0.5690142512321472,0.5958744883537292,1
553,4.436739444732666,-12.621317863464355,-9.061872482299805,-1.5868295431137085,-0.485463410615921,0.5109636783599854,1
554,9.424027442932129,-20.91215705871582,-6.034839153289795,-1.4753797054290771,-0.43581700325012207,0.41982489824295044,1
555,12.932661056518555,-29.47440528869629,-3.0212748050689697,-1.6622816324234009,-0.4320923984050751,0.3396646976470947,1
556,11.63394546508789,-30.71648406982422,0.10888116806745529,-1.1235307455062866,-0.2960272431373596,0.30486202239990234,1
557,7.841795921325684,-18.344785690307617,2.283663272857666,-0.9197720885276794,-0.2330392450094223,0.28620317578315735,1
558,2.9280710220336914,-1.7791818380355835,1.8064038753509521,-0.669043779373169,-0.15786777436733246,0.3020355701446533,1
559,-2.1108667850494385,7.817605972290039,2.0111372470855713,-0.8001834154129028,-0.1600082814693451,0.3158435523509979,1
560,-6.9351887702941895,6.515933513641357,1.3712791204452515,-0.741885244846344,-0.17439527809619904,0.33914875984191895,1
561,-8.8219575881958,-2.7831413745880127,1.3266913890838623,-1.0514342784881592,-0.19682303071022034,0.35420626401901245,1
562,-8.656963348388672,-18.297210693359375,1.4900903701782227,-0.9039813280105591,-0.31673601269721985,0.36818644404411316,1
563,-3.9895083904266357,-27.82992935180664,1.3958009481430054,-0.8765088319778442,-0.2946907579898834,0.39026498794555664,1
564,1.563025951385498,-24.39863395690918,1.7823561429977417,-0.3410102128982544,-0.42622998356819153,0.40717533230781555,1
565,6.041783809661865,-18.098228454589844,0.9305959939956665,0.06852298974990845,-0.3939256966114044,0.43164190649986267,1
566,10.70462703704834,-11.756976127624512,1.2952420711517334,-0.10774686932563782,-0.35937175154685974,0.43621906638145447,1
567,13.808342933654785,-6.240624904632568,0.018619509413838387,0.07678303867578506,-0.18183523416519165,0.4502809941768646,1
568,12.454951286315918,-2.8231821060180664,-0.9574803709983826,0.2117123156785965,-0.09575188159942627,0.45251521468162537,1
569,10.977583885192871,-5.7229413986206055,-1.5214757919311523,0.28816401958465576,-0.0801217257976532,0.4497095048427582,1
570,10.576894760131836,-12.78122615814209,-1.57297945022583,0.40510520339012146,0.1271315962076187,0.4332669973373413,1
571,7.821760654449463,-13.15407943725586,-1.6009583473205566,0.5385426878929138,0.3012748956680298,0.41404780745506287,1
572,2.493671417236328,-2.4217300415039062,-2.036259412765503,0.8340510129928589,0.4354417622089386,0.39809083938598633,1
573,-3.222933053970337,13.038742065429688,-3.3382034301757812,0.40620484948158264,0.21184992790222168,0.3796061873435974,1
574,-7.194354057312012,27.25688362121582,-4.113160610198975,0.24741576611995697,0.20050778985023499,0.3469732999801636,1
575,-4.157045841217041,34.21894836425781,-2.658186674118042,0.0008995227981358767,0.1203693374991417,0.3060482442378998,1
576,2.085611581802368,30.06403160095215,-0.5843604803085327,-0.4432899057865143,0.0662938803434372,0.2682344913482666,1
577,8.798687934875488,12.73560619354248,1.9594520330429077,-0.6817706823348999,0.03607860207557678,0.2641719877719879,1
578,15.304183006286621,-5.770325660705566,4.065717697143555,-0.8707206845283508,0.26428234577178955,0.2629692554473877,1
579,16.943252563476562,-16.620370864868164,7.266624927520752,-0.6400549411773682,0.37215954065322876,0.31216880679130554,1
580,12.379395484924316,-28.062870025634766,9.447356224060059,-0.3812447786331177,0.44925636053085327,0.3890227675437927,1
581,2.8961730003356934,-28.925621032714844,10.743902206420898,-0.15728457272052765,0.6884288787841797,0.4651099741458893,1
582,-5.054101943969727,-25.377235412597656,11.316886901855469,0.3195560872554779,0.7717769742012024,0.5781168937683105,1
583,-15.126195907592773,-20.104787826538086,10.327509880065918,0.7364588975906372,0.7214964032173157,0.7038882374763489,1
584,-22.968332290649414,-9.108860969543457,9.63386058807373,0.7864365577697754,0.44785135984420776,0.812079668045044,1
585,-28.52831268310547,2.465136766433716,9.767213821411133,0.7002780437469482,0.2551640272140503,0.8844747543334961,1
586,-26.141098022460938,9.672075271606445,8.260624885559082,0.703785240650177,0.1066845953464508,0.9642773270606995,1
587,-20.179588317871094,20.22159767150879,6.813634872436523,0.6586142778396606,-0.2456945925951004,1.064266324043274,1
588,-9.743724822998047,25.674888610839844,4.082479953765869,0.5234090089797974,-0.5698847770690918,1.1566346883773804,1
589,1.7477898597717285,29.970394134521484,1.0681525468826294,0.20494869351387024,-0.7312464118003845,1.200908899307251,1
590,13.285198211669922,30.041105270385742,-0.5237100720405579,-0.18238195776939392,-0.7037361264228821,1.2000716924667358,1
591,26.03366470336914,27.070295333862305,-1.5522940158843994,-0.5792658925056458,-0.4922589659690857,1.1700252294540405,1
592,30.41501808166504,10.21338176727295,-2.2078280448913574,-0.7038894295692444,-0.08251389861106873,1.13715398311615,1
593,25.053071975708008,-2.140658140182495,-1.8340058326721191,-0.8227742910385132,0.1259463131427765,1.1300666332244873,1
594,12.71679973602295,-5.507631301879883,-2.569638252258301,-0.7220338582992554,0.4935760796070099,1.1035170555114746,1
595,0.8368281722068787,-6.3045172691345215,-2.209697723388672,-0.556395411491394,0.4601333439350128,1.1109408140182495,1
596,-9.627849578857422,-3.6199092864990234,-1.6648271083831787,-0.5356221199035645,0.5061430931091309,1.0849939584732056,1
597,-16.95842170715332,-5.6779093742370605,-2.4482064247131348,-0.5357198715209961,0.37539127469062805,1.0711944103240967,1
598,-18.286827087402344,-15.707818984985352,-2.830669641494751,-0.3524145483970642,0.13121236860752106,1.0673495531082153,1
599,-9.956644058227539,-22.880931854248047,-2.2787773609161377,-0.30651354789733887,0.07528630644083023,1.018211841583252,1
600,-2.655496835708618,-20.22014808654785,-0.8404266238212585,0.06719038635492325,-0.08860518783330917,1.0077505111694336,1
601,7.495519638061523,-6.631476879119873,-0.42558491230010986,0.26673123240470886,-0.12167711555957794,0.9925673007965088,1
602,13.75008487701416,14.879340171813965,-1.2414735555648804,-0.007369153201580048,0.010381985455751419,0.9552260041236877,1
603,18.066425323486328,28.018110275268555,-0.23325417935848236,-0.12343382090330124,0.24503789842128754,0.9315429925918579,1
604,16.19036293029785,29.175140380859375,-0.29093343019485474,-0.4778149425983429,0.3292364776134491,0.9322664737701416,1
605,11.159497261047363,17.506187438964844,-2.4351348876953125,-0.8547366857528687,0.5369216203689575,0.9240877032279968,1
606,4.12551212310791,-1.8334029912948608,-3.729905843734741,-0.8853845596313477,0.6612982153892517,0.9193804264068604,1
607,-3.1309618949890137,-16.511974334716797,-3.586433172225952,-0.8380070924758911,0.7372117638587952,0.8887022137641907,1
608,-8.898675918579102,-20.751501083374023,-2.6471760272979736,-0.49872827529907227,0.6942571401596069,0.8667616248130798,1
609,-12.159314155578613,-11.22859001159668,-1.2909722328186035,-0.5209070444107056,0.5617084503173828,0.818298876285553,1
610,-14.250064849853516,-0.8418044447898865,0.48885679244995117,-0.35869431495666504,0.3838610053062439,0.8081479668617249,1
611,-7.816778659820557,9.912569046020508,3.300579786300659,-0.2344411015510559,0.24154116213321686,0.8185761570930481,1
612,1.004785418510437,11.788053512573242,4.982140064239502,-0.3785046637058258,0.11909908056259155,0.8427937030792236,1
613,9.544857025146484,7.447422504425049,6.413754463195801,-0.4810420870780945,0.14196476340293884,0.8885878920555115,1
614,11.260059356689453,2.082439661026001,7.514950752258301,-0.38065406680107117,0.30098965764045715,0.9630721211433411,1
615,9.268181800842285,1.2762651443481445,7.943744659423828,-0.33430203795433044,0.4899600148200989,1.0404030084609985,1
616,4.17540168762207,1.6258232593536377,6.963502883911133,-0.5621264576911926,0.07686447352170944,1.125357985496521,1
617,2.3981621265411377,4.878530502319336,5.841277122497559,-0.578006386756897,0.043538447469472885,1.202652931213379,1
618,4.464147090911865,2.0222432613372803,5.409665107727051,-0.5479820370674133,-0.008991152979433537,1.2732839584350586,1
619,10.348196029663086,-3.9124581813812256,4.430835247039795,-0.5550885200500488,0.3207174241542816,1.3176467418670654,1
620,18.486087799072266,-10.837455749511719,4.046468734741211,-0.5569400787353516,0.30124300718307495,1.365363359451294,1
621,22.42183494567871,-15.759684562683105,4.0773701667785645,-0.3109399378299713,0.48970991373062134,1.4174634218215942,1
622,21.41617202758789,-17.228822708129883,3.312828302383423,-0.25274622440338135,0.821162760257721,1.444537878036499,1
623,14.730001449584961,-11.1201810836792,3.173776865005493,0.10438202321529388,1.18659508228302,1.4828940629959106,1
624,4.598109245300293,1.6286273002624512,2.9086663722991943,0.3495016396045685,1.4367036819458008,1.5185602903366089,1
625,-6.713573455810547,14.66933536529541,3.4025559425354004,-0.15175043046474457,1.2452865839004517,1.5091243982315063,1
626,-12.935843467712402,23.471107482910156,3.3517816066741943,-0.42273983359336853,1.1709352731704712,1.530551552772522,1
627,-14.262017250061035,27.41317367553711,2.877295732498169,-0.6098567247390747,0.9904428124427795,1.5735421180725098,1
628,-11.889458656311035,17.193618774414062,3.7481791973114014,-0.9382447600364685,0.7844151854515076,1.6030707359313965,1
629,-10.926983833312988,3.3188960552215576,4.218028545379639,-0.983397364616394,0.8927570581436157,1.6549944877624512,1
630,-9.113543510437012,-16.844833374023438,2.8248255252838135,-0.9079250693321228,0.7283840775489807,1.7143981456756592,1
631,-6.315908432006836,-22.945587158203125,3.1144402027130127,-0.7798011898994446,0.5860806107521057,1.7465159893035889,1
632,3.406491756439209,-26.62202262878418,4.048771858215332,-0.5852601528167725,0.5093376040458679,1.7732574939727783,1
633,7.093833923339844,-18.427898406982422,5.661462783813477,0.012057927437126637,0.5000585317611694,1.8521137237548828,1
634,4.406740665435791,-4.736273765563965,6.280647277832031,-0.09813040494918823,0.6929605007171631,1.8623793125152588,1
635,-3.8044044971466064,3.419466733932495,5.089831352233887,0.5978519916534424,0.7837980389595032,1.9971036911010742,1
636,-14.780559539794922,18.631343841552734,3.4589638710021973,-0.5079250335693359,0.9413675665855408,1.9100780487060547,1
637,-22.129457473754883,26.642072677612305,1.6163806915283203,-0.6568560600280762,0.639664351940155,1.9562729597091675,1
638,-21.37445831298828,27.05031967163086,-0.6655736565589905,-0.9330862760543823,0.29582828283309937,1.9771573543548584,1
639,-16.016401290893555,14.598044395446777,-0.8541916608810425,-1.1453219652175903,0.09673943370580673,1.9824274778366089,1
640,-6.902087211608887,2.163632869720459,-0.5604175925254822,-1.3226057291030884,-0.0781479999423027,1.9757155179977417,1
641,1.4051388502120972,-9.850919723510742,-1.4136199951171875,-1.2427926063537598,-0.1847180873155594,1.9839608669281006,1
642,7.802815914154053,-27.625211715698242,-3.97067928314209,-1.031819462776184,-0.09017320722341537,1.9874519109725952,1
643,16.90972900390625,-40.53339767456055,-4.695430278778076,-0.6113765239715576,-0.029485538601875305,1.9695634841918945,1
644,23.37867546081543,-37.02904510498047,-4.693861961364746,-0.3542574942111969,0.2396438717842102,1.9197288751602173,1
645,25.69603729248047,-33.597904205322266,-5.446145534515381,-0.06198054924607277,0.3988704979419708,1.8629263639450073,1
646,17.817646026611328,-40.227237701416016,-5.481266498565674,0.4027771055698395,0.8101212978363037,1.8159104585647583,1
647,4.020615100860596,-43.61476135253906,-6.138350009918213,0.6837212443351746,0.8186261057853699,1.748577356338501,1
648,-10.793285369873047,-38.28421401977539,-6.379415035247803,1.220536708831787,0.8261927366256714,1.690108299255371,1
649,-22.71199607849121,-26.376628875732422,-8.527361869812012,1.621242642402649,0.6802989840507507,1.6258103847503662,1
650,-29.558462142944336,-6.657199382781982,-10.306875228881836,2.163212299346924,0.3301961421966553,1.5740091800689697,1
651,-24.981542587280273,6.41826868057251,-9.323399543762207,2.241328001022339,0.09465520083904266,1.4680622816085815,1
652,-12.058672904968262,9.22313117980957,-8.341889381408691,2.102426767349243,-0.15354910492897034,1.3618401288986206,1
653,3.545344114303589,5.037159442901611,-6.6852617263793945,2.0479488372802734,-0.13538044691085815,1.2479236125946045,1
654,18.121084213256836,0.12503761053085327,-5.06660795211792,1.7795826196670532,-0.22346527874469757,1.1818945407867432,1
655,23.39354705810547,-1.3630385398864746,-3.295938730239868,1.746647596359253,0.06655730307102203,1.0992511510849,1
656,21.342267990112305,6.635470867156982,-1.471562385559082,1.7185386419296265,0.36991626024246216,1.042182207107544,1
657,10.282272338867188,6.83518648147583,-1.1238594055175781,1.7259256839752197,0.6418771147727966,1.0148165225982666,1
658,-6.404573917388916,10.23768424987793,-0.7007906436920166,1.6468009948730469,0.668474555015564,1.0286333560943604,1
659,-20.126022338867188,10.864226341247559,-0.22382855415344238,1.573665738105774,0.5757122039794922,1.0363569259643555,1
660,-27.593475341796875,5.545750617980957,0.3704832196235657,1.4253677129745483,0.4092006981372833,1.032167673110962,1
661,-31.98121452331543,3.620806932449341,3.1157076358795166,1.4327019453048706,-0.03150169551372528,1.0861542224884033,1
662,-24.92758560180664,-5.228792190551758,5.458776950836182,1.3294862508773804,-0.17036041617393494,1.0584297180175781,1
663,-14.66966724395752,-12.552474021911621,6.852482795715332,1.483149766921997,-0.518279492855072,1.1350657939910889,1
664,0.9410676956176758,-15.27839183807373,6.762528419494629,1.598902702331543,-0.6955253481864929,1.199283480644226,1
665,14.29574203491211,-8.002089500427246,6.88358211517334,1.9126172065734863,-0.6989765763282776,1.2581111192703247,1
666,20.293472290039062,9.507782936096191,7.850707530975342,2.1286203861236572,-0.4834086000919342,1.291721224784851,1
667,23.29094886779785,25.521942138671875,8.976080894470215,1.7460705041885376,-0.14756347239017487,1.3318357467651367,1
668,11.878034591674805,44.22303771972656,7.520254135131836,1.7730599641799927,0.05780903622508049,1.4204944372177124,1
669,-4.499465465545654,45.175384521484375,5.4537787437438965,1.071205973625183,0.10337801277637482,1.5365017652511597,1
670,-13.613788604736328,36.68811798095703,2.9021124839782715,0.5781981945037842,0.056725338101387024,1.6117777824401855,1
671,-16.34918975830078,14.436816215515137,1.9311825037002563,0.06182345375418663,-0.08795902878046036,1.6562973260879517,1
672,-16.942264556884766,-12.097861289978027,0.751740574836731,-0.11834318935871124,-0.2834256589412689,1.685704231262207,1
673,-10.020282745361328,-25.097871780395508,0.6281415224075317,0.119394451379776,-0.47589927911758423,1.6985708475112915,1
674,-2.0986380577087402,-31.636938095092773,0.2958813011646271,0.32350510358810425,-0.647417426109314,1.7158681154251099,1
675,2.906620502471924,-23.018104553222656,-0.6288074254989624,0.7824824452400208,-0.6893818974494934,1.7124276161193848,1
676,8.336333274841309,-6.115543365478516,0.3945227265357971,0.9159091114997864,-0.6256059408187866,1.7094894647598267,1
677,8.861124992370605,16.796276092529297,-1.0892901420593262,0.9756774306297302,-0.47580936551094055,1.704419732093811,1
678,2.576420783996582,38.24256134033203,-4.2418646812438965,0.9146614074707031,-0.3244330883026123,1.679769515991211,1
679,1.3455486297607422,35.24870300292969,-6.441954135894775,0.4666770398616791,-0.4034366309642792,1.6777286529541016,1
680,1.957375407218933,21.480480194091797,-9.138493537902832,0.09179654717445374,-0.3116730749607086,1.5987986326217651,1
681,2.324512004852295,1.9364608526229858,-11.550747871398926,-0.2977501153945923,-0.359701007604599,1.5291119813919067,1
682,5.544533729553223,-15.709456443786621,-13.562540054321289,-0.31927743554115295,-0.3806266188621521,1.420151710510254,1
683,13.895604133605957,-28.619712829589844,-13.618494033813477,0.06434070318937302,-0.27205890417099,1.2639919519424438,1
684,21.481937408447266,-29.365768432617188,-12.722938537597656,0.40683233737945557,-0.11891037225723267,1.1180305480957031,1
685,21.60556411743164,-15.292641639709473,-10.345871925354004,0.8843373656272888,0.2237628847360611,0.9517325758934021,1
686,18.33940887451172,8.240893363952637,-5.64269495010376,1.0682939291000366,0.1658151000738144,0.8822376132011414,1
687,13.290128707885742,33.16122055053711,-2.930079698562622,0.9513229727745056,0.5014412999153137,0.8067481517791748,1
688,9.534880638122559,48.39235305786133,-0.31606683135032654,0.544442355632782,0.5193163752555847,0.7997730374336243,1
689,3.646043300628662,46.6666259765625,3.035447120666504,-0.03510807454586029,0.690891683101654,0.7926709651947021,1
690,-8.57421588897705,26.12047004699707,6.471313953399658,-0.5032914280891418,0.6175456643104553,0.8357937335968018,1
691,-22.25868034362793,4.990185260772705,6.6042704582214355,-0.814417839050293,0.489380419254303,0.9025881290435791,1
692,-34.3867301940918,-5.302231788635254,5.487730503082275,-0.8889776468276978,0.15335731208324432,0.9754424095153809,1
693,-38.30392837524414,-12.797431945800781,3.1585536003112793,-0.7566179037094116,-0.14457838237285614,1.0306293964385986,1
694,-32.07980728149414,-12.25037670135498,0.9641700387001038,-0.5579252243041992,-0.6532121896743774,1.0708333253860474,1
695,-20.136493682861328,-17.021636962890625,-1.4783761501312256,-0.4104801118373871,-0.8592003583908081,1.0839922428131104,1
696,5.327875137329102,-10.546987533569336,-2.9969687461853027,-0.2089531123638153,-1.158075213432312,1.0736364126205444,1
697,27.251787185668945,5.472805976867676,-3.9475409984588623,0.03138897940516472,-1.0622920989990234,1.0409401655197144,1
698,42.037723541259766,22.670578002929688,-4.671274185180664,0.024664001539349556,-0.6634320616722107,1.0088626146316528,1
699,41.29063034057617,32.54387283325195,-6.12021017074585,-0.25238654017448425,-0.39844247698783875,0.9704957604408264,1
700,22.06646728515625,42.18439865112305,-10.751470565795898,-0.6641747355461121,0.14354199171066284,0.9189845323562622,1
701,0.7218770384788513,42.630088806152344,-13.63454818725586,-1.0521886348724365,0.33694547414779663,0.8198543787002563,1
702,-15.052175521850586,24.64040184020996,-15.336132049560547,-1.628562092781067,0.41482779383659363,0.7064696550369263,1
703,-25.493267059326172,0.1705787181854248,-17.190643310546875,-1.7977501153945923,0.20945027470588684,0.5478439331054688,1
704,-27.573884963989258,-9.626026153564453,-19.06441879272461,-1.8393853902816772,-0.1697845458984375,0.366568386554718,1
705,-16.767108917236328,-16.613834381103516,-19.769474029541016,-1.7074476480484009,-0.5737253427505493,0.1625315546989441,1
706,6.781817436218262,-25.250356674194336,-20.485864639282227,-1.4532924890518188,-0.7410310506820679,-0.03008701466023922,1
707,34.74070358276367,-25.707489013671875,-20.325231552124023,-1.073899507522583,-0.6115165948867798,-0.2168325036764145,1
708,57.78173065185547,-18.669694900512695,-18.76466941833496,-0.7507595419883728,-0.09675361216068268,-0.3837413191795349,1
709,73.81393432617188,-6.108868598937988,-16.133819580078125,-0.7494401335716248,0.588316023349762,-0.5348156690597534,1
710,72.47343444824219,6.87976598739624,-13.405922889709473,-0.5740001797676086,1.0814752578735352,-0.7428925633430481,1
711,59.11477279663086,4.252050399780273,-11.303764343261719,-0.7197448015213013,2.199986457824707,-0.815443754196167,1
712,34.80665588378906,3.918516159057617,-8.727496147155762,-0.7577568888664246,2.291534423828125,-1.0192922353744507,1
713,7.60035514831543,7.6913299560546875,-3.89731502532959,-0.7531190514564514,2.8893563747406006,-1.0756419897079468,1
714,-16.782609939575195,-10.777174949645996,-0.09884027391672134,-0.7371056079864502,2.9763832092285156,-1.1247310638427734,1
715,-34.020023345947266,-22.255962371826172,3.2459185123443604,-0.5791965126991272,2.7368898391723633,-1.1511484384536743,1
716,-47.046451568603516,-26.776763916015625,3.684231758117676,-0.32676324248313904,2.28680157661438,-1.1522085666656494,1
717,-49.711509704589844,-12.025460243225098,3.486063003540039,-0.06126410514116287,2.138836622238159,-1.0770024061203003,1
718,-45.63743209838867,0.6400691270828247,4.984207630157471,0.1756550669670105,1.3570411205291748,-1.076735258102417,1
719,-33.24699401855469,14.304192543029785,6.394481182098389,0.10090675950050354,0.7952288389205933,-1.0656365156173706,1
720,-19.016094207763672,28.683490753173828,9.20262622833252,-0.08862757682800293,0.8345789909362793,-0.9700583219528198,1
721,-5.732676029205322,41.4432258605957,9.713173866271973,-0.41478198766708374,0.5734435319900513,-0.9007279276847839,1
722,5.34066104888916,49.62640380859375,8.776627540588379,-0.7003873586654663,0.46827977895736694,-0.7901286482810974,1
723,15.769624710083008,46.08391189575195,8.15115737915039,-1.3164364099502563,0.5643601417541504,-0.7145686149597168,1
724,17.11931800842285,35.420166015625,7.658610820770264,-1.9534066915512085,0.8102401494979858,-0.6390644907951355,1
725,12.257229804992676,18.084287643432617,6.666842937469482,-2.4207406044006348,0.9343246817588806,-0.577597439289093,1
726,-4.090407848358154,1.671539545059204,5.468177795410156,-2.331465005874634,0.902442216873169,-0.49264368414878845,1
727,-19.79540252685547,-6.903878211975098,3.129138231277466,-2.3549540042877197,0.8457860946655273,-0.44082239270210266,1
728,-27.730302810668945,-7.524718284606934,1.7072197198867798,-2.2974326610565186,0.6246814131736755,-0.41706031560897827,1
729,-24.916166305541992,-6.530991077423096,1.0606826543807983,-2.0744478702545166,0.3448772430419922,-0.38007262349128723,1
730,-13.893952369689941,-5.9797749519348145,-0.3461008667945862,-1.9581778049468994,0.23937669396400452,-0.3214990198612213,1
731,0.500717282295227,-8.971503257751465,-1.3439089059829712,-1.8670039176940918,0.07801774889230728,-0.31500816345214844,1
732,15.521575927734375,-5.870606899261475,-2.3869166374206543,-1.9513791799545288,0.14500640332698822,-0.3175581693649292,1
733,26.235309600830078,-0.05210036411881447,-2.329418897628784,-1.7738901376724243,0.01996234431862831,-0.3974228501319885,1
734,30.765888214111328,6.718937397003174,-1.6063767671585083,-1.9735348224639893,0.3024614155292511,-0.4273920953273773,1
735,27.632219314575195,8.041242599487305,-0.7655627131462097,-1.9696069955825806,0.8011640906333923,-0.37750619649887085,1
736,15.95712947845459,0.121014304459095,-0.6746187210083008,-2.057925224304199,1.0984861850738525,-0.38125312328338623,1
737,-1.3851796388626099,-6.245274543762207,0.11884492635726929,-2.0382494926452637,1.3467097282409668,-0.3641768991947174,1
738,-20.632177352905273,-15.565423011779785,0.4244416356086731,-1.8512699604034424,1.3096610307693481,-0.3726315200328827,1
739,-32.707481384277344,-27.493541717529297,1.791924238204956,-1.8748759031295776,0.980226457118988,-0.4377497732639313,1
740,-35.8527946472168,-33.055057525634766,3.534076452255249,-1.6903541088104248,0.4652212858200073,-0.5003644824028015,1
741,-31.313840866088867,-31.746442794799805,3.977154016494751,-1.2556798458099365,0.2563650608062744,-0.41535818576812744,1
742,-21.516841888427734,-28.352664947509766,3.8940184116363525,-0.8389168381690979,-0.2473371922969818,-0.4210997223854065,1
743,-8.204219818115234,-25.73031997680664,4.325063705444336,-0.8901278376579285,-0.22949431836605072,-0.3364388942718506,1
744,3.100918769836426,-14.213500022888184,4.539606094360352,-0.3965607285499573,-0.30659401416778564,-0.26891499757766724,1
745,12.1688232421875,-2.881849527359009,3.1185109615325928,-0.24415947496891022,-0.27690473198890686,-0.2215166836977005,1
746,13.7605562210083,10.332642555236816,1.9538487195968628,-0.1412683129310608,-0.10722529888153076,-0.17286543548107147,1
747,9.203985214233398,22.671640396118164,1.3347238302230835,-0.1763608604669571,0.09482746571302414,-0.13782453536987305,1
748,1.1179163455963135,30.99578094482422,0.5753511190414429,-0.4806671738624573,0.08630204200744629,-0.14642193913459778,1
749,-5.3969526290893555,33.61631774902344,-0.3285368084907532,-0.8383025527000427,0.09647496789693832,-0.14291240274906158,1
750,-9.754167556762695,19.737041473388672,-1.36617910861969,-1.2351176738739014,-0.0012448019115254283,-0.1530674546957016,1
751,-9.627044677734375,-1.926229476928711,-1.8508809804916382,-1.4249157905578613,-0.15923982858657837,-0.17636796832084656,1
752,-6.338834285736084,-26.841474533081055,-1.8823847770690918,-1.2638576030731201,-0.1745169758796692,-0.18263015151023865,1
753,-0.6966846585273743,-46.42314910888672,-1.9049714803695679,-1.4110476970672607,-0.2846856117248535,-0.20366910099983215,1
754,4.972867965698242,-54.17744064331055,-0.9013535976409912,-0.9266981482505798,-0.22878171503543854,-0.20898976922035217,1
755,9.045002937316895,-47.807159423828125,0.4594721496105194,-0.10780884325504303,-0.4443800151348114,-0.2660568654537201,1
756,9.367207527160645,-22.115371704101562,1.446344017982483,0.22362767159938812,-0.09089002013206482,-0.2167939841747284,1
757,8.211520195007324,-2.3780832290649414,1.1452276706695557,0.4766600430011749,0.04959385097026825,-0.1981820911169052,1
758,4.333056926727295,23.508220672607422,0.4559482932090759,0.6532710194587708,0.30722877383232117,-0.17805439233779907,1
759,-6.060219764709473,41.58019256591797,1.3753550052642822,-0.1501675844192505,0.23446060717105865,-0.16176576912403107,1
760,-6.045571804046631,26.998088836669922,3.274923324584961,-0.6556565761566162,-0.09515473246574402,-0.1548139601945877,1
761,-4.7142133712768555,4.322565078735352,5.299556255340576,-0.9361432194709778,-0.12734289467334747,-0.12825465202331543,1
762,-2.453657388687134,-19.06545066833496,6.6922454833984375,-1.0009584426879883,-0.1358988732099533,-0.08038997650146484,1
763,0.4457855522632599,-39.96648025512695,6.698753356933594,-1.0378528833389282,-0.17896944284439087,-0.007225601002573967,1
764,1.3203095197677612,-51.99745178222656,5.725069999694824,-0.6558149456977844,-0.10321586579084396,0.06301453709602356,1
765,0.8516457676887512,-54.845619201660156,5.440681457519531,0.1394723355770111,-0.0908900797367096,0.10603570193052292,1
766,0.7979201078414917,-55.17140197753906,3.6021568775177,0.3354376554489136,-0.09197911620140076,0.18265223503112793,1
767,1.3250665664672852,-47.51816940307617,2.5221316814422607,1.2528585195541382,0.04126225411891937,0.20030714571475983,1
768,1.1283997297286987,-24.404417037963867,0.6200261116027832,1.4662023782730103,0.03778063505887985,0.2430586963891983,1
769,1.0966249704360962,7.508841514587402,-3.152024030685425,1.8441953659057617,-0.02521272748708725,0.2529740631580353,1
770,4.693528652191162,32.10396957397461,-4.439976692199707,1.8425898551940918,-0.008879492990672588,0.22989921271800995,1
771,3.962489366531372,43.478546142578125,-7.274169445037842,1.4900387525558472,0.051716726273298264,0.18798501789569855,1
772,1.6883337497711182,35.39784240722656,-9.636159896850586,0.9641048312187195,0.03667047992348671,0.1393848955631256,1
773,0.5065378546714783,13.004515647888184,-11.096001625061035,0.5506958961486816,-0.08086933195590973,0.0734436959028244,1
774,0.5104547739028931,-18.423070907592773,-12.659769058227539,0.49246227741241455,0.001373367733322084,-0.055263690650463104,1
775,2.176396608352661,-39.187286376953125,-13.620535850524902,0.7716479897499084,0.01281737256795168,-0.18716216087341309,1
776,-1.4773375988006592,-48.784751892089844,-15.08875846862793,0.8987904191017151,0.03928447887301445,-0.3080056309700012,1
777,-3.2961981296539307,-48.557708740234375,-16.462596893310547,1.4128608703613281,0.020087257027626038,-0.45543527603149414,1
778,-3.6333653926849365,-35.9481315612793,-17.0120792388916,2.0701398849487305,0.049142174422740936,-0.6390706300735474,1
779,-3.8768486976623535,-11.901524543762207,-15.898774147033691,2.0288379192352295,0.0030623909551650286,-0.7808325886726379,1
780,-6.130825996398926,7.5332489013671875,-15.818031311035156,2.413884401321411,0.017941854894161224,-0.9656819701194763,1
781,-5.479183673858643,15.57469654083252,-14.932748794555664,2.3898134231567383,-0.07369334995746613,-1.110519289970398,1
782,-1.4553710222244263,13.75514030456543,-14.441173553466797,2.290200710296631,-0.23139329254627228,-1.2268972396850586,1
783,3.3807973861694336,7.657658576965332,-12.76369571685791,2.1388325691223145,0.09983956068754196,-1.4909478425979614,1
784,7.6974358558654785,-0.04622260108590126,-10.140423774719238,2.085775375366211,0.1357371062040329,-1.6288056373596191,1
785,9.494924545288086,-5.52215576171875,-7.728902339935303,2.220153570175171,0.027781177312135696,-1.6751656532287598,1
786,5.858433246612549,-11.327896118164062,-6.84115743637085,1.8660458326339722,0.173042893409729,-1.7566951513290405,1
787,6.332400798797607,-19.043832778930664,-5.781225204467773,2.1114978790283203,0.26059019565582275,-1.84209406375885,1
788,5.582745552062988,-25.381589889526367,-3.2018580436706543,2.1846604347229004,0.4103553593158722,-1.9339863061904907,1
789,3.935572624206543,-27.844648361206055,-0.3578600585460663,2.7225327491760254,0.47609883546829224,-1.9911682605743408,1
790,-1.1528751850128174,-20.90293312072754,2.626512289047241,2.5975143909454346,0.5252205729484558,-1.9931867122650146,1
791,-4.215819835662842,-6.479226589202881,5.2200727462768555,3.074531316757202,0.4937203526496887,-1.9658105373382568,1
792,-10.859837532043457,11.834261894226074,7.433226585388184,3.1526193618774414,0.39752331376075745,-1.8903597593307495,1
793,-16.731853485107422,37.79330062866211,7.803913116455078,2.8504865169525146,0.2643430829048157,-1.800981879234314,1
794,-16.259191513061523,52.79840087890625,7.530938625335693,2.3819406032562256,0.052157267928123474,-1.6988517045974731,1
795,-12.66786003112793,53.26567459106445,7.473380088806152,1.9464620351791382,0.05808824673295021,-1.7090272903442383,1
796,-7.989804267883301,40.7021598815918,9.82365608215332,1.3329380750656128,-0.17491890490055084,-1.5842218399047852,1
797,-1.1586438417434692,13.216290473937988,11.698125839233398,0.85616135597229,-0.26195889711380005,-1.4925892353057861,1
798,3.6518094539642334,-15.393311500549316,12.703269958496094,0.7660133242607117,-0.10054164379835129,-1.464172601699829,1
799,6.208315849304199,-39.979801177978516,15.338104248046875,1.022827386856079,-0.2808341979980469,-1.2532999515533447,1
800,4.088425636291504,-47.5566291809082,15.643278121948242,1.5291827917099,-0.20956912636756897,-1.1152167320251465,1
801,-4.5993452072143555,-44.60757827758789,16.101835250854492,2.1202781200408936,0.05175703391432762,-1.0493452548980713,1
802,-10.119502067565918,-32.24882507324219,14.532299041748047,2.320786237716675,0.09343666583299637,-0.907270073890686,1
803,-13.228015899658203,-13.401633262634277,12.363744735717773,2.972329616546631,0.03857686370611191,-0.785641610622406,1
804,-18.109344482421875,4.759033679962158,11.417670249938965,3.0408434867858887,-0.2321770340204239,-0.59336256980896,1
805,-21.094877243041992,16.056297302246094,11.440464973449707,3.027815103530884,-0.3596470355987549,-0.5057938098907471,1
806,-19.703128814697266,24.439138412475586,10.525778770446777,2.841949462890625,-0.6086914539337158,-0.3777574300765991,1
807,-15.604055404663086,28.719844818115234,8.282496452331543,2.5301973819732666,-0.8263968229293823,-0.2641247510910034,1
808,-10.694417953491211,36.311092376708984,5.489388942718506,2.1183416843414307,-0.9075514078140259,-0.21267777681350708,1
809,-6.4026780128479,42.35231018066406,2.552910566329956,1.6084977388381958,-1.1282718181610107,-0.10252948850393295,1
810,-4.439804553985596,39.48204040527344,-0.026434868574142456,1.4466731548309326,-1.4010047912597656,-0.011390331201255322,1
811,-0.27453169226646423,28.19441032409668,-1.849583387374878,0.9560840725898743,-1.418853998184204,-0.020201127976179123,1
812,7.707441806793213,9.900214195251465,-3.817448377609253,0.7630346417427063,-1.4227173328399658,-0.057568151503801346,1
813,13.68100643157959,-9.428936004638672,-5.01231050491333,0.6934892535209656,-1.3813509941101074,-0.0839897021651268,1
814,16.156003952026367,-26.520936965942383,-5.918881416320801,0.8690589070320129,-0.9722158908843994,-0.23950931429862976,1
815,14.562665939331055,-32.07223129272461,-6.3435869216918945,1.2357853651046753,-1.1677402257919312,-0.20864632725715637,1
816,9.266148567199707,-22.588451385498047,-7.095118999481201,1.6085964441299438,-0.7905802726745605,-0.3464590311050415,1
817,2.346109628677368,-0.8107895255088806,-7.374985694885254,1.7094144821166992,-0.6667572855949402,-0.3911690413951874,1
818,-4.388734817504883,27.823055267333984,-8.271940231323242,1.7897710800170898,-0.6519162058830261,-0.46189162135124207,1
819,-5.658856391906738,49.84841537475586,-8.078042030334473,1.397376298904419,-0.65080326795578,-0.5256543755531311,1
820,1.1069093942642212,56.474971771240234,-8.094547271728516,0.9222676157951355,-0.8883956074714661,-0.5556838512420654,1
821,11.305936813354492,45.08192825317383,-8.235952377319336,0.25397613644599915,-0.8880704045295715,-0.6363088488578796,1
822,17.8923282623291,29.21610450744629,-8.244355201721191,-0.3013041019439697,-0.5774393677711487,-0.7694618105888367,1
823,16.097381591796875,15.234295845031738,-7.940234661102295,-0.4461161494255066,-0.5096716284751892,-0.8630560040473938,1
824,9.310890197753906,3.710649251937866,-7.112538814544678,-0.7286900281906128,-0.313410222530365,-0.9287227392196655,1
825,3.0324668884277344,-3.7333247661590576,-7.061523914337158,-0.6984274983406067,-0.16693313419818878,-1.0185164213180542,1
826,-1.8912853002548218,-11.310548782348633,-6.234541893005371,-0.7754289507865906,-0.3436327576637268,-1.0566834211349487,1
827,-4.077110767364502,-18.19240379333496,-5.275518417358398,-0.5666401386260986,-0.2243661731481552,-1.147558569908142,1
828,-1.1846898794174194,-23.215173721313477,-4.245127201080322,-0.3552502989768982,-0.2859596610069275,-1.2071387767791748,1
829,0.13829128444194794,-20.9794921875,-3.004126787185669,0.02649465948343277,-0.31177228689193726,-1.2689146995544434,1
830,-0.029825598001480103,-16.749969482421875,-2.8272151947021484,0.28898996114730835,-0.31546011567115784,-1.3063774108886719,1
831,-1.8065483570098877,-5.048071384429932,-1.4726731777191162,0.5085273385047913,-0.3155985176563263,-1.3421941995620728,1
832,-3.039224863052368,11.936257362365723,-2.4358181953430176,0.3149745762348175,-0.3413453698158264,-1.333193302154541,1
833,-5.096200466156006,26.41996955871582,-4.037594795227051,0.46789881587028503,-0.3824355900287628,-1.3781977891921997,1
834,-9.374604225158691,41.92500686645508,-4.577649116516113,0.12457679957151413,-0.4561983346939087,-1.4006736278533936,1
835,-9.493553161621094,51.93110275268555,-4.823208332061768,-0.3739485740661621,-0.5907006859779358,-1.4341782331466675,1
836,-5.208297252655029,51.41307067871094,-3.3087823390960693,-1.0635955333709717,-0.7343863248825073,-1.4727131128311157,1
837,2.7072396278381348,39.219425201416016,-1.5113111734390259,-1.6343681812286377,-0.6694189310073853,-1.5043864250183105,1
838,13.071595191955566,21.683382034301758,0.46576717495918274,-2.1020874977111816,-0.6406307220458984,-1.5289655923843384,1
839,19.442033767700195,5.988431930541992,1.6694809198379517,-2.348250389099121,-0.45935314893722534,-1.5276520252227783,1
840,18.20447540283203,-5.345215797424316,3.088031530380249,-2.329488754272461,-0.23385705053806305,-1.5209765434265137,1
841,11.09312629699707,-11.83141040802002,4.057173728942871,-2.1955387592315674,-0.15440446138381958,-1.53065824508667,1
842,1.4243100881576538,-10.207559585571289,4.675012588500977,-1.9488224983215332,0.11477838456630707,-1.4701628684997559,1
843,-8.357684135437012,-1.2294389009475708,4.523852825164795,-1.9271467924118042,0.08415621519088745,-1.441939353942871,1
844,-14.869011878967285,3.7429146766662598,4.732794761657715,-1.8759129047393799,-0.03167788311839104,-1.4156898260116577,1
845,-16.178653717041016,-0.06346556544303894,4.957569122314453,-1.84414541721344,-0.18387971818447113,-1.3776824474334717,1
846,-8.685977935791016,-10.06773567199707,5.718271732330322,-1.8497116565704346,-0.36624351143836975,-1.3365695476531982,1
847,1.2729305028915405,-14.2182035446167,7.420043468475342,-1.8572129011154175,-0.5208559632301331,-1.29140043258667,1
848,7.508039474487305,-9.421364784240723,8.76077651977539,-1.5673881769180298,-0.43599894642829895,-1.191043734550476,1
849,10.079864501953125,-2.791334629058838,9.31497859954834,-1.4886395931243896,-0.3163498044013977,-1.0838462114334106,1
850,6.653137683868408,11.515244483947754,10.128050804138184,-1.5421236753463745,-0.15457765758037567,-0.9592136740684509,1
851,2.479379415512085,19.958812713623047,10.266617774963379,-1.6529176235198975,-0.036619339138269424,-0.8433113694190979,1
852,-1.5095243453979492,19.130508422851562,11.321372985839844,-1.9690369367599487,0.0008720134501345456,-0.735658586025238,1
853,-5.2340288162231445,4.551408767700195,12.29463005065918,-2.1309449672698975,-0.03982005640864372,-0.6413936018943787,1
854,-5.386710166931152,-15.678657531738281,13.29049015045166,-2.1618974208831787,-0.13544176518917084,-0.5448958873748779,1
855,-7.2568793296813965,-32.39680480957031,14.436854362487793,-2.003079891204834,-0.30569615960121155,-0.46890512108802795,1
856,-8.177271842956543,-42.291839599609375,15.147790908813477,-1.6246939897537231,-0.34473684430122375,-0.3213718831539154,1
857,-7.340415954589844,-40.711002349853516,16.043041229248047,-1.1406816244125366,-0.4715590178966522,-0.19488559663295746,1
858,-1.7837388515472412,-25.78837776184082,17.480661392211914,-0.8016993999481201,-0.29287993907928467,0.07666381448507309,1
859,2.1461877822875977,-5.218780994415283,17.61783790588379,-0.48476484417915344,-0.2721978425979614,0.2696181535720825,1
860,3.991382598876953,9.021626472473145,17.11096954345703,-0.3760359585285187,-0.26126089692115784,0.44088587164878845,1
861,0.028429582715034485,10.675614356994629,15.355071067810059,-0.4056124985218048,-0.2825985550880432,0.5874369740486145,1
862,-7.800858974456787,4.197972297668457,13.974865913391113,-0.4387512505054474,-0.2862066328525543,0.7378408908843994,1
863,-16.328880310058594,-4.0924835205078125,11.470324516296387,-0.4914698600769043,-0.4255908131599426,0.8566557765007019,1
864,-18.4329833984375,-16.373611450195312,9.282113075256348,-0.43633443117141724,-0.5463813543319702,0.984035313129425,1
865,-19.297870635986328,-20.185428619384766,7.416433811187744,-0.3315724730491638,-0.772286593914032,1.067643404006958,1
866,-18.251510620117188,-27.613262176513672,5.3295979499816895,-0.26948606967926025,-1.0786004066467285,1.1183375120162964,1
867,-10.892643928527832,-31.991046905517578,2.477530002593994,-0.08929277211427689,-1.2985529899597168,1.1771477460861206,1
868,3.557061195373535,-35.86087417602539,-1.8177766799926758,0.523349404335022,-1.4853299856185913,1.1889302730560303,1
869,21.383752822875977,-33.565834045410156,-3.7106335163116455,0.9112867712974548,-1.4520494937896729,1.2016716003417969,1
870,37.218536376953125,-21.110231399536133,-4.204346179962158,1.0736792087554932,-1.2690136432647705,1.202958106994629,1
871,44.83613586425781,3.5359866619110107,-4.703471660614014,1.4076801538467407,-0.7507920861244202,1.1887989044189453,1
872,39.713165283203125,27.34347152709961,-6.399075031280518,1.292250156402588,-0.3809170722961426,1.1535626649856567,1
873,25.155298233032227,36.30347442626953,-8.095802307128906,0.9965465068817139,0.15524519979953766,1.1094629764556885,1
874,12.62907886505127,38.2458381652832,-6.5658440589904785,0.5870683789253235,0.0972711443901062,1.0177857875823975,1
875,-1.2779620885849,29.19667625427246,-5.289505958557129,0.20207396149635315,0.2625829577445984,0.9495145082473755,1
876,-14.780855178833008,13.548127174377441,-3.75950026512146,-0.04534373804926872,0.2172018140554428,0.8894362449645996,1
877,-17.4228515625,-13.933699607849121,-2.697758674621582,-0.17344118654727936,0.034835848957300186,0.8461325764656067,1
878,-12.991531372070312,-33.66474151611328,-2.859400510787964,-0.05923207849264145,-0.14016054570674896,0.8161580562591553,1
879,-6.122142791748047,-42.47707748413086,-2.9942877292633057,0.32901594042778015,-0.3282972574234009,0.7867662906646729,1
880,3.0616211891174316,-37.453636169433594,-2.426914691925049,0.7886486649513245,-0.47624847292900085,0.7564988732337952,1
881,13.336938858032227,-20.854093551635742,-2.4993557929992676,1.3905351161956787,-0.3232762813568115,0.7247805595397949,1
882,22.267780303955078,2.104921579360962,-1.9628288745880127,1.6348388195037842,-0.16249249875545502,0.701730489730835,1
883,27.703895568847656,24.927921295166016,-1.460123896598816,1.4092729091644287,-0.0036440270487219095,0.688255250453949,1
884,26.403249740600586,38.152366638183594,-2.88889479637146,1.0831955671310425,0.257149338722229,0.6750794053077698,1
885,20.507619857788086,46.413394927978516,-4.516881942749023,0.6531063318252563,0.5985645651817322,0.6506181955337524,1
886,11.083085060119629,42.59067916870117,-6.4205322265625,0.14885124564170837,0.9806320667266846,0.6028903722763062,1
887,4.867245674133301,35.29400634765625,-7.180487632751465,-0.06107800826430321,0.8511369228363037,0.5772812366485596,1
888,0.2022676169872284,14.292295455932617,-8.002208709716797,-0.5068672299385071,0.7734383344650269,0.5192016959190369,1
889,0.5481405854225159,-15.021353721618652,-7.69666051864624,-0.6733312606811523,0.842041015625,0.44344639778137207,1
890,5.59270715713501,-40.871036529541016,-6.0692362785339355,-0.4247046411037445,0.8826440572738647,0.3743740916252136,1
891,7.80374002456665,-48.093074798583984,-2.6276755332946777,-0.05411495640873909,0.9179381132125854,0.3020850121974945,1
892,6.7736430168151855,-46.090301513671875,-0.2711716592311859,0.48076754808425903,0.9964166283607483,0.26330962777137756,1
893,3.511848211288452,-30.20099639892578,1.6633778810501099,1.2250161170959473,1.1444498300552368,0.2715965807437897,1
894,-2.8614578247070312,-11.910513877868652,1.42447030544281,1.2285387516021729,1.105181097984314,0.23607368767261505,1
895,-5.537716865539551,9.993155479431152,0.6462935209274292,1.5083903074264526,1.1087839603424072,0.2639262080192566,1
896,-5.612940311431885,24.768756866455078,-1.3096345663070679,1.3136420249938965,1.0613378286361694,0.25356507301330566,1
897,-6.398008346557617,38.11789321899414,-2.4800162315368652,1.0127393007278442,0.9961090683937073,0.23485279083251953,1
898,-5.887490272521973,46.67528533935547,-2.830524206161499,0.7194603681564331,0.9222285151481628,0.22615934908390045,1
899,-1.5508702993392944,41.1318359375,-2.4412460327148438,0.1829429715871811,0.7850959300994873,0.20163443684577942,1
900,2.4974465370178223,31.918657302856445,-2.0799384117126465,-0.21513308584690094,0.7857207655906677,0.18430200219154358,1
901,5.664783000946045,16.85024070739746,-1.101181983947754,-0.6627470254898071,0.8520957827568054,0.1447533667087555,1
902,9.88976764678955,2.198777914047241,1.7148789167404175,-0.7944485545158386,0.9708556532859802,0.1439065933227539,1
903,11.815003395080566,-14.50943660736084,3.0500988960266113,-0.7604312896728516,1.1427128314971924,0.1670319139957428,1
904,9.048483848571777,-22.85915184020996,4.933363914489746,-0.47731396555900574,1.2723644971847534,0.2243693768978119,1
905,2.8431851863861084,-19.140336990356445,6.537045478820801,-0.13240143656730652,1.3707503080368042,0.29167884588241577,1
906,-6.795140266418457,-5.0435051918029785,6.523213863372803,0.030253591015934944,1.4400019645690918,0.33807361125946045,1
907,-16.404502868652344,4.816964626312256,5.648364067077637,0.10381242632865906,1.3415886163711548,0.40133118629455566,1
908,-19.889820098876953,13.753910064697266,4.724086284637451,0.07885974645614624,1.093233585357666,0.4650655686855316,1
909,-16.498857498168945,18.40673065185547,3.0392138957977295,-0.0785231739282608,0.8594653606414795,0.5105936527252197,1
910,-10.113235473632812,23.37136459350586,2.8561670780181885,-0.3109442889690399,0.6684290766716003,0.5301259160041809,1
911,-2.731116533279419,27.30508804321289,3.09053897857666,-0.488646000623703,0.6560493111610413,0.5708667039871216,1
912,3.6233785152435303,19.605331420898438,3.7468137741088867,-0.8541095852851868,0.6847134232521057,0.5813900232315063,1
913,6.366844654083252,13.29762077331543,4.14989709854126,-1.0464773178100586,0.5869879126548767,0.6231595873832703,1
914,1.3382437229156494,2.9674413204193115,3.799431800842285,-1.1416008472442627,0.7458041906356812,0.681272566318512,1
915,-5.286382675170898,-1.835922122001648,3.638335943222046,-1.1494908332824707,0.843331515789032,0.7332108616828918,1
916,-6.06179666519165,-4.382122039794922,1.6477257013320923,-1.135852336883545,0.7682256102561951,0.7682496309280396,1
917,-9.750210762023926,-2.634587049484253,0.6580737829208374,-1.021468997001648,0.6652131080627441,0.801114559173584,1
918,-8.46602725982666,5.295989990234375,0.6377750039100647,-0.9892145395278931,0.7306128740310669,0.8261614441871643,1
919,-0.4288059175014496,10.549714088439941,3.0279879570007324,-1.0726548433303833,0.4962261915206909,0.8050060868263245,1
920,5.254941940307617,18.026987075805664,5.9190449714660645,-1.1771199703216553,0.5357248783111572,0.8340378999710083,1
921,3.634925603866577,28.28223991394043,8.0604887008667,-1.3168665170669556,0.600010097026825,0.88811194896698,1
922,-3.9460766315460205,24.387191772460938,9.778083801269531,-1.6173856258392334,0.5852071046829224,0.9472981095314026,1
923,-9.928587913513184,14.27625846862793,9.981334686279297,-1.9661524295806885,0.6104025840759277,1.0334975719451904,1
924,-17.466999053955078,5.941781520843506,9.274723052978516,-2.083770751953125,0.3850897550582886,1.118388056755066,1
925,-23.032068252563477,-5.900740623474121,7.278794288635254,-2.132875680923462,0.19769886136054993,1.2114924192428589,1
926,-21.479389190673828,-18.833602905273438,5.598365306854248,-2.0077099800109863,-0.15864728391170502,1.2739293575286865,1
927,-16.372682571411133,-23.260343551635742,4.193320274353027,-1.8059998750686646,-0.35527876019477844,1.3471235036849976,1
928,-9.78159236907959,-21.52918815612793,2.5821034908294678,-1.6442261934280396,-0.6275548934936523,1.3661491870880127,1
929,-1.0814257860183716,-19.40725326538086,1.0417965650558472,-1.3616293668746948,-0.4352926015853882,1.4893890619277954,1
930,4.943832874298096,-5.320545196533203,-1.1411142349243164,-1.0505961179733276,-0.4807582497596741,1.5156108140945435,1
931,8.828726768493652,18.585315704345703,-3.238590955734253,-0.8583009839057922,-0.41719529032707214,1.528801679611206,1
932,9.368881225585938,34.00470733642578,-6.314228534698486,-1.037241816520691,-0.36155009269714355,1.496862530708313,1
933,6.6268815994262695,37.25045394897461,-9.093121528625488,-1.482885479927063,-0.42130085825920105,1.3949737548828125,1
934,-0.7783729434013367,29.935543060302734,-10.959790229797363,-2.0066285133361816,-0.2995642423629761,1.3183470964431763,1
935,-7.067817211151123,12.416199684143066,-11.629624366760254,-2.42948579788208,-0.22075432538986206,1.2326226234436035,1
936,-9.297333717346191,-8.76406478881836,-11.295781135559082,-2.272429943084717,-0.3968260586261749,1.083263874053955,1
937,-8.727845191955566,-29.64000129699707,-11.136820793151855,-2.2801859378814697,-0.40349382162094116,0.9974850416183472,1
938,-5.714682102203369,-46.01555252075195,-10.98979377746582,-1.8916090726852417,-0.4775608777999878,0.8917521238327026,1
939,-3.8361358642578125,-48.45060729980469,-10.097700119018555,-1.0891520977020264,-0.7815164923667908,0.698325514793396,1
940,0.5900920033454895,-40.1327018737793,-9.852269172668457,-0.947391152381897,-0.6107960939407349,0.680279552936554,1
941,5.756824970245361,-20.20685386657715,-9.979249954223633,-0.49792230129241943,-0.5325922966003418,0.6106022000312805,1
942,4.989023685455322,6.228705406188965,-11.528654098510742,-0.21316012740135193,-0.5172142386436462,0.5035282969474792,1
943,4.20469331741333,28.65534210205078,-10.30540943145752,-0.27290377020835876,-0.5046200752258301,0.3830336928367615,1
944,0.59589684009552,41.187965393066406,-8.138839721679688,-0.6173304915428162,-0.43463006615638733,0.28758537769317627,1
945,-3.349675178527832,46.76027297973633,-5.669246196746826,-1.1807224750518799,-0.550825297832489,0.1831190288066864,1
946,-5.96163272857666,44.81816864013672,-3.338092803955078,-1.6919846534729004,-0.5861720442771912,0.1181941106915474,1
947,-3.617675304412842,27.37583351135254,-0.5424773097038269,-2.30117130279541,-0.6601698994636536,0.08486591279506683,1
948,0.012981475330889225,2.431041955947876,0.5809639096260071,-2.498021125793457,-0.6994616985321045,0.06072045862674713,1
949,8.643471717834473,-16.57567024230957,0.8026952147483826,-2.4578845500946045,-0.729775607585907,0.044233500957489014,1
950,17.612380981445312,-27.759199142456055,0.5464265942573547,-2.0957047939300537,-0.5632201433181763,0.05426865443587303,1
951,23.658111572265625,-32.30759811401367,1.2815096378326416,-1.7460638284683228,-0.33292174339294434,0.07637254893779755,1
952,26.067577362060547,-28.084871292114258,1.712471604347229,-1.7553983926773071,-0.14865510165691376,0.11880945414304733,1
953,21.070903778076172,-19.052717208862305,1.6687164306640625,-1.4676644802093506,0.06984856724739075,0.12361670285463333,1
954,12.08459758758545,-11.341435432434082,0.683576762676239,-1.246376633644104,0.2269403040409088,0.1210303083062172,1
955,1.8405616283416748,-10.551700592041016,-0.9274645447731018,-1.1311092376708984,0.4616232216358185,0.15606006979942322,1
956,-3.618335723876953,-7.505041122436523,-2.307469129562378,-1.1852951049804688,0.31051722168922424,0.1124919056892395,1
957,-1.9392081499099731,-11.493797302246094,-3.728023052215576,-1.2142574787139893,0.28832563757896423,0.10131046175956726,1
958,5.317176818847656,-16.752180099487305,-3.8234915733337402,-0.8948305249214172,0.2904146909713745,0.058762114495038986,1
959,14.020854949951172,-17.346155166625977,-3.0163490772247314,-0.5754910111427307,0.3306606113910675,0.01050064992159605,1
960,18.7705078125,-23.53789520263672,-2.7556376457214355,-0.17706027626991272,0.4328506886959076,-0.0385839082300663,1
961,15.951578140258789,-18.64251708984375,-1.7608213424682617,-0.3488611578941345,0.6145999431610107,-0.05023802071809769,1
962,7.941593170166016,-10.876734733581543,-2.163343667984009,-0.1831156611442566,0.7735458612442017,-0.0727207139134407,1
963,-1.00252103805542,-4.766308307647705,-2.373318672180176,0.066021628677845,0.8696691393852234,-0.09758158773183823,1
964,-8.856011390686035,2.1624324321746826,-3.976529598236084,0.043114978820085526,0.742084264755249,-0.13679654896259308,1
965,-10.883723258972168,8.85617733001709,-6.417192459106445,0.06074807420372963,0.6434962153434753,-0.17521193623542786,1
966,-3.2277705669403076,12.765434265136719,-8.666996955871582,-0.29595911502838135,0.5151354074478149,-0.24082618951797485,1
967,10.221758842468262,10.680755615234375,-8.62386703491211,-0.34333357214927673,0.49192488193511963,-0.31798461079597473,1
968,23.491514205932617,-4.4487738609313965,-7.609529972076416,-0.36088427901268005,0.6064721941947937,-0.3975394070148468,1
969,32.12405014038086,-20.678720474243164,-5.70255708694458,-0.3304923474788666,0.7127746343612671,-0.48004546761512756,1
970,36.460411071777344,-34.47429656982422,-3.0395684242248535,-0.15770795941352844,1.0506386756896973,-0.5426066517829895,1
971,33.13338851928711,-41.64338302612305,-1.3429455757141113,0.5304099917411804,1.6689764261245728,-0.5628103017807007,1
972,23.177753448486328,-38.8032341003418,-0.700634777545929,0.6661342978477478,1.868324875831604,-0.6104015111923218,1
973,9.933534622192383,-30.716136932373047,-0.2575836479663849,1.0014737844467163,1.995163917541504,-0.6359124779701233,1
974,-2.992968797683716,-18.31389045715332,0.2135733962059021,1.3657878637313843,2.1377670764923096,-0.6477451324462891,1
975,-12.33029842376709,-1.0753967761993408,-0.2116508036851883,1.5215705633163452,2.1238622665405273,-0.6614987850189209,1
