,gyro.x,gyro.y,gyro.z,stabilizer.pitch,stabilizer.roll,stabilizer.yaw,label
0,0.1055123582482338,-0.11033253371715546,0.13450458645820618,-0.11077845096588135,0.7209768295288086,6.96958589553833,0
1,0.003803201485425234,-0.06238822638988495,-0.006389119662344456,-0.10434787720441818,0.6375093460083008,6.964289665222168,0
2,0.03224954381585121,-0.03941184654831886,-0.04179852828383446,-0.03626600652933121,0.6363476514816284,6.956596374511719,0
3,-0.07161673158407211,-0.04119285196065903,0.04323596507310867,-0.04891745001077652,0.634881317615509,6.950077056884766,0
4,0.1013246551156044,0.03309810534119606,0.014552404172718525,-0.05899721011519432,0.6348430514335632,6.943127155303955,0
5,-0.044327136129140854,-0.07663939148187637,0.044032782316207886,-0.06729995459318161,0.635619580745697,6.936760902404785,0
6,0.19088906049728394,-0.013725600205361843,0.04136558622121811,-0.07283564656972885,0.6353350877761841,6.930136680603027,0
7,0.035811930894851685,-0.08199793845415115,0.09219661355018616,-0.015241567976772785,0.6365922093391418,6.923719882965088,0
8,0.07243358343839645,0.054521914571523666,0.18891461193561554,-0.09793506562709808,0.6365936398506165,6.918164253234863,0
9,0.02198975346982479,0.061432600021362305,0.07339111715555191,-0.16168522834777832,0.6373184323310852,6.912869930267334,0
10,0.06244540959596634,-0.04844683036208153,0.07221930474042892,-0.14708983898162842,0.6368298530578613,6.907052993774414,0
11,-0.004132859408855438,-0.07516389340162277,0.019113585352897644,-0.07183654606342316,0.6371627449989319,6.899672031402588,0
12,0.07703378051519394,-0.04958730936050415,0.03175726532936096,-0.07716979831457138,0.6378645896911621,6.893373966217041,0
13,0.03713447228074074,0.0004072278388775885,0.0425114706158638,-0.07724479585886002,0.6373157501220703,6.887212753295898,0
14,-0.029766645282506943,-0.06217682361602783,0.016703881323337555,-0.076841339468956,0.6367443799972534,6.880514621734619,0
15,-0.017877448350191116,-0.04166660085320473,0.0344354622066021,-0.07625801861286163,0.6357802748680115,6.874077796936035,0
16,0.10242734849452972,-0.03456535562872887,-0.010027886368334293,-0.07605301588773727,0.635294497013092,6.867729187011719,0
17,0.046346910297870636,0.007048110011965036,0.04097069054841995,-0.07597344368696213,0.6358100771903992,6.860923767089844,0
18,0.06879999488592148,0.016715029254555702,0.05073148012161255,-0.07604227215051651,0.6360771059989929,6.854219913482666,0
19,-0.03860543295741081,-0.05243402719497681,0.11802917718887329,-0.07594261318445206,0.6358850598335266,6.848369121551514,0
20,-0.030606087297201157,-0.09023243933916092,-0.05926511809229851,-0.07511240243911743,0.6343619227409363,6.842370510101318,0
21,0.0015058594290167093,-0.05539773404598236,0.16675519943237305,-0.07453157007694244,0.6338254809379578,6.835998058319092,0
22,0.0023256174754351377,-0.0036823542322963476,0.055978793650865555,-0.13852010667324066,0.633832573890686,6.830847263336182,0
23,0.02842695824801922,0.09840431064367294,0.15349970757961273,-0.12458336353302002,0.6338693499565125,6.8246541023254395,0
24,-0.002657900098711252,0.014694251120090485,-0.09402884542942047,-0.10734052956104279,0.6323814988136292,6.812219619750977,0
25,0.10904806107282639,-0.05038244277238846,-0.000834701000712812,-0.10728984326124191,0.6320942044258118,6.805096626281738,0
26,0.11114051192998886,-0.1848529875278473,0.11808235943317413,-0.10633206367492676,0.632295548915863,6.798709392547607,0
27,0.052981194108724594,-0.05096780136227608,0.09117135405540466,-0.10480600595474243,0.6330119371414185,6.7929158210754395,0
28,0.05337505042552948,-0.01751149632036686,0.05283509939908981,-0.10411611944437027,0.6327705383300781,6.787031650543213,0
29,0.02950180135667324,0.04499536752700806,-0.04190924018621445,-0.10360253602266312,0.6322371959686279,6.780640125274658,0
30,-0.023239459842443466,0.015157611109316349,0.04506441205739975,-0.10376974195241928,0.6319840550422668,6.773469924926758,0
31,-0.022071855142712593,-0.07443448156118393,0.04389508441090584,-0.1033412367105484,0.5685814619064331,6.7672810554504395,0
32,0.11585423350334167,0.02711721695959568,-0.024228455498814583,-0.03977039456367493,0.5839570164680481,6.760231018066406,0
33,0.027300482615828514,-0.09702754020690918,0.09820106625556946,0.007327075116336346,0.5971203446388245,6.75341272354126,0
34,0.1176932230591774,0.07297778874635696,0.07473696023225784,-0.08226115256547928,0.6068971753120422,6.7487311363220215,0
35,0.08634187281131744,0.06313003599643707,0.006374724209308624,-0.08966110646724701,0.6153605580329895,6.742566108703613,0
36,0.020339686423540115,-0.12170533090829849,-0.0006141012418083847,-0.09488751739263535,0.6210528612136841,6.73620080947876,0
37,0.05560622364282608,-0.020963016897439957,0.013965718448162079,-0.0941709578037262,0.6208217144012451,6.729666709899902,0
38,0.03933145850896835,-0.09311354160308838,0.016806432977318764,-0.09363768249750137,0.6210008859634399,6.723369598388672,0
39,0.018807824701070786,0.03320750966668129,0.05345308780670166,-0.09346302598714828,0.6208469867706299,6.716638088226318,0
40,-0.025674281641840935,-0.00850890576839447,-0.033370520919561386,-0.1592104136943817,0.6240108609199524,6.710770130157471,0
41,0.029252655804157257,0.03853826969861984,0.026347756385803223,-0.14546288549900055,0.6261650919914246,6.704347610473633,0
42,0.1004091128706932,-0.006445774808526039,0.012851324863731861,-0.0089858528226614,0.6273777484893799,6.6965651512146,0
43,0.07074496895074844,-0.019566165283322334,0.017060816287994385,-0.09541469812393188,0.6294302940368652,6.690855026245117,0
44,0.12866437435150146,-0.07443166524171829,0.004820594564080238,-0.0953865796327591,0.6295444369316101,6.684854984283447,0
45,0.09336461126804352,-0.055606190115213394,0.052973922342061996,-0.15940271317958832,0.6327624320983887,6.6786627769470215,0
46,0.01984420232474804,-0.021392526105046272,0.10968076437711716,-0.08162157237529755,0.6343107223510742,6.672584533691406,0
47,0.09082692116498947,0.0375957265496254,0.14643876254558563,-0.08185190707445145,0.6338307857513428,6.666869163513184,0
48,0.08079840987920761,0.0037674668710678816,0.014496637508273125,-0.08206937462091446,0.6343821287155151,6.661030292510986,0
49,0.07996851205825806,0.05599154159426689,0.0308573879301548,-0.08202224969863892,0.6342535018920898,6.654801845550537,0
50,-0.004979852121323347,0.16244663298130035,0.07136581838130951,-0.08282089978456497,0.6342745423316956,6.6486921310424805,0
51,-0.025610117241740227,0.02434186451137066,0.02305052988231182,-0.08395204693078995,0.6335144639015198,6.64276647567749,0
52,0.029823441058397293,-0.028820836916565895,0.03700943663716316,-0.023024357855319977,0.6330010890960693,6.635863780975342,0
53,0.0751582607626915,0.009380129165947437,0.011178886517882347,-0.10293777287006378,0.6324652433395386,6.630008697509766,0
54,0.026312291622161865,0.08911485970020294,0.02828693389892578,-0.10288630425930023,0.632332980632782,6.623649597167969,0
55,0.06653911620378494,-0.05321597680449486,0.057631105184555054,-0.10306455194950104,0.6317715048789978,6.617617130279541,0
56,0.03302408382296562,-0.025044314563274384,-0.005918288603425026,-0.10247061401605606,0.631743848323822,6.611455917358398,0
57,0.09654196351766586,0.020190589129924774,0.10870783030986786,-0.10276810079813004,0.6318040490150452,6.604957580566406,0
58,0.02113017998635769,0.03205057978630066,0.04337569326162338,-0.10280745476484299,0.6321371793746948,6.599153995513916,0
59,0.09510113298892975,-0.003620623843744397,0.02033119834959507,-0.10298320651054382,0.6321942806243896,6.592931747436523,0
60,-0.05641980469226837,-0.10849350690841675,0.006405709311366081,-0.22910171747207642,0.6326536536216736,6.587377071380615,0
61,0.0035348329693078995,0.012606635689735413,0.06449311226606369,-0.070673868060112,0.631928563117981,6.579861640930176,0
62,-0.0352906808257103,-0.032103199511766434,0.13012926280498505,-0.0787000060081482,0.6311206221580505,6.574193954467773,0
63,0.020563602447509766,0.05244402214884758,-0.011723998934030533,-0.21093861758708954,0.6933479309082031,6.5695905685424805,0
64,0.014330178499221802,-0.05781722441315651,0.04640612378716469,-0.12198951840400696,0.6778773665428162,6.562783241271973,0
65,0.02657218463718891,0.026809638366103172,-0.029577119275927544,-0.11685700714588165,0.665756344795227,6.55634069442749,0
66,0.03047739900648594,0.009854677133262157,0.05880766734480858,-0.1138652116060257,0.6566535830497742,6.549585342407227,0
67,0.046739134937524796,0.06923966854810715,0.04939853772521019,-0.11158613115549088,0.6499391198158264,6.543768882751465,0
68,0.03520054370164871,-0.0875859409570694,0.13167914748191833,-0.11010459065437317,0.582168698310852,6.537045478820801,0
69,0.04697621613740921,-0.008357894606888294,0.11481227725744247,-0.044652048498392105,0.5939148664474487,6.531048774719238,0
70,0.040717463940382004,0.013112303800880909,0.14715547859668732,-0.06004662439227104,0.6032522320747375,6.525618076324463,0
71,0.08991263061761856,-0.023646879941225052,-0.040672026574611664,-0.07257388532161713,0.6093218922615051,6.52020788192749,0
72,-0.037352848798036575,-0.025044213980436325,0.09196358174085617,-0.2076624482870102,0.7412670254707336,6.514695167541504,0
73,0.015626784414052963,0.01674238033592701,-0.0735742524266243,-0.12064046412706375,0.6504375338554382,6.507543563842773,0
74,0.009289849549531937,0.00679030129685998,0.02146080695092678,-0.05468297004699707,0.5817873477935791,6.500234127044678,0
75,0.11738701909780502,-0.012501281686127186,0.023379897698760033,-0.06832719594240189,0.5931335091590881,6.494413375854492,0
76,0.08138345927000046,0.01062287762761116,0.08015666902065277,-0.07884537428617477,0.6033975481987,6.488104343414307,0
77,-0.06977337598800659,-0.1283697634935379,0.01874806359410286,-0.2128019481897354,0.6742954254150391,6.483425140380859,0
78,0.09967482089996338,-0.13222597539424896,-0.007166808936744928,-0.059922441840171814,0.6626956462860107,6.476007461547852,0
79,0.031548142433166504,-0.08952899277210236,0.0377894751727581,-0.07048322260379791,0.6559969186782837,6.469781875610352,0
80,0.05092964693903923,-0.060851868242025375,0.02191011793911457,-0.14297647774219513,0.6504261493682861,6.464162349700928,0
81,0.08887919783592224,-0.0028926022350788116,0.09112908691167831,-0.1348634660243988,0.6466336250305176,6.45795202255249,0
82,-0.007446808274835348,0.014377165585756302,0.06099541112780571,-0.13460984826087952,0.6466846466064453,6.451868057250977,0
83,0.09100223332643509,-0.08710408210754395,0.08005451411008835,-0.1343669295310974,0.6462720632553101,6.445742130279541,0
84,0.006442796438932419,-0.12214893847703934,0.02041805349290371,-0.06723076105117798,0.6446275115013123,6.439819812774658,0
85,0.08354431390762329,0.010443910025060177,0.06904526799917221,-0.07853895425796509,0.6426243782043457,6.4339799880981445,0
86,0.016952242702245712,-0.08419187366962433,0.033581290394067764,-0.15132355690002441,0.7049763798713684,6.42842435836792,0
87,0.1159704253077507,-0.06606099754571915,0.02974824607372284,-0.07926174998283386,0.6246287822723389,6.4219770431518555,0
88,-0.11494669318199158,0.017713159322738647,-0.016649464145302773,-0.08858777582645416,0.6273061037063599,6.415773391723633,0
89,0.011479509994387627,-0.143096923828125,0.008186320774257183,-0.09619709104299545,0.6269144415855408,6.409305572509766,0
90,0.07984334230422974,0.04284576699137688,0.006783492397516966,-0.10021930932998657,0.5650813579559326,6.40270471572876,0
91,-0.06758864223957062,-0.09230128675699234,-0.017318984493613243,-0.10500547289848328,0.5812889933586121,6.396496772766113,0
92,0.014080056920647621,-0.013235901482403278,-0.016976624727249146,-0.10687407851219177,0.5928118824958801,6.390401363372803,0
93,0.04537281021475792,-0.08756948262453079,0.12486443668603897,-0.10909691452980042,0.6023186445236206,6.3842453956604,0
94,0.05415516346693039,-0.028254400938749313,-0.008140035904943943,-0.047270968556404114,0.6104610562324524,6.377912998199463,0
95,0.12283683568239212,-0.02698971889913082,0.09649577736854553,-0.18973958492279053,0.6169957518577576,6.373651027679443,0
96,0.09364696592092514,-0.11574310809373856,-0.028870875015854836,-0.2351791113615036,0.6220595240592957,6.368855953216553,0
97,0.03079797327518463,-0.029704013839364052,0.058243922889232635,0.0,0.0,0.0,0
98,0.02128545381128788,0.006029313430190086,0.04977539926767349,0.0001890594867290929,0.00038179292459972203,0.0005499958642758429,0
99,0.09965628385543823,-0.1113903671503067,-0.05875800549983978,0.000433336099376902,0.0005592457600869238,0.0013759101275354624,0
100,0.12725019454956055,0.03163747489452362,-0.05268731713294983,0.35357630252838135,0.01744052767753601,0.0009798734681680799,0
101,0.06181485205888748,0.0011377003975212574,0.06286340206861496,0.3514055609703064,0.03080618940293789,0.0005251774564385414,0
102,0.04338271915912628,-0.04042045399546623,0.06375986337661743,0.3300919830799103,0.06705382466316223,0.0008187108323909342,0
103,0.0732898935675621,-0.04736641049385071,-0.03644947335124016,0.3010411858558655,0.11697635054588318,0.0011083282297477126,0
104,0.07735820859670639,-0.008523929864168167,0.09061360359191895,-0.2786109149456024,0.17181801795959473,0.0009107834193855524,0
105,0.048056360334157944,-0.06859832257032394,0.07502611726522446,-0.12238297611474991,0.22397738695144653,0.0013983858516439795,0
106,-0.03372332081198692,0.010817889124155045,-0.051084332168102264,-0.023196574300527573,0.2687171697616577,0.0018133865669369698,0
107,0.019834814593195915,0.011726532131433487,0.10342708230018616,0.034098487347364426,0.31038492918014526,0.0013904833467677236,0
108,0.0430251881480217,0.0107579305768013,0.016055846586823463,0.06291770190000534,0.3480999171733856,0.0020607253536581993,0
109,-0.07925208657979965,-0.040015123784542084,0.02925454080104828,0.07501968741416931,0.382504403591156,0.0023892088793218136,0
110,0.018523985520005226,0.03929639607667923,0.11856168508529663,0.43331456184387207,0.4073582589626312,0.0028837828431278467,0
111,-0.02275705337524414,0.008360929787158966,0.015756381675601006,0.3162171542644501,0.43264734745025635,0.0037240744568407536,0
112,0.04358502849936485,-0.025241225957870483,0.02602342888712883,0.23393364250659943,0.45199066400527954,0.004056548699736595,0
113,0.04849744215607643,-0.09512312710285187,0.0852372869849205,0.17434345185756683,0.46885985136032104,0.004239894449710846,0
114,0.09745334088802338,-0.06805458664894104,-0.08224707096815109,0.1296815574169159,0.4832219183444977,0.0045853108167648315,0
115,0.02262735925614834,-0.013829763978719711,0.11348693817853928,0.09612446278333664,0.4985015392303467,0.003778561018407345,0
116,-0.01984155923128128,0.013165540061891079,0.10635361820459366,0.0686541497707367,0.5080907940864563,0.0042989482171833515,0
117,0.051262348890304565,0.07664109766483307,0.059386949986219406,0.045539677143096924,0.5159578323364258,0.0051796929910779,0
118,-0.01997600495815277,-0.034656163305044174,0.0029926581773906946,-0.1793847680091858,0.5251159071922302,0.004231547471135855,0
119,-0.006874695885926485,0.0061449818313121796,0.0760597363114357,-0.13676343858242035,0.7261825799942017,0.005651588551700115,0
120,0.03767681494355202,0.014574587345123291,0.15571540594100952,-0.10893373936414719,0.679731011390686,0.006449858658015728,0
121,0.10615936666727066,-0.02900712937116623,-0.07818859070539474,-0.0905286893248558,0.6477658748626709,0.007437925320118666,0
122,0.05452448129653931,0.03796866908669472,-0.04301711544394493,-0.07875761389732361,0.6276241540908813,0.006730121560394764,0
123,0.028557561337947845,0.009044196456670761,0.008186244405806065,-0.07256518304347992,0.6117611527442932,0.005857259035110474,0
124,-0.0030839063692837954,-0.003043327247723937,-0.03714893013238907,-0.06951773166656494,0.6021081805229187,0.005887657403945923,0
125,-0.009548673406243324,0.011162844486534595,0.11421652883291245,-0.06788745522499084,0.5951538681983948,0.005890826694667339,0
126,-0.018199373036623,-0.005223069805651903,0.09054865688085556,-0.06837272644042969,0.5948451161384583,0.007018626667559147,0
127,0.07161081582307816,-0.001913923886604607,0.10199831426143646,-0.068184994161129,0.5943496823310852,0.007851912640035152,0
128,-0.005908673163503408,-0.04475013539195061,0.057516757398843765,-0.2034296691417694,0.728893518447876,0.008572782389819622,0
129,0.05657145380973816,-0.029698390513658524,-0.017619382590055466,-0.038886234164237976,0.4340782165527344,0.007570964749902487,0
130,0.04321020841598511,-0.016654275357723236,0.04171812906861305,-0.047742169350385666,0.47695380449295044,0.00789402611553669,0
131,-0.039660967886447906,0.03170382231473923,0.0581914484500885,-0.05484762042760849,0.5084428787231445,0.008511765860021114,0
132,0.15833041071891785,-0.017481479793787003,0.14035959541797638,-0.061953868716955185,0.5310413837432861,0.00962714571505785,0
133,0.03208809718489647,-0.04612590745091438,0.031885627657175064,-0.06667497754096985,0.5505486726760864,0.011168957687914371,0
134,0.0007979954243637621,0.035024967044591904,0.09519799798727036,-0.1847386360168457,0.6773733496665955,0.012337861582636833,0
135,0.023468678817152977,-0.036028336733579636,0.022939998656511307,-0.1611924022436142,0.657288134098053,0.013077285140752792,0
136,-0.002656814642250538,0.06556374579668045,0.03360313922166824,-0.03466010466217995,0.6433872580528259,0.014328435063362122,0
137,0.11686068028211594,-0.04674941673874855,0.11572257429361343,0.1616024523973465,0.6321396827697754,0.017045078799128532,0
138,-0.001961521338671446,-0.04011255130171776,-0.029640909284353256,0.09642190486192703,0.6262021064758301,0.017176108434796333,0
139,0.04993283003568649,0.013140661641955376,0.04266422614455223,-0.05432187393307686,0.621288001537323,0.015238586813211441,0
140,0.056909818202257156,-0.04897421970963478,0.011893405579030514,-0.06599798798561096,0.6186702251434326,0.015521232038736343,0
141,0.0733262449502945,0.05249318107962608,-0.0771784782409668,-0.07429017871618271,0.6158300042152405,0.015617825090885162,0
142,-0.0009728414006531239,-0.0325784869492054,-0.003399411914870143,-0.08170811831951141,0.6130761504173279,0.015016322024166584,0
143,0.02248483896255493,0.03941184654831886,0.06636417657136917,-0.080839604139328,0.6123576164245605,0.015422591008245945,0
144,0.03571964427828789,0.011268523521721363,0.0699906125664711,-0.1799943447113037,0.7044797539710999,0.015559921972453594,0
145,0.0035398260224610567,-0.06768222898244858,0.06622685492038727,-0.16094805300235748,0.5885802507400513,0.015185265801846981,0
146,0.015304464846849442,0.03305796533823013,0.09877828508615494,-0.1459215134382248,0.5930153727531433,0.016147524118423462,0
147,0.018773091956973076,-0.07913786917924881,-0.001811972470022738,-0.22427141666412354,0.6868272423744202,0.017265809699892998,0
148,0.048551395535469055,-0.02196776494383812,0.04391438141465187,-0.1046447604894638,0.5804343819618225,0.01672099344432354,0
149,0.12149395048618317,-0.07830356061458588,0.1462145745754242,-0.10443431884050369,0.5888304710388184,0.01734655536711216,0
150,0.1323714256286621,0.0006718922522850335,0.08160358667373657,-0.016861217096447945,0.5958849787712097,0.019436435773968697,0
151,0.023103119805455208,-0.06312301754951477,-0.03676534444093704,-0.03840305283665657,0.6026486158370972,0.019883736968040466,0
152,0.05537819117307663,-0.017088020220398903,-0.018559666350483894,-0.05378067493438721,0.5225352048873901,0.01876756362617016,0
153,-0.011094466783106327,-0.042012229561805725,0.0585397370159626,-0.06583499908447266,0.5467219948768616,0.018637366592884064,0
154,0.1078566238284111,0.02809062972664833,0.05409153923392296,-0.07620858401060104,0.565129816532135,0.018965451046824455,0
155,0.038611315190792084,0.016902994364500046,-0.012908918783068657,-0.08395873010158539,0.5799568295478821,0.019175391644239426,0
156,0.03999818116426468,-0.000782397051807493,0.11557509005069733,-0.09011649340391159,0.5911070108413696,0.01899542286992073,0
157,-0.07565213739871979,-0.08318524062633514,0.08329553157091141,-0.09566330164670944,0.5992774963378906,0.02001872844994068,0
158,0.13697393238544464,-0.006585787516087294,0.058524053543806076,-0.09866470098495483,0.6042189002037048,0.020314224064350128,0
159,0.11411882191896439,-0.016994928941130638,0.09946902841329575,-0.1808217316865921,0.7670865058898926,0.022066988050937653,0
160,-0.1570517122745514,0.014209373854100704,0.015149734914302826,-0.16358406841754913,0.6549721956253052,0.021890781819820404,0
161,0.08162325620651245,-0.06567487120628357,0.026866218075156212,-0.1512269824743271,0.6451988816261292,0.022466979920864105,0
162,-0.02389373816549778,-0.02301863022148609,0.10701937228441238,-0.14099954068660736,0.6410897970199585,0.023022949695587158,0
163,-0.0470074899494648,0.04527957737445831,0.09415486454963684,-0.13481011986732483,0.6352607011795044,0.024095050990581512,0
164,0.04517321288585663,-0.11285761743783951,0.08536417782306671,-0.13519097864627838,0.6342066526412964,0.024748576804995537,0
165,-0.02566361241042614,0.03923861309885979,-0.0172690749168396,-0.13421636819839478,0.6340380907058716,0.025685857981443405,0
166,0.04458325728774071,-0.0860024243593216,0.0390658937394619,-0.13404157757759094,0.6335706114768982,0.02568637765944004,0
167,0.07667016983032227,-0.0262922216206789,0.05439280718564987,-0.1330849826335907,0.6335924863815308,0.02606182172894478,0
168,0.1576467752456665,0.05831261724233627,0.0926053524017334,-0.13262246549129486,0.6333116292953491,0.026645811274647713,0
169,0.06968183815479279,-0.0653848722577095,0.14805397391319275,-0.13269667327404022,0.6337577104568481,0.027456654235720634,0
170,0.09040284156799316,0.01861330308020115,0.05793860927224159,-0.1322561800479889,0.6340699195861816,0.02851552516222,0
171,0.12366042286157608,0.005678093526512384,0.041468214243650436,-0.05958633869886398,0.6343254446983337,0.029606571421027184,0
172,0.08205396682024002,-0.004395236726850271,-0.03140350803732872,-0.07743117213249207,0.6346005797386169,0.030120372772216797,0
173,0.13593877851963043,0.0651332437992096,0.07831639051437378,-0.09087946265935898,0.6334225535392761,0.03002956509590149,0
174,0.032737039029598236,-0.010962994769215584,0.015519044362008572,-0.17279325425624847,0.6342446804046631,0.029831724241375923,0
175,-0.05403175204992294,-0.07697909325361252,0.0007352133397944272,-0.16258983314037323,0.6335200071334839,0.030006272718310356,0
176,0.01325002871453762,-0.055831488221883774,0.043046727776527405,-0.15427541732788086,0.6322313547134399,0.03013010136783123,0
177,-0.018379615619778633,-0.032875049859285355,0.10296067595481873,-0.15406639873981476,0.6318296790122986,0.030862431973218918,0
178,-0.006939609535038471,-0.1526688039302826,-0.03943252936005592,-0.15377888083457947,0.6310977339744568,0.031808145344257355,0
179,0.015768686309456825,-0.033700089901685715,0.10647477209568024,-0.15267443656921387,0.6307938694953918,0.031577806919813156,0
180,-0.0302512776106596,0.01512396801263094,0.02103823609650135,-0.15241177380084991,0.6304762363433838,0.03243570774793625,0
181,0.050362974405288696,-0.02611287496984005,-0.05109584331512451,-0.14994734525680542,0.5594704151153564,0.03145604208111763,0
182,-0.023844866082072258,-0.08695752173662186,0.13503429293632507,-0.14795807003974915,0.5758482813835144,0.031573716551065445,0
183,0.0038176472298800945,-0.11162921786308289,-0.01760849915444851,-0.007664353121072054,0.5878345370292664,0.03301114961504936,0
184,0.005601119715720415,0.07170435041189194,0.016587162390351295,-0.1757105141878128,0.5967658162117004,0.03284696117043495,0
185,0.058327965438365936,-0.07464421540498734,-0.004356835503131151,-0.09978276491165161,0.6042253971099854,0.03356267511844635,0
186,-0.023793794214725494,-0.11529630422592163,0.06395870447158813,-0.10860419273376465,0.6100867390632629,0.03365210443735123,0
187,0.04157767444849014,-0.008855413645505905,0.09568938612937927,-0.11502870172262192,0.6133527755737305,0.03432714194059372,0
188,0.0501725897192955,-0.07828696072101593,0.030987320467829704,-0.12028530985116959,0.6176483035087585,0.03520464152097702,0
189,0.1389489322900772,-0.1671341210603714,0.05156289413571358,-0.1193205714225769,0.6174794435501099,0.03542602062225342,0
190,0.07084854692220688,-0.04979049414396286,0.1336277276277542,-0.1177947148680687,0.6175763607025146,0.036054983735084534,0
191,0.05501111224293709,0.008527873083949089,0.11013210564851761,-0.1173514649271965,0.6171355247497559,0.03741483762860298,0
192,0.05550985783338547,0.0012722822139039636,0.0025705823209136724,-0.11708739399909973,0.6166779398918152,0.03854180872440338,0
193,0.021566232666373253,-0.07407855242490768,0.002359568839892745,-0.11683252453804016,0.6167488098144531,0.038763877004384995,0
194,0.08945542573928833,0.10745929181575775,0.013111229054629803,-0.11616074293851852,0.6164892315864563,0.03903088718652725,0
195,0.03859982267022133,-0.06950554996728897,0.009104492142796516,-0.11681240797042847,0.6166725754737854,0.039490628987550735,0
196,0.038702093064785004,-0.05325882509350777,0.08689741790294647,-0.18250079452991486,0.6178439855575562,0.03983389958739281,0
197,0.03996269777417183,0.044556792825460434,0.05562981218099594,-0.16579781472682953,0.6182059049606323,0.04066179692745209,0
198,0.040661949664354324,-0.05006474256515503,0.015433955937623978,-0.15385372936725616,0.6186206340789795,0.04101251810789108,0
199,0.05237279087305069,-0.024290716275572777,0.07371564954519272,-0.14380893111228943,0.6197794675827026,0.04135449230670929,0
200,0.1012968048453331,-0.03943818062543869,0.019299017265439034,-0.07103004306554794,0.6213791966438293,0.04236864671111107,0
201,0.00521197821944952,-0.06035826355218887,0.04853849112987518,-0.08215326815843582,0.6224504709243774,0.042303189635276794,0
202,-0.03403974696993828,0.08833684772253036,0.09122778475284576,-0.08967498689889908,0.6233007311820984,0.042646873742341995,0
203,0.027373269200325012,-0.022793158888816833,0.04492794722318649,-0.0973401591181755,0.6228843927383423,0.04357219859957695,0
204,0.07426026463508606,0.01811719499528408,0.060460738837718964,-0.09677199274301529,0.6225354671478271,0.043813690543174744,0
205,-0.0023700359743088484,0.01972523145377636,0.044892385601997375,-0.16648247838020325,0.6230874061584473,0.04416763409972191,0
206,0.08844975382089615,-0.0775207057595253,0.07904038578271866,-0.15329207479953766,0.6231808662414551,0.044473789632320404,0
207,0.023372219875454903,-0.08366821706295013,0.031050371006131172,-0.14197763800621033,0.6241918802261353,0.04533053934574127,0
208,0.05777555704116821,-0.0367775484919548,-0.04399793595075607,-0.13287226855754852,0.6243825554847717,0.04541530832648277,0
209,0.052543122321367264,0.08171044290065765,0.009184514172375202,-0.12674057483673096,0.6230693459510803,0.04478108137845993,0
210,-0.5345533490180969,0.3432364761829376,0.07538261264562607,-0.1286448836326599,0.6235288381576538,0.04643217474222183,0
211,0.4304909408092499,-0.6001515984535217,0.20077764987945557,-0.13020570576190948,0.6212614178657532,0.04579393193125725,0
212,-0.045336008071899414,0.5546655654907227,-0.9983653426170349,-0.11839953809976578,0.6204763054847717,0.04897496476769447,0
213,0.30680662393569946,-1.4311864376068115,2.1250593662261963,-0.059737224131822586,0.6134212017059326,0.03873549774289131,0
214,1.1460696458816528,-1.450291395187378,2.776865243911743,-0.06505153328180313,0.617729663848877,0.032562147825956345,0
215,-1.5923125743865967,1.0144490003585815,0.6671367883682251,-0.07089324295520782,0.6105876564979553,0.0345136933028698,0
216,1.7253875732421875,0.29788488149642944,0.4944581091403961,-0.08108324557542801,0.5894021391868591,0.033576834946870804,0
217,0.019227497279644012,2.1685495376586914,0.1650082916021347,-0.07239367812871933,0.5917184948921204,0.04370574653148651,0
218,-3.9823527336120605,4.791119575500488,0.3622829020023346,-0.1040470153093338,0.5691300630569458,0.048646751791238785,0
219,-6.5272440910339355,5.996048927307129,0.7100871205329895,-0.17795969545841217,0.48998329043388367,0.05934292823076248,0
220,-8.178689956665039,3.258197784423828,-8.78791618347168,-0.2692165970802307,0.3809141516685486,0.05486124008893967,0
221,-2.543846368789673,4.497771263122559,-5.603722095489502,-0.3551848530769348,0.25875553488731384,-0.02926129288971424,0
222,8.214159965515137,-8.180774688720703,2.6455438137054443,-0.3561946451663971,0.27920788526535034,-0.07529278099536896,0
223,8.170791625976562,-10.47949504852295,4.603869915008545,-0.1391192525625229,0.42039158940315247,-0.04937504976987839,0
224,6.950057029724121,-5.635398864746094,6.109676361083984,-0.0019886724185198545,0.798507809638977,-0.0003222774248570204,0
225,2.5235862731933594,3.7686383724212646,8.199447631835938,-0.107889324426651,0.837964653968811,0.06912854313850403,0
226,-5.324108600616455,9.981595039367676,8.907803535461426,0.06510675698518753,0.8233349919319153,0.14657628536224365,0
227,-9.259589195251465,2.9513182640075684,14.005400657653809,-0.06863773614168167,0.8155550956726074,0.24383021891117096,0
228,-2.8993678092956543,17.662212371826172,13.16577434539795,0.15116074681282043,0.5664109587669373,0.38737401366233826,0
229,4.769779682159424,-6.339461803436279,8.877031326293945,-0.11347369849681854,0.6580453515052795,0.5109934210777283,0
230,19.867033004760742,-27.9641056060791,6.261090278625488,0.01856490597128868,0.2802366316318512,0.6087817549705505,0
231,-3.8268096446990967,3.156418800354004,4.820631980895996,0.07381265610456467,0.5418646931648254,0.6568071246147156,0
232,-30.1032772064209,31.740440368652344,7.669346332550049,-0.22951777279376984,-0.1663127988576889,0.7124046683311462,0
233,23.292034149169922,3.702362537384033,15.18192195892334,-0.4764198660850525,-0.4419957399368286,0.8066844940185547,0
234,25.256797790527344,-24.85456085205078,14.831872940063477,-0.4250651001930237,-0.19148869812488556,0.9584935307502747,0
235,7.452308177947998,-34.33666229248047,14.698793411254883,-0.42965903878211975,-0.5204154253005981,1.1222528219223022,0
236,-27.052810668945312,-15.731850624084473,14.83077621459961,-0.14432984590530396,-0.7994820475578308,1.260614037513733,0
237,-9.549126625061035,1.8826191425323486,10.519372940063477,-0.4273081123828888,-1.2084444761276245,1.4559922218322754,0
238,18.897071838378906,15.371015548706055,8.110417366027832,-0.6400960087776184,-0.896776020526886,1.6100351810455322,0
239,32.75835418701172,3.09224796295166,5.3841233253479,-0.718924880027771,-0.8924729824066162,1.6614432334899902,0
240,37.011085510253906,-8.906933784484863,2.7133688926696777,-0.49150827527046204,-0.5542259812355042,1.6572223901748657,0
241,38.4976692199707,-23.541139602661133,1.2765986919403076,-0.3218382000923157,-0.5949316620826721,1.645797610282898,0
242,6.117138862609863,-23.057382583618164,1.992388129234314,0.008088943548500538,0.10583469271659851,1.6685152053833008,0
243,-13.083269119262695,-32.86301803588867,1.0015881061553955,0.0517047643661499,-0.3707263767719269,1.7032719850540161,0
244,-3.3791816234588623,-39.00284957885742,1.5006321668624878,0.7276699542999268,-0.13539639115333557,1.6690917015075684,0
245,10.946930885314941,-36.78566360473633,0.5042182207107544,1.1980929374694824,0.20786820352077484,1.6705838441848755,0
246,33.234527587890625,-22.719898223876953,1.2647674083709717,1.853915810585022,0.7976488471031189,1.6103469133377075,0
247,50.01052474975586,-4.068831920623779,2.1861326694488525,1.7157576084136963,0.5217424035072327,1.715805172920227,0
248,56.28519058227539,10.630523681640625,0.9567840695381165,1.8489598035812378,1.0885772705078125,1.7158845663070679,0
249,57.49085998535156,12.714418411254883,-0.23775702714920044,2.0691046714782715,1.5969111919403076,1.7369540929794312,0
250,44.437320709228516,19.05951690673828,-2.031423330307007,1.9769797325134277,2.548027753829956,1.631150245666504,0
251,22.40083122253418,26.191194534301758,-0.14468680322170258,0.758867621421814,4.392916679382324,1.1587133407592773,0
252,-8.220043182373047,25.429141998291016,3.3107686042785645,-0.5601864457130432,3.7584660053253174,1.2015767097473145,0
253,-41.30936813354492,17.289411544799805,3.5854408740997314,-0.07203547656536102,3.998624801635742,1.3655872344970703,0
254,-59.3558349609375,9.708270072937012,-0.04802984371781349,-0.9258480072021484,2.586412191390991,1.280867099761963,0
255,-58.40234375,-6.00600004196167,-0.5138676762580872,-1.608466625213623,3.8222577571868896,0.9322046637535095,0
256,-49.3568229675293,-31.25312614440918,0.8055686950683594,-0.9463189244270325,3.076098918914795,1.1727805137634277,0
257,-39.16658401489258,-45.31407165527344,1.869142770767212,-0.26017308235168457,2.7707927227020264,1.355069875717163,0
258,-22.46339988708496,-52.88706970214844,1.260836124420166,0.9619253873825073,3.5384521484375,1.7792714834213257,0
259,-5.503538608551025,-48.61772537231445,1.4250211715698242,1.9326834678649902,3.049006938934326,1.9690629243850708,0
260,-11.869626998901367,-40.427345275878906,1.9197756052017212,2.4769091606140137,3.463186264038086,1.9606300592422485,0
261,-25.152910232543945,-23.943981170654297,3.2404651641845703,3.1017251014709473,3.2515530586242676,2.1024186611175537,0
262,-44.37032699584961,-6.141180992126465,0.8534627556800842,3.692474365234375,2.9064416885375977,2.2788829803466797,0
263,-66.23896026611328,11.689929962158203,-0.17684297263622284,3.827404737472534,2.2315151691436768,2.3958029747009277,0
264,-80.1096420288086,16.1085262298584,-0.9514552354812622,4.189922332763672,1.7135589122772217,2.4773361682891846,0
265,-83.74517059326172,28.1556396484375,-1.7779656648635864,4.005032539367676,0.6103439927101135,2.6017322540283203,0
266,-77.11554718017578,41.36251449584961,-1.9430674314498901,4.018428802490234,0.5660738945007324,2.199155330657959,0
267,-61.04043960571289,55.21395492553711,-0.732928454875946,3.3823652267456055,-0.8823733925819397,2.6683571338653564,0
268,-45.20735549926758,60.63334274291992,-5.438365936279297,3.661175489425659,-1.6462091207504272,2.8011093139648438,0
269,-23.08741569519043,64.59086608886719,-6.46730899810791,3.0464861392974854,-2.112415313720703,2.7655386924743652,0
270,-5.90155553817749,65.46123504638672,-7.26377534866333,1.9814248085021973,-2.5410454273223877,2.918750047683716,0
271,4.4400954246521,63.93429946899414,-9.753068923950195,1.5893900394439697,-2.749325752258301,2.8261168003082275,0
272,13.620843887329102,57.388763427734375,-9.596074104309082,0.5072227120399475,-3.0558645725250244,3.0278079509735107,0
273,13.781246185302734,49.16130447387695,-8.206307411193848,0.586253821849823,-3.416872024536133,2.7935407161712646,0
274,11.818964958190918,39.11460876464844,-6.711913108825684,-0.34009435772895813,-3.6769168376922607,3.023638963699341,0
275,11.24750804901123,29.91046714782715,-8.171257972717285,-0.13525675237178802,-4.189126491546631,2.6466434001922607,0
276,20.862445831298828,31.7825984954834,-6.790624141693115,-0.93837970495224,-4.090264320373535,2.901423692703247,0
277,31.999387741088867,35.41613006591797,-8.563996315002441,-3.2156834602355957,-3.595576047897339,4.188354969024658,0
278,38.541316986083984,27.34722900390625,-11.86047077178955,-3.960749626159668,-2.3702797889709473,4.500901222229004,0
279,40.373538970947266,9.758352279663086,-13.905379295349121,-4.35031270980835,-1.8064254522323608,4.5019683837890625,0
280,28.147863388061523,-13.749736785888672,-13.101752281188965,-4.1099958419799805,-1.737659215927124,4.082457542419434,0
281,13.492949485778809,-34.15937042236328,-10.081792831420898,-3.7526824474334717,-2.1045475006103516,3.5376663208007812,0
282,5.7942633628845215,-48.26204299926758,-7.614293098449707,-2.758619546890259,-2.960736036300659,2.490358829498291,0
283,5.778654098510742,-50.48688888549805,-4.291451930999756,-2.118696451187134,-2.899639129638672,2.3865928649902344,0
284,15.72067642211914,-39.19483947753906,-5.294952392578125,-1.8572115898132324,-2.6064352989196777,2.6249582767486572,0
285,23.808917999267578,-26.20134925842285,-7.847123622894287,-1.3887994289398193,-1.8142650127410889,2.8968513011932373,0
286,33.58152770996094,-6.700305938720703,-9.3927001953125,-1.4045743942260742,-0.8746703863143921,3.307638645172119,0
287,35.13667678833008,9.044516563415527,-12.048129081726074,-1.7577109336853027,-0.32349443435668945,3.4818198680877686,0
288,31.09256935119629,16.487380981445312,-13.992237091064453,-1.6530500650405884,-0.8075597286224365,2.8983283042907715,0
289,24.064050674438477,12.759330749511719,-12.420220375061035,-1.75328528881073,-0.5212152600288391,2.7496020793914795,0
290,16.15009307861328,7.075096607208252,-12.890569686889648,-1.8784397840499878,-0.6501063704490662,2.482131242752075,0
291,7.816453456878662,-1.368647813796997,-11.485477447509766,-1.6380314826965332,-0.8077183365821838,2.167135000228882,0
292,6.499746799468994,-5.1705002784729,-9.936789512634277,-1.4990094900131226,-1.219546914100647,1.8629099130630493,0
293,14.79475212097168,-6.071786880493164,-9.184661865234375,-1.4977949857711792,-0.9347293972969055,1.847521424293518,0
294,28.19375228881836,-16.26967430114746,-10.59318733215332,-1.3454699516296387,-0.7767130732536316,1.7344685792922974,0
295,39.47402572631836,-15.897313117980957,-10.118063926696777,-1.4268443584442139,-0.7639082670211792,1.5929346084594727,0
296,47.212989807128906,-16.763427734375,-10.117237091064453,-1.4710431098937988,-0.10039421916007996,1.595431923866272,0
297,46.78316116333008,-10.271194458007812,-10.581336975097656,-1.153059959411621,0.2458764761686325,1.420383334159851,0
298,39.02193832397461,-1.255375623703003,-8.967519760131836,-1.2713795900344849,0.842073380947113,1.386206030845642,0
299,29.44464683532715,6.102509498596191,-7.793392181396484,-1.195785641670227,1.0130988359451294,1.2445064783096313,0
300,17.94407844543457,2.3338866233825684,-6.4490580558776855,-1.206979513168335,1.5629113912582397,1.232293963432312,0
301,7.8216471672058105,-9.947834968566895,-5.43281888961792,-1.221849799156189,1.3172346353530884,1.0783367156982422,0
302,2.9133307933807373,-23.30663299560547,-4.48940372467041,-1.0178390741348267,1.8722326755523682,1.1244701147079468,0
303,8.02647876739502,-31.420162200927734,-4.714905261993408,-0.6879323124885559,1.8565932512283325,1.0672318935394287,0
304,11.465672492980957,-29.828039169311523,-4.410869121551514,-0.4730365574359894,1.994882345199585,0.9969093799591064,0
305,12.262191772460938,-18.199535369873047,-4.561550140380859,-0.15324781835079193,2.4832828044891357,1.0131479501724243,0
306,11.424261093139648,-5.091763973236084,-4.723859786987305,-0.16897620260715485,2.485365152359009,0.8937040567398071,0
307,8.4573974609375,4.821453094482422,-4.464222431182861,-0.15694288909435272,2.9349474906921387,0.8772251009941101,0
308,3.0003409385681152,11.587653160095215,-3.968414545059204,-0.21882373094558716,3.11916184425354,0.8524985313415527,0
309,-5.123620510101318,8.266128540039062,-4.375649929046631,-0.3044597804546356,3.1481423377990723,0.8281816840171814,0
310,-14.895639419555664,2.015063762664795,-4.5614118576049805,-0.3340126574039459,3.273411273956299,0.8143019676208496,0
311,-22.793777465820312,-2.3507602214813232,-5.078419208526611,-0.27867913246154785,3.3715081214904785,0.8137333989143372,0
312,-28.64713478088379,-7.000789165496826,-5.529754161834717,-0.1827080100774765,3.087430477142334,0.7966794371604919,0
313,-33.976524353027344,-11.87354564666748,-4.9010701179504395,-0.018767816945910454,2.6454169750213623,0.7829578518867493,0
314,-28.30794334411621,-16.816131591796875,-4.617950916290283,0.20648334920406342,2.6221578121185303,0.7803357243537903,0
315,-20.680198669433594,-14.801067352294922,-4.070181846618652,0.7771713733673096,1.8051207065582275,0.9528367519378662,0
316,-13.80459213256836,-4.223371505737305,-5.808218955993652,2.1702821254730225,3.130061388015747,1.374187707901001,0
317,-9.684313774108887,9.889680862426758,-6.365777015686035,1.8312695026397705,2.6595466136932373,1.166878581047058,0
318,-13.480705261230469,29.103492736816406,-4.330040454864502,1.367039442062378,2.3288211822509766,1.022956132888794,0
319,-20.868371963500977,42.16748046875,-2.8663880825042725,0.740157425403595,1.9053049087524414,0.9335097670555115,0
320,-26.776227951049805,44.359405517578125,-1.4075936079025269,0.041158922016620636,1.5127453804016113,0.8567436933517456,0
321,-29.209915161132812,36.984458923339844,-0.7526269555091858,-0.5127549171447754,0.9961328506469727,0.8669717907905579,0
322,-27.817707061767578,22.127403259277344,-0.34233665466308594,-1.1460139751434326,0.8002054691314697,0.7539997696876526,0
323,-19.24457359313965,4.001490592956543,1.1096751689910889,-1.329991340637207,-0.3160577416419983,0.8541481494903564,0
324,-8.541159629821777,-6.953760147094727,1.0575209856033325,-1.0864418745040894,-0.6188961267471313,0.9198909997940063,0
325,8.184391975402832,-22.592899322509766,0.2239341288805008,-1.2967089414596558,-0.5028672218322754,0.8840898871421814,0
326,21.81493377685547,-28.502565383911133,0.1611832082271576,-0.9226359724998474,-0.7900785803794861,0.881104052066803,0
327,31.546049118041992,-30.83647346496582,0.07166223973035812,-0.6313315033912659,-0.34959250688552856,0.8997657299041748,0
328,34.589603424072266,-24.844926834106445,0.45136788487434387,-0.5576738119125366,0.007460352033376694,0.9139066934585571,0
329,32.28831100463867,-15.41872787475586,0.4361895024776459,-0.2866085469722748,0.43086206912994385,0.9195528030395508,0
330,25.630027770996094,-6.1274800300598145,1.1709754467010498,-0.5077313780784607,0.5179929733276367,0.9369156956672668,0
331,17.357858657836914,-0.05760984122753143,1.0135953426361084,-0.4589056074619293,0.9349432587623596,0.9606139659881592,0
332,6.603483200073242,3.652585983276367,0.42187628149986267,-0.40373340249061584,1.161759376525879,0.9713658690452576,0
333,-1.3601665496826172,4.549769878387451,-0.04495317116379738,-0.3434508144855499,1.2215687036514282,0.9721559286117554,0
334,-8.017905235290527,-0.3791954815387726,-0.45022210478782654,-0.3122575581073761,1.287437081336975,0.9743441343307495,0
335,-11.859939575195312,-6.962978363037109,-0.8101535439491272,-0.368731826543808,1.2295938730239868,0.9696163535118103,0
336,-10.525486946105957,-11.803213119506836,-1.284777045249939,-0.3270668685436249,1.12205171585083,0.9590746164321899,0
337,-8.0891752243042,-16.025270462036133,-1.4055153131484985,-0.05965088680386543,1.0357482433319092,0.9505332708358765,0
338,-4.138256549835205,-15.710082054138184,-1.3103464841842651,0.4271750748157501,0.9902137517929077,0.9526150822639465,0
339,-0.04648789018392563,-11.543234825134277,-1.1186703443527222,0.6518521308898926,1.1939336061477661,0.9416178464889526,0
340,0.3409167230129242,-4.200613975524902,-0.9050865173339844,0.2739947736263275,0.6059760451316833,0.9164819717407227,0
341,-1.0289273262023926,3.4234063625335693,-0.9851750135421753,0.1319635659456253,0.6480509042739868,0.8947194814682007,0
342,1.994565486907959,5.093662261962891,-0.5502496361732483,0.11027272045612335,0.7423739433288574,0.8805990219116211,0
343,4.783561706542969,3.977264404296875,-0.4822333753108978,0.09780030697584152,0.8602513670921326,0.8750143051147461,0
344,4.8374176025390625,-2.8814353942871094,-0.5166999697685242,-0.020458871498703957,1.0023812055587769,0.8645344972610474,0
345,3.162235736846924,-7.075191020965576,-0.38935160636901855,0.06769950687885284,1.0492668151855469,0.8611908555030823,0
346,-0.9735756516456604,-12.52706241607666,0.3185940086841583,0.3596881031990051,1.131824016571045,0.862159013748169,0
347,-5.548000335693359,-14.897028923034668,0.6592114567756653,0.6495247483253479,1.1349343061447144,0.8673408627510071,0
348,-8.691237449645996,-13.22380542755127,0.7160336375236511,0.8930925726890564,0.8589596748352051,0.8958889842033386,0
349,-10.583487510681152,-7.1871232986450195,0.5426566004753113,0.929695188999176,0.774903416633606,0.8943353891372681,0
350,-10.160150527954102,1.5902444124221802,0.5336667895317078,1.0364234447479248,1.042360782623291,0.8576784133911133,0
351,-8.270720481872559,9.781660079956055,0.8873229026794434,1.1095365285873413,0.4066506028175354,0.9490247368812561,0
352,-5.0929718017578125,14.797327041625977,0.05765684321522713,0.8980728387832642,0.4705466032028198,0.9294937252998352,0
353,-0.6275646090507507,17.539836883544922,-0.002722998382523656,0.6833552718162537,-0.32531964778900146,1.0635414123535156,0
354,7.447047233581543,16.426937103271484,-1.2025655508041382,0.46362563967704773,-0.15009355545043945,1.0327887535095215,0
355,16.93131446838379,10.597164154052734,-0.9787040948867798,0.28666695952415466,0.1456812620162964,0.9940283298492432,0
356,21.038280487060547,6.035174369812012,-0.09951213747262955,0.13458722829818726,0.5341657400131226,0.9579545855522156,0
357,21.184589385986328,1.9839260578155518,0.5149970650672913,0.04541344568133354,0.9482307434082031,0.9320233464241028,0
358,13.655564308166504,-3.036221981048584,1.2750614881515503,0.015132244676351547,1.035117268562317,0.9525764584541321,0
359,1.8982932567596436,-7.9127607345581055,0.8490304350852966,0.18239998817443848,1.1968350410461426,0.9529550075531006,0
360,-8.312044143676758,-10.30930233001709,0.9926188588142395,0.21779045462608337,1.430866003036499,0.9372891187667847,0
361,-16.10289192199707,-8.870267868041992,1.1905964612960815,0.36624675989151,1.864930510520935,0.895426332950592,0
362,-23.469860076904297,-5.823976993560791,1.6022518873214722,0.29556936025619507,1.3044224977493286,0.9344056844711304,0
363,-27.675537109375,-2.4427385330200195,1.5753971338272095,0.5608955025672913,1.5954328775405884,0.9136118292808533,0
364,-27.96320343017578,-0.059961654245853424,1.6792947053909302,0.6139225959777832,1.174241542816162,0.9446167945861816,0
365,-26.230436325073242,5.7471232414245605,0.8597695827484131,0.6824222803115845,0.9001232385635376,0.9657652974128723,0
366,-22.619882583618164,9.388150215148926,0.2037965953350067,0.6411237120628357,0.5909570455551147,0.9795050024986267,0
367,-16.523746490478516,10.909355163574219,-0.22771179676055908,0.4594787657260895,0.35438284277915955,0.9750726222991943,0
368,-9.239927291870117,12.793207168579102,-0.1574247181415558,0.3353891670703888,0.1437297910451889,0.9777092933654785,0
369,-5.245852470397949,13.190705299377441,-0.3731670379638672,0.1730758547782898,0.17716990411281586,0.9619694352149963,0
370,-2.1822798252105713,10.134891510009766,0.17550913989543915,-0.023905063048005104,0.0022823072504252195,0.9722521901130676,0
371,-2.7015326023101807,5.842345237731934,0.2297339290380478,-0.025914590805768967,-0.04782607778906822,0.9798730611801147,0
372,-3.6563098430633545,1.1562873125076294,0.1355585902929306,-0.10640372335910797,-0.1723107546567917,0.9892662763595581,0
373,-5.446230888366699,-3.172832727432251,-0.11445283144712448,-0.1045699268579483,-0.29617494344711304,0.9962223172187805,0
374,-6.311314105987549,-5.291167259216309,-0.04171370342373848,-0.04546157643198967,-0.44168147444725037,0.998483419418335,0
375,-5.0623087882995605,-4.17149543762207,-0.19100400805473328,0.03574700281023979,-0.5860666036605835,0.99830561876297,0
376,-4.414391994476318,-0.9281774759292603,-0.6419939994812012,-0.1846483200788498,-0.5010331273078918,1.0165433883666992,0
377,-1.7589460611343384,0.8595811724662781,-0.6108690500259399,-0.10122285783290863,-0.475212961435318,1.0016039609909058,0
378,-1.9009994268417358,1.0862109661102295,-0.47586295008659363,-0.05044950544834137,-1.8523635864257812,1.0049067735671997,0
379,4.379689693450928,2.28385329246521,-0.16681496798992157,-0.20841562747955322,-1.498557209968567,1.0200207233428955,0
380,14.047024726867676,1.13548743724823,-0.6344524621963501,0.031894609332084656,-1.4647960662841797,0.966643750667572,0
381,23.55112075805664,0.6671432852745056,-0.9240308403968811,0.06494729220867157,-1.138190507888794,0.9485964775085449,0
382,29.653255462646484,2.0795018672943115,-1.4472564458847046,0.055088646709918976,0.21662211418151855,0.9350743889808655,0
383,27.996685028076172,3.963859796524048,-1.0904446840286255,0.0006161723285913467,0.6142101287841797,0.9279053807258606,0
384,13.662886619567871,4.176434516906738,-1.4095022678375244,0.35191038250923157,2.5772273540496826,0.81966233253479,0
385,-10.166110038757324,5.971920013427734,0.00380495167337358,0.2116975039243698,2.3826005458831787,0.8339230418205261,0
386,-39.42409133911133,6.000824928283691,-0.6399479508399963,0.0925111398100853,1.7536296844482422,0.8542858362197876,0
387,-64.28331756591797,7.696916580200195,-1.2647919654846191,-0.029356295242905617,1.2975027561187744,0.8526023626327515,0
388,-76.95372009277344,8.262673377990723,-1.582648754119873,-0.19332480430603027,0.15767356753349304,0.8483591675758362,0
389,-73.17018127441406,6.4427337646484375,-1.4676233530044556,-0.46359768509864807,-0.35765618085861206,0.8328331112861633,0
390,-56.795372009277344,1.9750654697418213,-0.9045307636260986,-0.54754239320755,-1.3723046779632568,0.820780873298645,0
391,-33.95469665527344,-1.7347440719604492,-1.066014289855957,-0.5738595724105835,-1.6126067638397217,0.8203557133674622,0
392,-9.327811241149902,-4.713552474975586,-1.537398099899292,-0.5515170097351074,-2.225719690322876,0.7999699711799622,0
393,11.35297966003418,-6.41765832901001,-2.1057474613189697,-0.5915246605873108,-2.353105068206787,0.7913762927055359,0
394,25.632360458374023,-7.952690124511719,-1.542540192604065,-0.4381832778453827,-2.2315714359283447,0.7652366757392883,0
395,30.00905418395996,-9.178264617919922,-1.5354936122894287,-0.4115316867828369,-1.9098560810089111,0.7714982628822327,0
396,24.19275665283203,-8.560281753540039,-0.2365250140428543,-0.3137701749801636,-1.8159198760986328,0.752100944519043,0
397,14.194320678710938,-8.870438575744629,-0.6261544227600098,-0.16252508759498596,-1.6036007404327393,0.7370026707649231,0
398,2.1839418411254883,-7.804900646209717,-0.7927154302597046,-0.025448065251111984,-1.63462495803833,0.7106050252914429,0
399,-6.210081577301025,-4.496913909912109,-1.564024567604065,0.06405776739120483,-1.630986213684082,0.6934010982513428,0
400,-12.46141242980957,-0.781158983707428,-1.652529239654541,-0.14551809430122375,-2.0233311653137207,0.7342714667320251,0
401,-2.616743326187134,-1.638442039489746,-2.244234323501587,-0.469894140958786,-2.3591253757476807,0.7968911528587341,0
402,8.074101448059082,-5.671422958374023,-2.0659778118133545,-0.38954487442970276,-2.3861143589019775,0.757472038269043,0
403,19.968116760253906,-11.892592430114746,-1.5492026805877686,-0.36972904205322266,-2.2191994190216064,0.7596554160118103,0
404,29.154457092285156,-14.868109703063965,-1.20587158203125,-0.26128408312797546,-2.081585168838501,0.7460209131240845,0
405,32.40410232543945,-17.8294677734375,-0.8995543718338013,-0.02846473455429077,-1.8671586513519287,0.7033698558807373,0
406,30.501432418823242,-17.651241302490234,-0.16398389637470245,0.1778954267501831,-1.4699114561080933,0.693475604057312,0
407,24.37969207763672,-15.537808418273926,0.12236899882555008,0.3697427213191986,-1.311394214630127,0.6811357140541077,0
408,17.030271530151367,-10.521356582641602,0.299733966588974,0.5796912312507629,-1.2380560636520386,0.6558514833450317,0
409,11.633705139160156,-4.356627464294434,-0.41697001457214355,0.6319364309310913,-0.9921948313713074,0.6705211400985718,0
410,7.4596757888793945,1.343285322189331,-1.0789130926132202,0.5887236595153809,-0.901940643787384,0.6858124136924744,0
411,6.956233501434326,13.918466567993164,-0.8232065439224243,0.5858224034309387,-1.0003654956817627,0.6623363494873047,0
412,8.64266300201416,25.946075439453125,-1.2526410818099976,0.31898677349090576,-0.942668616771698,0.6870055198669434,0
413,19.537044525146484,39.11261749267578,-1.551096796989441,-0.3795192241668701,-0.745480477809906,0.6787983775138855,0
414,23.609516143798828,38.4695930480957,-1.184755563735962,-0.8123310804367065,-0.4089336693286896,0.6736231446266174,0
415,25.092164993286133,32.07993698120117,-0.8140677809715271,-1.1520990133285522,-0.357439249753952,0.6548503041267395,0
416,24.495079040527344,21.028654098510742,-0.41228315234184265,-1.5849705934524536,0.06690001487731934,0.6818445324897766,0
417,22.087987899780273,3.166785717010498,-0.32396483421325684,-1.6753654479980469,0.32928958535194397,0.6589560508728027,0
418,18.048004150390625,-6.998928546905518,0.12509800493717194,-1.5695865154266357,0.4091069996356964,0.62373286485672,0
419,11.256332397460938,-11.417457580566406,0.20924733579158783,-1.5260239839553833,0.6997612714767456,0.6409174203872681,0
420,5.722457408905029,-8.670186042785645,0.5533385276794434,-1.3589385747909546,0.8769094944000244,0.6417615413665771,0
421,2.6553308963775635,-5.334770679473877,0.4754810929298401,-1.1886749267578125,1.0283212661743164,0.6471468210220337,0
422,0.08540257811546326,-8.728119850158691,-0.06863570958375931,-1.2707750797271729,0.8536271452903748,0.6358472108840942,0
423,0.10398773849010468,-10.118297576904297,0.15023960173130035,-1.079743504524231,0.7905057668685913,0.619951069355011,0
424,1.1446728706359863,-11.295235633850098,0.17112445831298828,-0.9507991075515747,0.6686553955078125,0.6019327640533447,0
425,4.55428409576416,-10.924548149108887,0.2705058157444,-0.7810232043266296,0.7113978266716003,0.6060687899589539,0
426,9.121817588806152,-3.3002400398254395,0.11783227324485779,-0.7076360583305359,0.8085392117500305,0.6153367161750793,0
427,13.381622314453125,5.186274528503418,0.24201712012290955,-0.6230949759483337,0.8412744998931885,0.6111209988594055,0
428,14.822585105895996,5.760865211486816,0.24812191724777222,-0.7262802124023438,1.139515995979309,0.6367799639701843,0
429,16.21413803100586,2.4517111778259277,0.2629659175872803,-0.7601200938224792,1.4458197355270386,0.6632475256919861,0
430,12.601444244384766,-0.8557528257369995,0.1817403882741928,-0.8008537292480469,1.6081955432891846,0.6646536588668823,0
431,5.937513828277588,-2.29050612449646,-0.1380053162574768,-0.7383319139480591,1.7114373445510864,0.667913019657135,0
432,0.6955000758171082,-3.1561005115509033,0.08531571924686432,-0.7136836647987366,1.6361300945281982,0.6450757384300232,0
433,-3.8566055297851562,1.3472986221313477,-0.3443976044654846,-0.6190063953399658,1.6209179162979126,0.6479501128196716,0
434,-5.826198101043701,8.127789497375488,-0.7839452624320984,-0.5920323133468628,1.5417087078094482,0.6434288620948792,0
435,-5.217812538146973,12.734743118286133,-0.7683451771736145,-0.7464406490325928,1.4359455108642578,0.619286060333252,0
436,-2.4608547687530518,8.659769058227539,-1.2496755123138428,-0.8823957443237305,1.4114761352539062,0.6120871305465698,0
437,-0.3127068281173706,3.877854585647583,-1.8713773488998413,-0.8826345801353455,1.4228109121322632,0.6166420578956604,0
438,2.9994146823883057,5.892950534820557,-2.021965980529785,-0.8405998349189758,1.537473440170288,0.627363920211792,0
439,4.065350532531738,9.395872116088867,-2.1061348915100098,-0.9228606224060059,1.5621765851974487,0.6069204211235046,0
440,2.8771846294403076,3.547154664993286,-1.7898882627487183,-1.021721363067627,1.528420329093933,0.5777326822280884,0
441,1.095771312713623,-2.7815587520599365,-1.4155133962631226,-1.0198028087615967,1.474048137664795,0.5577646493911743,0
442,-1.4416029453277588,-1.388724684715271,-1.0201876163482666,-0.8733788728713989,1.595457673072815,0.584319531917572,0
443,-2.371849536895752,0.5623071193695068,-1.4690536260604858,-0.8434855937957764,1.599285364151001,0.5822373032569885,0
444,-3.482590436935425,-0.30053743720054626,-1.4106714725494385,-0.9632477760314941,1.5121132135391235,0.5347425937652588,0
445,-4.062699794769287,5.6366286277771,-1.220450758934021,-1.0154939889907837,1.544540524482727,0.5218937993049622,0
446,-6.40426778793335,13.160150527954102,-1.1843476295471191,-1.0856201648712158,1.430418848991394,0.5040902495384216,0
447,-7.56498908996582,18.092086791992188,-1.4145094156265259,-1.3963462114334106,1.2917453050613403,0.44529950618743896,0
448,-7.936870574951172,17.422409057617188,-1.1720744371414185,-1.3633842468261719,1.7310625314712524,0.5571056604385376,0
449,-8.236372947692871,9.14698600769043,-1.3975951671600342,-1.4534194469451904,1.5865613222122192,0.5591030716896057,0
450,-9.825900077819824,-4.63543701171875,-1.7306370735168457,-1.805410623550415,1.4308841228485107,0.46812811493873596,0
451,-10.932168960571289,-14.979510307312012,-0.7001368999481201,-1.7848107814788818,1.2537000179290771,0.42938169836997986,0
452,-11.36089038848877,-16.485450744628906,-0.401380717754364,-1.6107604503631592,1.0669182538986206,0.41314810514450073,0
453,-9.950102806091309,-17.399168014526367,-0.39911559224128723,-1.3519097566604614,0.8861884474754333,0.41755422949790955,0
454,-8.822118759155273,-17.486454010009766,-0.27123764157295227,-1.0046788454055786,0.7955189943313599,0.4527623951435089,0
455,-4.318479537963867,-10.80217170715332,-0.39234811067581177,-1.770033597946167,0.7316652536392212,0.24425262212753296,0
456,-1.9141695499420166,-4.8563761711120605,1.037915825843811,-1.6219643354415894,0.6601496338844299,0.24785102903842926,0
457,-2.50854229927063,-3.850956678390503,0.9276109933853149,-1.5532768964767456,0.6190140247344971,0.25694289803504944,0
458,-1.3204604387283325,-2.3058674335479736,0.10429800301790237,-1.5119847059249878,0.7087075710296631,0.28784480690956116,0
459,-2.0353124141693115,-2.315314769744873,-0.007806018926203251,-1.3451581001281738,0.6752976179122925,0.311105340719223,0
460,-5.72450590133667,-4.290100574493408,-0.24402476847171783,-1.2601598501205444,0.7626279592514038,0.34313079714775085,0
461,-7.818386077880859,-13.770123481750488,0.0693293884396553,-1.1921905279159546,0.7135413289070129,0.3459683060646057,0
462,-9.553741455078125,-25.02926254272461,0.6595006585121155,-0.6832509636878967,0.5588718056678772,0.38805434107780457,0
463,-9.572352409362793,-23.524335861206055,0.7813336849212646,-0.7371866106987,0.45261749625205994,0.3482963740825653,0
464,-10.209410667419434,-16.662137985229492,0.4283435344696045,-0.5253478288650513,0.4155127704143524,0.363748162984848,0
465,-9.887978553771973,-7.689840793609619,-0.0038495829794555902,-0.2214687615633011,0.22437047958374023,0.3735484480857849,0
466,-8.203584671020508,-1.5948117971420288,-0.07570559531450272,-0.285136342048645,0.18392008543014526,0.3661525845527649,0
467,-6.611374378204346,-0.1784587800502777,-0.02869192697107792,-0.14775709807872772,0.09606586396694183,0.37776800990104675,0
468,-5.405117034912109,1.349617600440979,-0.020844459533691406,-0.18181754648685455,0.03740892559289932,0.3752305209636688,0
469,-4.532126426696777,-0.9378665685653687,-0.39144250750541687,0.06100916862487793,-0.06347280740737915,0.390435129404068,0
470,-3.099135398864746,1.5925183296203613,-0.4611712098121643,0.034887589514255524,-0.15034441649913788,0.3809013366699219,0
471,-1.8729748725891113,3.4859793186187744,0.45171087980270386,-0.17211781442165375,0.13048088550567627,0.3846242129802704,0
472,-1.018638014793396,0.10246295481920242,0.47373974323272705,-0.1809762418270111,0.13338316977024078,0.39022600650787354,0
473,-3.0642218589782715,-9.722744941711426,0.2784544825553894,-0.052856940776109695,0.06477735191583633,0.397945761680603,0
474,-7.671734809875488,-20.808826446533203,0.5722196698188782,0.2279151827096939,0.03869583085179329,0.4057023823261261,0
475,-10.54932975769043,-31.085966110229492,0.5644586086273193,0.40856605768203735,-0.06596067547798157,0.40857750177383423,0
476,-13.576940536499023,-30.93394660949707,1.0266387462615967,1.0088603496551514,-0.2842470109462738,0.4199891686439514,0
477,-14.058079719543457,-20.297021865844727,0.8560861349105835,1.5548914670944214,-0.4018200635910034,0.4325377941131592,0
478,-13.163518905639648,0.5171276926994324,0.48342394828796387,1.7998684644699097,-0.6649179458618164,0.4506688117980957,0
479,-10.240034103393555,11.859980583190918,1.168023705482483,1.0661652088165283,-0.6170873045921326,0.4521092474460602,0
480,-5.61179256439209,28.40166664123535,1.2786872386932373,0.9213817715644836,-0.5977600812911987,0.4512067139148712,0
481,-1.3069857358932495,36.749298095703125,1.2562707662582397,0.6573261022567749,-0.647431492805481,0.4591284990310669,0
482,-0.13029448688030243,36.91237258911133,0.9458255767822266,0.2099347710609436,-0.7079316973686218,0.4766499102115631,0
483,0.30556997656822205,31.004167556762695,1.3629577159881592,-0.15919674932956696,-0.6765872240066528,0.47854864597320557,0
484,0.5041603446006775,15.944940567016602,1.4808531999588013,-0.45482131838798523,-0.703343391418457,0.4927026629447937,0
485,-0.9635105133056641,5.551712989807129,1.0214847326278687,-0.5112790465354919,-0.7301921248435974,0.500678539276123,0
486,-0.9362316131591797,-9.17078971862793,1.7142444849014282,-0.4130338132381439,-0.7768421173095703,0.5041404366493225,0
487,-2.4475936889648438,-17.58353042602539,1.662378191947937,-0.16405679285526276,-0.8257595300674438,0.5134164094924927,0
488,-2.8621954917907715,-22.10888671875,1.8684319257736206,-0.0044779060408473015,-0.8935632109642029,0.5412588715553284,0
489,-0.10146590322256088,-24.26873207092285,1.2930861711502075,0.2924536168575287,-0.9444562196731567,0.55876624584198,0
490,0.8958948850631714,-20.28546142578125,1.3312772512435913,0.4059172570705414,-0.9573633670806885,0.5953261256217957,0
491,3.416111707687378,-7.908568382263184,1.5090155601501465,0.7824378609657288,-0.9499475955963135,0.5877375602722168,0
492,4.496026515960693,11.671256065368652,1.6006981134414673,0.7845112085342407,-0.6334381699562073,0.5780924558639526,0
493,3.0092527866363525,25.917091369628906,1.5523552894592285,0.41361644864082336,-0.8076587319374084,0.6546705961227417,0
494,-0.18488934636116028,28.32895851135254,1.450724720954895,0.19187788665294647,-0.7163622379302979,0.6518046259880066,0
495,-1.0228372812271118,19.303024291992188,1.2000609636306763,-0.17914561927318573,-0.7442055344581604,0.6817277073860168,0
496,-0.9273921251296997,3.178431272506714,1.2580790519714355,-0.38597673177719116,-0.8427571654319763,0.7077130079269409,0
497,1.403334140777588,-12.462754249572754,1.2364871501922607,-0.4037207365036011,-0.8631910681724548,0.7218137979507446,0
498,2.112745523452759,-15.148093223571777,1.8748430013656616,-0.06030154973268509,-0.8551983833312988,0.702116072177887,0
499,3.2916793823242188,-20.475635528564453,1.7352941036224365,0.11768971383571625,-0.8265970945358276,0.7195309996604919,0
500,5.040791034698486,-20.923593521118164,1.8090324401855469,1.7366052865982056,-1.865477204322815,0.628902018070221,0
501,9.45230484008789,-14.095760345458984,2.1927883625030518,1.9415992498397827,-1.4320933818817139,0.5997752547264099,0
502,17.60647964477539,-1.658638834953308,3.25831937789917,2.09491229057312,-1.0822967290878296,0.5814924836158752,0
503,23.014957427978516,15.701132774353027,3.8378427028656006,2.0490822792053223,-0.8317927122116089,0.6104629635810852,0
504,23.525102615356445,40.79972457885742,3.610534906387329,2.0261318683624268,-0.42741212248802185,0.5794299840927124,0
505,19.645326614379883,65.6973876953125,2.1441338062286377,1.3700231313705444,-0.3171510100364685,0.6783076524734497,0
506,14.126458168029785,83.7991943359375,1.2962353229522705,0.4045209586620331,0.010817451402544975,0.7200908064842224,0
507,7.123206615447998,80.32183074951172,1.4909775257110596,-0.296383798122406,0.10154014080762863,0.7200779318809509,0
508,0.914084792137146,62.21588897705078,1.5956611633300781,-1.3300182819366455,0.2243650257587433,0.7691168785095215,0
509,-2.6144213676452637,33.173072814941406,1.14146888256073,-2.230768918991089,0.24629954993724823,0.8328922986984253,0
510,-3.0779144763946533,-1.563514232635498,0.2853785455226898,-2.2595090866088867,0.15035545825958252,0.8160420060157776,0
511,-1.3143113851547241,-28.21327018737793,0.6358281373977661,-2.148603916168213,0.19491547346115112,0.805971086025238,0
512,1.1961431503295898,-41.62281799316406,0.9434739351272583,-2.000319480895996,0.19809146225452423,0.8298056721687317,0
513,2.826554298400879,-34.85811996459961,0.4493221640586853,-1.406758427619934,0.23241792619228363,0.8149557113647461,0
514,3.00193452835083,-20.068357467651367,0.7154329419136047,-1.4437334537506104,0.28652074933052063,0.8543846011161804,0
515,2.2571399211883545,-8.756598472595215,1.2108304500579834,-1.2042123079299927,0.3433193266391754,0.8562310934066772,0
516,0.5902019143104553,-2.0491275787353516,1.6870404481887817,-1.1353192329406738,0.38052934408187866,0.870999813079834,0
517,-1.4931598901748657,6.907598495483398,1.3986656665802002,-1.103434681892395,0.4583730101585388,0.8889031410217285,0
518,-3.143419027328491,19.151172637939453,0.7558828592300415,-1.2336100339889526,0.36309605836868286,0.901301920413971,0
519,-4.05189323425293,29.128252029418945,0.20978854596614838,-1.55239737033844,0.37606415152549744,0.9185675382614136,0
520,-4.404768943786621,31.35862159729004,-0.09221219271421432,-2.2122607231140137,0.4484833776950836,0.9470506310462952,0
521,-5.175873279571533,21.274301528930664,-0.030375313013792038,-2.4356682300567627,0.15882766246795654,0.9205517172813416,0
522,-3.6166276931762695,0.47186264395713806,0.23372042179107666,-2.6773681640625,0.15355738997459412,0.928778350353241,0
523,0.008492457680404186,-19.050832748413086,0.2116631418466568,-2.5693342685699463,0.18039405345916748,0.9370220899581909,0
524,2.2728962898254395,-28.285371780395508,0.8262807726860046,-2.4570248126983643,0.25607845187187195,0.9529173374176025,0
525,2.294189691543579,-27.53858184814453,1.2168614864349365,-2.348436117172241,0.2895268499851227,0.9627558588981628,0
526,1.0696978569030762,-23.621728897094727,1.5052986145019531,-1.9786866903305054,0.32053083181381226,0.9746279120445251,0
527,-0.43720752000808716,-24.613088607788086,1.5241731405258179,-1.7358112335205078,0.33067697286605835,0.9878389835357666,0
528,-3.6777360439300537,-25.62384033203125,2.4759788513183594,-1.3195568323135376,0.3081045150756836,0.9993235468864441,0
529,-5.528868198394775,-22.141929626464844,2.8622522354125977,-0.8521227240562439,0.37234872579574585,1.0477653741836548,0
530,-6.315847396850586,-18.20968246459961,3.1257846355438232,-0.7908509373664856,0.26799386739730835,1.0635607242584229,0
531,-7.221102714538574,-7.933362007141113,2.783036470413208,-0.38602980971336365,0.2935055196285248,1.1164177656173706,0
532,-7.116878509521484,6.863254070281982,1.6405818462371826,-0.7290884256362915,0.09026473015546799,1.1086418628692627,0
533,-7.1315178871154785,20.58481788635254,1.4200598001480103,-0.8002043962478638,-0.03332340717315674,1.114943265914917,0
534,-5.597224235534668,24.3309383392334,1.5786904096603394,-1.140438199043274,-0.15012763440608978,1.1168190240859985,0
535,-3.193726062774658,14.462677001953125,1.7436603307724,-1.4297780990600586,-0.028340477496385574,1.163514494895935,0
536,-0.9277083873748779,-3.268202781677246,1.9370089769363403,-1.6025786399841309,-0.017463568598031998,1.1887234449386597,0
537,1.8109807968139648,-17.345809936523438,1.5628080368041992,-1.5665197372436523,-0.044621311128139496,1.203872799873352,0
538,2.8304269313812256,-29.855976104736328,2.112764358520508,-1.110011100769043,-0.026773354038596153,1.2243549823760986,0
539,2.12986421585083,-33.09784698486328,1.7954241037368774,-0.7280685901641846,0.06873630732297897,1.2573938369750977,0
540,1.8782881498336792,-35.256717681884766,1.679932713508606,-0.7852953672409058,0.07670130580663681,1.26712167263031,0
541,-2.42201566696167,-31.76064682006836,1.9012622833251953,-0.24129968881607056,0.07796585559844971,1.282192587852478,0
542,-3.8931336402893066,-28.93844985961914,2.062053918838501,0.384211003780365,0.02532295137643814,1.2987016439437866,0
543,-4.670756816864014,-25.557950973510742,1.909613013267517,0.24667663872241974,-0.06076686084270477,1.3076049089431763,0
544,-4.704813480377197,-15.897359848022461,1.7044373750686646,0.6196885108947754,-0.07948331534862518,1.3307567834854126,0
545,-4.642902851104736,-0.7984829545021057,1.7185091972351074,0.6771579384803772,-0.1704484224319458,1.3438736200332642,0
546,-5.7248215675354,15.35577392578125,2.709900140762329,0.7520437240600586,-0.2649962902069092,1.3598432540893555,0
547,-5.470008850097656,28.642324447631836,2.616269111633301,0.5650011301040649,-0.3676512539386749,1.3826671838760376,0
548,-2.592088222503662,24.22886085510254,2.5413310527801514,0.23184029757976532,-0.31570956110954285,1.4112300872802734,0
549,0.9529229998588562,4.421520233154297,3.0083396434783936,0.021543806418776512,-0.35487309098243713,1.4394571781158447,0
550,3.8308401107788086,-12.174991607666016,2.826894521713257,-0.03441409394145012,-0.21171998977661133,1.470930576324463,0
551,5.5845160484313965,-22.5583553314209,3.257086992263794,-0.07249177247285843,-0.16592246294021606,1.5045770406723022,0
552,4.5925984382629395,-30.891813278198242,3.92445969581604,0.20451602339744568,-0.1684936136007309,1.5389759540557861,0
553,2.1764204502105713,-30.800580978393555,3.6220850944519043,0.6677913665771484,-0.12595920264720917,1.5749413967132568,0
554,-0.7146552801132202,-26.682571411132812,2.789827346801758,0.9198911190032959,-0.1186697781085968,1.6129295825958252,0
555,-3.4414939880371094,-15.808969497680664,2.5927093029022217,1.3246433734893799,-0.14102739095687866,1.6428637504577637,0
556,-3.101020574569702,-5.5683674812316895,2.175166130065918,1.1308070421218872,-0.13360722362995148,1.6742987632751465,0
557,-6.109018802642822,11.170389175415039,1.5639383792877197,1.1563959121704102,-0.28809452056884766,1.7062751054763794,0
558,-7.249594688415527,26.884552001953125,0.7987492084503174,0.9612751007080078,-0.3969326913356781,1.7267452478408813,0
559,-4.422423362731934,33.45003128051758,0.8532385230064392,0.6337534189224243,-0.4993642270565033,1.739484190940857,0
560,-0.9358615875244141,26.963287353515625,0.5732936263084412,0.2373715192079544,-0.4935799539089203,1.7400926351547241,0
561,3.9388413429260254,13.94605541229248,0.18095174431800842,-0.07063666731119156,-0.5117020010948181,1.7449220418930054,0
562,4.671647071838379,-0.9404132962226868,0.06079204007983208,-0.1791774183511734,-0.4658694565296173,1.7397326231002808,0
563,5.673637390136719,-8.228255271911621,-0.6268709301948547,-0.056388478726148605,-0.3863247334957123,1.727591872215271,0
564,7.068350315093994,-11.476611137390137,-0.783836841583252,0.21058332920074463,-0.28122571110725403,1.7081798315048218,0
565,5.886760234832764,-16.283117294311523,-0.101241834461689,0.4839840233325958,-0.16473303735256195,1.6916141510009766,0
566,3.340174436569214,-26.359086990356445,0.17179353535175323,0.7831081748008728,-0.1437961608171463,1.693125605583191,0
567,0.6352159380912781,-27.19906234741211,-0.39602747559547424,0.8454654216766357,-0.1043734923005104,1.7023261785507202,0
568,-5.17494535446167,-29.80426025390625,-0.6778332591056824,1.1958712339401245,-0.2570851743221283,1.716681718826294,0
569,-6.254255294799805,-22.443065643310547,0.08725845813751221,1.4804997444152832,-0.3292933404445648,1.7175706624984741,0
570,-4.408334255218506,-13.395363807678223,1.0188862085342407,1.7950572967529297,-0.4123155474662781,1.7235298156738281,0
571,-2.308929204940796,-0.27441373467445374,1.3890076875686646,1.6582322120666504,-0.3319697380065918,1.7237926721572876,0
572,-0.5758934020996094,19.307445526123047,0.5014163255691528,1.5434117317199707,-0.3507732152938843,1.7400317192077637,0
573,1.3296743631362915,36.71827697753906,0.25208035111427307,1.3158668279647827,-0.33345869183540344,1.7445966005325317,0
574,4.071864128112793,37.40274429321289,-0.00016660644905641675,0.8602921366691589,-0.2937496304512024,1.749133586883545,0
575,5.668703079223633,29.850431442260742,-0.7592582106590271,0.37363994121551514,-0.30019623041152954,1.7660645246505737,0
576,3.5828888416290283,18.04359245300293,0.22030140459537506,0.14821232855319977,-0.20783664286136627,1.7522573471069336,0
577,2.160133123397827,1.381809115409851,0.24667838215827942,0.024299824610352516,-0.1373562216758728,1.7472468614578247,0
578,6.010071754455566,-24.436786651611328,0.7602044343948364,0.18110619485378265,-0.15185517072677612,1.7565802335739136,0
579,5.8382720947265625,-33.131900787353516,1.6107773780822754,0.688922107219696,-0.05360754579305649,1.747018575668335,0
580,7.020422458648682,-31.373226165771484,1.0269598960876465,0.9220765829086304,0.04679789021611214,1.7575763463974,0
581,4.471257209777832,-17.16167640686035,2.9877517223358154,1.2499949932098389,-0.045071110129356384,1.8001019954681396,0
582,4.818684101104736,-10.716437339782715,1.306508183479309,1.3292020559310913,0.040793273597955704,1.816656231880188,0
583,4.515153884887695,-3.3266754150390625,1.6383895874023438,1.1652857065200806,0.11334316432476044,1.8329212665557861,0
584,2.395285129547119,4.528860569000244,2.3121676445007324,1.148048996925354,0.17784693837165833,1.8452562093734741,0
585,0.7270658016204834,2.8000669479370117,2.4497063159942627,1.0140341520309448,0.20951922237873077,1.8635060787200928,0
586,-2.590202808380127,11.36935043334961,1.367828607559204,1.0701792240142822,0.20183059573173523,1.8793540000915527,0
587,-4.642693996429443,16.789520263671875,0.8559728264808655,1.0150097608566284,0.15744687616825104,1.8928354978561401,0
588,-3.083693027496338,9.338266372680664,-0.02068098448216915,0.9161185026168823,0.08198529481887817,1.9053527116775513,0
589,-5.142880439758301,4.0713725090026855,-0.7093684673309326,0.7311897277832031,0.15376140177249908,1.878760576248169,0
590,-5.195799827575684,1.918479084968567,0.4224470257759094,0.7655432224273682,0.07501384615898132,1.8813889026641846,0
591,-2.5597100257873535,8.428557395935059,0.4067539572715759,0.8429309129714966,0.0030025457963347435,1.8911174535751343,0
592,1.347145915031433,6.906435012817383,0.3468411862850189,0.8492843508720398,-0.027191709727048874,1.895105004310608,0
593,2.721381902694702,-2.799593448638916,0.07561289519071579,0.813993513584137,-0.020751677453517914,1.895039677619934,0
594,1.0437908172607422,-8.338737487792969,-0.06126333773136139,0.9710037708282471,0.006169068161398172,1.8928543329238892,0
595,-1.092326283454895,-7.9238128662109375,0.49029597640037537,1.169901728630066,-0.05267340689897537,1.9094183444976807,0
596,-1.5127642154693604,-7.8105034828186035,0.8274879455566406,1.353737473487854,-0.06494595855474472,1.9185264110565186,0
597,-2.0464906692504883,-3.3538427352905273,1.402803659439087,1.355107307434082,0.12576507031917572,1.8838584423065186,0
598,-2.365764856338501,-1.3890936374664307,1.947914719581604,1.5716371536254883,-0.06980311870574951,1.9371370077133179,0
599,-5.164978981018066,7.152226448059082,1.3915894031524658,1.559934139251709,-0.19815631210803986,1.9770399332046509,0
600,-4.622133731842041,10.727980613708496,0.9883995652198792,1.212605595588684,-0.06545302271842957,1.9457803964614868,0
601,-4.613332271575928,20.33565330505371,0.5411363244056702,1.2476115226745605,-0.29149630665779114,1.9992331266403198,0
602,-4.944099426269531,29.195322036743164,0.5949145555496216,0.9023901224136353,-0.35982561111450195,2.010002851486206,0
603,-2.663337230682373,35.64816665649414,1.0040521621704102,0.42701655626296997,-0.4201367199420929,2.017332077026367,0
604,0.9437782764434814,37.41162109375,0.9428290128707886,-0.12003730237483978,-0.44034016132354736,2.0239076614379883,0
605,4.865511894226074,27.38580894470215,0.02707698382437229,-0.5126954913139343,-0.2567127048969269,1.998587965965271,0
606,7.448293685913086,13.228572845458984,0.310634046792984,-0.5175547003746033,-0.16810822486877441,1.9949030876159668,0
607,8.837632179260254,-8.460589408874512,1.7513130903244019,-0.5961334109306335,-0.041690655052661896,1.9940584897994995,0
608,6.713927745819092,-29.803178787231445,1.5611319541931152,-0.3031422793865204,0.09437611699104309,1.9999687671661377,0
609,3.325657606124878,-38.30126953125,1.5468192100524902,0.264015793800354,0.18017184734344482,2.0062990188598633,0
610,-1.716170072555542,-28.595041275024414,1.7292767763137817,0.4597114026546478,-0.014610771089792252,2.0455689430236816,0
611,-8.366443634033203,-9.618316650390625,1.131005883216858,0.8764434456825256,-0.4098794758319855,2.101085662841797,0
612,-7.665088176727295,5.255694389343262,0.45721882581710815,1.2811670303344727,-0.5188171863555908,2.112971782684326,0
613,-2.471008062362671,20.089780807495117,0.3833629786968231,0.9474326968193054,-0.10713900625705719,2.067464828491211,0
614,1.7412817478179932,35.30729293823242,0.23464472591876984,0.511622428894043,-0.19942420721054077,2.0823614597320557,0
615,4.72381591796875,49.09771728515625,-0.827318012714386,-0.07865960896015167,-0.1536203771829605,2.081892490386963,0
616,4.645613193511963,50.444580078125,-1.7280939817428589,-0.22073966264724731,0.06821152567863464,2.0498127937316895,0
617,2.2345399856567383,44.49070739746094,-2.394885540008545,-2.3358442783355713,0.12681931257247925,2.0492873191833496,0
618,-0.6279450058937073,31.077533721923828,-2.215188980102539,-2.754960298538208,0.06801875680685043,2.0286638736724854,0
619,-4.57545804977417,6.483387470245361,-2.4574480056762695,-2.9754953384399414,0.02841074764728546,2.0048794746398926,0
620,-5.2868194580078125,-21.275014877319336,-2.981924295425415,-2.860502004623413,-0.05655822530388832,1.9751684665679932,0
621,-4.456949710845947,-42.2484130859375,-2.791060447692871,-2.2942051887512207,-0.147415429353714,1.9405591487884521,0
622,-1.5489299297332764,-56.215118408203125,-2.375821590423584,-1.7526495456695557,-0.21397894620895386,1.9087259769439697,0
623,1.6989399194717407,-57.13197326660156,-2.031371593475342,-0.9796538949012756,-0.15369991958141327,1.8976426124572754,0
624,3.361260414123535,-49.59206008911133,-1.3813661336898804,-0.12144684046506882,-0.18244300782680511,1.869999647140503,0
625,3.7471277713775635,-39.427024841308594,-1.1514040231704712,0.3132823407649994,-0.2508311867713928,1.8393882513046265,0
626,2.4069974422454834,-15.356602668762207,-0.6337113976478577,0.6158661842346191,-0.18249301612377167,1.837387204170227,0
627,-1.0038748979568481,11.346735000610352,-1.0841704607009888,0.8013100028038025,-0.21061824262142181,1.8249784708023071,0
628,-0.9744810461997986,34.19815444946289,-0.8627175092697144,0.6236661076545715,-0.2007942646741867,1.814748764038086,0
629,-0.9767534732818604,45.42721939086914,-0.7186935544013977,0.007802469190210104,-0.21375194191932678,1.8046211004257202,0
630,-2.8509016036987305,39.78141403198242,-0.5940992832183838,-0.5717997550964355,-0.21891525387763977,1.7979440689086914,0
631,-4.464746475219727,14.801647186279297,-0.8013901710510254,-0.9893795251846313,-0.25256142020225525,1.790592074394226,0
632,-1.4910662174224854,-6.425029754638672,-1.13130784034729,-1.058746337890625,-0.2980995178222656,1.779754638671875,0
633,-0.19773130118846893,-22.588512420654297,-0.3574386239051819,-0.774395227432251,-0.2977980077266693,1.7679122686386108,0
634,4.57403564453125,-38.53173065185547,-1.2045968770980835,-0.22040830552577972,-0.2697978615760803,1.7602293491363525,0
635,7.459291934967041,-49.02607727050781,-0.6829731464385986,0.46189844608306885,-0.3013548254966736,1.739141821861267,0
636,8.75772762298584,-42.48556137084961,0.35004642605781555,0.8130247592926025,-0.2973049581050873,1.7340151071548462,0
637,9.685832977294922,-23.855712890625,0.6534891128540039,1.079062819480896,-0.20310118794441223,1.7440496683120728,0
638,9.284564018249512,-1.463553547859192,0.08328234404325485,1.2940096855163574,-0.09733881801366806,1.750330924987793,0
639,3.9306223392486572,17.317358016967773,-0.6454909443855286,1.2629286050796509,0.0627698227763176,1.7544641494750977,0
640,1.3034954071044922,33.17262268066406,-0.8135327100753784,1.0080928802490234,0.13827285170555115,1.7503236532211304,0
641,-0.43481919169425964,37.67194747924805,-1.094546914100647,0.5960123538970947,0.02178986929357052,1.741880178451538,0
642,-2.1805102825164795,38.31578063964844,-1.2763588428497314,0.25189995765686035,0.028908010572195053,1.7306143045425415,0
643,-1.0217565298080444,29.846275329589844,-1.8398550748825073,-0.2747817039489746,0.02040465548634529,1.7201175689697266,0
644,-0.20273248851299286,19.686674118041992,-2.0191240310668945,-0.44209733605384827,0.026586070656776428,1.7009724378585815,0
645,1.6720021963119507,11.28105640411377,-2.0917015075683594,-0.6398795247077942,0.051800210028886795,1.6793323755264282,0
646,5.306122303009033,4.39735221862793,-2.377268075942993,-0.6298071146011353,0.09582371264696121,1.6583726406097412,0
647,9.293862342834473,1.1860599517822266,-2.086876392364502,-0.6167287230491638,0.21188867092132568,1.6360703706741333,0
648,9.379483222961426,0.47375813126564026,-2.4044113159179688,-0.6196666955947876,0.3055863082408905,1.6139568090438843,0
649,8.83641529083252,2.057090997695923,-2.7295525074005127,-0.6979811191558838,0.4776040315628052,1.5931024551391602,0
650,6.54951286315918,8.470602989196777,-2.6520638465881348,-0.6899515390396118,0.34424129128456116,1.5544980764389038,0
651,3.3649325370788574,12.511136054992676,-3.6369283199310303,-0.7622942924499512,0.38381901383399963,1.525852084159851,0
652,0.2904723882675171,15.902127265930176,-3.819200038909912,-1.0559672117233276,0.46599796414375305,1.493456244468689,0
653,-1.1170158386230469,17.878475189208984,-3.638015031814575,-1.3197965621948242,0.4890044927597046,1.457770824432373,0
654,-1.0351706743240356,12.7047758102417,-3.0990240573883057,-1.3690307140350342,0.6930503249168396,1.4494987726211548,0
655,0.4359925091266632,0.9190218448638916,-3.0772502422332764,-1.513620376586914,0.19337338209152222,1.3628532886505127,0
656,1.882478952407837,-13.633562088012695,-3.535781145095825,-1.4507383108139038,0.31078410148620605,1.348081350326538,0
657,3.258469820022583,-21.34478759765625,-3.2649152278900146,-1.3327100276947021,0.38308510184288025,1.3195569515228271,0
658,3.150019884109497,-21.11354637145996,-2.8524508476257324,-0.8937863707542419,0.4730019271373749,1.304640531539917,0
659,4.112072944641113,-11.764925956726074,-2.2219865322113037,-0.7829939126968384,0.47451457381248474,1.2661198377609253,0
660,5.3925700187683105,-1.5070407390594482,-1.7263883352279663,-0.6203610301017761,0.48818954825401306,1.2430942058563232,0
661,4.897941589355469,3.026548147201538,-1.3434921503067017,-0.7366662621498108,0.38557788729667664,1.194108486175537,0
662,3.777906894683838,7.918219089508057,-1.2850265502929688,-0.7122700810432434,0.49965348839759827,1.1969248056411743,0
663,3.324206590652466,6.238393306732178,-1.2531713247299194,-0.8034528493881226,0.5950646996498108,1.1937470436096191,0
664,2.5640628337860107,3.3794500827789307,-1.7506706714630127,-0.9543480277061462,0.6690613031387329,1.184373378753662,0
665,2.7491490840911865,-5.06432580947876,-1.6284288167953491,-0.9664553999900818,0.7315052151679993,1.1751459836959839,0
666,2.9706873893737793,-8.281519889831543,-1.2954010963439941,-0.7908235192298889,0.5113015174865723,1.1299952268600464,0
667,2.096400499343872,-11.481404304504395,-0.5154332518577576,-0.7895033955574036,0.7224763631820679,1.142699122428894,0
668,1.943219542503357,-20.178857803344727,-0.24454504251480103,-0.5704042911529541,0.7688595056533813,1.1493169069290161,0
669,1.111416220664978,-27.953868865966797,0.03359753638505936,-0.34650877118110657,0.7438194155693054,1.136755108833313,0
670,0.6084855794906616,-28.06946563720703,0.38725146651268005,-0.22123558819293976,0.8387554287910461,1.1321547031402588,0
671,0.4976135492324829,-26.287769317626953,0.8474704027175903,0.202876016497612,0.8599649667739868,1.1476904153823853,0
672,-0.0877789556980133,-16.213314056396484,1.6004419326782227,0.42488905787467957,0.8800824880599976,1.1518703699111938,0
673,-3.154531717300415,-4.123142242431641,2.120184898376465,0.688289999961853,0.8064016699790955,1.1738430261611938,0
674,-5.1729536056518555,6.843899250030518,2.6685805320739746,0.8477514982223511,0.7571021318435669,1.2092351913452148,0
675,-6.605016231536865,16.927583694458008,3.1178622245788574,0.798432469367981,0.6769788861274719,1.2420082092285156,0
676,-4.9228034019470215,17.545915603637695,2.9814209938049316,0.6142618060112,0.5855525135993958,1.267425775527954,0
677,-4.298921585083008,12.938090324401855,2.9352524280548096,0.4427717924118042,0.5206461548805237,1.2919504642486572,0
678,-2.4993038177490234,10.786748886108398,3.0655436515808105,0.330293744802475,0.4626956582069397,1.3200364112854004,0
679,0.4655642509460449,5.3839921951293945,3.1823413372039795,0.26384150981903076,0.7267497777938843,1.3550044298171997,0
680,1.2471104860305786,7.00972318649292,3.1602585315704346,0.016873778775334358,0.5945319533348083,1.3664684295654297,0
681,1.300689458847046,6.5955915451049805,2.996955156326294,-0.3939935564994812,0.6210407018661499,1.3640164136886597,0
682,-0.34394219517707825,-3.284435272216797,3.333770275115967,-0.45885929465293884,0.7026847004890442,1.397914171218872,0
683,-3.080742120742798,-16.946125030517578,2.9854583740234375,-0.31798863410949707,0.7486146092414856,1.4398698806762695,0
684,-5.028026103973389,-30.08222770690918,2.6215381622314453,-0.1039162278175354,0.6850576996803284,1.4689995050430298,0
685,-5.00817346572876,-35.83670425415039,3.3220841884613037,0.48329466581344604,0.5962296724319458,1.5198168754577637,0
686,-7.667325496673584,-29.69852066040039,3.5913758277893066,1.046433448791504,0.4954662621021271,1.5700732469558716,0
687,-9.511940956115723,-5.979371547698975,3.6741178035736084,1.2804960012435913,0.3015737235546112,1.6190913915634155,0
688,-9.097559928894043,3.8305704593658447,3.0679707527160645,1.3888760805130005,0.21218806505203247,1.658382534980774,0
689,-6.357255935668945,17.138225555419922,1.9072405099868774,1.2094535827636719,0.1400071531534195,1.6735249757766724,0
690,-4.827168941497803,24.979516983032227,1.6962355375289917,0.9804710149765015,0.03047618269920349,1.69218111038208,0
691,-3.200195550918579,22.076297760009766,1.367415189743042,0.6901509761810303,-0.05142231658101082,1.709409236907959,0
692,-0.05391053110361099,11.845111846923828,1.298321008682251,0.41057607531547546,-0.09769546240568161,1.7211368083953857,0
693,2.4301600456237793,6.185125827789307,1.2498363256454468,0.3183324337005615,-0.012007849290966988,1.7282357215881348,0
694,3.7797183990478516,1.3334544897079468,0.5328888297080994,0.35720402002334595,0.17695164680480957,1.7281121015548706,0
695,2.457843780517578,-8.103927612304688,0.22224459052085876,0.4096930921077728,0.07612976431846619,1.7536157369613647,0
696,1.275020718574524,-18.30424690246582,0.27596762776374817,0.6253067851066589,0.09050644934177399,1.763069748878479,0
697,0.19302718341350555,-27.039024353027344,0.33991682529449463,0.6660866141319275,0.22676168382167816,1.7433323860168457,0
698,-1.9971728324890137,-30.131162643432617,0.34378108382225037,1.1534658670425415,0.14378803968429565,1.7610843181610107,0
699,-4.353331089019775,-25.699787139892578,0.42358624935150146,1.7837238311767578,-0.10390491038560867,1.805683970451355,0
700,-5.462184429168701,-10.531698226928711,0.5632136464118958,1.449486494064331,0.2474592924118042,1.7363288402557373,0
701,-5.3799591064453125,6.854123592376709,0.9686585664749146,1.4431581497192383,0.058982089161872864,1.7620265483856201,0
702,-6.300975322723389,17.003740310668945,-0.010904786176979542,1.2783597707748413,0.031568776816129684,1.7690215110778809,0
703,-6.796284198760986,18.314926147460938,-0.4476490020751953,1.048470139503479,-0.0018302623648196459,1.7641780376434326,0
704,-6.490828514099121,13.572606086730957,-0.13182039558887482,0.918283224105835,-0.12744900584220886,1.7712483406066895,0
705,-3.1668787002563477,4.341747283935547,-0.6613774299621582,0.8090757727622986,-0.23462018370628357,1.7778115272521973,0
706,-0.7980342507362366,-5.800930500030518,-0.9913628697395325,0.7531024217605591,-0.29622769355773926,1.7782293558120728,0
707,1.539433479309082,-5.978473663330078,-1.231898546218872,0.9076319932937622,-0.35946252942085266,1.7820186614990234,0
708,2.715764284133911,1.046820044517517,-1.1268796920776367,1.0824368000030518,-0.3221355676651001,1.766898274421692,0
709,4.307988166809082,12.037586212158203,-1.3713016510009766,0.9169617891311646,-0.21060551702976227,1.7424887418746948,0
710,3.404799222946167,22.970197677612305,-1.9152162075042725,0.8285994529724121,-0.1589503437280655,1.7255311012268066,0
711,2.465177536010742,21.90430450439453,-1.799662709236145,0.5052642226219177,-0.10918984562158585,1.7064067125320435,0
712,1.4915268421173096,12.7581205368042,-2.0877010822296143,0.213357076048851,-0.08305872976779938,1.6915870904922485,0
713,-0.8530040383338928,-2.0660793781280518,-2.1087279319763184,0.15091705322265625,-0.07627949863672256,1.668418049812317,0
714,-2.2552292346954346,-15.52769947052002,-1.5980582237243652,0.27992868423461914,-0.312980055809021,1.6797715425491333,0
715,-1.2085776329040527,-16.580873489379883,-1.1219227313995361,0.4737488925457001,-0.12460324168205261,1.6296261548995972,0
716,-0.5359324812889099,-9.568281173706055,-0.9958826899528503,0.7937197685241699,-0.0786018818616867,1.6023298501968384,0
717,-3.094534158706665,8.141312599182129,-0.6278855204582214,0.8872317671775818,-0.1007101833820343,1.5932928323745728,0
718,-3.9104323387145996,20.318267822265625,-0.6758845448493958,0.4009760320186615,-0.16145040094852448,1.6111886501312256,0
719,-5.490962982177734,21.357433319091797,-0.9697290062904358,0.3161541223526001,-0.23796290159225464,1.6027469635009766,0
720,-3.7754430770874023,16.784608840942383,-0.7856593728065491,0.06871674209833145,-0.3310585618019104,1.5977425575256348,0
721,-1.4967007637023926,14.247699737548828,-1.2383201122283936,-0.09159409999847412,-0.3897489905357361,1.58939790725708,0
722,0.42231202125549316,9.254181861877441,-1.7337344884872437,-0.25774258375167847,-0.40650078654289246,1.5774931907653809,0
723,3.7019951343536377,2.374812364578247,-1.7965803146362305,-0.3047601580619812,-0.38393375277519226,1.558385968208313,0
724,6.039473056793213,0.7769981622695923,-1.6852092742919922,-0.2498486191034317,-0.3117797374725342,1.5377631187438965,0
725,6.30740213394165,2.524672269821167,-1.7555663585662842,0.01197511050850153,-0.2744360566139221,1.5099365711212158,0
726,4.612016201019287,11.608431816101074,-1.9621961116790771,-0.10239969193935394,-0.31469640135765076,1.5042407512664795,0
727,1.8872830867767334,19.781368255615234,-2.462162733078003,-0.8554816246032715,-0.23936642706394196,1.5262278318405151,0
728,0.13901762664318085,22.69211196899414,-3.554326295852661,-1.1371450424194336,-0.21228721737861633,1.5004924535751343,0
729,-1.3658086061477661,14.504024505615234,-3.3606369495391846,-1.4161523580551147,-0.27761906385421753,1.4679380655288696,0
730,0.01402236707508564,-2.063661813735962,-3.1003098487854004,-1.510110855102539,-0.35769304633140564,1.430511474609375,0
731,3.1115882396698,-15.937519073486328,-2.9889352321624756,-1.3573147058486938,-0.33233392238616943,1.3909658193588257,0
732,7.291408538818359,-31.999046325683594,-2.7754650115966797,-1.037362813949585,-0.25824838876724243,1.3521513938903809,0
733,11.402485847473145,-44.776161193847656,-3.1023027896881104,-0.5955109596252441,-0.046221762895584106,1.324660301208496,0
734,11.558321952819824,-45.450809478759766,-2.3041934967041016,0.010392343625426292,0.07413836568593979,1.2806609869003296,0
735,9.669615745544434,-39.445899963378906,-1.5615954399108887,0.6866053342819214,0.12729404866695404,1.231545329093933,0
736,5.058613300323486,-20.414857864379883,-1.0715667009353638,0.8594685792922974,0.2814670503139496,1.2358686923980713,0
737,-1.0162714719772339,7.815065860748291,-1.4029369354248047,0.9092612266540527,0.35953471064567566,1.236108422279358,0
738,-6.404044151306152,32.51943588256836,-2.2729196548461914,0.7187420725822449,0.327947199344635,1.2259794473648071,0
739,-9.024524688720703,47.27497863769531,-2.0022449493408203,0.26102346181869507,0.20768235623836517,1.2052730321884155,0
740,-8.767802238464355,45.39350509643555,-1.6980152130126953,-0.31230390071868896,0.06243758276104927,1.1848262548446655,0
741,-6.74832010269165,30.55327796936035,-1.9458428621292114,-0.7166675329208374,-0.0675281286239624,1.1594277620315552,0
742,-0.9428228139877319,16.74165916442871,-2.4992640018463135,-0.9406352639198303,-0.08604984730482101,1.1320246458053589,0
743,3.5347392559051514,2.5601062774658203,-2.6407220363616943,-1.083770990371704,-0.08579745143651962,1.1040111780166626,0
744,9.512645721435547,-6.74462366104126,-1.8344793319702148,-1.0056990385055542,-0.009682801552116871,1.0783251523971558,0
745,12.076960563659668,-12.108464241027832,-1.7821931838989258,-0.8099950551986694,0.1565045565366745,1.0631074905395508,0
746,14.05275821685791,-12.820181846618652,-2.2852296829223633,-0.698113203048706,0.2925070822238922,1.0466043949127197,0
747,11.405904769897461,-14.345626831054688,-2.3063247203826904,-0.6880620718002319,0.385611891746521,1.0227737426757812,0
748,5.841867446899414,-10.171820640563965,-1.7754852771759033,-0.5090381503105164,0.5608521699905396,1.007498025894165,0
749,-0.8494299054145813,-5.2307915687561035,-1.6547244787216187,-0.2832772731781006,0.6305748820304871,0.9888473153114319,0
750,-6.975279808044434,-2.978581666946411,-1.428173542022705,-0.133856400847435,0.661988377571106,0.9757007956504822,0
751,-11.54510498046875,5.35221529006958,-1.4098567962646484,-0.1103452742099762,0.45298686623573303,0.9470340609550476,0
752,-12.351700782775879,11.420220375061035,-1.7867640256881714,-0.32011857628822327,0.12908342480659485,0.9091699719429016,0
753,-8.545404434204102,13.093957901000977,-2.411426305770874,-0.2554982900619507,0.15977182984352112,0.9086572527885437,0
754,-3.7259786128997803,13.844562530517578,-3.120720624923706,-0.40212222933769226,0.020659206435084343,0.876700758934021,0
755,2.6018128395080566,10.492134094238281,-3.049064874649048,-0.5757204294204712,-0.034051693975925446,0.8428598046302795,0
756,7.742419242858887,11.914360046386719,-3.0967767238616943,-0.8574278354644775,-0.05652748420834541,0.8043896555900574,0
757,12.01500129699707,12.446324348449707,-3.1664960384368896,-0.8486377000808716,0.1532895863056183,0.7878975868225098,0
758,12.789907455444336,10.766509056091309,-3.950307607650757,-0.9655453562736511,0.35498175024986267,0.761760413646698,0
759,9.329415321350098,6.012938976287842,-3.637286901473999,-1.313322901725769,0.34075433015823364,0.7010950446128845,0
760,3.79569411277771,-4.212373733520508,-3.807157516479492,-1.07212233543396,0.47760510444641113,0.6725459694862366,0
761,-1.8262938261032104,-17.60793685913086,-3.6480906009674072,-0.7683250308036804,0.5194231867790222,0.6379168629646301,0
762,-4.9345831871032715,-26.26000213623047,-3.209416151046753,-1.4788615703582764,0.4727259576320648,0.5795511603355408,0
763,-7.9136433601379395,-25.17832374572754,-2.7806355953216553,-1.1945436000823975,0.3724209666252136,0.5399250388145447,0
764,-7.211034774780273,-22.31435775756836,-2.132051706314087,-0.853571891784668,0.30381208658218384,0.5168787240982056,0
765,-5.55675745010376,-19.383699417114258,-1.8524117469787598,-0.5554945468902588,0.19255474209785461,0.49026384949684143,0
766,1.5661265850067139,-22.280067443847656,-2.5137932300567627,0.02144690416753292,0.08269636332988739,0.44639235734939575,0
767,3.78818416595459,-21.997629165649414,-2.6156325340270996,0.06738361716270447,0.17525850236415863,0.4237261116504669,0
768,4.521504878997803,-16.70846939086914,-2.0685207843780518,0.3869589865207672,0.22218488156795502,0.3983374238014221,0
769,4.008469581604004,-8.6094388961792,-2.014235258102417,0.5994638204574585,0.2895408570766449,0.37895599007606506,0
770,3.0082204341888428,-5.49017858505249,-1.9791444540023804,0.6828283071517944,0.4181968867778778,0.366788774728775,0
771,-5.49479866027832,-6.050668239593506,-2.2521843910217285,0.5597046613693237,0.42232972383499146,0.3178171217441559,0
772,-9.835555076599121,-0.8427377343177795,-2.924078941345215,0.674072802066803,0.31346026062965393,0.2937813103199005,0
773,-11.734352111816406,5.137948036193848,-2.8715410232543945,0.5451720356941223,0.20885135233402252,0.2585268020629883,0
774,-12.39187240600586,11.924971580505371,-3.117793560028076,0.6056810021400452,0.0701393410563469,0.23120033740997314,0
775,-8.476510047912598,12.557550430297852,-3.131368398666382,0.4471760392189026,-0.12119592726230621,0.1954338401556015,0
776,-1.9011008739471436,6.253286838531494,-3.1472115516662598,0.3909713625907898,-0.029875779524445534,0.16323265433311462,0
777,2.4670448303222656,1.2637181282043457,-2.532661199569702,0.41287854313850403,-0.13169090449810028,0.1355028748512268,0
778,4.713137626647949,-7.335629463195801,-2.3167803287506104,0.5100992918014526,-0.08992969244718552,0.11172042787075043,0
779,5.113094806671143,-16.385845184326172,-2.2950990200042725,0.6655318140983582,-0.08357631415128708,0.09185510128736496,0
780,3.6431353092193604,-18.98236656188965,-2.2701094150543213,0.8702629804611206,0.062041234225034714,0.06457517296075821,0
781,0.3936205804347992,-17.701919555664062,-2.2813010215759277,1.0325485467910767,0.03458781912922859,0.045325614511966705,0
782,-2.095963716506958,-14.901016235351562,-2.631157398223877,1.0974117517471313,0.02383851632475853,0.021667178720235825,0
783,-4.822734832763672,-13.280877113342285,-2.965207576751709,1.263619065284729,0.04387496039271355,-0.0105317747220397,0
784,-5.56248664855957,-8.66329574584961,-3.2640445232391357,1.4112900495529175,-0.04866138473153114,-0.03790988773107529,0
785,-5.003547191619873,0.08394579589366913,-3.2022790908813477,1.4548107385635376,-0.14593932032585144,-0.06547743082046509,0
786,-4.202820301055908,5.34115743637085,-3.423954486846924,1.5205392837524414,-0.22458437085151672,-0.0947628989815712,0
787,-2.5967249870300293,18.416460037231445,-3.705944776535034,1.4002066850662231,-0.28750482201576233,-0.12710998952388763,0
788,1.078627586364746,29.01333999633789,-3.9596214294433594,1.15394926071167,-0.18206875026226044,-0.1876317262649536,0
789,3.7549402713775635,33.77287292480469,-4.45689582824707,0.7412750720977783,-0.1588042825460434,-0.22975239157676697,0
790,4.576577186584473,30.134672164916992,-4.19952917098999,0.4298889636993408,-0.16946588456630707,-0.26533326506614685,0
791,5.049980640411377,22.969003677368164,-4.790588855743408,0.16584759950637817,-0.09799337387084961,-0.31457722187042236,0
792,3.9893240928649902,9.962799072265625,-4.523891925811768,0.02461066283285618,-0.021858200430870056,-0.3688218593597412,0
793,1.5798027515411377,4.354358673095703,-3.9567553997039795,-0.06181015446782112,-0.04010558873414993,-0.4044109880924225,0
794,0.04769688844680786,3.1331427097320557,-3.7902636528015137,-0.06361762434244156,-0.019734175875782967,-0.4462054669857025,0
795,-2.0473721027374268,6.638071537017822,-4.170587062835693,-0.062074996531009674,-0.028975458815693855,-0.4844092130661011,0
796,-3.0010986328125,7.029860496520996,-4.424696922302246,-0.17569509148597717,-0.06553107500076294,-0.5229904651641846,0
797,-2.5978317260742188,0.6678975820541382,-4.522599697113037,-0.20797736942768097,-0.1150829866528511,-0.5665554404258728,0
798,-0.5418906807899475,-8.914910316467285,-4.111025333404541,-0.13661691546440125,-0.07809523493051529,-0.6184840798377991,0
799,1.802505373954773,-13.674973487854004,-4.094310760498047,-0.053467731922864914,-0.082498699426651,-0.6588541865348816,0
800,1.8325227499008179,-8.668425559997559,-3.5132181644439697,0.08658630400896072,-0.05152855068445206,-0.6994536519050598,0
801,1.6147856712341309,2.459731340408325,-3.5613133907318115,0.27172043919563293,-0.01953519508242607,-0.7377128601074219,0
802,0.3698336184024811,14.540990829467773,-3.5079963207244873,0.2670533061027527,0.005236306693404913,-0.7721846103668213,0
803,0.9912645816802979,24.21543312072754,-3.871399164199829,0.04882463812828064,-0.13183242082595825,-0.7960768342018127,0
804,-0.2943301200866699,25.115354537963867,-4.197554111480713,-0.290544331073761,-0.11108279228210449,-0.8320033550262451,0
805,1.2745842933654785,23.517255783081055,-4.609789848327637,-0.6428714394569397,-0.10687703639268875,-0.8700780868530273,0
806,4.5702009201049805,18.053695678710938,-4.157207012176514,-0.9476534724235535,-0.07873885333538055,-0.9144503474235535,0
807,6.8463969230651855,11.318214416503906,-4.420187473297119,-1.1469528675079346,0.000630485825240612,-0.958394467830658,0
808,7.275550365447998,5.527527332305908,-4.590592861175537,-1.1574395895004272,0.11599566787481308,-1.0069572925567627,0
809,7.625522613525391,1.6317028999328613,-3.805063247680664,-1.149859070777893,0.23601242899894714,-1.0499259233474731,0
810,5.274865627288818,0.737909734249115,-3.967801570892334,-1.0994319915771484,0.3488801419734955,-1.0883064270019531,0
811,2.2850024700164795,1.1418907642364502,-3.8757736682891846,-1.0436543226242065,0.35059335827827454,-1.1330369710922241,0
812,-1.6117820739746094,3.895481586456299,-3.563518524169922,-1.0843851566314697,0.3043234944343567,-1.175980806350708,0
813,-3.9467039108276367,8.768427848815918,-3.000253677368164,-1.109057068824768,0.34064677357673645,-1.2070828676223755,0
814,-5.457128524780273,12.579019546508789,-3.013655662536621,-1.215269684791565,0.2695479989051819,-1.2407835721969604,0
815,-5.563014030456543,2.8751726150512695,-2.827944278717041,-1.3294789791107178,0.17938214540481567,-1.2753958702087402,0
816,-2.2486846446990967,-11.142820358276367,-3.03100323677063,-1.2553526163101196,0.10050980746746063,-1.3081306219100952,0
817,2.3784472942352295,-23.025087356567383,-3.1367335319519043,-1.1715764999389648,0.06949729472398758,-1.3392109870910645,0
818,4.763408660888672,-22.94211196899414,-1.381435751914978,-1.1360747814178467,0.11484923958778381,-1.3638054132461548,0
819,7.109886646270752,-17.466278076171875,-1.1496622562408447,-0.8364316821098328,0.2024698257446289,-1.3718150854110718,0
820,6.082873821258545,-12.704985618591309,-1.2437591552734375,-0.6862785220146179,0.2460942566394806,-1.3889318704605103,0
821,5.0287580490112305,-9.438531875610352,-1.5335017442703247,-0.41917043924331665,0.41737502813339233,-1.3826996088027954,0
822,0.6728625297546387,-8.346075057983398,-1.986740231513977,-0.2795203924179077,0.48170727491378784,-1.394849419593811,0
823,-3.2439560890197754,-9.439980506896973,-2.4870030879974365,-0.22134605050086975,0.47675657272338867,-1.4165558815002441,0
824,-7.176535606384277,-9.141945838928223,-2.9100873470306396,-0.0014831203734502196,0.4096662700176239,-1.4443715810775757,0
825,-10.256926536560059,0.22999514639377594,-2.6341943740844727,-0.30596914887428284,0.2145940661430359,-1.4992698431015015,0
826,-10.460620880126953,9.145161628723145,-1.9705188274383545,-0.3119243085384369,0.045388590544462204,-1.5332469940185547,0
827,-8.356834411621094,11.89830493927002,-1.8481276035308838,-0.3899953365325928,-0.048319052904844284,-1.550626277923584,0
828,-2.5986719131469727,7.606834888458252,-1.9414023160934448,-0.5547418594360352,-0.09514520317316055,-1.568066120147705,0
829,3.417203187942505,4.001220226287842,-1.80068838596344,-0.5966220498085022,-0.047996483743190765,-1.579448938369751,0
830,7.671751976013184,-10.729169845581055,-2.0560874938964844,-0.537936806678772,0.08804702013731003,-1.5850331783294678,0
831,10.135857582092285,-19.398269653320312,-1.2954771518707275,-0.32910433411598206,0.2064681053161621,-1.5989112854003906,0
832,8.183473587036133,-22.339736938476562,-0.9476044178009033,-0.0774102434515953,0.07652592658996582,-1.6390783786773682,0
833,2.8074235916137695,-23.322784423828125,-0.2573586702346802,0.297333687543869,0.3335185945034027,-1.6265312433242798,0
834,-0.602449357509613,-18.525182723999023,-0.11710529029369354,0.5110419392585754,0.28679510951042175,-1.637174129486084,0
835,-6.026858329772949,-10.839804649353027,0.10272242873907089,0.4284178912639618,0.32047411799430847,-1.638615369796753,0
836,-8.919464111328125,-1.4555466175079346,0.6880849599838257,0.5208779573440552,0.2668231427669525,-1.636804461479187,0
837,-10.349825859069824,7.953024387359619,0.6604302525520325,0.586603581905365,0.09966858476400375,-1.633420705795288,0
838,-8.627511978149414,7.89504861831665,0.7518635988235474,0.5212792158126831,-0.006148333661258221,-1.6270089149475098,0
839,-4.036296844482422,4.428399085998535,0.3542652726173401,0.47614964842796326,-0.14567288756370544,-1.6212133169174194,0
840,1.2751702070236206,3.3685250282287598,0.4717164635658264,0.32184040546417236,-0.13306991755962372,-1.6183602809906006,0
841,5.566235542297363,-0.7066846489906311,0.3091456890106201,0.3538069427013397,-0.11238083243370056,-1.6127841472625732,0
842,6.840310573577881,1.3918042182922363,0.72261643409729,0.3655126690864563,-0.02453652210533619,-1.6092333793640137,0
843,6.080367088317871,7.960872173309326,0.9971035122871399,0.3370218575000763,0.2171909660100937,-1.6051967144012451,0
844,2.4857892990112305,16.699609756469727,1.1087112426757812,0.1917935460805893,0.29057008028030396,-1.5944336652755737,0
845,-1.9681661128997803,20.360214233398438,0.8990699052810669,0.06167551130056381,0.22686736285686493,-1.5799750089645386,0
846,-6.166275501251221,16.26050567626953,1.4115626811981201,-0.17151252925395966,0.10480883717536926,-1.5663957595825195,0
847,-8.92361831665039,12.330510139465332,1.5149810314178467,-0.4196687638759613,0.12547734379768372,-1.5546131134033203,0
848,-9.077629089355469,-0.42030057311058044,1.248975157737732,-0.43065145611763,-0.1052638590335846,-1.5354214906692505,0
849,-6.34219217300415,-13.864036560058594,1.8248803615570068,-0.3730303943157196,-0.1825334131717682,-1.5216633081436157,0
850,-1.5450057983398438,-15.896134376525879,1.9506218433380127,-0.06664778292179108,-0.2108420878648758,-1.5024155378341675,0
851,2.1235029697418213,-8.465165138244629,1.5559629201889038,-0.30550166964530945,-0.1650220900774002,-1.4828498363494873,0
852,4.433190822601318,-0.7548133134841919,1.827186942100525,-0.15321031212806702,-0.0661059021949768,-1.4669915437698364,0
853,3.328632116317749,10.847384452819824,1.8152108192443848,-0.14666353166103363,0.05830635502934456,-1.44960618019104,0
854,1.6962254047393799,19.441951751708984,1.5807769298553467,-0.2545403242111206,0.08591649681329727,-1.4325990676879883,0
855,-1.646964430809021,22.605009078979492,1.8570811748504639,-0.4920751750469208,0.0805196762084961,-1.4147509336471558,0
856,-4.3581767082214355,17.362407684326172,1.840501308441162,-0.752249538898468,-0.045404158532619476,-1.3968816995620728,0
857,-6.721950054168701,10.184080123901367,1.4047030210494995,-0.8519062399864197,-0.06618063896894455,-1.380385160446167,0
858,-7.307107925415039,0.5573108792304993,1.1987700462341309,-0.9782369136810303,-0.1900680959224701,-1.3674352169036865,0
859,-6.230286121368408,-12.084331512451172,1.4310787916183472,-0.8568886518478394,-0.1795705109834671,-1.3539594411849976,0
860,-3.6518633365631104,-16.790157318115234,1.660799264907837,-0.7645569443702698,-0.29601049423217773,-1.3418595790863037,0
861,-1.8771899938583374,-15.816198348999023,2.2115116119384766,-0.4728359282016754,-0.3652626872062683,-1.327283263206482,0
862,0.48105108737945557,-9.195053100585938,2.2906949520111084,-0.1523437649011612,-0.39790648221969604,-1.3086086511611938,0
863,2.028606414794922,2.3260605335235596,2.4445109367370605,-0.16750796139240265,-0.3195458650588989,-1.2776378393173218,0
864,2.224820375442505,10.976792335510254,1.9447252750396729,-0.22711621224880219,-0.22229841351509094,-1.249528169631958,0
865,0.5734514594078064,10.851070404052734,1.9206453561782837,-0.47248274087905884,-0.28017669916152954,-1.2299582958221436,0
866,-1.043582797050476,1.9706348180770874,1.6834608316421509,-0.8232274055480957,-0.28586798906326294,-1.2013052701950073,0
867,-0.6473342776298523,-9.159055709838867,2.076016902923584,-0.7861178517341614,-0.23653173446655273,-1.182368516921997,0
868,-1.8516488075256348,-15.636579513549805,1.687996506690979,-0.5795551538467407,-0.26173123717308044,-1.1685467958450317,0
869,-3.9096245765686035,-21.13364028930664,1.609007477760315,-0.3598909080028534,-0.3030346632003784,-1.1551454067230225,0
870,-5.257626533508301,-25.701427459716797,1.6840487718582153,-0.11230787634849548,-0.37945637106895447,-1.141124963760376,0
871,-6.176529407501221,-19.487754821777344,1.6874756813049316,0.18317937850952148,-0.39856868982315063,-1.12177312374115,0
872,-6.653411865234375,-10.84982967376709,1.4300843477249146,0.28751349449157715,-0.5113015174865723,-1.1025882959365845,0
873,-5.053380012512207,-7.428174018859863,0.9459754228591919,0.33696192502975464,-0.5539249181747437,-1.0839042663574219,0
874,-1.5686149597167969,-6.689052104949951,1.4687730073928833,0.49012747406959534,-0.5626400709152222,-1.0768513679504395,0
875,0.5535759925842285,1.383311152458191,1.9609262943267822,0.607154130935669,-0.5250594615936279,-1.0643720626831055,0
876,3.0427041053771973,10.355792045593262,2.1575262546539307,0.5840029120445251,-0.5235098600387573,-1.045377492904663,0
877,4.046144485473633,13.610573768615723,2.6550538539886475,0.41934871673583984,-0.47870194911956787,-1.0190261602401733,0
878,4.8276238441467285,10.247762680053711,3.3233540058135986,0.27670401334762573,-0.4191424250602722,-0.9929834008216858,0
879,4.045223712921143,9.475605010986328,3.1490893363952637,0.16915956139564514,-0.42656731605529785,-0.9631181955337524,0
880,4.185251235961914,7.259188175201416,3.5711464881896973,0.06807287037372589,-0.29890307784080505,-0.9369869828224182,0
881,2.175943374633789,-2.5709521770477295,3.1546173095703125,0.032218821346759796,-0.3313024342060089,-0.9056139588356018,0
882,2.0545780658721924,-14.370662689208984,2.5394272804260254,0.16701345145702362,-0.31240105628967285,-0.8866780996322632,0
883,0.18111677467823029,-25.825990676879883,2.0405585765838623,0.2950727343559265,-0.3707638382911682,-0.858351469039917,0
884,-0.27686846256256104,-32.179256439208984,1.7926803827285767,0.34411776065826416,-0.23825977742671967,-0.8249281048774719,0
885,0.4823894798755646,-23.878225326538086,1.740557074546814,0.668244481086731,-0.32687750458717346,-0.804194450378418,0
886,-0.9370399713516235,-11.25200366973877,1.5857223272323608,0.9756300449371338,-0.3290259540081024,-0.7939609885215759,0
887,-0.759066104888916,-3.25467848777771,1.2408924102783203,1.0284770727157593,-0.34945404529571533,-0.7756855487823486,0
888,-1.181113362312317,5.9408955574035645,0.7697947025299072,1.0153316259384155,-0.299319863319397,-0.7669790983200073,0
889,-0.1930689811706543,6.261074066162109,1.153950810432434,0.8770301342010498,-0.251095712184906,-0.759047269821167,0
890,2.344555616378784,0.3411850333213806,1.2101958990097046,0.758527398109436,-0.2524130940437317,-0.7445293664932251,0
891,3.6081008911132812,-10.400508880615234,1.0505918264389038,0.8872134685516357,-0.21278993785381317,-0.7443834543228149,0
892,4.148545265197754,-18.086177825927734,1.400995135307312,1.0470808744430542,-0.1633559614419937,-0.7394815683364868,0
893,2.7928707599639893,-14.043548583984375,1.74685537815094,1.2937004566192627,-0.11955036967992783,-0.7315277457237244,0
894,-0.5100102424621582,-0.7501853108406067,1.551971673965454,1.2931544780731201,-0.09466944634914398,-0.7049455642700195,0
895,-3.6130073070526123,14.548240661621094,1.0983976125717163,1.359317660331726,-0.1259852796792984,-0.6899069547653198,0
896,-6.018767833709717,25.528182983398438,1.800191044807434,1.1734923124313354,-0.20564459264278412,-0.6675885319709778,0
897,-4.305332183837891,26.019121170043945,1.8789503574371338,1.0463963747024536,-0.3094921410083771,-0.6483750343322754,0
898,-2.227954864501953,26.391138076782227,1.5677367448806763,0.666902482509613,-0.37989354133605957,-0.6177129149436951,0
899,2.0810344219207764,23.057641983032227,2.0857160091400146,0.2923235297203064,-0.4154665172100067,-0.5934014916419983,0
900,4.1097092628479,10.273355484008789,2.2656426429748535,0.0085017504170537,-0.3850719630718231,-0.5723691582679749,0
901,7.435670375823975,-3.6845431327819824,2.441661834716797,-0.040016014128923416,-0.31751155853271484,-0.5570058822631836,0
902,8.01801872253418,-13.951919555664062,3.0074822902679443,0.060524798929691315,-0.19466295838356018,-0.5435047745704651,0
903,9.105191230773926,-24.643285751342773,3.356710910797119,0.414655864238739,-0.07037251442670822,-0.5314000248908997,0
904,6.097550392150879,-33.82738494873047,3.713261365890503,0.4418923556804657,-0.010338437743484974,-0.4812452793121338,0
905,0.7427420616149902,-27.455974578857422,4.266791820526123,0.8705307841300964,0.0025971049908548594,-0.4418146014213562,0
906,-2.665442943572998,-18.33279037475586,4.110061168670654,1.0539437532424927,0.006170342210680246,-0.3932889699935913,0
907,-4.571355819702148,-7.314711093902588,4.773836135864258,1.3214491605758667,-0.05099208280444145,-0.3481973707675934,0
908,-4.729683876037598,5.217504024505615,4.600221633911133,1.1878398656845093,-0.13384969532489777,-0.28581640124320984,0
909,-4.5255656242370605,19.39119529724121,4.436031818389893,1.1189936399459839,-0.22167544066905975,-0.23467066884040833,0
910,-3.1150341033935547,29.515182495117188,4.52307653427124,0.9455204010009766,-0.3024340867996216,-0.1897198110818863,0
911,-1.109177827835083,35.35425567626953,3.413205862045288,0.5645450949668884,-0.34372571110725403,-0.14507758617401123,0
912,3.727161169052124,33.729026794433594,3.027437925338745,0.2092573195695877,-0.25394898653030396,-0.12452006340026855,0
913,7.347956657409668,17.55089569091797,2.2273199558258057,-0.006319382227957249,-0.24247907102108002,-0.0889984741806984,0
914,11.665422439575195,-2.739328384399414,2.5915799140930176,-0.0892362892627716,-0.11064106971025467,-0.07083703577518463,0
915,12.381111145019531,-15.059886932373047,3.213697671890259,0.004306787624955177,0.07430575788021088,-0.05213526636362076,0
916,11.10780143737793,-24.53086280822754,3.9851560592651367,0.2979933023452759,0.1895933598279953,-0.021839981898665428,0
917,6.424074649810791,-22.728235244750977,4.71602201461792,0.5687869191169739,0.27488973736763,0.01753654144704342,0
918,0.2847062945365906,-11.297719955444336,4.380790710449219,0.7655472755432129,0.35018065571784973,0.059276334941387177,0
919,-5.3687214851379395,6.256411075592041,4.143582344055176,0.8464471101760864,0.33124738931655884,0.1042347177863121,0
920,-9.399855613708496,17.983671188354492,3.7689249515533447,0.8000395894050598,0.23109513521194458,0.1500815451145172,0
921,-10.276061058044434,22.84337615966797,3.8584585189819336,0.5735009908676147,0.12478061020374298,0.18831153213977814,0
922,-10.706542015075684,15.286128997802734,3.750182628631592,0.3802827298641205,-0.05158470198512077,0.23520037531852722,0
923,-8.931800842285156,3.320923328399658,2.771590232849121,0.255808562040329,-0.21783076226711273,0.2815517485141754,0
924,-2.1744070053100586,-5.609848499298096,2.2463247776031494,0.2824020981788635,-0.33229658007621765,0.3186153471469879,0
925,3.4752357006073,-12.411914825439453,2.6824991703033447,0.37229880690574646,-0.25582462549209595,0.3373876214027405,0
926,10.52145767211914,-15.919259071350098,2.7438371181488037,0.66508948802948,-0.15774643421173096,0.361075222492218,0
927,15.420928001403809,-20.224334716796875,2.6775474548339844,0.8142658472061157,0.037007153034210205,0.3784213662147522,0
928,16.033536911010742,-14.591967582702637,3.1954872608184814,0.7540838122367859,0.2105243057012558,0.403395414352417,0
929,10.429248809814453,-6.788850784301758,3.118455410003662,0.9033722877502441,0.4428049623966217,0.42626339197158813,0
930,0.5379590392112732,1.7697787284851074,2.7831265926361084,0.9256752133369446,0.5926600098609924,0.45223966240882874,0
931,-5.604881286621094,-2.739201307296753,2.7212109565734863,0.9002148509025574,0.5706943869590759,0.4855562448501587,0
932,-10.8341646194458,-9.106239318847656,2.3471474647521973,0.9745543599128723,0.4451529383659363,0.5214347839355469,0
933,-16.21804428100586,-7.572600364685059,1.096020221710205,1.0439372062683105,0.23238828778266907,0.5538612604141235,0
934,-18.146989822387695,3.830427646636963,0.14204618334770203,1.17140793800354,0.11756555736064911,0.5627673864364624,0
935,-12.592962265014648,15.397174835205078,0.6976325511932373,1.0718011856079102,-0.14956198632717133,0.5777552723884583,0
936,-5.696706771850586,23.27912139892578,1.3297897577285767,0.8589444756507874,-0.3376460373401642,0.590160608291626,0
937,1.7286086082458496,26.818086624145508,1.3420377969741821,0.6098141670227051,-0.41349685192108154,0.6019100546836853,0
938,7.307315826416016,28.96358299255371,0.2760021984577179,0.23720018565654755,-0.3622992932796478,0.6053362488746643,0
939,10.401987075805664,25.290435791015625,0.004761343356221914,-0.15419378876686096,-0.1484217792749405,0.5915427207946777,0
940,10.854515075683594,18.50625991821289,0.1898883879184723,-0.27885445952415466,0.031910449266433716,0.5928483009338379,0
941,9.928240776062012,6.817286968231201,2.409034252166748,-0.42263469099998474,0.20894424617290497,0.5954450964927673,0
942,4.524120807647705,-0.7983061075210571,3.2532944679260254,-0.45993995666503906,0.35022664070129395,0.6146565079689026,0
943,-0.9914075136184692,-12.427053451538086,2.9803378582000732,-0.4104996621608734,0.32572510838508606,0.6448126435279846,0
944,-7.894792079925537,-22.254653930664062,2.119210720062256,-0.2439640462398529,0.28560590744018555,0.6692175269126892,0
945,-10.70255184173584,-27.200632095336914,1.5080643892288208,0.13966494798660278,0.14264734089374542,0.6938624382019043,0
946,-12.017402648925781,-21.974870681762695,1.567659854888916,0.6254220008850098,-0.03904741257429123,0.7185623049736023,0
947,-10.558015823364258,-8.420177459716797,1.3904401063919067,0.3209555745124817,-0.24600106477737427,0.7154971957206726,0
948,-8.168410301208496,8.18144702911377,1.1031486988067627,0.4132048785686493,-0.26933571696281433,0.7283797860145569,0
949,-5.369443416595459,21.34245491027832,0.5781979560852051,0.21502785384655,-0.3933144509792328,0.7354101538658142,0
950,-0.36004310846328735,30.928817749023438,0.7258164882659912,-0.08955783396959305,-0.45114827156066895,0.7371721267700195,0
951,5.667262077331543,27.693891525268555,0.9104697704315186,-0.42037469148635864,-0.3641270399093628,0.7392830848693848,0
952,9.838491439819336,13.294196128845215,1.0919777154922485,-0.6457270383834839,-0.18084080517292023,0.7452122569084167,0
953,11.654203414916992,-9.4130277633667,0.5624603629112244,-0.557803750038147,-0.23402531445026398,0.7505089640617371,0
954,9.41506576538086,-17.42285919189453,0.7595193386077881,-0.3993941843509674,-0.049635279923677444,0.7591882944107056,0
955,6.263585090637207,-13.605022430419922,1.0324368476867676,-0.14263519644737244,0.09662754833698273,0.7691332697868347,0
956,2.5344655513763428,-9.99836254119873,0.5165295600891113,-0.02080862782895565,0.18462274968624115,0.7793973088264465,0
957,-3.387073040008545,-5.961940765380859,0.9445566534996033,0.0402684323489666,0.20588921010494232,0.7860929369926453,0
958,-8.09577465057373,-1.6661704778671265,0.6768158674240112,0.02444290556013584,0.11977772414684296,0.7916133999824524,0
959,-9.294604301452637,2.297142505645752,1.1069856882095337,0.07804729044437408,-0.03054593876004219,0.7959734201431274,0
960,-10.487741470336914,6.909914016723633,0.3295459449291229,0.06589967012405396,-0.1845247894525528,0.8013356924057007,0
961,-9.327842712402344,9.91579532623291,-0.24301943182945251,0.026066165417432785,-0.19852477312088013,0.8085523247718811,0
962,-4.566990375518799,18.417625427246094,-0.12236429750919342,-0.06248252093791962,-0.26151809096336365,0.8101129531860352,0
963,-1.4290553331375122,19.9394474029541,-0.5111532211303711,-0.28113776445388794,-0.2537733316421509,0.8111865520477295,0
964,4.842355728149414,22.6234073638916,0.06977856904268265,-0.5519670844078064,-0.2608649432659149,0.8060123920440674,0
965,6.085919380187988,19.484880447387695,-0.18337982892990112,-0.7820160984992981,-0.18513263761997223,0.8065128326416016,0
966,4.633114337921143,16.59909439086914,-0.12442898750305176,-1.108615756034851,-0.17095960676670074,0.8009311556816101,0
967,1.1403944492340088,12.753204345703125,-0.06285560876131058,-1.2988510131835938,-0.03664618730545044,0.809954047203064,0
968,-1.8271268606185913,7.795666217803955,0.1402384638786316,-1.4140890836715698,-0.036883264780044556,0.8103247880935669,0
969,-4.120832920074463,2.8881614208221436,0.2612559199333191,-1.3760672807693481,-0.08521638810634613,0.8078997135162354,0
970,-6.231616973876953,-3.212472915649414,0.5917229056358337,-1.3315083980560303,-0.17052197456359863,0.8033075332641602,0
971,-6.237373352050781,-10.370307922363281,1.1257773637771606,-1.1761438846588135,-0.2838691174983978,0.799751877784729,0
972,-4.216482639312744,-9.154608726501465,1.6688156127929688,-1.0080894231796265,-0.31212154030799866,0.8166444897651672,0
973,-2.296633243560791,-5.625685214996338,2.1426360607147217,-0.8161740899085999,-0.3790294826030731,0.8255500793457031,0
974,1.2102686166763306,-9.019902229309082,1.7901502847671509,-0.7887669801712036,-0.4067153334617615,0.842285692691803,0
975,3.7410337924957275,-11.260605812072754,1.5202447175979614,-0.6938728094100952,-0.37221458554267883,0.8613969683647156,0
