,gyro.x,gyro.y,gyro.z,stabilizer.pitch,stabilizer.roll,stabilizer.yaw,label
0,0.022291211411356926,0.06829007714986801,-0.02019253745675087,-0.17717145383358002,0.5124228000640869,-140.02993774414062,0
1,0.07730758190155029,0.037154652178287506,-0.032907865941524506,-0.1898624449968338,0.7176631689071655,-139.99349975585938,0
2,0.025019973516464233,0.1005832776427269,0.030841169878840446,-0.199737086892128,0.4937628209590912,-139.95657348632812,0
3,0.043438103049993515,0.06760977953672409,-0.07748404145240784,-0.2072291225194931,0.5136110186576843,-139.91957092285156,0
4,0.007639865390956402,0.11089073121547699,0.0647907704114914,-0.2128550410270691,1.096843957901001,-139.88461303710938,0
5,0.028668081387877464,0.1332196444272995,0.036296211183071136,-0.34331807494163513,0.40815669298171997,-139.84805297851562,0
6,0.03144385293126106,0.0379369892179966,-0.030972706153988838,-0.2529561519622803,0.44797709584236145,-139.8096466064453,0
7,0.14925403892993927,0.16165582835674286,0.0030796900391578674,-0.2476794272661209,0.4786011874675751,-139.77259826660156,0
8,0.013619364239275455,0.08709365874528885,0.05316083878278732,-0.24350705742835999,0.6917480230331421,-139.7348175048828,0
9,-0.031534623354673386,0.12380114942789078,0.061665698885917664,-0.24005885422229767,0.5363633036613464,-139.6976318359375,0
10,0.09888842701911926,0.09501273185014725,0.06897743046283722,-0.23801569640636444,0.48223161697387695,-139.65992736816406,0
11,-0.039604660123586655,-0.040893957018852234,-0.05843750014901161,-0.2354600578546524,0.6939687728881836,-139.62188720703125,0
12,-0.008770875632762909,0.1688850075006485,0.07738321274518967,-0.23319841921329498,0.7259904146194458,-139.58509826660156,0
13,0.09831954538822174,0.15617626905441284,0.021992376074194908,-0.23283171653747559,0.49859192967414856,-139.54736328125,0
14,0.07886096090078354,-0.0410776324570179,-0.028678297996520996,-0.23173856735229492,0.5161662101745605,-139.5097198486328,0
15,0.11963348090648651,0.09657756984233856,-0.056375741958618164,-0.1673407405614853,0.7200599312782288,-139.4725341796875,0
16,0.12734371423721313,0.07850679755210876,-0.04276116192340851,-0.18276432156562805,0.4324326813220978,-139.4353790283203,0
17,0.039774879813194275,0.15853576362133026,0.06282082200050354,-0.1942417472600937,0.655875563621521,-139.39942932128906,0
18,0.0070323944091796875,0.09328524023294449,0.06162922456860542,-0.20307549834251404,0.5088460445404053,-139.36123657226562,0
19,0.09543019533157349,0.12408430874347687,0.000568465911783278,-0.27233749628067017,0.46084192395210266,-139.32333374023438,0
20,0.1092296838760376,0.1008797362446785,0.12615050375461578,-0.2619991600513458,0.7405984401702881,-139.28614807128906,0
21,0.06039198487997055,0.11091397702693939,0.03345564007759094,-0.2537389397621155,0.7001824378967285,-139.24783325195312,0
22,0.03514114394783974,0.11398997902870178,0.0574912428855896,-0.2477763593196869,0.41675084829330444,-139.21038818359375,0
23,-0.04850468412041664,0.19251494109630585,0.05968002602458,-0.24381789565086365,0.45387500524520874,-139.17230224609375,0
24,0.005200320389121771,0.09089864045381546,0.003998188767582178,-0.24152100086212158,0.6714168190956116,-139.13400268554688,0
25,0.14287160336971283,0.056372709572315216,-0.02410423755645752,-0.17515452206134796,0.6475575566291809,-139.09640502929688,0
26,0.0823327824473381,0.11575217545032501,0.06601852178573608,-0.1972135752439499,0.45575860142707825,-139.02198791503906,0
27,0.10712601989507675,0.11938292533159256,0.018612978979945183,-0.20504096150398254,0.4844156801700592,-138.98414611816406,0
28,0.0360117070376873,0.1238965392112732,0.03336548060178757,-0.21126818656921387,0.5064110159873962,-138.94654846191406,0
29,0.21205972135066986,0.05537349358201027,0.02402760460972786,-0.2786731719970703,0.523059606552124,-138.90805053710938,0
30,0.018337823450565338,0.02311190776526928,-0.051413632929325104,-0.26539719104766846,1.0414838790893555,-138.86981201171875,0
31,0.04986537620425224,0.13774283230304718,0.027136003598570824,-0.2565996050834656,0.48947736620903015,-138.8333740234375,0
32,0.1626240760087967,0.13747800886631012,0.13451601564884186,-0.2497309446334839,0.5098990201950073,-138.79515075683594,0
33,0.02662244625389576,0.10741022229194641,0.05596553534269333,-0.24397346377372742,0.46238330006599426,-138.7563018798828,0
34,0.10470884293317795,0.02576150931417942,0.0811072438955307,-0.23942922055721283,0.4896914064884186,-138.71810913085938,0
35,0.000592532625887543,0.02955358289182186,-0.02186720259487629,-0.23550637066364288,0.510590672492981,-138.67982482910156,0
36,0.03592908754944801,0.030444763600826263,-0.18027961254119873,-0.23269225656986237,0.5263177752494812,-138.64181518554688,0
37,-0.010190749540925026,0.09676509350538254,0.091351218521595,-0.2936723828315735,0.5389761924743652,-138.6045684814453,0
38,0.04959335923194885,0.12227878719568253,0.02597544714808464,-0.15091556310653687,0.8004608750343323,-138.56552124023438,0
39,0.04127548635005951,0.05905333533883095,0.11437869817018509,-0.2327188104391098,0.49359363317489624,-138.52752685546875,0
40,0.02020229957997799,0.14799897372722626,-0.016159772872924805,-0.2317388355731964,0.5132805109024048,-138.48876953125,0
41,-0.007841972634196281,0.04167429730296135,-0.010507594794034958,-0.2311450093984604,0.7170135378837585,-138.4502410888672,0
42,0.08831602334976196,0.00815298780798912,-0.03456159308552742,-0.22957998514175415,0.7453869581222534,-138.4123077392578,0
43,0.12557387351989746,0.044335342943668365,0.026857638731598854,-0.22865889966487885,0.51624596118927,-138.37498474121094,0
44,-0.02541777491569519,0.10807878524065018,-0.06066948175430298,-0.22793161869049072,0.4683763086795807,-138.3367156982422,0
45,0.04036246985197067,-0.006707346998155117,0.032278988510370255,-0.2916117310523987,0.49466079473495483,-138.2989959716797,0
46,0.019223889335989952,0.01429309044033289,0.011342117562890053,-0.21231944859027863,0.5146809220314026,-138.26055908203125,0
47,-0.013509949669241905,0.05469399690628052,-0.004566445481032133,-0.21533291041851044,0.8450025916099548,-138.2220458984375,0
48,0.0777122974395752,0.1019027829170227,0.04963436350226402,-0.15430837869644165,0.4648330807685852,-138.18359375,0
49,0.06874072551727295,-0.045362360775470734,-0.025520237162709236,-0.17131565511226654,0.49208709597587585,-138.1446075439453,0
50,0.0910317674279213,0.0847557857632637,-0.04034942016005516,-0.18433602154254913,0.5126007795333862,-138.1062469482422,0
51,-0.04641084745526314,0.21906514465808868,-0.0047614541836082935,-0.1962539255619049,0.5280553698539734,-138.06814575195312,0
52,0.014308945275843143,0.09266524016857147,0.13041424751281738,-0.20552916824817657,0.7282487750053406,-138.0302734375,0
53,0.1588122695684433,0.18776103854179382,0.04543650150299072,-0.27495571970939636,0.5013861060142517,-137.9903564453125,0
54,0.1657477766275406,0.08311577141284943,0.031981151551008224,-0.26477986574172974,0.7723889946937561,-137.951416015625,0
55,0.07652588933706284,0.0897044911980629,-0.00117696903180331,-0.2567083239555359,0.4729606509208679,-137.91311645507812,0
56,0.08408527821302414,0.14099273085594177,-0.12940570712089539,-0.2500462532043457,0.4975581169128418,-137.8746795654297,0
57,-0.041034579277038574,0.060709379613399506,0.0803036242723465,-0.24558506906032562,0.5161554217338562,-137.8369140625,0
58,-0.02661656029522419,0.13442493975162506,-0.0005614013061858714,-0.2420918196439743,0.5298972725868225,-137.79769897460938,0
59,-0.02351517789065838,0.053605809807777405,-0.0021989704109728336,-0.23954562842845917,0.5408058166503906,-137.75904846191406,0
60,0.20734429359436035,0.1319548338651657,0.1476786732673645,-0.23778536915779114,0.5501244068145752,-137.7205047607422,0
61,0.07845152169466019,0.02940991520881653,-0.04929151013493538,-0.23671801388263702,0.5583362579345703,-137.6807861328125,0
62,-0.06363271921873093,0.08461574465036392,-0.09923260658979416,-0.17204439640045166,0.5634468197822571,-137.642578125,0
63,0.08245707303285599,0.12067385762929916,-0.05461007356643677,-0.187228724360466,0.8191489577293396,-137.60450744628906,0
64,0.1509379744529724,0.13551495969295502,-0.0733618289232254,-0.19925059378147125,0.5715768933296204,-137.5661163330078,0
65,-0.00866737775504589,0.1337660402059555,0.11559512466192245,-0.20927205681800842,0.6355720162391663,-137.5281524658203,0
66,0.03920877352356911,0.15959122776985168,0.04201719909906387,-0.28000620007514954,0.5569038391113281,-137.48886108398438,0
67,0.09481596946716309,0.10861945897340775,-0.013787176460027695,-0.27059847116470337,0.5614463090896606,-137.44973754882812,0
68,0.08564971387386322,0.1169404685497284,0.01817813143134117,-0.2625183165073395,0.501945972442627,-137.41140747070312,0
69,0.06856830418109894,0.06570178270339966,0.023576516658067703,-0.25624269247055054,0.520020067691803,-137.37258911132812,0
70,-0.03529374301433563,0.17142431437969208,0.07429049909114838,-0.2516080439090729,0.5331223607063293,-137.33370971679688,0
71,-0.016992243006825447,0.10435503721237183,0.026577096432447433,-0.2485487312078476,0.5426390767097473,-137.29421997070312,0
72,0.06114561855792999,0.16894331574440002,-0.03221777081489563,-0.24663285911083221,0.551039457321167,-137.25515747070312,0
73,-0.03422850742936134,0.20384836196899414,-0.023855922743678093,-0.24624009430408478,0.8096247911453247,-137.21531677246094,0
74,0.06350669264793396,0.059675995260477066,0.07949122786521912,-0.24604010581970215,0.7521510720252991,-137.1767120361328,0
75,0.05688691511750221,0.1114107221364975,-0.03089059889316559,-0.24446982145309448,0.5191406011581421,-137.13824462890625,0
76,0.02872495912015438,0.16082724928855896,0.052368342876434326,-0.24390220642089844,0.6577957272529602,-137.09898376464844,0
77,-0.03626728057861328,0.05846305191516876,0.07420853525400162,-0.24348129332065582,0.5091049671173096,-137.0600128173828,0
78,0.09305005520582199,0.04526275768876076,0.014518029987812042,-0.24254155158996582,0.5231192708015442,-137.02029418945312,0
79,0.16373001039028168,-0.001628328813239932,0.01193302683532238,-0.24090786278247833,0.7872354984283447,-136.97987365722656,0
80,0.13400816917419434,0.13612021505832672,0.059405963867902756,-0.1768503189086914,0.6714744567871094,-136.94033813476562,0
81,0.0536007322371006,0.1284213662147522,0.09491442143917084,-0.19232840836048126,0.4566793441772461,-136.90090942382812,0
82,-0.1038360521197319,0.06706807762384415,-0.015387721359729767,-0.2668920159339905,0.48223432898521423,-136.86122131347656,0
83,0.009300822392106056,0.03658587858080864,-0.02279043383896351,-0.25911909341812134,0.6276292204856873,-136.82183837890625,0
84,0.06440520286560059,0.09729108959436417,0.09161191433668137,-0.25341638922691345,0.4233644902706146,-136.78338623046875,0
85,0.15824073553085327,0.17707973718643188,0.026496119797229767,-0.2499188780784607,1.0265432596206665,-136.74151611328125,0
86,0.06939683109521866,0.11091803014278412,0.002703467383980751,-0.2480904906988144,0.6036665439605713,-136.70343017578125,0
87,-0.04552292451262474,0.05170796811580658,-0.015211250633001328,-0.2450958490371704,0.34096279740333557,-136.66500854492188,0
88,0.08120019733905792,0.1438656449317932,0.025920812040567398,-0.24312272667884827,0.39508897066116333,-136.62576293945312,0
89,-0.009021018631756306,0.05282474681735039,-0.0312033798545599,-0.24126459658145905,0.626316249370575,-136.58541870117188,0
90,0.031885478645563126,0.10159657895565033,0.08601108938455582,-0.2399485558271408,0.4855349063873291,-136.54669189453125,0
91,0.08929295837879181,0.05209706723690033,0.13007564842700958,-0.23877011239528656,0.44316455721855164,-136.5068359375,0
92,-0.04895156994462013,0.0403699092566967,0.07178786396980286,-0.2375693917274475,0.47489652037620544,-136.4664764404297,0
93,0.037093374878168106,0.029542747884988785,-0.0020844615064561367,-0.17391638457775116,0.49810656905174255,-136.42726135253906,0
94,0.014247523620724678,0.038903262466192245,0.0684460774064064,-0.18904048204421997,0.7058000564575195,-136.38723754882812,0
95,0.11212313175201416,0.13030053675174713,0.007978292182087898,-0.20059862732887268,0.5476363897323608,-136.34654235839844,0
96,0.0647660568356514,0.12390948832035065,-0.009793160483241081,-0.21003815531730652,0.8065161108970642,-136.30726623535156,0
97,0.018508905544877052,0.07332326471805573,-0.08983387053012848,-0.3422142267227173,0.4337749481201172,-136.26808166503906,0
98,0.15002191066741943,0.032570816576480865,0.05839075148105621,-0.1892138123512268,0.46690914034843445,-136.22882080078125,0
99,-0.017757736146450043,0.036886513233184814,-0.033846281468868256,-0.19886504113674164,0.4925071895122528,-136.18853759765625,0
100,0.07876547425985336,0.04924840107560158,-0.017422398552298546,-0.20582503080368042,0.7639185786247253,-136.14895629882812,0
101,0.01887241192162037,0.1113966628909111,0.06059040501713753,-0.21089640259742737,0.46536514163017273,-136.1094512939453,0
102,0.0625639408826828,0.1124793291091919,-0.053546614944934845,-0.2154405117034912,0.7428944110870361,-136.06932067871094,0
103,0.13428868353366852,0.11438371241092682,0.07373546808958054,0.0,0.0,0.0,0
104,0.08333480358123779,0.12339472025632858,-0.007206789683550596,-0.003352536354213953,0.007294103037565947,0.00039265688974410295,0
105,0.04364883527159691,0.17798680067062378,-0.03600669652223587,-0.017284318804740906,0.024682318791747093,0.0005725559894926846,0
106,0.04310370609164238,0.18982672691345215,0.05952388420701027,-0.030680183321237564,-1.3519171476364136,-0.00010426764492876828,0
107,0.15775859355926514,0.15494897961616516,0.037154629826545715,-0.04262549430131912,-0.7133351564407349,0.0007266756729222834,0
108,0.11207188665866852,0.12493118643760681,-0.011035422794520855,-0.058366864919662476,-0.7722740173339844,0.00111305748578161,0
109,0.06518269330263138,0.04322996735572815,0.007165746763348579,-0.07127698510885239,-0.21244214475154877,0.0014678091974928975,0
110,0.021792545914649963,0.14837704598903656,-0.16478799283504486,-0.6137457489967346,0.17650267481803894,0.00543950917199254,0
111,0.1615780144929886,0.12030230462551117,-0.007984833791851997,-0.4468626081943512,0.4302690625190735,0.005567615851759911,0
112,0.13889740407466888,0.0744234174489975,0.04663880914449692,-0.3343595862388611,2.420529365539551,0.01937812566757202,0
113,0.04702984541654587,0.12468161433935165,0.06217378377914429,-0.26842668652534485,0.2471165508031845,0.004360788036137819,0
114,0.0778292864561081,0.10763993859291077,0.04126828536391258,-0.22166970372200012,1.9774740934371948,0.016474353149533272,0
115,0.09257306903600693,0.076581671833992,-0.03155616670846939,-0.19014237821102142,1.6187411546707153,0.015149748884141445,0
116,0.10273373126983643,0.08764278143644333,0.028461653739213943,-0.16883498430252075,0.38092711567878723,0.009359532035887241,0
117,0.08903958648443222,0.12798097729682922,0.06346143782138824,-0.15904027223587036,1.102412462234497,0.012917757965624332,0
118,0.07817906886339188,0.07200757414102554,0.06137567758560181,-0.15087085962295532,0.4316604733467102,0.01134843286126852,0
119,0.12150821834802628,0.17938195168972015,0.02281879261136055,-0.1472308486700058,0.5186541080474854,0.012162555940449238,0
120,0.07522054761648178,0.11923118680715561,0.035054098814725876,-0.14603736996650696,0.5772351622581482,0.012725201435387135,0
121,0.1551886647939682,0.15969586372375488,0.0013808292569592595,0.08407407999038696,1.078405499458313,0.015702737495303154,0
122,0.09606748819351196,0.032106515020132065,-0.0443430058658123,0.01959865167737007,0.5396701693534851,0.016295501962304115,0
123,0.05768100172281265,0.14473730325698853,-0.08087646961212158,-0.027867747470736504,0.9962930679321289,0.013668954372406006,0
124,0.040007561445236206,0.1429361253976822,0.00020187668269500136,-0.06527804583311081,1.1083755493164062,0.011994999833405018,0
125,0.08175109326839447,0.07611101120710373,0.023776136338710785,-0.09092637896537781,0.9919509887695312,0.011709821410477161,0
126,0.03822373226284981,0.07647968083620071,0.03697073087096214,-0.110240139067173,0.37679633498191833,0.013509021140635014,0
127,-0.01289687305688858,0.12275754660367966,-0.01169078703969717,-0.12466759234666824,0.9622851014137268,0.011890745721757412,0
128,0.12261895835399628,0.10795371979475021,0.08731502294540405,-0.1350618302822113,0.8835027813911438,0.011447889730334282,0
129,0.030657531693577766,0.1067410483956337,0.06429832428693771,-0.14392800629138947,0.9788291454315186,0.011994142085313797,0
130,0.07416682690382004,0.11759583652019501,0.013928333297371864,-0.1512884944677353,0.8921547532081604,0.012692106887698174,0
131,0.06098552420735359,0.12803585827350616,-0.03904521465301514,-0.15697310864925385,0.6828770637512207,0.012247970327734947,0
132,-0.07053663581609726,0.16929645836353302,0.012961924076080322,-0.16123230755329132,0.25356268882751465,0.011237528175115585,0
133,-0.0326407365500927,0.06433870643377304,-0.015721773728728294,-0.16489343345165253,0.89048832654953,0.012072457000613213,0
134,-0.026315364986658096,0.1198681890964508,-0.007056806702166796,-0.16634367406368256,0.8222305178642273,0.011543788947165012,0
135,0.06472768634557724,0.12750788033008575,0.06444161385297775,-0.1686062216758728,0.7709380984306335,0.01107887551188469,0
136,0.03691823408007622,0.10894953459501266,-0.1493394821882248,-0.29322633147239685,0.24087978899478912,0.008213977329432964,0
137,0.062009233981370926,0.11302053928375244,-0.02758774533867836,-0.26302894949913025,1.1746636629104614,0.013854803517460823,0
138,-0.004041703883558512,0.06458891183137894,0.12369958311319351,-0.2422395795583725,0.2207092046737671,0.005560426041483879,0
139,0.11927090585231781,0.026032647117972374,-0.0331740602850914,-0.22647780179977417,0.549538791179657,0.009344108402729034,0
140,0.05507660657167435,0.0008439323864877224,0.14664094150066376,-0.21375299990177155,0.5668084621429443,0.009375824593007565,0
141,0.0635843276977539,0.1540222018957138,0.05696369335055351,-0.3124884366989136,0.36181771755218506,0.008941512554883957,0
142,0.12462952733039856,0.13558100163936615,0.06280931830406189,-0.17351414263248444,0.743446409702301,0.012617327272891998,0
143,0.12116549909114838,0.1273934543132782,0.07887861132621765,-0.1759435385465622,0.29522210359573364,0.008745506405830383,0
144,0.07182922214269638,0.1400643289089203,0.042650096118450165,-0.07646612823009491,1.189474105834961,0.015081335790455341,0
145,0.13269981741905212,0.11392607539892197,0.10816726833581924,-0.10365667194128036,0.7461641430854797,0.013832399621605873,0
146,0.11389926820993423,0.05523192137479782,0.018521951511502266,-0.12377244979143143,0.2221551388502121,0.013431916013360023,0
147,0.09499108791351318,0.12617382407188416,-0.060536228120326996,-0.13961420953273773,0.3209362328052521,0.013905566185712814,0
148,-0.009059534408152103,0.0776854008436203,0.07666642963886261,-0.15181459486484528,1.152022361755371,0.014422405511140823,0
149,0.20786286890506744,0.062033358961343765,-0.088224396109581,-0.16002345085144043,0.6467709541320801,0.01417828444391489,0
150,-0.023495066910982132,0.1374104619026184,-0.10428819805383682,-0.16754785180091858,0.6394277215003967,0.01330979447811842,0
151,0.07322899997234344,0.09191378206014633,-0.10165910422801971,-0.17370666563510895,1.0847480297088623,0.013715917244553566,0
152,0.04022274911403656,-0.009948384948074818,0.12767183780670166,-0.17713293433189392,0.16888980567455292,0.010380667634308338,0
153,0.004065768793225288,0.08503926545381546,0.021076662465929985,-0.18016678094863892,0.27053362131118774,0.011310226283967495,0
154,-0.031380124390125275,0.07005485147237778,0.02650919370353222,-0.18263404071331024,0.3538282513618469,0.011885715648531914,0
155,0.02708304487168789,0.09188642352819443,0.04654630273580551,-0.18455834686756134,0.41622409224510193,0.012636584229767323,0
156,0.02811269834637642,0.1465165913105011,0.04811698570847511,-0.1864851415157318,0.8863492608070374,0.01518321968615055,0
157,-0.058853037655353546,0.09441183507442474,-0.013664756901562214,-0.18845780193805695,0.8149763345718384,0.015438382513821125,0
158,0.009790318086743355,0.1386730670928955,-0.014289138838648796,-0.19013524055480957,0.42837831377983093,0.014080303721129894,0
159,-0.011275925673544407,0.05085214227437973,0.026460913941264153,-0.19085711240768433,0.46824952960014343,0.014040063135325909,0
160,0.05411619693040848,0.15697214007377625,0.07806768268346786,-0.19183433055877686,0.8234003782272339,0.016512315720319748,0
161,-0.00995760690420866,0.13673795759677887,-0.06377031654119492,-0.2736475169658661,0.6848348379135132,0.016492363065481186,0
162,0.06362055242061615,0.030367610976099968,0.007134514395147562,-0.25405317544937134,0.6604243516921997,0.01606367528438568,0
163,0.08750701695680618,0.11139056831598282,-0.05299811810255051,-0.16055841743946075,0.32661423087120056,0.013208335265517235,0
164,-0.019497297704219818,0.1541641801595688,0.12355167418718338,-0.1705176830291748,0.6260440945625305,0.015268178656697273,0
165,0.18266375362873077,0.098966084420681,-0.11818341910839081,-0.25495076179504395,0.46163997054100037,0.01581430248916149,0
166,0.08855476975440979,0.12916795909404755,-0.04996480420231819,-0.16333895921707153,0.6479568481445312,0.015431507490575314,0
167,0.05820048972964287,0.19600488245487213,0.00800376571714878,-0.2476709634065628,0.48107901215553284,0.014630017802119255,0
168,0.022033797577023506,0.14632464945316315,0.029800644144415855,-0.2356082648038864,0.7362573742866516,0.016588225960731506,0
169,-0.07908660918474197,0.11938145756721497,-0.05575515329837799,-0.2265818864107132,0.3988388180732727,0.013279910199344158,0
170,0.04955628141760826,0.20920178294181824,0.07749628275632858,-0.21991176903247833,0.6694092750549316,0.015608357265591621,0
171,0.07310084253549576,0.013521028682589531,-0.07089969515800476,-0.2148474007844925,0.6504565477371216,0.016080090776085854,0
172,0.11530277878046036,0.07308877259492874,-0.029126303270459175,-0.21044693887233734,0.4884849190711975,0.014145631343126297,0
173,-0.00531395897269249,0.14017455279827118,0.02765749953687191,-0.2079552412033081,0.44011181592941284,0.01320232916623354,0
174,0.033677320927381516,0.14189991354942322,0.009889783337712288,-0.13288813829421997,0.6948134303092957,0.014275988563895226,0
175,0.07008641213178635,0.13349401950836182,0.022425556555390358,-0.2219574898481369,0.5232845544815063,0.014333704486489296,0
176,0.0877089723944664,0.1005411446094513,0.10022961348295212,-0.21667006611824036,0.6833050847053528,0.015621868893504143,0
177,-0.06574444472789764,0.1492074877023697,-0.06764080375432968,-0.21257959306240082,0.7300711870193481,0.016688620671629906,0
178,0.07663542032241821,0.15490703284740448,-0.07145386189222336,-0.20967653393745422,0.4784941077232361,0.014639424160122871,0
179,0.07788819819688797,0.13378781080245972,-0.10822136700153351,-0.2078201323747635,0.6453894376754761,0.01563449762761593,0
180,0.03074236772954464,0.13921642303466797,-0.05678961053490639,-0.20640160143375397,0.6288365721702576,0.014474140480160713,0
181,-0.10861630737781525,0.10579884052276611,0.033511772751808167,-0.20494145154953003,0.47478339076042175,0.013082308694720268,0
182,-0.03034033067524433,0.1370745450258255,-0.05714112147688866,-0.20360220968723297,0.7089856266975403,0.014777179807424545,0
183,0.11971744894981384,0.16543741524219513,0.10456287115812302,-0.2031034231185913,0.8147171139717102,0.015459006652235985,0
184,0.022368675097823143,0.04879559949040413,0.007315218914300203,-0.2731967866420746,0.3397538363933563,0.012346788309514523,0
185,0.023383719846606255,0.005153735633939505,-0.04468237981200218,-0.18573126196861267,0.6751018762588501,0.015204095281660557,0
186,0.07094541937112808,0.10211841017007828,-0.009233127348124981,-0.18778689205646515,0.4435234069824219,0.01330858189612627,0
187,0.1647232621908188,0.10593301802873611,-0.13730140030384064,-0.19076243042945862,0.40709418058395386,0.012892310507595539,0
188,-0.022530222311615944,0.05987168848514557,-0.0007415962172672153,-0.1934749335050583,0.7916560173034668,0.014490524306893349,0
189,-0.008484047837555408,0.12240172922611237,-0.032435834407806396,-0.19593042135238647,0.737272322177887,0.013793316669762135,0
190,0.019913868978619576,0.1269233375787735,0.0137430215254426,-0.1973968893289566,0.6953863501548767,0.013757506385445595,0
191,0.07070574164390564,0.022995293140411377,0.01258548628538847,-0.19790686666965485,0.3239923119544983,0.012719505466520786,0
192,0.005838350392878056,-0.029278423637151718,0.06512897461652756,-0.19782868027687073,0.3825741708278656,0.012940676882863045,0
193,0.026298819109797478,0.18982850015163422,0.12686610221862793,-0.13108888268470764,0.697302520275116,0.013398759998381138,0
194,0.07440178841352463,0.04679799824953079,-0.018603837117552757,-0.14922983944416046,0.3957650065422058,0.014140366576611996,0
195,0.02467452920973301,0.05476076155900955,-0.03219282627105713,-0.16235648095607758,0.43762701749801636,0.014899879693984985,0
196,0.047112755477428436,0.11187291145324707,0.02085212990641594,-0.2393268197774887,0.46981117129325867,0.0162164606153965,0
197,-0.08524923026561737,0.14968180656433105,0.07491446286439896,-0.23154713213443756,0.7613512277603149,0.016938086599111557,0
198,0.06089914217591286,0.1281706541776657,0.039443839341402054,-0.22560930252075195,0.780055046081543,0.01727200672030449,0
199,0.01354149915277958,0.10196555405855179,-0.03550352528691292,-0.22042256593704224,0.4612847566604614,0.01602030359208584,0
200,0.10213731229305267,0.15221969783306122,0.05314948409795761,-0.2162991464138031,0.4202636778354645,0.015521872788667679,0
201,0.005740062333643436,0.06534896790981293,-0.052076950669288635,-0.2132926732301712,1.0529423952102661,0.01996711455285549,0
202,0.10468067973852158,0.10115545988082886,-0.01889740489423275,-0.2114279866218567,0.3425109088420868,0.015255146659910679,0
203,0.10801346600055695,0.18444713950157166,0.002783607691526413,-0.21048185229301453,0.3975781202316284,0.015050994232296944,0
204,0.09664929658174515,0.1687651127576828,-0.037800129503011703,-0.2105364203453064,0.9670738577842712,0.01839285157620907,0
205,0.033036891371011734,0.04908924549818039,0.02925155870616436,-0.21083316206932068,0.41150152683258057,0.014726507477462292,0
206,0.14542780816555023,0.030755938962101936,0.14128030836582184,-0.20954594016075134,0.5811553001403809,0.015745550394058228,0
207,0.17197160422801971,0.11187372356653214,0.0567999891936779,-0.20862147212028503,0.3822200894355774,0.01579548977315426,0
208,0.09346364438533783,0.06105399876832962,-0.005060555413365364,-0.2081386297941208,0.6257273554801941,0.017933789640665054,0
209,0.1171642392873764,0.015728691592812538,0.058810897171497345,-0.20675085484981537,0.6127927303314209,0.018335195258259773,0
210,-0.15042394399642944,0.33125168085098267,0.09863252192735672,-0.2709408104419708,0.469918429851532,0.018281692638993263,0
211,0.6007967591285706,-0.23827683925628662,0.08022642135620117,-0.18931135535240173,0.6205698847770691,0.020365195348858833,0
212,-0.21767187118530273,-0.5499544739723206,0.3207677900791168,-0.25380173325538635,0.4720662534236908,0.018744509667158127,0
213,-1.1962324380874634,1.6863279342651367,-0.6101134419441223,-0.24038000404834747,0.4235396385192871,0.020777929574251175,0
214,0.46567317843437195,1.408888339996338,-1.6912580728530884,-0.16244323551654816,0.6474010944366455,0.016943087801337242,0
215,2.0506277084350586,-1.8119027614593506,-0.6734076738357544,-0.17644602060317993,0.736289381980896,0.016619788482785225,0
216,-1.7109308242797852,2.1865851879119873,2.7130942344665527,-0.18149679899215698,0.607332706451416,0.016903482377529144,0
217,-0.5273039937019348,2.300798177719116,0.2644905149936676,-0.19415464997291565,0.5625067949295044,0.030745558440685272,0
218,-3.840480327606201,5.985300064086914,0.6745420694351196,-0.29471996426582336,0.31161370873451233,0.042120207101106644,0
219,1.0619091987609863,0.2982470989227295,2.6643564701080322,-0.31040310859680176,0.24372920393943787,0.05674371495842934,0
220,3.4812958240509033,-2.8580377101898193,2.731567859649658,-0.42896392941474915,0.28365421295166016,0.0826343521475792,0
221,-0.12218839675188065,0.1214994564652443,-1.396543264389038,-0.432172030210495,0.33277428150177,0.12001560628414154,0
222,-4.90260124206543,4.347672939300537,-5.974621295928955,-0.4501977562904358,0.34243157505989075,0.12263762950897217,0
223,4.7370805740356445,-8.043081283569336,-4.89109468460083,-0.5043685436248779,0.3190063536167145,0.06720671057701111,0
224,8.226317405700684,-8.359492301940918,-1.0547826290130615,-0.6135266423225403,0.3930589258670807,0.01741614006459713,0
225,-1.5145570039749146,1.4697191715240479,2.4963808059692383,-0.5917422771453857,0.4910947382450104,-0.0068366313353180885,0
226,-14.97392463684082,14.432114601135254,0.6800805330276489,-0.5950972437858582,0.6119159460067749,0.020334048196673393,0
227,2.4284214973449707,-9.987390518188477,-4.116469383239746,-0.48638442158699036,0.41179364919662476,0.02489357255399227,0
228,10.576818466186523,-5.701473712921143,-2.791686534881592,-0.5812106728553772,0.544075071811676,0.0009735382627695799,0
229,4.009614944458008,5.653473377227783,1.622963309288025,-0.45961230993270874,0.5095405578613281,-0.03966405615210533,0
230,-5.730386257171631,9.779051780700684,2.192370653152466,-0.4165359437465668,0.4575369656085968,-0.04020211845636368,0
231,-19.03409767150879,1.950168490409851,1.2724599838256836,-0.3890528678894043,0.2499363273382187,-0.026116255670785904,0
232,4.2246994972229,22.455793380737305,-3.646904706954956,-0.5974242091178894,0.11225172132253647,-0.008968288078904152,0
233,7.013283729553223,-12.783971786499023,-6.869434833526611,-0.6017627120018005,0.20494908094406128,-0.04722161591053009,0
234,-2.5742969512939453,-16.24000358581543,-4.438811302185059,-0.8790656328201294,-0.3015020191669464,-0.13277792930603027,0
235,-0.04123479127883911,-3.8752336502075195,-3.4961867332458496,-0.7930974364280701,-0.2310325801372528,-0.17125403881072998,0
236,4.838422775268555,-3.996537923812866,-0.4371664822101593,-0.9003853797912598,-0.3627602756023407,-0.19239749014377594,0
237,-1.8090410232543945,-11.5687894821167,2.47267484664917,-0.9612459540367126,-0.4826943576335907,-0.2027275711297989,0
238,-2.6144580841064453,-16.93919563293457,2.4979605674743652,-1.3513771295547485,-0.6371839642524719,-0.1412491500377655,0
239,1.6582225561141968,-18.80933952331543,1.9124219417572021,-1.2092655897140503,-0.7553726434707642,-0.12413456290960312,0
240,2.4258511066436768,-15.670507431030273,3.1377670764923096,-1.3791275024414062,-0.896638810634613,-0.0670366957783699,0
241,7.810587406158447,-23.2509708404541,4.1140899658203125,-1.2176142930984497,-0.8123801946640015,-0.02755979262292385,0
242,21.537540435791016,-36.38078308105469,4.322933673858643,-0.8501799702644348,-0.7860034108161926,-0.021798476576805115,0
243,28.265439987182617,-54.38761901855469,5.336271286010742,-0.9535917639732361,-0.9595426917076111,0.06282324343919754,0
244,39.99738693237305,-65.65046691894531,4.923111438751221,-0.2942378520965576,-0.5244759321212769,0.11117465794086456,0
245,47.52119064331055,-73.46696472167969,4.299255847930908,-0.11494480818510056,-0.29394087195396423,0.242238387465477,0
246,47.49945831298828,-78.25819396972656,4.650636196136475,0.880920946598053,0.17095281183719635,0.23537060618400574,0
247,31.803653717041016,-74.70551300048828,5.89294958114624,0.9441027641296387,0.26281294226646423,0.3943469226360321,0
248,19.826335906982422,-59.255001068115234,5.175191879272461,1.9052021503448486,0.8081262707710266,0.397543340921402,0
249,3.1253139972686768,-44.338924407958984,5.920080661773682,2.5835132598876953,0.7781324982643127,0.4764322340488434,0
250,-4.91352653503418,-28.302597045898438,5.896051406860352,3.440420389175415,1.059614658355713,0.44581669569015503,0
251,-2.8809244632720947,-16.635427474975586,5.916558742523193,2.6414098739624023,2.1046254634857178,0.08454326540231705,0
252,-1.684913158416748,-2.2492239475250244,6.6688947677612305,3.7667107582092285,2.1056747436523438,0.18108923733234406,0
253,-7.516818046569824,4.897165775299072,6.806105613708496,3.4303653240203857,1.9305789470672607,0.2658805847167969,0
254,-6.4683098793029785,1.425843358039856,8.277113914489746,4.559510231018066,1.6848523616790771,0.625458836555481,0
255,-4.201937198638916,-4.538336753845215,8.110321044921875,6.783008575439453,2.780575752258301,0.3809241056442261,0
256,-4.853905200958252,1.587113857269287,10.787471771240234,7.6792707443237305,2.6952662467956543,0.6849633455276489,0
257,-10.895397186279297,17.507854461669922,11.025409698486328,6.597853660583496,2.6733784675598145,0.45756134390830994,0
258,-21.6922550201416,33.65933609008789,13.019999504089355,5.915060997009277,2.3912906646728516,0.5815315842628479,0
259,-30.674480438232422,46.74300003051758,12.890604972839355,4.093103885650635,3.641575336456299,-1.1864526271820068,0
260,-37.021812438964844,54.374908447265625,17.412900924682617,3.624114513397217,3.0957977771759033,-0.823914647102356,0
261,-48.27634811401367,52.25775146484375,16.52196502685547,2.5821022987365723,2.6622893810272217,-0.7787728905677795,0
262,-52.58412551879883,39.4182014465332,17.48346710205078,1.5380741357803345,1.7934682369232178,-0.4816226065158844,0
263,-50.90515899658203,23.280630111694336,16.702674865722656,1.863203763961792,1.0663751363754272,0.03887919709086418,0
264,-41.4026985168457,2.1462957859039307,15.003252983093262,3.522252321243286,0.9261571764945984,0.5195205807685852,0
265,-31.422382354736328,-7.9745073318481445,14.352752685546875,3.973522424697876,0.06732697784900665,1.0864036083221436,0
266,-20.34831428527832,-15.09548282623291,10.893641471862793,4.997014045715332,-0.48439234495162964,1.5509071350097656,0
267,-8.350110054016113,-3.763500928878784,8.93791389465332,5.127415657043457,-1.0308653116226196,1.8642176389694214,0
268,6.031887054443359,13.562015533447266,8.153923988342285,5.835803985595703,-0.9013195037841797,1.8050110340118408,0
269,14.555085182189941,43.620574951171875,9.404632568359375,5.660836696624756,-0.9351420402526855,1.9373595714569092,0
270,14.744267463684082,72.56786346435547,7.677746295928955,5.752669334411621,-1.0581644773483276,2.1291327476501465,0
271,12.973962783813477,105.04643249511719,5.494499206542969,4.802222728729248,-1.0431370735168457,2.3512508869171143,0
272,7.7243757247924805,118.09685516357422,2.80110502243042,3.613110065460205,-0.9237555861473083,2.4439542293548584,0
273,-3.239380359649658,120.78536224365234,1.793276309967041,2.7842836380004883,-0.789021909236908,2.3316681385040283,0
274,-10.887412071228027,113.77274322509766,2.576374053955078,1.0035319328308105,-0.8738572597503662,2.523674488067627,0
275,-15.004874229431152,95.93270111083984,1.9888287782669067,0.20629209280014038,-1.236830472946167,2.5560216903686523,0
276,-14.443916320800781,75.9488296508789,1.3457661867141724,-1.802539348602295,-1.7005606889724731,2.909968376159668,0
277,-6.691979885101318,52.19281768798828,-0.7339308261871338,-2.390244483947754,-1.9984294176101685,2.845332145690918,0
278,9.204983711242676,30.369539260864258,-0.8372855186462402,-3.3458471298217773,-2.168613910675049,2.931337594985962,0
279,26.43804931640625,15.46535587310791,0.5374258756637573,-3.3869681358337402,-2.3985729217529297,2.7091410160064697,0
280,41.790245056152344,12.039544105529785,2.6383731365203857,-3.854809045791626,-2.003049373626709,2.890117645263672,0
281,48.61386489868164,10.387429237365723,3.377399206161499,-4.302928447723389,-1.4070281982421875,3.146594285964966,0
282,46.275203704833984,9.87092113494873,1.7225264310836792,-3.943103313446045,-0.9312754273414612,3.018474817276001,0
283,35.629295349121094,12.647684097290039,2.0222198963165283,-4.149866580963135,-0.29034143686294556,3.210264205932617,0
284,20.04855728149414,19.19576644897461,1.1623964309692383,-4.20100212097168,-8.181800512829795e-05,3.146250009536743,0
285,3.108059883117676,23.985897064208984,1.304423213005066,-4.782548427581787,0.4784854054450989,3.4493215084075928,0
286,-10.113665580749512,24.384374618530273,0.22751165926456451,-4.843639373779297,0.14387865364551544,3.09979510307312,0
287,-20.49615478515625,17.866195678710938,0.983624279499054,-5.415165901184082,0.04846522584557533,3.1282660961151123,0
288,-17.71816635131836,10.058565139770508,0.442372590303421,-5.543896675109863,-0.29006072878837585,2.984015941619873,0
289,-6.734175205230713,1.1641144752502441,1.6250371932983398,-5.728201389312744,-0.4782728850841522,2.987313985824585,0
290,8.113349914550781,-5.3466410636901855,2.0471606254577637,-5.76704216003418,-0.4141156077384949,3.1574039459228516,0
291,20.830026626586914,-7.762021541595459,0.427264004945755,-5.998592853546143,-0.05747489631175995,3.4995884895324707,0
292,33.4777717590332,-18.0832462310791,-2.1274962425231934,-6.013032913208008,0.2246560901403427,3.598696708679199,0
293,36.14828109741211,-30.055675506591797,-2.0991601943969727,-5.81790018081665,1.2481969594955444,4.353363037109375,0
294,30.693344116210938,-38.03496551513672,-3.384105682373047,-5.635371685028076,2.484238386154175,5.284333229064941,0
295,16.175952911376953,-40.67951202392578,-7.102932453155518,-6.090841293334961,2.2358620166778564,4.530439376831055,0
296,-6.664846897125244,-40.253570556640625,-7.243261814117432,-5.487015247344971,2.2876226902008057,4.357930660247803,0
297,-31.983821868896484,-39.724525451660156,-7.315695762634277,-4.875533103942871,1.9939186573028564,4.062407493591309,0
298,-44.6304817199707,-41.928916931152344,-7.047362804412842,-3.9995834827423096,1.9347960948944092,4.332611560821533,0
299,-45.53199005126953,-44.35407257080078,-8.697405815124512,-3.2135977745056152,0.986736536026001,3.8689377307891846,0
300,-42.32693099975586,-38.58388900756836,-8.506518363952637,-2.5143353939056396,-0.012211646884679794,3.4033286571502686,0
301,-28.326026916503906,-26.07418441772461,-6.510287761688232,-2.661193370819092,-1.288703203201294,2.6135878562927246,0
302,-8.97440242767334,-9.433337211608887,-4.454943656921387,-2.369396448135376,-1.3775426149368286,2.6946442127227783,0
303,12.721585273742676,5.5829267501831055,-4.495638370513916,-2.3882460594177246,-1.2107223272323608,2.8121378421783447,0
304,36.83012008666992,7.248836517333984,-6.203368663787842,-2.4007530212402344,-1.0278958082199097,2.8101961612701416,0
305,51.995201110839844,-1.7794880867004395,-6.120765209197998,-2.268117904663086,-0.27742284536361694,2.919985055923462,0
306,55.481842041015625,-5.506705284118652,-5.077212810516357,-1.5181152820587158,1.3601828813552856,3.2449207305908203,0
307,45.86198043823242,-8.495654106140137,-4.069565773010254,-1.2525113821029663,2.4480032920837402,3.3842573165893555,0
308,19.122478485107422,-12.475485801696777,-2.790416717529297,-1.1795016527175903,2.483762264251709,3.197807550430298,0
309,-16.734224319458008,-14.7177152633667,-3.1935319900512695,-1.096356987953186,1.8268731832504272,2.9363043308258057,0
310,-44.97374725341797,-11.032144546508789,-3.6363654136657715,-0.932399332523346,2.4381871223449707,3.0223727226257324,0
311,-62.28782272338867,-11.852638244628906,-5.428063869476318,-0.6663885712623596,0.32319244742393494,2.77587890625,0
312,-62.597007751464844,-6.580890655517578,-4.279013156890869,-0.2534829378128052,-0.21606649458408356,2.785423755645752,0
313,-48.25449752807617,-0.31529366970062256,-4.712388038635254,-0.43696317076683044,-0.7581784129142761,2.707099676132202,0
314,-21.643312454223633,5.0533270835876465,-3.7677977085113525,-0.8910405039787292,-1.248447299003601,2.634004592895508,0
315,7.403398513793945,13.488495826721191,-3.6742682456970215,-1.1380125284194946,-1.375239372253418,2.593829393386841,0
316,36.445411682128906,9.493924140930176,-5.482159614562988,-1.5585238933563232,-1.174852967262268,2.575523853302002,0
317,54.79523849487305,-7.397212982177734,-4.6178693771362305,-1.8585878610610962,-0.8327029347419739,2.550801992416382,0
318,60.338932037353516,-17.2387638092041,-2.6757395267486572,-1.8397763967514038,-0.2250368744134903,2.5096306800842285,0
319,55.225303649902344,-21.899681091308594,-1.962907314300537,-2.2290141582489014,0.1726834923028946,2.5210187435150146,0
320,36.98114013671875,-26.943443298339844,-2.9476418495178223,-1.7473021745681763,0.8544304966926575,2.480969190597534,0
321,17.093135833740234,-35.67719650268555,-3.4735169410705566,-1.773362159729004,0.8614532351493835,2.4177703857421875,0
322,-2.9040844440460205,-48.24830627441406,-2.7348341941833496,-1.2829596996307373,1.17863130569458,2.3959438800811768,0
323,-15.866053581237793,-50.2368049621582,-3.651543378829956,-1.210938572883606,1.2449524402618408,2.3645355701446533,0
324,-21.222917556762695,-42.96446228027344,-4.45192813873291,-0.44468575716018677,1.118938684463501,2.333052158355713,0
325,-20.613773345947266,-37.097023010253906,-3.943232536315918,-0.11127506196498871,0.9134654998779297,2.2747528553009033,0
326,-12.226180076599121,-29.732852935791016,-3.9537322521209717,0.4606795310974121,0.7214928865432739,2.240628957748413,0
327,-3.2952523231506348,-19.649587631225586,-4.253847122192383,0.9739646315574646,0.6591123938560486,2.2070186138153076,0
328,5.382522106170654,-10.6430025100708,-4.29254674911499,0.7095742225646973,0.6050879955291748,2.1286399364471436,0
329,11.893694877624512,-3.912243604660034,-4.086508274078369,1.1723003387451172,0.7967213988304138,2.0829572677612305,0
330,16.02901840209961,0.13686877489089966,-3.403456211090088,1.2044470310211182,0.7404935359954834,2.0783426761627197,0
331,14.25766372680664,-0.4669596552848816,-3.9551193714141846,1.0118778944015503,1.0175718069076538,1.9976202249526978,0
332,9.532264709472656,-4.3649091720581055,-2.744558334350586,0.9888566732406616,1.0417808294296265,1.991671085357666,0
333,5.081331729888916,-11.406646728515625,-2.6183035373687744,1.160613775253296,1.2026535272598267,1.9568383693695068,0
334,-3.222604513168335,-17.855754852294922,-1.8365198373794556,1.1629232168197632,1.1914292573928833,1.9396049976348877,0
335,-8.597831726074219,-21.638988494873047,-1.5785253047943115,1.5339808464050293,1.212567687034607,1.9250402450561523,0
336,-11.673943519592285,-25.481355667114258,-1.5634703636169434,1.976982831954956,1.0714384317398071,1.9550132751464844,0
337,-13.105051040649414,-15.787907600402832,-1.5831034183502197,2.428004264831543,0.9591246843338013,1.9606778621673584,0
338,-11.551255226135254,-5.0305094718933105,-1.1880590915679932,2.566774606704712,0.8359482884407043,1.938492774963379,0
339,-8.962844848632812,7.846359729766846,-1.6930480003356934,2.324791193008423,0.7956909537315369,1.8543249368667603,0
340,-5.12911319732666,16.02400016784668,-1.466928243637085,2.277437925338745,0.7767979502677917,1.8031914234161377,0
341,-0.1704443395137787,18.4417781829834,-1.6613919734954834,2.0544068813323975,0.7481475472450256,1.7681629657745361,0
342,1.5947046279907227,15.14273738861084,-1.3475706577301025,2.0060746669769287,0.7026708126068115,1.784976840019226,0
343,3.304736375808716,12.35926342010498,-1.2471745014190674,1.7758327722549438,0.627138078212738,1.809669852256775,0
344,2.734384298324585,5.046832084655762,-2.132071018218994,1.894484519958496,0.581973671913147,1.8489229679107666,0
345,3.4502058029174805,-3.6032485961914062,-2.096127510070801,2.07348370552063,0.290132611989975,1.9992457628250122,0
346,1.9705142974853516,-5.073958873748779,-2.2758893966674805,2.093040704727173,0.7157519459724426,1.7872133255004883,0
347,0.7774990797042847,-2.536451816558838,-1.1727254390716553,1.932102918624878,0.7197232842445374,1.7681903839111328,0
348,-1.6428625583648682,2.8678228855133057,-1.1291714906692505,2.0037286281585693,0.824906587600708,1.709826946258545,0
349,-3.150991201400757,7.827546119689941,-0.40216705203056335,2.3621578216552734,0.8147233128547668,1.7175045013427734,0
350,-5.867697715759277,14.208442687988281,-1.153925895690918,2.1224541664123535,0.9026208519935608,1.6490094661712646,0
351,-7.573563098907471,16.89717674255371,-1.223378300666809,1.5691665410995483,0.8027636408805847,1.6406290531158447,0
352,-7.993112087249756,17.4500732421875,-0.6602513194084167,1.5434389114379883,0.6142240762710571,1.6922518014907837,0
353,-7.58546781539917,14.79770278930664,-1.1208163499832153,1.364200234413147,0.24722135066986084,1.8061565160751343,0
354,-5.501006603240967,11.258824348449707,-2.158740520477295,1.2302664518356323,0.90323406457901,1.5076102018356323,0
355,-1.4711214303970337,1.4163957834243774,-1.0497342348098755,1.043806791305542,0.39282289147377014,1.6536673307418823,0
356,-0.02232333831489086,1.207438588142395,-1.285529375076294,0.8502016067504883,0.5121960043907166,1.5905647277832031,0
357,-0.6056464910507202,-1.6261390447616577,-0.7914782166481018,0.900163471698761,0.4950917363166809,1.5852679014205933,0
358,-1.8884285688400269,-3.7736799716949463,-0.7420326471328735,0.9061974287033081,0.8538206815719604,1.4727494716644287,0
359,-3.2264342308044434,-4.151949405670166,-0.6527392864227295,0.9934189319610596,0.366932213306427,1.5904686450958252,0
360,-7.6273088455200195,-0.20789270102977753,-1.198913812637329,0.995690107345581,0.42725956439971924,1.5601015090942383,0
361,-8.906392097473145,2.8901543617248535,-1.0437300205230713,1.0134761333465576,0.36128202080726624,1.5486812591552734,0
362,-8.48009967803955,5.603900909423828,-1.2609676122665405,0.9746307730674744,0.4653022885322571,1.4949251413345337,0
363,-6.3680806159973145,6.653547286987305,-1.1863371133804321,0.7118169665336609,0.5544350147247314,1.4444071054458618,0
364,-6.216740608215332,5.884946346282959,-0.8691254258155823,0.6551902890205383,0.1884928047657013,1.4920828342437744,0
365,-6.290280818939209,2.9619367122650146,-1.1127351522445679,0.6730794906616211,0.7667837738990784,1.365929126739502,0
366,-5.355736255645752,-1.395340085029602,-0.6711925864219666,0.6559538245201111,0.5512297749519348,1.380532145500183,0
367,-8.70816421508789,-4.319723606109619,-0.8265367746353149,0.5042464137077332,0.5385487675666809,1.3649934530258179,0
368,-13.094396591186523,-5.537238597869873,-1.040747046470642,0.6694011092185974,0.2762330174446106,1.3823142051696777,0
369,-15.172930717468262,-4.16731071472168,-1.037937045097351,0.8881048560142517,0.0489036850631237,1.3860502243041992,0
370,-16.423891067504883,-3.45249342918396,-1.0579029321670532,0.7535226941108704,-0.26621219515800476,1.399628758430481,0
371,-13.481026649475098,1.6099427938461304,-1.3248542547225952,0.8020336627960205,-0.5608083009719849,1.4051343202590942,0
372,-8.656255722045898,3.4355952739715576,-1.5300264358520508,0.7819657921791077,-0.7935084104537964,1.4035186767578125,0
373,1.7777584791183472,7.402589797973633,-1.1245766878128052,0.6471126079559326,-0.909340500831604,1.3973864316940308,0
374,8.562744140625,10.83076286315918,-1.7604433298110962,0.5458554625511169,-0.8789089322090149,1.3824353218078613,0
375,17.1780948638916,3.5992140769958496,-2.6603431701660156,0.3326384127140045,-0.7485299706459045,1.359571099281311,0
376,15.183026313781738,0.8319599032402039,-2.3323731422424316,0.3127722442150116,-0.8724658489227295,1.3572046756744385,0
377,15.770271301269531,-2.592186212539673,-2.360388994216919,0.33754676580429077,-0.5853607654571533,1.3197420835494995,0
378,11.75816535949707,-5.108889579772949,-2.3356077671051025,0.3937700688838959,0.31524857878685,1.241359829902649,0
379,6.695403575897217,-5.149360179901123,-1.7648102045059204,0.46815988421440125,1.0752376317977905,1.1733717918395996,0
380,-2.7151193618774414,-2.4970955848693848,-1.4223713874816895,0.5320602059364319,1.0157341957092285,1.1575790643692017,0
381,-17.092073440551758,-0.47721490263938904,-1.2131240367889404,0.5661066174507141,0.7947211861610413,1.153725028038025,0
382,-31.120677947998047,1.6673450469970703,-1.1910250186920166,0.5632200241088867,0.38192233443260193,1.1562758684158325,0
383,-36.87985610961914,3.9210169315338135,-0.7473010420799255,0.5254110097885132,0.07192155718803406,1.1468831300735474,0
384,-33.98672866821289,5.944697380065918,-0.9180945754051208,0.4532185196876526,-0.4352005124092102,1.1473174095153809,0
385,-23.18890953063965,5.424373626708984,-1.2628505229949951,0.3687726855278015,-0.9209060072898865,1.1462204456329346,0
386,-8.740560531616211,4.871384620666504,-0.9987582564353943,0.2905365824699402,-1.0735472440719604,1.1307828426361084,0
387,7.427353858947754,4.5219526290893555,-0.5374290347099304,0.2325373739004135,-1.3918853998184204,1.1269084215164185,0
388,19.348970413208008,2.4699156284332275,-0.7231718301773071,0.2626480162143707,-1.2515430450439453,1.1088918447494507,0
389,24.439237594604492,-1.6148654222488403,-0.8869142532348633,0.23942674696445465,-1.2174423933029175,1.1050059795379639,0
390,23.47496223449707,-0.9760816097259521,-1.0651031732559204,0.18630141019821167,-0.7100252509117126,1.101225733757019,0
391,16.872098922729492,0.2820253074169159,-1.4234446287155151,0.20003218948841095,-0.3925436735153198,1.0901051759719849,0
392,5.357436656951904,2.2446560859680176,-1.1535009145736694,0.12239284813404083,-0.33735257387161255,1.0905338525772095,0
393,-4.971171855926514,3.274279832839966,-1.2242416143417358,0.10063270479440689,-0.43911421298980713,1.0805435180664062,0
394,-11.653578758239746,3.5127735137939453,-1.4062880277633667,0.06528308242559433,-0.47463542222976685,1.0709621906280518,0
395,-12.884966850280762,1.3054972887039185,-1.8585176467895508,0.03563128039240837,-0.40607166290283203,1.058250904083252,0
396,-9.027360916137695,-1.9077391624450684,-1.0706205368041992,0.10424347221851349,-1.2048006057739258,1.0185314416885376,0
397,-2.9169058799743652,-5.247829914093018,-1.234748125076294,0.08905330300331116,-1.1528406143188477,1.0149898529052734,0
398,6.516177654266357,-5.133506774902344,-1.1500003337860107,-0.01893729157745838,-0.2810535430908203,1.0500835180282593,0
399,15.658536911010742,-5.234227180480957,-1.0235000848770142,0.038663350045681,-0.5247688889503479,1.030897855758667,0
400,15.83480453491211,-3.8735249042510986,-0.8297314643859863,0.16108091175556183,-0.30588871240615845,1.0140458345413208,0
401,12.74213981628418,-3.2637648582458496,-0.7877501845359802,0.11292272061109543,0.497130811214447,1.0395197868347168,0
402,3.4355838298797607,-2.8647730350494385,-0.9551568627357483,0.1875128298997879,0.5029244422912598,1.0220626592636108,0
403,-9.662436485290527,-1.376851201057434,-1.0965502262115479,0.24468298256397247,0.4289188086986542,1.0048184394836426,0
404,-22.484092712402344,-0.8512002825737,-1.6156213283538818,0.2830617427825928,0.16117753088474274,0.9854901432991028,0
405,-30.01142120361328,-1.84002685546875,-1.6541438102722168,0.31877243518829346,-0.2742832899093628,0.9630306959152222,0
406,-29.56184196472168,-2.964383602142334,-2.071718454360962,0.5584235191345215,-0.45131880044937134,0.9342209696769714,0
407,-20.94123077392578,-1.0987645387649536,-1.7514758110046387,0.5072523355484009,-0.8681847453117371,0.9186393618583679,0
408,-9.006328582763672,0.8016760945320129,-1.679866909980774,0.43593624234199524,-1.1910579204559326,0.9077301621437073,0
409,4.906774997711182,3.2848923206329346,-1.6284033060073853,0.39991432428359985,-1.2994532585144043,0.8919585943222046,0
410,15.288931846618652,5.4417924880981445,-1.6360414028167725,0.47042152285575867,-1.332616925239563,0.8620625138282776,0
411,21.89836311340332,6.851291179656982,-1.3710161447525024,0.3831992447376251,-1.2050825357437134,0.8489491939544678,0
412,24.023815155029297,10.241434097290039,-0.9303964972496033,0.2845928966999054,-1.1884697675704956,0.838625431060791,0
413,20.028915405273438,20.60289764404297,-0.14335057139396667,0.1065024882555008,-0.8095239996910095,0.840176522731781,0
414,13.350135803222656,31.5692195892334,-0.34620288014411926,-0.09561996906995773,-0.975602924823761,0.8342885971069336,0
415,5.060436248779297,38.22230529785156,-0.09994364529848099,-0.5993539690971375,-0.7601950168609619,0.855181872844696,0
416,-0.011782851070165634,35.01124954223633,0.15074831247329712,-1.0221707820892334,-0.9339932203292847,0.8423759937286377,0
417,0.316447913646698,29.281320571899414,-0.25861677527427673,-1.255642294883728,-1.0019886493682861,0.8098628520965576,0
418,5.721325397491455,20.72211456298828,-0.12355145066976547,-1.5971362590789795,-0.9026318788528442,0.8130549192428589,0
419,12.202898979187012,5.479304313659668,0.06305782496929169,-1.6163426637649536,-0.997443437576294,0.760348916053772,0
420,20.94156837463379,-0.23137837648391724,0.3515293002128601,-1.6644067764282227,-0.6966407895088196,0.7805044651031494,0
421,26.904094696044922,-3.328645944595337,0.44648173451423645,-1.7093676328659058,-0.5459848046302795,0.7819715142250061,0
422,28.005151748657227,-7.977150917053223,0.6759599447250366,-1.563051462173462,-0.3123302459716797,0.7634345293045044,0
423,25.963241577148438,-7.983426570892334,1.0667561292648315,-1.4524695873260498,-0.13749226927757263,0.7432036995887756,0
424,22.348800659179688,-7.745903015136719,1.3283970355987549,-1.3376325368881226,0.2790541350841522,0.7801118493080139,0
425,16.113792419433594,-3.3575687408447266,1.1779701709747314,-1.2456344366073608,0.48083600401878357,0.786970317363739,0
426,8.40493106842041,1.1129424571990967,0.9924508929252625,-1.201314926147461,0.6505046486854553,0.8003460764884949,0
427,2.5020804405212402,7.7773661613464355,1.034948468208313,-1.2306934595108032,0.7731446623802185,0.8220363855361938,0
428,-0.13142210245132446,10.55621337890625,0.9654505848884583,-1.2001748085021973,0.6758203506469727,0.8029922246932983,0
429,0.26485273241996765,17.8651065826416,1.0965862274169922,-1.3148118257522583,0.6825835108757019,0.8187827467918396,0
430,3.4121711254119873,19.530376434326172,0.8676039576530457,-1.3826137781143188,0.6369609832763672,0.822202742099762,0
431,6.900069713592529,16.91841697692871,0.8286911249160767,-1.686692714691162,0.711147129535675,0.8447479605674744,0
432,10.906625747680664,16.622268676757812,0.9782792925834656,-1.9761825799942017,0.835983157157898,0.8687635064125061,0
433,13.713650703430176,12.434564590454102,0.7562050819396973,-2.1752190589904785,0.9398040175437927,0.8794851303100586,0
434,15.001433372497559,0.6343216300010681,0.9796443581581116,-2.3308846950531006,1.0192914009094238,0.8736557960510254,0
435,15.023681640625,-12.2734375,1.5055826902389526,-2.2741124629974365,1.3257479667663574,0.9342697262763977,0
436,12.91964054107666,-17.39403533935547,1.5127710103988647,-2.0489022731781006,1.407148003578186,0.9311257004737854,0
437,7.928898811340332,-14.625007629394531,2.111996650695801,-1.7725484371185303,1.5849026441574097,0.9635846018791199,0
438,4.357162952423096,-3.439424753189087,2.1728386878967285,-1.5639903545379639,1.6213606595993042,0.9675746560096741,0
439,-2.847022294998169,10.992331504821777,1.761179804801941,-1.5293115377426147,1.712477445602417,0.9964033961296082,0
440,-6.681495189666748,24.48653221130371,2.039548397064209,-1.8605003356933594,1.5676600933074951,0.9409149885177612,0
441,-8.384368896484375,33.20142364501953,2.4615752696990967,-2.113509178161621,1.43329918384552,0.9382834434509277,0
442,-4.957522869110107,33.94601058959961,2.418726921081543,-2.4743683338165283,1.4320917129516602,0.9884809255599976,0
443,-1.7423044443130493,25.396806716918945,2.2695493698120117,-2.738055944442749,1.4744588136672974,1.0669193267822266,0
444,3.782071352005005,8.112861633300781,1.8453809022903442,-3.040323495864868,1.4382853507995605,1.085269808769226,0
445,4.558146953582764,-5.343445301055908,1.7071932554244995,-3.1098756790161133,1.5276836156845093,1.1390000581741333,0
446,5.1712212562561035,-16.253463745117188,1.2432433366775513,-2.781599760055542,1.6392468214035034,1.2384591102600098,0
447,4.587858200073242,-28.567340850830078,1.6653307676315308,-2.67472767829895,1.6788729429244995,1.2346954345703125,0
448,1.557417631149292,-39.1013298034668,1.043768286705017,-2.2825913429260254,1.690674901008606,1.250115156173706,0
449,-2.071321487426758,-42.52971267700195,0.6587817072868347,-1.7525089979171753,1.792470932006836,1.3099173307418823,0
450,-6.641057968139648,-36.8248176574707,0.6413301229476929,-1.3475579023361206,1.6858023405075073,1.266972541809082,0
451,-10.939179420471191,-28.852783203125,0.8238386511802673,-0.9622114896774292,1.6458226442337036,1.273388147354126,0
452,-11.747666358947754,-14.848163604736328,0.9097369909286499,-0.541534960269928,1.620070219039917,1.3279272317886353,0
453,-13.004545211791992,6.5840654373168945,-0.003875860245898366,-0.47814756631851196,1.4346529245376587,1.2929315567016602,0
454,-12.9385986328125,27.68623924255371,0.303468257188797,-0.6867721676826477,1.5812692642211914,1.339726448059082,0
455,-13.243745803833008,41.19125747680664,0.4239765703678131,-1.112730860710144,1.161003828048706,1.239635705947876,0
456,-14.258856773376465,47.79851150512695,0.8824938535690308,-1.5772639513015747,1.219165325164795,1.287792682647705,0
457,-9.587764739990234,33.442447662353516,0.7562111020088196,-2.094695806503296,1.0073063373565674,1.2766096591949463,0
458,-7.656116008758545,10.56943130493164,0.3059903085231781,-2.2988157272338867,0.8518713116645813,1.3082975149154663,0
459,-5.1726202964782715,-15.2387056350708,0.1581573784351349,-2.260967493057251,0.8036330342292786,1.3547972440719604,0
460,-1.8547428846359253,-33.06332015991211,-0.4474889039993286,-2.0811550617218018,0.7914388179779053,1.3819247484207153,0
461,-0.1685744673013687,-43.760746002197266,-0.23072654008865356,-1.5615824460983276,0.7574387788772583,1.4169816970825195,0
462,0.734164834022522,-40.11293029785156,0.11657040566205978,-0.9834039807319641,0.5541142821311951,1.3848698139190674,0
463,0.5917100310325623,-22.588651657104492,0.03530584275722504,-0.5460300445556641,0.77849942445755,1.431760311126709,0
464,-2.0122382640838623,4.469506740570068,-0.379159539937973,-0.22570347785949707,0.7647454738616943,1.4307875633239746,0
465,-5.757727146148682,30.840198516845703,-0.7783022522926331,-0.352480947971344,0.8496595025062561,1.4254341125488281,0
466,-9.097638130187988,40.95059585571289,-1.4663444757461548,-0.8227847218513489,0.6624270677566528,1.367612361907959,0
467,-11.94728946685791,38.30851745605469,-1.2397840023040771,-1.2194997072219849,1.1727333068847656,1.4530298709869385,0
468,-13.363500595092773,26.433584213256836,-1.42367422580719,-1.7005378007888794,0.910333514213562,1.411363959312439,0
469,-15.873661994934082,13.76317024230957,-1.5956107378005981,-1.956512689590454,0.6968214511871338,1.3969330787658691,0
470,-16.75657844543457,-9.277873039245605,-2.4854793548583984,-2.074871301651001,0.5243123173713684,1.3906786441802979,0
471,-14.410982131958008,-29.368141174316406,-3.1088881492614746,-1.816321849822998,0.21731500327587128,1.3667361736297607,0
472,-11.010937690734863,-39.010643005371094,-2.59386944770813,-1.638967514038086,0.09604782611131668,1.3316582441329956,0
473,-7.307403087615967,-42.756954193115234,-2.2266507148742676,-1.123171329498291,0.027163716033101082,1.329961895942688,0
474,-2.6012015342712402,-37.83932113647461,-2.0745232105255127,-0.7423825860023499,0.022477038204669952,1.3195453882217407,0
475,-1.4819929599761963,-29.090585708618164,-2.0711541175842285,-0.09037229418754578,-0.07099190354347229,1.310131549835205,0
476,-2.6738057136535645,-15.498858451843262,-2.2005558013916016,-0.27104103565216064,-0.14339476823806763,1.2523905038833618,0
477,-6.8873114585876465,-2.174039840698242,-2.005873918533325,-0.038771308958530426,-0.17166393995285034,1.2325432300567627,0
478,-9.490185737609863,11.174736022949219,-1.4171684980392456,-0.028705906122922897,-0.3310410678386688,1.1988439559936523,0
479,-12.202096939086914,26.08819580078125,-1.0921001434326172,-0.17436276376247406,-0.5320543050765991,1.1712294816970825,0
480,-9.912334442138672,36.40095138549805,-0.9007018804550171,-0.30802422761917114,-0.4644959568977356,1.1682486534118652,0
481,-7.7798662185668945,39.50071716308594,-0.8678968548774719,-0.7130903005599976,-0.649425745010376,1.157552719116211,0
482,-1.674985647201538,35.12637710571289,-1.0073519945144653,-1.2433875799179077,-0.7793843150138855,1.1490668058395386,0
483,1.9331989288330078,21.521881103515625,-0.9155211448669434,-1.4957659244537354,-0.8355792164802551,1.1320382356643677,0
484,6.480627059936523,-1.666571855545044,-0.7741385698318481,-1.7284718751907349,-0.8107616305351257,1.1176142692565918,0
485,7.913043975830078,-28.76160430908203,-0.5065420866012573,-1.5660759210586548,-0.7214141488075256,1.0954055786132812,0
486,9.453473091125488,-47.46358108520508,0.5563338398933411,-1.0686911344528198,-0.5974154472351074,1.0738540887832642,0
487,6.655699729919434,-52.886051177978516,1.46269953250885,-0.5341801047325134,-0.482075959444046,1.0742945671081543,0
488,3.0100667476654053,-41.80708694458008,1.93660569190979,-0.05005801096558571,-0.615997314453125,1.0847663879394531,0
489,-3.3237063884735107,-17.248371124267578,2.0716447830200195,0.36422955989837646,-0.5912614464759827,1.1106106042861938,0
490,-6.10892391204834,9.349250793457031,1.233702301979065,0.6732447743415833,-0.5818536877632141,1.1236449480056763,0
491,-8.2657470703125,29.98021697998047,0.7478734254837036,0.5088593363761902,-0.7042972445487976,1.14958918094635,0
492,-6.194118022918701,47.23208236694336,0.4275270402431488,0.09034260362386703,-0.7624865174293518,1.170241355895996,0
493,-0.5747535228729248,54.76462936401367,-0.06824799627065659,-0.5458558201789856,-0.8504775762557983,1.1949604749679565,0
494,3.2730047702789307,48.49327087402344,-0.30150315165519714,-1.308635950088501,-0.8566387891769409,1.2229214906692505,0
495,8.769977569580078,32.19685745239258,-0.25851795077323914,-1.6729406118392944,-0.784468412399292,1.1969178915023804,0
496,12.284095764160156,14.920199394226074,0.2551581859588623,-1.9862263202667236,-0.6508606672286987,1.1808911561965942,0
497,14.167296409606934,-12.218109130859375,1.0825191736221313,-2.1130259037017822,-0.6061618328094482,1.167765736579895,0
498,11.941441535949707,-32.0213623046875,1.0907520055770874,-2.1744022369384766,-0.4659745693206787,1.1945068836212158,0
499,8.798726081848145,-39.52754211425781,1.1193907260894775,-1.568413496017456,-0.4275766611099243,1.1552743911743164,0
500,5.348971843719482,-32.77223205566406,2.2677268981933594,-0.8992898464202881,-0.2890077531337738,1.1309354305267334,0
501,1.424141526222229,-15.88602066040039,2.454110622406006,-0.5258808135986328,-0.3445252478122711,1.143067479133606,0
502,-1.5388107299804688,4.998237609863281,1.5666731595993042,-0.30546891689300537,-0.3167717754840851,1.1643457412719727,0
503,-3.722108840942383,16.70864486694336,1.277485966682434,0.3094916343688965,-0.47854137420654297,1.0933446884155273,0
504,-2.7092955112457275,20.28803062438965,1.3260921239852905,-0.5982592105865479,-0.4391763508319855,1.2068283557891846,0
505,2.350856304168701,18.489030838012695,1.1816023588180542,-1.556832194328308,-0.23645606637001038,1.3253639936447144,0
506,6.516182899475098,9.921048164367676,0.45355716347694397,-1.7258996963500977,-0.12900543212890625,1.3382896184921265,0
507,7.194423675537109,-0.5344230532646179,0.10851100832223892,-1.758479356765747,-0.115684375166893,1.3319295644760132,0
508,7.000668048858643,-8.580245971679688,0.10013167560100555,-1.6298561096191406,-0.140666663646698,1.3132938146591187,0
509,5.206393241882324,-13.602714538574219,-0.2394597977399826,-1.664975643157959,-0.02691700868308544,1.3307201862335205,0
510,3.653014659881592,-15.63197135925293,-0.4972900152206421,-1.353103756904602,0.05497438833117485,1.309241533279419,0
511,1.8437211513519287,-22.48572540283203,-0.5437294840812683,-1.064346194267273,-0.02360755018889904,1.2845731973648071,0
512,-1.0788050889968872,-27.23921775817871,0.2989940941333771,-0.6792451739311218,0.07564396411180496,1.267921805381775,0
513,0.07134643197059631,-21.985660552978516,1.0408055782318115,-0.12817367911338806,0.005671974737197161,1.2401765584945679,0
514,-0.6410920023918152,-7.054064750671387,1.3060393333435059,-0.12216978520154953,0.011362968944013119,1.2698687314987183,0
515,-1.8040210008621216,11.061429023742676,0.46582669019699097,0.33641111850738525,0.0021339873783290386,1.254876732826233,0
516,-0.06662645936012268,26.069337844848633,0.5491595268249512,-0.9577842354774475,-0.011735919862985611,1.3551474809646606,0
517,0.8335250616073608,35.13115692138672,0.08161257952451706,-1.2615749835968018,0.003542294492945075,1.3660790920257568,0
518,1.3619848489761353,32.94136428833008,0.3043834865093231,-1.5451009273529053,-0.040466971695423126,1.3644999265670776,0
519,3.7677927017211914,12.387231826782227,0.3427062928676605,-1.8110004663467407,0.0005726244999095798,1.3614736795425415,0
520,6.177634239196777,-12.88574504852295,0.553624153137207,-1.811563491821289,0.010174918919801712,1.3542406558990479,0
521,7.815857410430908,-28.847082138061523,0.7200605273246765,-1.5430153608322144,0.13165248930454254,1.3502625226974487,0
522,7.252507209777832,-36.6174201965332,0.7309409976005554,-1.2469781637191772,0.25951945781707764,1.3550963401794434,0
523,7.1107659339904785,-33.77888488769531,0.988609790802002,-0.7715126276016235,0.2461051493883133,1.34874427318573,0
524,3.6931979656219482,-22.091222763061523,1.3244690895080566,-0.36381325125694275,0.2887084186077118,1.3525059223175049,0
525,-0.4937935769557953,-6.467936992645264,0.7939401865005493,-0.024069402366876602,0.34009313583374023,1.3577899932861328,0
526,0.5646519064903259,-0.4891979396343231,0.37914910912513733,0.16599546372890472,0.3474885821342468,1.3605015277862549,0
527,-1.5169070959091187,1.6034514904022217,0.4877591133117676,0.27189314365386963,0.35791656374931335,1.361525058746338,0
528,-3.1720364093780518,6.475152969360352,0.7623111605644226,0.3304162919521332,0.35165876150131226,1.3626245260238647,0
529,-4.258421897888184,6.9228901863098145,0.9716962575912476,-0.11255372315645218,0.30542004108428955,1.3745392560958862,0
530,-4.4631218910217285,3.8653295040130615,1.2265448570251465,-0.1896796077489853,0.23909033834934235,1.3850187063217163,0
531,-3.763653039932251,3.5932834148406982,1.1703513860702515,-0.16581429541110992,0.17810474336147308,1.396773338317871,0
532,1.0917725563049316,2.177854537963867,1.4556552171707153,-0.21094514429569244,0.15134459733963013,1.4085344076156616,0
533,4.842967987060547,-6.9226179122924805,1.0209195613861084,-0.33262965083122253,0.18795356154441833,1.4217987060546875,0
534,6.1162333488464355,-14.57866382598877,1.3167719841003418,-0.10583377629518509,0.2750696837902069,1.4276127815246582,0
535,7.077033996582031,-18.314781188964844,1.595426321029663,0.08090608566999435,0.3853219151496887,1.4370017051696777,0
536,5.471946716308594,-22.458486557006836,1.6426113843917847,0.4056234061717987,0.49390390515327454,1.4485816955566406,0
537,2.5337913036346436,-24.7729434967041,1.8498700857162476,0.35906052589416504,0.5688133239746094,1.4591095447540283,0
538,-2.839205503463745,-21.333194732666016,2.1722002029418945,0.8383874893188477,0.5844480395317078,1.4773380756378174,0
539,-6.923157215118408,-9.626197814941406,2.628927230834961,1.0807676315307617,0.45090803503990173,1.5100159645080566,0
540,-9.171326637268066,5.958488464355469,2.2687795162200928,1.0698174238204956,0.4027332365512848,1.5289644002914429,0
541,-9.898991584777832,23.824478149414062,1.552679419517517,0.9900910258293152,0.24719634652137756,1.559823989868164,0
542,-9.241729736328125,32.1867790222168,1.7482624053955078,0.73468416929245,0.09340118616819382,1.5827617645263672,0
543,-3.846667766571045,33.509361267089844,2.2165286540985107,0.36832717061042786,0.18510104715824127,1.565976858139038,0
544,-0.596418023109436,30.10540199279785,1.3459004163742065,0.1288812756538391,0.11874515563249588,1.5947819948196411,0
545,3.3033032417297363,22.29008674621582,0.16391809284687042,-0.2031554877758026,0.18832743167877197,1.595844030380249,0
546,4.340094566345215,11.578465461730957,0.24865545332431793,-0.46632665395736694,0.2258763462305069,1.5975004434585571,0
547,3.5483896732330322,0.8584889769554138,0.3330754339694977,-0.5424038767814636,0.13566723465919495,1.6215535402297974,0
548,2.8536388874053955,-7.875340938568115,0.7958828210830688,-0.6012353301048279,0.3269333243370056,1.6009266376495361,0
549,-0.15992321074008942,-15.198819160461426,1.099571704864502,-0.377355694770813,0.1353210210800171,1.6427642107009888,0
550,-2.3623969554901123,-14.534845352172852,1.0545800924301147,-0.2838316559791565,0.1353374421596527,1.6523898839950562,0
551,-3.6602933406829834,-5.731968402862549,0.8017380833625793,-0.09671812504529953,0.09338302910327911,1.6683543920516968,0
552,-4.728396415710449,1.6469738483428955,0.43370792269706726,-0.04664133861660957,0.0945509597659111,1.6699397563934326,0
553,-3.0914247035980225,3.675536870956421,0.09377573430538177,0.0042490651831030846,0.029557012021541595,1.6794342994689941,0
554,-2.482879400253296,12.53353500366211,-0.36483627557754517,0.06933382153511047,-0.016290975734591484,1.6852827072143555,0
555,-0.8136222958564758,21.158733367919922,-0.501863420009613,-0.1443111002445221,-0.0548146590590477,1.6823643445968628,0
556,1.172927737236023,27.411413192749023,-0.9072234630584717,-0.42977380752563477,0.004151270259171724,1.6655925512313843,0
557,2.8161838054656982,27.22539710998535,-1.5800529718399048,-0.7046402096748352,0.033579885959625244,1.653563380241394,0
558,2.022094964981079,18.696231842041016,-0.6880543231964111,-1.0277727842330933,0.14182120561599731,1.6331018209457397,0
559,2.105502128601074,1.5903929471969604,-1.0817800760269165,-1.2768161296844482,0.09528698772192001,1.6292550563812256,0
560,2.261744737625122,-15.233449935913086,-0.9842568635940552,-1.1929800510406494,0.13284166157245636,1.6169897317886353,0
561,0.01194692775607109,-29.031803131103516,-0.9099723100662231,-0.8551146388053894,0.15459726750850677,1.607275128364563,0
562,-1.5773993730545044,-40.494384765625,-0.8582571744918823,-0.990549623966217,0.14775489270687103,1.5962398052215576,0
563,-2.2551984786987305,-39.77490997314453,-0.22612541913986206,-0.32792767882347107,0.11899521201848984,1.5876262187957764,0
564,-1.6994986534118652,-32.490394592285156,0.26625528931617737,0.10288751870393753,0.08024600893259048,1.5849759578704834,0
565,-1.3038036823272705,-21.033615112304688,-0.8081366419792175,0.6573781371116638,0.11625123769044876,1.5846444368362427,0
566,-1.5994045734405518,-11.185028076171875,-1.1698744297027588,0.23792524635791779,0.1483558714389801,1.5732030868530273,0
567,-3.0999555587768555,-6.065121173858643,-1.6629891395568848,0.35692325234413147,0.029529044404625893,1.5682611465454102,0
568,-3.464442491531372,-0.9808666110038757,-1.5092113018035889,0.4644358158111572,-0.03421739861369133,1.5547386407852173,0
569,-2.4945244789123535,6.111733436584473,-2.0356597900390625,0.5468581914901733,0.04751172289252281,1.5279244184494019,0
570,-1.1328178644180298,10.859992980957031,-2.1224441528320312,0.5205935835838318,-0.004871950019150972,1.510867953300476,0
571,-0.006033164449036121,10.039325714111328,-0.9864138960838318,0.44179844856262207,-0.031793832778930664,1.4894136190414429,0
572,0.5835004448890686,7.336845397949219,-1.5903098583221436,0.3686578571796417,-0.035911671817302704,1.4765135049819946,0
573,0.20267952978610992,2.8349907398223877,-1.8999712467193604,0.35157373547554016,-0.0343538299202919,1.4608038663864136,0
574,-0.3964817225933075,-1.3668185472488403,-1.6178194284439087,0.3881157338619232,-0.03521643951535225,1.4424426555633545,0
575,-0.3245290517807007,-13.765576362609863,-0.24967703223228455,0.43895694613456726,-0.037546105682849884,1.4273723363876343,0
576,-1.3408169746398926,-4.333165645599365,-1.107612133026123,0.6316689252853394,-0.05571283772587776,1.4210964441299438,0
577,-3.0479438304901123,3.0783278942108154,-1.8302265405654907,0.5926496386528015,0.04501323774456978,1.3934742212295532,0
578,-0.8295182585716248,15.338654518127441,-1.8204385042190552,0.5648866295814514,0.07086053490638733,1.3694788217544556,0
579,-3.4250359535217285,23.508384704589844,-1.9611896276474,0.36511653661727905,0.022822001948952675,1.357891321182251,0
580,-3.38490629196167,30.689350128173828,-1.9860179424285889,0.15235763788223267,0.02510039322078228,1.3319567441940308,0
581,-3.296409845352173,23.430200576782227,-1.8618464469909668,-0.254872590303421,-0.047740086913108826,1.3184791803359985,0
582,-2.297863245010376,9.778486251831055,-1.5586533546447754,-0.5197793841362,-0.11157234013080597,1.3043479919433594,0
583,-2.3529903888702393,-0.5144439339637756,-1.3077776432037354,-0.6058762669563293,-0.15909479558467865,1.2910866737365723,0
584,-2.9275758266448975,-14.537215232849121,-1.141434907913208,-0.4938928186893463,-0.2125304937362671,1.2779985666275024,0
585,0.2417403906583786,-17.443954467773438,-0.59739750623703,-0.25973644852638245,-0.25737419724464417,1.2654880285263062,0
586,1.1577703952789307,-14.679553985595703,-1.5913326740264893,-0.06983597576618195,-0.26589155197143555,1.258983850479126,0
587,2.804462194442749,-12.699833869934082,-0.9759508371353149,0.2254759818315506,-0.24793016910552979,1.2402864694595337,0
588,2.307757616043091,-11.246703147888184,-1.308384656906128,-0.08072826266288757,-0.142581507563591,1.2355562448501587,0
589,2.4247429370880127,-5.038760662078857,-0.2682979106903076,0.08876211941242218,-0.1138957291841507,1.2211581468582153,0
590,0.19852866232395172,3.1069376468658447,-0.04168730601668358,0.005964306183159351,-0.0285091120749712,1.2147817611694336,0
591,-5.1550188064575195,10.446345329284668,0.0328456349670887,0.006022671703249216,-0.07299281656742096,1.2158299684524536,0
592,-8.233853340148926,8.42921257019043,-0.05317625030875206,-0.06948251277208328,-0.11165964603424072,1.2145167589187622,0
593,-7.604781627655029,2.9117939472198486,-0.14737820625305176,-0.099642314016819,-0.2468424141407013,1.2174201011657715,0
594,-7.2071661949157715,1.0246847867965698,-0.5004337430000305,0.00913186278194189,-0.1748083084821701,1.1988767385482788,0
595,-5.9678635597229,0.460205614566803,-0.7970581650733948,-0.014276832342147827,-0.3809521496295929,1.204606294631958,0
596,-2.424372673034668,-0.8827933669090271,0.4761938154697418,0.053866371512413025,-0.47177302837371826,1.1971019506454468,0
597,-0.0977935791015625,-2.346080780029297,0.6182786226272583,0.13639482855796814,-0.5116309523582458,1.1984667778015137,0
598,2.4641244411468506,-4.616254806518555,0.9913965463638306,0.23591293394565582,-0.510729968547821,1.2009971141815186,0
599,4.588229179382324,1.094619870185852,1.4828991889953613,0.2657202184200287,-0.4692648649215698,1.2078094482421875,0
600,4.782145023345947,8.154438018798828,0.705540120601654,0.27338042855262756,-0.39949706196784973,1.2147600650787354,0
601,3.3633487224578857,10.756309509277344,0.7316443920135498,0.1996932327747345,-0.3355644941329956,1.2194163799285889,0
602,0.938570499420166,17.066425323486328,0.1904929280281067,0.0803423672914505,-0.3660844564437866,1.23193359375,0
603,-0.977789044380188,21.415462493896484,0.5218850374221802,-0.12233468145132065,-0.34482502937316895,1.2364485263824463,0
604,-3.5814223289489746,25.632139205932617,-0.16864000260829926,-0.42636945843696594,-0.2967491149902344,1.2418087720870972,0
605,-5.686164855957031,25.213695526123047,-0.6253558993339539,-0.6379553079605103,-0.2951095998287201,1.234745740890503,0
606,-4.824595928192139,21.661724090576172,-1.0417258739471436,-0.9033763408660889,-0.3868316113948822,1.2305389642715454,0
607,-2.5176913738250732,14.499217987060547,-1.0494024753570557,-1.1738452911376953,-0.3961429297924042,1.221156120300293,0
608,-0.1613825559616089,3.402125120162964,-1.2051798105239868,-1.2500640153884888,-0.4352758228778839,1.205778956413269,0
609,4.264968395233154,-14.936979293823242,-0.9351510405540466,-1.1488568782806396,-0.42771217226982117,1.1862918138504028,0
610,4.81881856918335,-17.601560592651367,-1.0825899839401245,-0.969052791595459,-0.37011799216270447,1.1750340461730957,0
611,4.801089286804199,-16.234115600585938,0.03589955344796181,-0.6659443378448486,-0.36623072624206543,1.1605890989303589,0
612,3.153045415878296,-5.851108074188232,1.0606223344802856,-0.46568402647972107,-0.29621681571006775,1.1618503332138062,0
613,-1.3582136631011963,0.7049845457077026,0.6998603343963623,-0.4758852422237396,-0.267136812210083,1.1761586666107178,0
614,-3.457630157470703,13.962109565734863,0.6733273863792419,-0.4925057590007782,-0.2907571494579315,1.1828501224517822,0
615,-6.141566276550293,25.645732879638672,0.5010238289833069,-0.6956579685211182,-0.35512155294418335,1.1925508975982666,0
616,-6.328034400939941,27.755264282226562,1.2237894535064697,-1.043042778968811,-0.4461403787136078,1.203566312789917,0
617,-2.5827417373657227,19.06875991821289,1.0717061758041382,-1.3873248100280762,-0.45501986145973206,1.2197892665863037,0
618,-0.5482783913612366,9.774062156677246,0.15991444885730743,-1.5474896430969238,-0.501211404800415,1.2250008583068848,0
619,3.6786692142486572,1.9060442447662354,-0.16855278611183167,-1.6432535648345947,-0.4906248450279236,1.2254228591918945,0
620,7.732810974121094,-13.707659721374512,-0.31092312932014465,-1.5542032718658447,-0.41936832666397095,1.2187671661376953,0
621,9.5394287109375,-26.580129623413086,-0.18007583916187286,-1.282785177230835,-0.3633774220943451,1.2040075063705444,0
622,8.843927383422852,-33.34443283081055,0.231100931763649,-0.8979681134223938,-0.2101154625415802,1.2024149894714355,0
623,6.414283752441406,-34.07135772705078,0.3865455687046051,-0.9837290644645691,-0.07417169213294983,1.240248441696167,0
624,2.84177827835083,-25.44701385498047,0.46393415331840515,-0.3623163402080536,-0.051411017775535583,1.2242414951324463,0
625,-2.62613582611084,-9.884321212768555,1.331099510192871,-0.06560581177473068,-0.026789190247654915,1.230007529258728,0
626,-5.0186448097229,5.210365295410156,0.8375346660614014,-0.07713205367326736,-0.078593410551548,1.2459017038345337,0
627,-10.578645706176758,28.165382385253906,0.2078579217195511,-0.1950511485338211,-0.18642370402812958,1.25059974193573,0
628,-11.541133880615234,41.45865249633789,-0.12789645791053772,-0.48586350679397583,-0.21222876012325287,1.2565869092941284,0
629,-7.238738059997559,43.95283889770508,-0.13622495532035828,-1.013687252998352,-0.4469667673110962,1.2505970001220703,0
630,-3.5211966037750244,35.05510330200195,0.18308117985725403,-1.5420770645141602,-0.47792166471481323,1.2552566528320312,0
631,0.671710193157196,24.49380874633789,0.20877785980701447,-1.7196063995361328,-0.3152027428150177,1.2643847465515137,0
632,6.475338935852051,7.899918079376221,-1.195229411125183,-1.9603646993637085,-0.5672333240509033,1.229308009147644,0
633,10.384520530700684,-13.67653751373291,-1.8413357734680176,-1.942594289779663,-0.3751353621482849,1.2308831214904785,0
634,11.443192481994629,-21.348886489868164,-2.077361583709717,-1.8972855806350708,-0.26742660999298096,1.219288945198059,0
635,11.201955795288086,-19.40241813659668,-2.406019449234009,-1.57412588596344,-0.13664767146110535,1.1945583820343018,0
636,9.719493865966797,-27.986082077026367,-3.268709421157837,-1.1986569166183472,-0.019188188016414642,1.1621661186218262,0
637,7.432075500488281,-33.46703338623047,-3.4620041847229004,-0.6678717732429504,0.12840776145458221,1.1252244710922241,0
638,0.8325910568237305,-25.149263381958008,-3.1774330139160156,-0.6875011324882507,0.06346677988767624,1.082761287689209,0
639,-3.9929513931274414,-20.27208709716797,-2.6306049823760986,-0.4904021620750427,0.06201474741101265,1.052877426147461,0
640,-6.972968101501465,-10.27418327331543,-2.1848978996276855,-0.12555819749832153,-0.007238729391247034,1.0168474912643433,0
641,-5.884642601013184,-5.881645679473877,-1.1627144813537598,0.0037667315918952227,-0.10826397687196732,0.9890619516372681,0
642,-2.4357502460479736,10.230480194091797,-2.418807029724121,0.006613984238356352,-0.18553192913532257,0.9717445969581604,0
643,0.8422943353652954,24.071487426757812,-2.285640239715576,-0.09200724214315414,-0.27536696195602417,0.9443941116333008,0
644,6.116584300994873,22.717906951904297,-2.6755940914154053,-0.37519413232803345,-0.24128812551498413,0.920791506767273,0
645,8.599715232849121,16.585311889648438,-2.9107666015625,-0.688570499420166,-0.13871505856513977,0.8968667387962341,0
646,7.667069435119629,17.26150894165039,-2.6360952854156494,-0.9281873106956482,0.011012258008122444,0.873528003692627,0
647,10.254426956176758,7.079375743865967,-3.5345354080200195,-1.0431396961212158,0.1774492710828781,0.8482194542884827,0
648,11.302507400512695,-17.497636795043945,-3.956461191177368,-0.9311370253562927,0.2777860462665558,0.8078942894935608,0
649,-2.0056352615356445,-21.193965911865234,-3.318269729614258,-0.37658512592315674,0.34902700781822205,0.7203262448310852,0
650,-6.312519073486328,-5.78403902053833,-2.3356757164001465,-0.3255966007709503,0.3165486454963684,0.6815261244773865,0
651,-8.456604957580566,6.338037014007568,-1.2881487607955933,-0.2651286721229553,0.2071504443883896,0.651385486125946,0
652,-10.564449310302734,19.798601150512695,-1.5926495790481567,-0.35751578211784363,0.1296297013759613,0.6317886710166931,0
653,-10.837939262390137,32.039188385009766,-2.5139055252075195,-0.6260987520217896,0.10258055478334427,0.613978922367096,0
654,-5.117450714111328,34.7857780456543,-2.584606170654297,-1.0001407861709595,-0.03193499147891998,0.5845373868942261,0
655,1.4843562841415405,25.394121170043945,-2.7113723754882812,-1.2244118452072144,-0.06764251738786697,0.5607624053955078,0
656,6.27853536605835,9.725822448730469,-2.2869338989257812,-1.4648005962371826,-0.017867134883999825,0.5355474948883057,0
657,8.275650978088379,-7.049160480499268,-1.9888968467712402,-1.512066125869751,-0.045325830578804016,0.5056687593460083,0
658,9.225345611572266,-24.524057388305664,-2.0149590969085693,-1.3181697130203247,0.10504758358001709,0.4918673038482666,0
659,7.072996139526367,-38.992401123046875,-1.781849980354309,-1.2762278318405151,0.1783556193113327,0.46064531803131104,0
660,5.120911121368408,-44.605224609375,-1.3576750755310059,-0.6276604533195496,0.2898661196231842,0.4471382796764374,0
661,1.3857717514038086,-36.18321228027344,-0.7374779582023621,0.04138535261154175,0.0005971923819743097,0.4052005112171173,0
662,-3.3321642875671387,-14.440353393554688,-2.131877899169922,-0.18538884818553925,0.03660959377884865,0.3787645697593689,0
663,-4.765686988830566,10.757475852966309,-1.4627318382263184,-0.014048994518816471,0.08954858034849167,0.36728718876838684,0
664,-3.287278652191162,21.611223220825195,-2.1268255710601807,-0.12294775992631912,0.04057396948337555,0.35196638107299805,0
665,-1.3711191415786743,24.488842010498047,-1.4394760131835938,-0.4169316291809082,0.07184870541095734,0.33405593037605286,0
666,1.6577352285385132,17.438756942749023,-1.2136802673339844,-0.72454833984375,0.06853602081537247,0.3177158236503601,0
667,4.4022979736328125,12.142786979675293,-0.8472473621368408,-0.9415803551673889,0.11467096954584122,0.3043915927410126,0
668,6.622828006744385,2.5935182571411133,-0.9449701309204102,-1.036570429801941,0.34115809202194214,0.3034331500530243,0
669,6.788445949554443,-10.577573776245117,-0.34549880027770996,-1.0129644870758057,0.30071553587913513,0.2898160219192505,0
670,3.953704833984375,-15.696314811706543,-0.29424992203712463,-0.7376686334609985,0.4028260409832001,0.2912708818912506,0
671,-1.1153144836425781,-19.125974655151367,-1.2155861854553223,-0.45780497789382935,0.37866494059562683,0.28538113832473755,0
672,-4.769503593444824,-24.81019401550293,-1.6366615295410156,-0.05040387809276581,0.3540811836719513,0.282219260931015,0
673,-7.603524208068848,-25.018165588378906,-1.0585620403289795,-0.4369192123413086,0.41672855615615845,0.23757915198802948,0
674,-8.452476501464844,-20.936418533325195,-0.4513964354991913,0.0018408596515655518,0.4290469288825989,0.2352169007062912,0
675,-11.351550102233887,-8.600577354431152,0.3135613203048706,0.3260759711265564,0.3331044018268585,0.23465757071971893,0
676,-12.757932662963867,2.5520308017730713,0.09677107632160187,0.385097473859787,0.2724173665046692,0.23232746124267578,0
677,-12.533907890319824,18.737201690673828,1.0379823446273804,0.44203609228134155,-0.017359882593154907,0.24312886595726013,0
678,-9.852585792541504,25.186765670776367,0.5193198919296265,0.1349841058254242,-0.07433976978063583,0.2408675104379654,0
679,-6.37360143661499,29.43326759338379,0.5162031650543213,-0.20637044310569763,-0.23446445167064667,0.24330845475196838,0
680,-1.3730577230453491,24.230915069580078,0.09672316908836365,-0.5695669651031494,-0.3249206840991974,0.24416716396808624,0
681,3.0981059074401855,15.547486305236816,-0.01840788871049881,-0.7738519310951233,-0.34227895736694336,0.2451232522726059,0
682,6.20287561416626,-0.46925830841064453,0.029429946094751358,-0.858972430229187,-0.287354439496994,0.24466858804225922,0
683,7.792303085327148,-9.967133522033691,0.24837929010391235,-0.776593804359436,-0.18212804198265076,0.24664466083049774,0
684,6.659698486328125,-17.29461669921875,0.3129548728466034,-0.6107779145240784,-0.0647728219628334,0.2502124607563019,0
685,2.5794968605041504,-26.8892822265625,0.565050482749939,-0.24514788389205933,0.016816742718219757,0.25675302743911743,0
686,-0.9783416390419006,-33.286277770996094,0.13441817462444305,0.7263896465301514,0.11003972589969635,0.27074897289276123,0
687,-6.1011271476745605,-32.27771759033203,0.655802309513092,1.2983142137527466,-0.07732375711202621,0.28379642963409424,0
688,-10.385303497314453,-20.68257713317871,-0.3180930018424988,1.7361729145050049,-0.04561622440814972,0.28231292963027954,0
689,-12.627462387084961,5.95556116104126,0.5991008877754211,2.2108561992645264,-0.49775853753089905,0.32735639810562134,0
690,-11.340764045715332,34.036441802978516,-0.4172440469264984,1.9701969623565674,-1.3614282608032227,0.4392392933368683,0
691,-5.272850036621094,48.20293426513672,-0.045430686324834824,1.6198190450668335,-1.0213955640792847,0.3510057330131531,0
692,6.982931613922119,54.71062088012695,0.6183757185935974,0.9126622080802917,-0.5287178158760071,0.24186384677886963,0
693,17.239917755126953,57.98627471923828,0.3539671301841736,0.3194289207458496,-0.3711721897125244,0.223535418510437,0
694,20.548044204711914,49.68004608154297,-0.3020547926425934,-0.5601099133491516,-0.0882488414645195,0.21064704656600952,0
695,18.183027267456055,30.948440551757812,-1.2569729089736938,-1.2615469694137573,0.15425075590610504,0.20595046877861023,0
696,10.117621421813965,4.87301778793335,-1.192672848701477,-0.9437896013259888,0.4012235403060913,0.1633196324110031,0
697,-0.08162416517734528,-14.951343536376953,-0.9664499759674072,-1.1470332145690918,0.503311038017273,0.1530689001083374,0
698,-8.818680763244629,-23.604076385498047,-0.6720631122589111,-0.9145960211753845,0.4394336938858032,0.14515839517116547,0
699,-16.66478729248047,-21.049102783203125,-0.6010012626647949,-0.7639380097389221,0.24449199438095093,0.1458391398191452,0
700,-21.407806396484375,-7.87988805770874,-0.7777353525161743,-0.7406415939331055,0.2975650131702423,0.12432679533958435,0
701,-22.044729232788086,9.01388931274414,-0.7279490828514099,-0.9263632297515869,-0.07432714849710464,0.12328501790761948,0
702,-18.952411651611328,22.70250701904297,-0.8116024136543274,-0.9478458762168884,-0.364754855632782,0.1168062761425972,0
703,-12.70095157623291,27.77484130859375,-0.9204496741294861,-1.1462180614471436,-0.6535038948059082,0.10818082094192505,0
704,-3.7308709621429443,29.882177352905273,-0.7252758145332336,-1.5469590425491333,-0.8197434544563293,0.09593262523412704,0
705,5.656010150909424,15.790631294250488,-0.8195499181747437,-1.818265438079834,-0.8346043229103088,0.08409483730792999,0
706,14.937643051147461,-3.4696638584136963,-0.5480361580848694,-1.9130421876907349,-0.6991785168647766,0.07820545881986618,0
707,20.720226287841797,-13.415559768676758,-0.6405593156814575,-1.975420355796814,-0.4421364665031433,0.0826670229434967,0
708,18.919485092163086,-17.440937042236328,-0.2961427867412567,-2.2421860694885254,-0.19902700185775757,0.0958503782749176,0
709,12.345821380615234,-12.403979301452637,-0.38862112164497375,-2.1049554347991943,-0.0697343498468399,0.0864289402961731,0
710,4.431352138519287,-10.700730323791504,-0.7185721397399902,-1.8110367059707642,0.09047633409500122,0.07926185429096222,0
711,-5.507335662841797,-15.858573913574219,-0.958511471748352,-1.6583036184310913,-0.029465511441230774,0.047427333891391754,0
712,-9.643901824951172,-25.793048858642578,-1.1509510278701782,-1.696783185005188,-0.12361735850572586,0.0368461087346077,0
713,-10.637401580810547,-33.88945007324219,-0.7599294185638428,-1.304443597793579,-0.20919525623321533,0.02283044531941414,0
714,-7.471491813659668,-38.78322219848633,-0.7671911120414734,-1.0594793558120728,-0.15991729497909546,0.04092792421579361,0
715,-3.2875263690948486,-32.402896881103516,-1.1999708414077759,-0.5683275461196899,-0.20421604812145233,0.035083383321762085,0
716,0.9307668805122375,-20.882551193237305,-1.1054850816726685,-0.3511432409286499,-0.3718613088130951,0.011556940153241158,0
717,5.06510066986084,-2.8459935188293457,-0.7771738767623901,-0.2765635550022125,-0.3351830840110779,0.01011755783110857,0
718,7.717926025390625,1.1480411291122437,-1.1271238327026367,-0.19760200381278992,-0.2523428201675415,0.004208275116980076,0
719,6.675131797790527,11.894078254699707,-0.9983965158462524,-0.23094570636749268,-0.34561118483543396,-0.022304773330688477,0
720,5.15077543258667,12.058046340942383,-0.9854594469070435,-0.2919284999370575,-0.23177987337112427,-0.03057231567800045,0
721,2.7536449432373047,13.401045799255371,-0.7898697257041931,-0.36718544363975525,-0.09114538133144379,-0.03451773524284363,0
722,0.10608942806720734,9.976593017578125,-0.8276541233062744,-0.44027477502822876,-0.138143390417099,-0.04978896677494049,0
723,-2.125791549682617,4.700338840484619,-1.0207520723342896,-0.4721439480781555,-0.14929963648319244,-0.05945312976837158,0
724,-4.236040115356445,-1.8359464406967163,-0.4461962580680847,-0.707065761089325,-0.11955570429563522,-0.05893779918551445,0
725,-1.583886742591858,-10.588123321533203,-0.8273138999938965,-1.0120925903320312,-0.2282964438199997,-0.05987468734383583,0
726,1.6243184804916382,-13.820635795593262,-0.33909860253334045,-0.8256689310073853,-0.22578184306621552,-0.06732083112001419,0
727,3.591872453689575,-28.209638595581055,0.057948045432567596,-0.5393178462982178,-0.18614204227924347,-0.0711623877286911,0
728,4.255784511566162,-37.21138000488281,0.30346018075942993,-0.15602563321590424,-0.12174180895090103,-0.07166358828544617,0
729,6.214070796966553,-39.09718322753906,-0.25528591871261597,0.06328581273555756,-0.24586895108222961,-0.07509738951921463,0
730,7.236090183258057,-36.87890625,-0.20880262553691864,0.37134239077568054,-0.1195225641131401,-0.07120078057050705,0
731,5.035640716552734,-28.492555618286133,0.042176082730293274,0.9085890650749207,-0.06935863941907883,-0.07652487605810165,0
732,4.164919376373291,-20.52436637878418,-0.3678207993507385,0.829643964767456,-0.05660400167107582,-0.07178330421447754,0
733,2.7884976863861084,-14.33148193359375,-0.665072500705719,1.139339566230774,-0.12594440579414368,-0.07680772244930267,0
734,3.5997705459594727,-12.265769958496094,-0.9035077095031738,1.2959647178649902,0.018201690167188644,-0.09236489981412888,0
735,4.439891338348389,-13.45376205444336,-1.7230048179626465,1.6510794162750244,0.032211918383836746,-0.10241016745567322,0
736,4.870561122894287,-16.14194679260254,-2.3082082271575928,1.4546138048171997,-0.013537177816033363,-0.10331615805625916,0
737,5.5921454429626465,-18.207763671875,-2.4634969234466553,1.724182367324829,0.16339725255966187,-0.14538949728012085,0
738,5.821059226989746,-11.20690631866455,-1.6509408950805664,1.8919364213943481,0.19944582879543304,-0.16997912526130676,0
739,2.152402400970459,13.123879432678223,-1.9093810319900513,2.149614095687866,0.2707299590110779,-0.20264199376106262,0
740,0.032893501222133636,25.005111694335938,-2.4136948585510254,1.9349578619003296,0.1710355579853058,-0.19160759449005127,0
741,-0.993141233921051,30.510173797607422,-2.710313558578491,1.6343960762023926,0.195302814245224,-0.2206064760684967,0
742,0.5713146924972534,30.198318481445312,-2.6617937088012695,1.3249917030334473,0.21410612761974335,-0.25394487380981445,0
743,2.4885823726654053,17.891700744628906,-2.375436305999756,0.9362632632255554,0.25426676869392395,-0.2909555435180664,0
744,5.406840801239014,7.846513271331787,-2.521745204925537,0.7745696902275085,0.2550599277019501,-0.3063267767429352,0
745,8.867030143737793,-2.729313850402832,-2.612161874771118,0.782582700252533,0.3843286335468292,-0.3484072685241699,0
746,9.126508712768555,-6.7320942878723145,-1.8903424739837646,0.9431729912757874,0.47856405377388,-0.3725411593914032,0
747,6.694096088409424,-4.574559688568115,-1.7726267576217651,0.6093540191650391,0.4949033558368683,-0.3893464505672455,0
748,2.0247089862823486,1.439775824546814,-1.7678743600845337,0.7589662671089172,0.528749406337738,-0.39812347292900085,0
749,-3.411886692047119,7.077011585235596,-1.9187790155410767,0.6608867645263672,0.4802669584751129,-0.40777963399887085,0
750,-6.032870292663574,9.598721504211426,-1.7672747373580933,0.691277801990509,0.43912941217422485,-0.42316654324531555,0
751,-6.278836727142334,2.8861074447631836,-1.8450621366500854,0.6482071280479431,0.3715735673904419,-0.4370864927768707,0
752,-3.020216464996338,-7.993737697601318,-2.4278533458709717,0.7302741408348083,0.3189842402935028,-0.4494231045246124,0
753,0.8192288875579834,-12.648612022399902,-2.571256160736084,0.9990106225013733,0.31904077529907227,-0.4659118950366974,0
754,4.136462688446045,-7.943511009216309,-2.712541103363037,1.0647133588790894,0.231313094496727,-0.47217419743537903,0
755,6.094470500946045,1.0399640798568726,-3.6466643810272217,0.8374377489089966,0.3499068319797516,-0.5364822745323181,0
756,7.958906650543213,10.10299301147461,-3.8306891918182373,0.8328582048416138,0.4942190647125244,-0.5853411555290222,0
757,8.540629386901855,6.744854927062988,-4.169631481170654,0.7379419803619385,0.6494367122650146,-0.6363561749458313,0
758,5.897992134094238,-3.1057612895965576,-4.231006622314453,0.7862809896469116,0.7156059145927429,-0.6584517359733582,0
759,4.041374206542969,-15.97082233428955,-4.350689888000488,0.9940060377120972,0.6790179014205933,-0.6592097878456116,0
760,-0.11789565533399582,-26.453903198242188,-4.390425682067871,1.1054966449737549,0.7469319105148315,-0.7104799151420593,0
761,-3.378645658493042,-21.993850708007812,-3.7842390537261963,1.6002095937728882,0.747600257396698,-0.7328873872756958,0
762,-6.862557888031006,-9.141312599182129,-3.6503241062164307,1.7008278369903564,0.6964049935340881,-0.7779536247253418,0
763,-8.848037719726562,7.4374165534973145,-3.6701853275299072,1.7179415225982666,0.5316576361656189,-0.7940678000450134,0
764,-6.980196475982666,14.396782875061035,-3.8809001445770264,1.5149389505386353,0.4305267632007599,-0.8365263342857361,0
765,-2.1836400032043457,12.018048286437988,-3.9924986362457275,1.29414963722229,0.5098364949226379,-0.9210235476493835,0
766,5.121517658233643,2.3000218868255615,-4.043019771575928,1.1407055854797363,0.5199145674705505,-0.9698927998542786,0
767,7.650226593017578,-13.773794174194336,-4.3128886222839355,1.2232626676559448,0.468813955783844,-0.9694166779518127,0
768,12.743714332580566,-23.48646354675293,-3.7940142154693604,1.2333649396896362,0.6343404650688171,-1.043799877166748,0
769,11.081143379211426,-21.717222213745117,-2.6981678009033203,1.5869977474212646,0.6977007389068604,-1.0524108409881592,0
770,7.318854808807373,-14.139507293701172,-2.644887924194336,1.7571020126342773,0.8101856708526611,-1.086706280708313,0
771,1.2070951461791992,-5.817202568054199,-2.439811944961548,1.9528861045837402,0.8510915637016296,-1.0950664281845093,0
772,-3.7444050312042236,5.68312406539917,-2.862098455429077,1.857305645942688,0.8759639263153076,-1.1388452053070068,0
773,-7.335984706878662,9.73120403289795,-3.4714667797088623,1.786666989326477,0.8235829472541809,-1.162192463874817,0
774,-7.719254493713379,13.145169258117676,-3.752748489379883,1.7121894359588623,0.792386531829834,-1.2045278549194336,0
775,-6.415021896362305,17.704341888427734,-3.1606810092926025,1.4917230606079102,0.6835067868232727,-1.242152214050293,0
776,-3.0563278198242188,24.438825607299805,-3.1290996074676514,1.3394196033477783,0.602958619594574,-1.2660291194915771,0
777,0.7826939225196838,28.1295223236084,-3.5391228199005127,1.0384418964385986,0.5753307342529297,-1.3075610399246216,0
778,3.0630042552948,28.453203201293945,-3.298093318939209,0.8283654451370239,0.6114044189453125,-1.3405269384384155,0
779,5.09964656829834,27.745685577392578,-2.9202213287353516,0.5317164063453674,0.692514955997467,-1.381026029586792,0
780,5.930019855499268,24.733020782470703,-2.5903124809265137,0.18164438009262085,0.7907006740570068,-1.4226163625717163,0
781,3.8277602195739746,18.37103843688965,-1.968429446220398,-0.1127912700176239,0.8108270764350891,-1.4347847700119019,0
782,1.2174233198165894,12.320798873901367,-1.9389253854751587,-0.24630658328533173,0.8731427788734436,-1.4427744150161743,0
783,-1.39883291721344,6.047555446624756,-2.073383092880249,-0.3526129126548767,0.8855604529380798,-1.4512279033660889,0
784,-5.9313273429870605,2.201679229736328,-1.5131864547729492,-0.37839946150779724,0.8406493663787842,-1.4554086923599243,0
785,-6.239193439483643,0.6873969435691833,-1.7662887573242188,-0.3551328182220459,0.7519242167472839,-1.4551100730895996,0
786,-6.237916946411133,-0.02745387889444828,-1.707977056503296,-0.45954182744026184,0.6547613143920898,-1.477613091468811,0
787,-4.814554691314697,-5.82534122467041,-1.1998534202575684,-0.3094785809516907,0.5628566741943359,-1.4690580368041992,0
788,-3.335970163345337,-7.360480308532715,-1.3656402826309204,-0.3895164430141449,0.49119099974632263,-1.4937164783477783,0
789,1.6468226909637451,-12.822659492492676,-0.827015221118927,-0.19666576385498047,0.4579430818557739,-1.4895834922790527,0
790,4.22938346862793,-17.397052764892578,-0.5549483299255371,-0.06893277168273926,0.49122941493988037,-1.498599886894226,0
791,5.716041564941406,-12.822696685791016,0.47866368293762207,0.08750338107347488,0.5633543133735657,-1.5052900314331055,0
792,4.671868801116943,-1.3923441171646118,0.7170426845550537,0.14501450955867767,0.6478992700576782,-1.5098834037780762,0
793,0.7216359972953796,12.391914367675781,0.6766218543052673,0.1544434130191803,0.5612176656723022,-1.5003780126571655,0
794,-3.624253034591675,22.842512130737305,0.5364692807197571,-0.040907181799411774,0.6274048686027527,-1.5009958744049072,0
795,-6.028348445892334,23.387521743774414,0.8670775890350342,-0.33090636134147644,0.5648022294044495,-1.4998048543930054,0
796,-6.01569938659668,21.437009811401367,0.9998190402984619,-0.6351076364517212,0.47550103068351746,-1.4966562986373901,0
797,-4.8338518142700195,8.653128623962402,1.258201003074646,-0.8461863994598389,0.4616710841655731,-1.4817713499069214,0
798,-1.0512657165527344,-7.676194190979004,0.9857786893844604,-0.7746983766555786,0.3359285295009613,-1.4564878940582275,0
799,2.6780846118927,-15.941193580627441,1.3280768394470215,-0.6498878002166748,0.33940640091896057,-1.4366403818130493,0
800,4.3378071784973145,-19.145130157470703,1.9393917322158813,-0.34270545840263367,0.3898521959781647,-1.4074290990829468,0
801,5.212401866912842,-20.81621551513672,2.2122175693511963,0.005209697410464287,0.4614044427871704,-1.3735296726226807,0
802,4.428822994232178,-13.195517539978027,2.9870054721832275,-0.22372585535049438,0.6078317761421204,-1.3742833137512207,0
803,2.040367603302002,1.360687494277954,2.7007644176483154,-0.27373823523521423,0.5281164646148682,-1.3692457675933838,0
804,-2.0863468647003174,12.935707092285156,2.3101401329040527,-0.24136868119239807,0.5482608079910278,-1.3396084308624268,0
805,-4.159819602966309,15.760079383850098,1.9021676778793335,-0.3597518801689148,0.5849923491477966,-1.3101694583892822,0
806,-5.446981906890869,14.881572723388672,1.2723997831344604,-0.5225986838340759,0.513818085193634,-1.2928574085235596,0
807,-4.7632880210876465,8.474867820739746,1.4346164464950562,-0.646368145942688,0.4262796938419342,-1.2779263257980347,0
808,-3.6581759452819824,4.066389083862305,1.1462721824645996,-0.6835299730300903,0.34826424717903137,-1.2607359886169434,0
809,-2.6677143573760986,0.7382423877716064,0.8595215678215027,-0.7263849973678589,0.2914432883262634,-1.2461063861846924,0
810,2.0251810550689697,-3.0703089237213135,0.7378256320953369,-0.7180009484291077,0.26736941933631897,-1.2323349714279175,0
811,3.3830268383026123,-11.675541877746582,0.4138796329498291,-0.7006683349609375,0.28699827194213867,-1.22357976436615,0
812,5.7497100830078125,-21.703060150146484,0.8024697303771973,-0.47606614232063293,0.34168148040771484,-1.209532618522644,0
813,6.00986385345459,-28.486101150512695,1.2497481107711792,-0.022445552051067352,0.42153510451316833,-1.1887292861938477,0
814,4.253717422485352,-23.83845329284668,2.1228067874908447,0.22110070288181305,0.5026817321777344,-1.1809672117233276,0
815,-0.46082860231399536,-9.562311172485352,2.927102565765381,0.17626900970935822,0.5519325137138367,-1.1767187118530273,0
816,-6.361140727996826,6.7815022468566895,2.369405746459961,0.346915066242218,0.5358443856239319,-1.152113676071167,0
817,-8.73305606842041,15.091270446777344,2.3141438961029053,0.42232730984687805,0.6581493616104126,-1.1033265590667725,0
818,-10.752120018005371,14.958719253540039,1.8452255725860596,0.21520619094371796,0.43675968050956726,-1.0965975522994995,0
819,-10.083846092224121,8.306702613830566,0.9110071063041687,0.13495711982250214,0.336847186088562,-1.0752930641174316,0
820,-6.63433837890625,-5.0426716804504395,0.27178531885147095,0.0213314276188612,0.1797737330198288,-1.0709996223449707,0
821,-1.8893336057662964,-18.71681785583496,-0.43721804022789,0.16872870922088623,0.08324433863162994,-1.0637027025222778,0
822,4.48929500579834,-28.806304931640625,-0.9242334365844727,0.2289539873600006,0.12903109192848206,-1.062759518623352,0
823,7.641636371612549,-32.16664123535156,-0.33929115533828735,0.5391116142272949,0.1815367341041565,-1.0703145265579224,0
824,7.365602493286133,-23.80842399597168,-0.3238367736339569,1.0575553178787231,0.2770526707172394,-1.0742928981781006,0
825,4.334506988525391,-4.828033924102783,-0.20081083476543427,1.1221126317977905,0.30180519819259644,-1.083539605140686,0
826,-1.0171030759811401,15.842902183532715,-0.7816144227981567,1.1477267742156982,0.344108909368515,-1.0870685577392578,0
827,-6.677028179168701,31.640382766723633,-1.1653916835784912,0.9328184127807617,0.15886418521404266,-1.0929594039916992,0
828,-10.411388397216797,38.443580627441406,-1.3036020994186401,0.5586951375007629,0.18707644939422607,-1.1012097597122192,0
829,-9.870088577270508,30.7160701751709,-1.1100554466247559,0.135287344455719,-0.05110377445816994,-1.1123548746109009,0
830,-7.661248207092285,15.84803581237793,-1.2025127410888672,0.011806654743850231,-0.06682497262954712,-1.1244440078735352,0
831,-2.1170806884765625,1.5426024198532104,-1.7677809000015259,-0.11687645316123962,-0.24536359310150146,-1.1365543603897095,0
832,4.679581642150879,-15.180085182189941,-1.9445244073867798,-0.027747249230742455,-0.18803943693637848,-1.1531792879104614,0
833,11.674643516540527,-23.925918579101562,-1.640641450881958,0.14169204235076904,-0.10247231274843216,-1.1737440824508667,0
834,13.593158721923828,-27.5284366607666,-1.7623579502105713,0.456074982881546,0.01464131474494934,-1.1951438188552856,0
835,11.697010040283203,-24.99166488647461,-1.5232174396514893,0.6595788598060608,0.22187304496765137,-1.2101577520370483,0
836,7.161777019500732,-15.544567108154297,-1.0536108016967773,1.08934485912323,0.24695441126823425,-1.2350796461105347,0
837,0.360704630613327,-4.250640869140625,-0.23828564584255219,1.3028115034103394,0.345937043428421,-1.247649073600769,0
838,-5.7913079261779785,12.860738754272461,-0.04160190001130104,1.361593246459961,0.41351357102394104,-1.2534321546554565,0
839,-12.569253921508789,22.071510314941406,0.3937438130378723,1.1691802740097046,0.28714603185653687,-1.2445993423461914,0
840,-12.782214164733887,27.414913177490234,-0.09609965980052948,0.8563010096549988,0.0872797742486,-1.2319300174713135,0
841,-9.63589859008789,32.77006149291992,-0.08114699274301529,0.4577229619026184,0.03947887197136879,-1.2332743406295776,0
842,-4.120168685913086,31.709394454956055,-0.26219478249549866,0.14067919552326202,0.03715503588318825,-1.2378404140472412,0
843,1.9963140487670898,23.640989303588867,0.17641884088516235,-0.06451380252838135,-0.02595575712621212,-1.2406184673309326,0
844,5.942660331726074,17.56005096435547,0.1360594630241394,-0.36734795570373535,0.0053053563460707664,-1.2369412183761597,0
845,8.249460220336914,12.525057792663574,0.4893927574157715,-0.48540955781936646,-0.04643165320158005,-1.2332791090011597,0
846,7.119906902313232,8.419960021972656,1.0227136611938477,-0.5574438571929932,0.0769338607788086,-1.2313231229782104,0
847,5.856934070587158,-0.049424801021814346,1.7391003370285034,-0.46839162707328796,0.11973171681165695,-1.2306013107299805,0
848,0.6103553771972656,-5.274816513061523,1.6788036823272705,-0.6212901473045349,0.12632055580615997,-1.2070704698562622,0
849,-1.3000003099441528,-8.79625415802002,2.081479549407959,-0.47968384623527527,0.14735741913318634,-1.1947298049926758,0
850,-3.8429505825042725,-5.067978382110596,2.4434072971343994,-0.46284812688827515,0.1923827975988388,-1.1703636646270752,0
851,-6.006326198577881,4.352156639099121,2.641212224960327,-0.3046923875808716,0.12381630390882492,-1.1519482135772705,0
852,-6.2391438484191895,12.803969383239746,2.6588358879089355,-0.303367018699646,0.03665168210864067,-1.1286044120788574,0
853,-6.567089080810547,14.802495956420898,2.648683547973633,-0.4760473370552063,-0.061353545635938644,-1.0995895862579346,0
854,-5.158614158630371,16.49347496032715,2.4240570068359375,-0.7591682076454163,0.05752504989504814,-1.0536035299301147,0
855,-2.299419641494751,8.498088836669922,1.9535095691680908,-0.8849490284919739,-0.02304680645465851,-1.0309096574783325,0
856,-0.290120005607605,-1.456783413887024,2.0581037998199463,-1.3171069622039795,-0.13698886334896088,-1.0028070211410522,0
857,1.891289234161377,-7.211212158203125,2.4050192832946777,-1.0848407745361328,-0.07091856747865677,-0.9867736101150513,0
858,3.018885850906372,-17.182674407958984,2.166055917739868,-0.9470716118812561,-0.04903632402420044,-0.9665701389312744,0
859,1.5272903442382812,-21.91465187072754,2.9376440048217773,-0.6754159331321716,-0.013983497396111488,-0.9520861506462097,0
860,0.418948233127594,-17.586204528808594,3.4250648021698,-0.31062301993370056,-0.06631071120500565,-0.9407421946525574,0
861,-2.1981565952301025,-10.952948570251465,4.367423057556152,-0.008949464187026024,-0.0703686773777008,-0.9128620028495789,0
862,-5.129601001739502,-3.0488739013671875,4.164076805114746,0.023233691230416298,-0.11916455626487732,-0.8688381314277649,0
863,-6.644628047943115,0.9946268200874329,4.188282489776611,0.08738312870264053,-0.2744843661785126,-0.8396608829498291,0
864,-4.570370197296143,4.370700836181641,4.943840503692627,0.08370247483253479,-0.3595518469810486,-0.8016552329063416,0
865,-2.236341953277588,4.539037227630615,5.631868839263916,-0.15607942640781403,-0.28531622886657715,-0.7276636362075806,0
866,1.4951022863388062,11.20451545715332,6.068015098571777,-0.3415002226829529,-0.3056395947933197,-0.6614274978637695,0
867,2.092695951461792,19.243206024169922,5.446727752685547,-0.3535138964653015,-0.2747165560722351,-0.6072019934654236,0
868,3.5522937774658203,23.860925674438477,4.855310916900635,-0.46604177355766296,-0.23607029020786285,-0.5562074184417725,0
869,3.5807301998138428,25.519468307495117,4.744494915008545,-0.7363324761390686,-0.32105696201324463,-0.5178287625312805,0
870,2.413026809692383,19.80739974975586,4.674344062805176,-1.0720247030258179,-0.1942952424287796,-0.4541371762752533,0
871,0.9151316285133362,11.738672256469727,4.636091232299805,-1.3167530298233032,-0.15993927419185638,-0.4029286503791809,0
872,1.4239113330841064,-3.2605905532836914,5.14251708984375,-1.3983787298202515,-0.20681166648864746,-0.37030506134033203,0
873,1.7431261539459229,-17.243202209472656,5.434922218322754,-1.239206075668335,-0.24567249417304993,-0.3412903845310211,0
874,3.3035740852355957,-22.372161865234375,5.777928829193115,-1.1156021356582642,-0.20131586492061615,-0.27973470091819763,0
875,3.5024936199188232,-27.859588623046875,5.087594509124756,-1.0214698314666748,0.06156684085726738,-0.16852158308029175,0
876,3.737093687057495,-24.948205947875977,5.622738361358643,-0.7233819961547852,0.17746418714523315,-0.10367102921009064,0
877,1.8113386631011963,-15.933004379272461,5.4045867919921875,-0.35571563243865967,0.21837471425533295,-0.05829249322414398,0
878,-2.230259418487549,-6.925498962402344,5.024331092834473,-0.20435483753681183,0.22417263686656952,-0.006380216684192419,0
879,-6.805607795715332,8.0437593460083,4.917733669281006,-0.2184596061706543,0.36662396788597107,0.0756504088640213,0
880,-9.99724006652832,22.731992721557617,4.314332008361816,-0.3173671364784241,0.151985764503479,0.10325827449560165,0
881,-13.674250602722168,30.78968048095703,3.8140530586242676,-0.5755853652954102,-0.039950862526893616,0.13544847071170807,0
882,-11.49289608001709,25.64251708984375,3.780316114425659,-0.9986585378646851,-0.1937175840139389,0.1764412671327591,0
883,-7.752049446105957,12.58672046661377,3.4926538467407227,-1.2277518510818481,-0.3764752447605133,0.2010745257139206,0
884,-2.476943016052246,-2.880760669708252,3.2064781188964844,-1.2334498167037964,-0.42418745160102844,0.23170603811740875,0
885,4.540755748748779,-13.779984474182129,4.262117862701416,-1.0811203718185425,-0.45598751306533813,0.25514328479766846,0
886,8.269838333129883,-23.640600204467773,4.510119438171387,-0.7798877954483032,-0.3827468752861023,0.2915605306625366,0
887,12.568781852722168,-30.79276466369629,4.782695770263672,-0.823186993598938,-0.23917442560195923,0.3665440082550049,0
888,11.698616981506348,-29.543880462646484,4.560442924499512,-0.5430826544761658,-0.12396010756492615,0.4167737364768982,0
889,8.57038688659668,-18.040281295776367,4.719565391540527,-0.31101876497268677,-0.021113619208335876,0.4646388590335846,0
890,1.3582881689071655,-3.505868434906006,3.878525495529175,0.027339758351445198,0.15413285791873932,0.515946090221405,0
891,-6.44998836517334,9.696696281433105,2.7238073348999023,0.061396438628435135,0.07703609764575958,0.5430375933647156,0
892,-10.115898132324219,14.923821449279785,1.7631608247756958,-0.03383368253707886,0.03666890412569046,0.575125515460968,0
893,-9.256791114807129,3.9616944789886475,-0.17117226123809814,-0.24563151597976685,-0.3206644654273987,0.5794888734817505,0
894,-4.956541061401367,-1.6553555727005005,-0.9466131925582886,-0.24471443891525269,-0.38376644253730774,0.5792206525802612,0
895,1.5870698690414429,-8.37283706665039,-0.8197522759437561,-0.16289390623569489,-0.43418630957603455,0.5671635866165161,0
896,7.686032295227051,-14.35693073272705,-1.194870114326477,-0.021200891584157944,-0.39339518547058105,0.557318389415741,0
897,12.026153564453125,-13.998957633972168,-1.5794386863708496,0.14105039834976196,-0.2632088363170624,0.5493866205215454,0
898,13.207304954528809,-10.199779510498047,-1.9797828197479248,0.2907327711582184,-0.2195402979850769,0.5309932827949524,0
899,9.704389572143555,3.5050861835479736,-2.0244204998016357,0.10569626837968826,-0.03843197599053383,0.5370033383369446,0
900,5.841485023498535,15.251319885253906,-2.717484951019287,0.03247682377696037,0.1024564579129219,0.5229135751724243,0
901,-1.4767639636993408,23.78880500793457,-2.7474255561828613,-0.17110426723957062,0.1612783968448639,0.5020582675933838,0
902,-6.648340225219727,19.49443817138672,-2.420790433883667,-0.4622265100479126,0.1244368851184845,0.47817400097846985,0
903,-11.073454856872559,9.418044090270996,-2.8412280082702637,-0.5561503767967224,-0.0003120106994174421,0.44511282444000244,0
904,-10.538555145263672,-9.83339786529541,-2.2845988273620605,-0.5506529808044434,-0.17350736260414124,0.40772780776023865,0
905,-6.807843208312988,-17.988935470581055,-2.7971365451812744,-0.37684866786003113,-0.3326682150363922,0.3755122423171997,0
906,-1.386656403541565,-27.12190818786621,-2.7123026847839355,-0.3402371406555176,-0.42174842953681946,0.35666540265083313,0
907,6.686226844787598,-29.106124877929688,-2.5507707595825195,0.0947956070303917,-0.33769088983535767,0.3289766311645508,0
908,13.013370513916016,-30.055278778076172,-2.771427869796753,0.28546565771102905,-0.20872054994106293,0.3131275773048401,0
909,14.84678840637207,-21.327457427978516,-2.126518487930298,0.8025843501091003,-0.06904176622629166,0.2738379240036011,0
910,11.926249504089355,-8.074475288391113,-1.8621299266815186,0.801116406917572,0.08372907340526581,0.2638438045978546,0
911,6.653980731964111,2.700870990753174,-1.9748151302337646,0.8231557011604309,0.1848437488079071,0.24852308630943298,0
912,-0.3769390881061554,11.301973342895508,-2.6127195358276367,0.8299621939659119,0.26500430703163147,0.2278156578540802,0
913,-4.997262001037598,18.661582946777344,-2.6023733615875244,0.726260244846344,0.03925562649965286,0.21607784926891327,0
914,-9.474621772766113,28.127099990844727,-2.7630529403686523,0.47577446699142456,0.09593602269887924,0.18636241555213928,0
915,-8.201509475708008,35.07173156738281,-2.786001682281494,0.1327245831489563,-0.04102311283349991,0.16439934074878693,0
916,-4.74780797958374,32.996856689453125,-2.5764293670654297,-0.22162893414497375,-0.15115195512771606,0.13825106620788574,0
917,0.8028550744056702,19.036365509033203,-2.556670665740967,-0.500385582447052,-0.1985747069120407,0.1100350096821785,0
918,7.716249465942383,2.6032440662384033,-2.4779345989227295,-0.6947695016860962,-0.15141808986663818,0.08199448138475418,0
919,10.719849586486816,-6.906795978546143,-2.3897018432617188,-0.7225728631019592,-0.010408365167677402,0.05507379025220871,0
920,12.582694053649902,-13.96323013305664,-3.0317463874816895,-0.6505869626998901,0.18441231548786163,0.02963775396347046,0
921,7.111759185791016,-20.681306838989258,-3.337590217590332,-0.31765058636665344,0.14434678852558136,-0.002950987545773387,0
922,2.4808156490325928,-23.794618606567383,-2.504361867904663,-0.10174688696861267,0.25810369849205017,-0.035980526357889175,0
923,-3.6800312995910645,-12.399077415466309,-1.0616674423217773,0.16760744154453278,0.28225812315940857,-0.0632815808057785,0
924,-7.808481693267822,5.590771675109863,-0.8744298219680786,0.2959706783294678,0.21761426329612732,-0.07604513317346573,0
925,-10.280145645141602,24.584257125854492,-1.175491213798523,0.20461471378803253,0.0900816097855568,-0.0841035544872284,0
926,-9.366443634033203,37.7982177734375,-1.4685477018356323,-0.1544215977191925,0.009121046401560307,-0.09634976834058762,0
927,-5.532445430755615,42.0965690612793,-1.8100626468658447,-0.6790104508399963,-0.11992492526769638,-0.1099991723895073,0
928,1.9745738506317139,36.120033264160156,-1.9319536685943604,-1.169479250907898,-0.10338106006383896,-0.12869322299957275,0
929,7.286839485168457,19.81257438659668,-1.8553513288497925,-1.596433401107788,-0.19464820623397827,-0.14936336874961853,0
930,13.21568775177002,2.188781976699829,-1.5212408304214478,-1.7095062732696533,-0.051944293081760406,-0.16507573425769806,0
931,16.698183059692383,-20.540632247924805,-1.7909730672836304,-1.5885246992111206,0.18016381561756134,-0.17452889680862427,0
932,15.97022819519043,-39.12650680541992,-1.7234302759170532,-1.2474372386932373,0.30506446957588196,-0.1978393942117691,0
933,10.046403884887695,-47.16379928588867,-1.4896713495254517,-0.5866807699203491,0.622383177280426,-0.20398202538490295,0
934,1.3422789573669434,-46.5504150390625,-0.8140015006065369,-0.6210115551948547,0.6924257278442383,-0.23263214528560638,0
935,-8.909368515014648,-32.66507339477539,-1.2650246620178223,0.02318856678903103,0.6749580502510071,-0.25101640820503235,0
936,-16.842525482177734,-17.75369644165039,-2.0348703861236572,0.45255017280578613,0.5059577822685242,-0.27446994185447693,0
937,-20.299318313598633,-3.706131935119629,-2.4697136878967285,0.5089577436447144,0.3046172559261322,-0.30558261275291443,0
938,-17.55365753173828,4.871187686920166,-2.8380439281463623,0.3868463337421417,-0.001431369106285274,-0.3439704477787018,0
939,-10.078020095825195,10.805418014526367,-2.8591420650482178,0.3018374741077423,-0.0932919979095459,-0.37239938974380493,0
940,1.4894834756851196,15.778580665588379,-2.918107509613037,0.2490467131137848,-0.19802512228488922,-0.3984174132347107,0
941,8.977181434631348,23.216392517089844,-2.8334922790527344,0.14359210431575775,-0.21830449998378754,-0.42631545662879944,0
942,12.945151329040527,26.306957244873047,-3.099435806274414,-0.14250950515270233,-0.04828616604208946,-0.45615294575691223,0
943,14.64794635772705,25.819557189941406,-3.289605140686035,-0.38618332147598267,0.03330788016319275,-0.48706957697868347,0
944,10.706941604614258,21.10917091369629,-3.3625316619873047,-0.6816675662994385,0.25940364599227905,-0.5188864469528198,0
945,7.40620231628418,12.705313682556152,-3.6597554683685303,-0.8234608769416809,0.2127937525510788,-0.5526108145713806,0
946,2.266643524169922,-0.5515931844711304,-3.218305826187134,-0.9459657669067383,0.32592782378196716,-0.5859404802322388,0
947,-0.7598791122436523,-10.666838645935059,-3.1734023094177246,-0.8041971921920776,0.3643299341201782,-0.6144220232963562,0
948,-4.427318572998047,-20.93902015686035,-2.489315986633301,-0.7673826217651367,0.35224220156669617,-0.6477833390235901,0
949,-6.039183139801025,-20.096529006958008,-1.8713449239730835,-0.4653533697128296,0.29424574971199036,-0.6727739572525024,0
950,-5.548811435699463,-15.159638404846191,-1.5673037767410278,-0.2001173347234726,0.2147689163684845,-0.6925956606864929,0
951,-3.0708775520324707,-9.58809757232666,-1.2867459058761597,0.19535322487354279,0.2904731333255768,-0.6951640248298645,0
952,-0.007172410376369953,-0.9308084845542908,-1.5033518075942993,0.25045347213745117,0.257816880941391,-0.7116599678993225,0
953,2.0343785285949707,1.7696349620819092,-2.0988965034484863,-0.14835909008979797,0.12873411178588867,-0.7467595934867859,0
954,3.9427011013031006,-0.13165804743766785,-2.416022300720215,-0.12810654938220978,0.11556074768304825,-0.7677381634712219,0
955,4.730072498321533,-4.898374080657959,-2.3498222827911377,0.009390488266944885,0.20101459324359894,-0.7872880697250366,0
956,6.105381965637207,-7.544924736022949,-2.531151056289673,-0.08543986082077026,0.2954011857509613,-0.8168141841888428,0
957,5.244503021240234,-7.855173587799072,-1.9732191562652588,0.07877699285745621,0.3971567153930664,-0.8394930362701416,0
958,3.6486384868621826,-5.30797815322876,-1.5606653690338135,0.16247588396072388,0.2738550901412964,-0.8625134825706482,0
959,1.864976406097412,-5.345208644866943,-1.4401111602783203,0.37477433681488037,0.3460997939109802,-0.8738797903060913,0
960,-0.34746286273002625,2.0440890789031982,-1.2315210103988647,0.3994476795196533,0.3836080729961395,-0.8911505937576294,0
961,-0.9793223142623901,12.306244850158691,-1.254204511642456,0.3052947223186493,0.39657118916511536,-0.9078234434127808,0
962,-1.167488694190979,18.257991790771484,-1.1666456460952759,-0.006056633312255144,0.39911943674087524,-0.9295085668563843,0
963,-0.10195918381214142,17.0311279296875,-1.169428825378418,-0.10640428960323334,0.4035010039806366,-0.9371822476387024,0
964,2.9969661235809326,13.301065444946289,-1.4166884422302246,-0.2727011442184448,0.49030664563179016,-0.9512752890586853,0
965,4.709312915802002,6.219543933868408,-1.3286839723587036,-0.4287276566028595,0.4595288038253784,-0.9649380445480347,0
966,3.2820332050323486,-2.1946284770965576,-1.328413724899292,-0.40041449666023254,0.5221335291862488,-0.9736519455909729,0
967,2.455348253250122,-13.180119514465332,-1.6915514469146729,-0.3632213771343231,0.5680409669876099,-0.9861499071121216,0
968,1.2868865728378296,-26.02567481994629,-1.9024790525436401,-0.14655616879463196,0.6036002039909363,-0.9961109757423401,0
969,-2.199434280395508,-34.51005172729492,-1.5372130870819092,0.1843918114900589,0.6153286099433899,-1.0087553262710571,0
970,-3.1224653720855713,-31.29245948791504,-1.0984032154083252,0.6589468121528625,0.5918397307395935,-1.0156859159469604,0
971,-5.582666397094727,-23.64274024963379,-0.6921725273132324,0.7202969193458557,0.6157095432281494,-1.0495332479476929,0
972,-8.869423866271973,-8.36755084991455,-0.4638328552246094,0.9249756336212158,0.5901709794998169,-1.0608136653900146,0
973,-8.149935722351074,3.107167959213257,0.2508464455604553,0.985609233379364,0.4501335620880127,-1.062733769416809,0
