,gyro.x,gyro.y,gyro.z,stabilizer.pitch,stabilizer.roll,stabilizer.yaw,label
0,0.03259504958987236,0.038974031805992126,-0.07941895723342896,-0.03737090528011322,0.39743518829345703,-1.6107957363128662,0
1,0.08584350347518921,0.054165903478860855,0.046719592064619064,-0.11098162084817886,0.6419069170951843,-1.6090176105499268,0
2,0.014377367682754993,0.006558647844940424,-0.11359995603561401,-0.1032123789191246,0.5728474855422974,-1.607697606086731,0
3,-0.030892742797732353,-0.018437329679727554,-0.018013274297118187,-0.09740317612886429,0.5188785791397095,-1.607011318206787,0
4,0.04925956949591637,0.05156324803829193,3.280785313108936e-05,-0.09274186193943024,0.2256012111902237,-1.6066968441009521,0
5,-0.03194578364491463,0.13200893998146057,0.13338063657283783,-0.08974197506904602,0.255845308303833,-1.604994535446167,0
6,0.042997442185878754,0.07726980000734329,0.10654203593730927,-0.08768241852521896,0.2787858545780182,-1.6020175218582153,0
7,0.01618216186761856,-0.04654368385672569,-0.06673647463321686,-0.08552236109972,0.29752281308174133,-1.5997698307037354,0
8,0.033780280500650406,0.009428438730537891,0.06421059370040894,-0.08282971382141113,0.31247231364250183,-1.5981930494308472,0
9,-0.04629362374544144,0.026401827111840248,0.08930908888578415,-0.018175754696130753,0.07089882344007492,-1.5982778072357178,0
10,0.028107527643442154,-0.05173405259847641,0.07711236923933029,-0.09579573571681976,0.6428330540657043,-1.5947293043136597,0
11,0.025255966931581497,0.037431370466947556,0.00028170639416202903,-0.02797890082001686,0.13169915974140167,-1.593307614326477,0
12,-0.06862789392471313,0.01490115001797676,0.11407163739204407,-0.040299899876117706,0.1867401897907257,-1.5914669036865234,0
13,0.0421309731900692,-0.0007481634384021163,-0.02817656844854355,-0.04969954863190651,0.41635996103286743,-1.589903712272644,0
14,0.1190095916390419,-0.05621695518493652,0.030114581808447838,-0.11988724768161774,0.6546396017074585,-1.5879645347595215,0
15,0.07500071823596954,0.0071890163235366344,0.003401691559702158,-0.10845356434583664,0.07953424006700516,-1.5863757133483887,0
16,-0.01882302388548851,-0.06450850516557693,0.03613027185201645,-0.10040990263223648,0.1472949981689453,-1.5843229293823242,0
17,0.014263678342103958,0.01176514383405447,-0.21220830082893372,-0.09424782544374466,0.4502095580101013,-1.5811960697174072,0
18,-0.05857425928115845,0.01679278537631035,0.048415299504995346,-0.08884570002555847,0.23834942281246185,-1.581621766090393,0
19,-0.05502878129482269,-0.00022439083841163665,-0.07449010759592056,-0.08483177423477173,0.45661571621894836,-1.579380989074707,0
20,0.041270893067121506,0.07436815649271011,-0.0838363990187645,-0.14497628808021545,0.4317682087421417,-1.5777338743209839,0
21,-0.09080470353364944,0.021517900750041008,-0.036077938973903656,-0.12722888588905334,0.22367361187934875,-1.5780507326126099,0
22,-0.05027073621749878,-0.054539550095796585,-0.013633363880217075,-0.05075955018401146,0.44512563943862915,-1.5759788751602173,0
23,-0.0720861479640007,-0.012869924306869507,-0.006537572480738163,-0.055783193558454514,0.6754295229911804,-1.5737619400024414,0
24,0.0975656658411026,0.019055310636758804,0.003195027122274041,-0.05977490544319153,0.5968749523162842,-1.572571039199829,0
25,0.02611030824482441,-0.044588714838027954,0.005834291223436594,-0.06283080577850342,0.034603673964738846,-1.5717180967330933,0
26,0.03764105215668678,-0.02128596231341362,-0.09073793888092041,-0.0012850278289988637,0.3635222017765045,-1.5705490112304688,0
27,0.040944453328847885,-0.06471887230873108,-0.09977421909570694,-0.08177415281534195,0.17196309566497803,-1.568237543106079,0
28,0.017412036657333374,0.01953408680856228,0.09722261875867844,-0.07971595972776413,0.40612852573394775,-1.5685495138168335,0
29,0.06077957525849342,0.19799986481666565,0.035815656185150146,-0.07952321320772171,0.4573429822921753,-1.5667074918746948,0
30,-0.042208004742860794,-0.0006654172902926803,-0.04346567764878273,-0.08060084283351898,0.4326978921890259,-1.5650147199630737,0
31,0.04293868690729141,-0.015481056645512581,0.08272168040275574,-0.07952824234962463,0.41346248984336853,-1.5637905597686768,0
32,0.03314113989472389,0.02362440526485443,-0.05547207221388817,-0.07809101790189743,0.14567933976650238,-1.5620198249816895,0
33,-0.012318456545472145,-0.00660322280600667,0.0011243103072047234,-0.07836290448904037,0.3227331340312958,-1.5606225728988647,0
34,0.06428912281990051,-0.03135419636964798,-0.03894992545247078,-0.07816340029239655,0.20515023171901703,-1.5591429471969604,0
35,-0.14533518254756927,-0.04625798016786575,0.033678632229566574,-0.07688327133655548,0.6840733885765076,-1.5579758882522583,0
36,0.10848718136548996,0.1548900008201599,-0.09446504712104797,-0.07639472186565399,0.6035518646240234,-1.5564780235290527,0
37,0.012940998189151287,-0.004940875340253115,0.07328679412603378,-0.07773488014936447,0.3532320261001587,-1.5555013418197632,0
38,-0.035413261502981186,0.08045543730258942,-0.06538949906826019,-0.014597070403397083,0.09944932162761688,-1.5530319213867188,0
39,0.04000263288617134,0.1208837553858757,-0.1068035289645195,-0.09343989938497543,0.35069605708122253,-1.5522384643554688,0
40,-0.15194323658943176,-0.05964166671037674,-0.03470635786652565,-0.09429137408733368,0.3508548140525818,-1.5513969659805298,0
41,0.030373938381671906,0.05347127839922905,-0.09445753693580627,-0.09172016382217407,0.6034172773361206,-1.5500972270965576,0
42,0.10786857455968857,0.0019593345932662487,0.02024940215051174,-0.09035970270633698,0.5416062474250793,-1.5495442152023315,0
43,-0.03178577497601509,0.05027800798416138,-0.10245683044195175,-0.0894811749458313,0.24208736419677734,-1.548532247543335,0
44,-0.009917138144373894,-0.02458074688911438,0.017472943291068077,-0.08889568597078323,0.5201292037963867,-1.5468363761901855,0
45,0.04576484486460686,-0.07340593636035919,-0.07464729249477386,-0.08797016739845276,0.28896844387054443,-1.5458967685699463,0
46,-0.028384050354361534,-0.048571497201919556,0.00632082112133503,-0.08655932545661926,0.05080927535891533,-1.5457302331924438,0
47,0.014114655554294586,-0.023644758388400078,0.01751529425382614,-0.08548925817012787,0.12395075708627701,-1.5436123609542847,0
48,0.004610487725585699,0.1500357836484909,0.007671315222978592,-0.08522806316614151,0.620145320892334,-1.540510892868042,0
49,-0.014218667522072792,0.0017641715239733458,0.008702301420271397,-0.08622968941926956,0.36541759967803955,-1.5394623279571533,0
50,-0.052086908370256424,0.08943203091621399,-0.0359485037624836,-0.08691888302564621,0.04601631686091423,-1.5385386943817139,0
51,0.14508670568466187,0.09477691352367401,-0.046934936195611954,-0.08849900215864182,0.12059392035007477,-1.5372644662857056,0
52,-0.06334922462701797,-0.024159038439393044,0.03144467994570732,-0.026280010119080544,0.6823846101760864,-1.536538004875183,0
53,-0.16553503274917603,-0.005057202652096748,-0.07728695869445801,-0.10517410933971405,0.4120766520500183,-1.5336904525756836,0
54,0.01325613260269165,0.03124142438173294,-0.0008111430215649307,-0.10241235047578812,0.3957211375236511,-1.532380223274231,0
55,-0.031080981716513634,-0.011451361700892448,-0.07765521109104156,-0.10044721513986588,0.5729656219482422,-1.5302492380142212,0
56,0.02532993257045746,0.02024131454527378,0.03237434849143028,-0.09879939258098602,0.07654042541980743,-1.530658483505249,0
57,-0.0676831528544426,0.12625357508659363,-0.030279630795121193,-0.09803208708763123,0.5839263200759888,-1.5267680883407593,0
58,0.10938604176044464,0.004617700353264809,-0.01775454916059971,-0.09831757843494415,0.5257564187049866,-1.5262030363082886,0
59,0.05080344155430794,0.09735758602619171,0.17733421921730042,-0.09773963689804077,0.291698694229126,-1.5257759094238281,0
60,0.022322630509734154,0.028699966147542,-0.04306429624557495,-0.09799470007419586,0.05192269757390022,-1.5246001482009888,0
61,-0.00742946844547987,-0.04216122627258301,-0.03845963254570961,-0.03468019887804985,0.31223687529563904,-1.5222585201263428,0
62,0.07469221949577332,-0.014125455170869827,-0.06289175152778625,-0.11188315600156784,0.3211089074611664,-1.5198310613632202,0
63,-0.026652146130800247,0.06546612083911896,0.00426778569817543,-0.10721521824598312,0.32876357436180115,-1.5190519094467163,0
64,0.094014972448349,-0.03299228847026825,-0.10175316035747528,-0.10402069240808487,0.5866771936416626,-1.5167795419692993,0
65,0.019387951120734215,-0.03782585635781288,-0.02625535987317562,-0.10053275525569916,0.5292635560035706,-1.5161006450653076,0
66,0.07297895848751068,-0.03616676852107048,0.014275307767093182,-0.09732811897993088,0.29613158106803894,-1.5168486833572388,0
67,-0.03040320612490177,0.06483515352010727,0.001080149319022894,-0.09423704445362091,0.24585819244384766,-1.5156433582305908,0
68,0.09868782013654709,-0.007089621853083372,-0.0491509847342968,-0.09256710112094879,0.5226985216140747,-1.513034462928772,0
69,-0.02334272488951683,0.049730125814676285,-0.009835068136453629,-0.09113653749227524,0.03924207389354706,-1.51424241065979,0
70,0.0025316616520285606,0.03418438881635666,0.04663221910595894,-0.08954464644193649,0.3041955828666687,-1.5117366313934326,0
71,0.014287483878433704,0.01423052977770567,0.08028076589107513,-0.08792207390069962,0.5681253671646118,-1.5087075233459473,0
72,-0.021293042227625847,-0.023152323439717293,-0.015239599160850048,-0.08703790605068207,0.5145761370658875,-1.5066335201263428,0
73,0.12057052552700043,-0.006902686320245266,-0.015333328396081924,-0.023287858814001083,0.03267605975270271,-1.505761981010437,0
74,0.045663025230169296,0.02782507799565792,0.02516232617199421,-0.03781941533088684,0.5520179867744446,-1.5053659677505493,0
75,-0.02300160750746727,0.006500451825559139,0.03262713924050331,-0.11222046613693237,-0.00031042631599120796,-1.501556158065796,0
76,0.030771125108003616,-0.0393974594771862,0.06055138260126114,-0.10450869798660278,0.2758033573627472,-1.4999994039535522,0
77,0.0019973767921328545,0.08110010623931885,-0.02677677571773529,-0.09863235056400299,0.6123972535133362,-1.4981900453567505,0
78,-0.08161615580320358,-0.04164877533912659,-0.022186260670423508,-0.15826357901096344,0.5496487021446228,-1.4969192743301392,0
79,0.044673338532447815,-0.055296655744314194,-0.0002611430536489934,-0.13946539163589478,0.24849668145179749,-1.497373342514038,0
80,0.09065854549407959,0.0005032978951931,-0.01679704338312149,-0.12415487319231033,0.274115651845932,-1.495438814163208,0
81,-0.03155774250626564,0.05040368810296059,0.05017026886343956,0.013281294144690037,0.2942958176136017,-1.494728684425354,0
82,-0.09672798216342926,-0.028077905997633934,0.09753060340881348,-0.07258691638708115,0.3090144991874695,-1.4918559789657593,0
83,0.007531942334026098,0.03591053932905197,-0.02013179287314415,-0.07485175877809525,0.3196662664413452,-1.4896070957183838,0
84,-0.002714873757213354,-0.06380506604909897,-0.08958371728658676,-0.07652046531438828,0.5812708735466003,-1.488503098487854,0
85,-0.002365756779909134,-0.02476765215396881,-0.0192647036164999,-0.0770830437541008,0.2745193839073181,-1.4871379137039185,0
86,0.05330578237771988,0.03222903236746788,-0.04777270182967186,-0.07895942032337189,0.5470665097236633,-1.4863837957382202,0
87,-0.009397258050739765,0.016468267887830734,-0.05424785986542702,-0.017313823103904724,0.5009387731552124,-1.4850000143051147,0
88,0.03011629916727543,-0.0481160432100296,0.06758010387420654,-0.1598483771085739,0.21285974979400635,-1.4848301410675049,0
89,0.06817472726106644,0.11102697998285294,0.07159499078989029,-0.14102883636951447,0.24847249686717987,-1.4828879833221436,0
90,-0.04585089907050133,-0.062368832528591156,-0.020062221214175224,-0.12678155303001404,0.5280517339706421,-1.479278802871704,0
91,0.012592732906341553,-0.058490090072155,0.01832050457596779,-0.05163965001702309,0.48575058579444885,-1.4774142503738403,0
92,0.08690425753593445,-0.052583687007427216,-0.04334861785173416,-0.05710287392139435,0.26386362314224243,-1.476245641708374,0
93,-0.10246968269348145,-0.010828948579728603,0.08656026422977448,-0.12438957393169403,0.4752251207828522,-1.4749723672866821,0
94,0.08978453278541565,0.04159499704837799,0.03925168886780739,-0.11229515075683594,0.4446581304073334,-1.4729282855987549,0
95,-0.07123816758394241,0.04360209032893181,-0.0650569424033165,-0.050639331340789795,0.5116437673568726,-1.469441533088684,0
96,0.13246217370033264,0.02041034772992134,0.16635240614414215,-0.05816100537776947,0.2203906625509262,-1.4673426151275635,0
97,0.056744661182165146,-0.14130684733390808,-0.06465857475996017,-0.12684543430805206,0.19065217673778534,-1.464026927947998,0
98,0.03847547248005867,-0.012953903526067734,-0.017898906022310257,-0.05103115737438202,0.10524977743625641,-1.464356541633606,0
99,-0.052552852779626846,0.08165305852890015,0.11110851913690567,-0.057466961443424225,0.10454264283180237,-1.463212490081787,0
100,-0.039072390645742416,0.12838789820671082,-0.03053942136466503,-0.0635063424706459,0.16839848458766937,-1.460868239402771,0
101,-0.012248281389474869,0.10376329720020294,0.01735750585794449,-0.06882009655237198,0.46929991245269775,-1.4604192972183228,0
102,0.01446562446653843,0.01980721391737461,0.02205956168472767,-0.07243630290031433,0.6975483894348145,-1.459375262260437,0
103,0.022711679339408875,0.0888025090098381,0.0020210088696330786,-0.07464960962533951,0.6169005632400513,-1.4577600955963135,0
104,-0.037285126745700836,-0.03205128386616707,-0.06434773653745651,-0.07680550217628479,0.3656092882156372,-1.4553931951522827,0
105,0.07249558717012405,-0.023632345721125603,-0.006424827501177788,-0.07750260084867477,0.5522556900978088,-1.4546030759811401,0
106,-0.056845903396606445,0.10041128844022751,-0.03188927471637726,-0.07742404192686081,0.5041377544403076,-1.4530913829803467,0
107,0.04169861227273941,-0.0037743691354990005,0.09271720796823502,-0.07744091749191284,0.4664629399776459,-1.4517064094543457,0
108,-0.09190092235803604,0.047846853733062744,-0.09455759823322296,-0.07715779542922974,0.43737849593162537,-1.4496222734451294,0
109,0.018737904727458954,-0.05113096162676811,0.04110923036932945,-0.13997742533683777,0.41453930735588074,-1.4498177766799927,0
110,-0.04519375041127205,0.05624806508421898,-0.1007455438375473,-0.12416155636310577,0.3969191610813141,-1.4481557607650757,0
111,-0.006889078766107559,-0.013541856780648232,-0.10848534107208252,-0.04982516169548035,0.3833964765071869,-1.4462318420410156,0
112,0.045658402144908905,0.05692572891712189,0.013978845439851284,-0.05706615373492241,0.18435443937778473,-1.4458564519882202,0
113,0.003320181043818593,-0.05463651940226555,0.08237802237272263,-0.06271872669458389,0.41289567947387695,-1.444919228553772,0
114,0.03852776437997818,0.047891031950712204,-0.03693839907646179,-0.06615152209997177,0.08125782012939453,-1.4418716430664062,0
115,-0.01230582408607006,0.005430579651147127,0.047470297664403915,-0.06863443553447723,0.4613836407661438,-1.4419564008712769,0
116,0.004067114554345608,0.10848665982484818,0.031967103481292725,-0.07159161567687988,0.43388018012046814,-1.4401377439498901,0
117,0.06758300215005875,-0.014712614938616753,-0.04764588549733162,-0.010802900418639183,-0.028072556480765343,-1.4371439218521118,0
118,0.06761693209409714,0.033122047781944275,-0.009229539893567562,-0.09084900468587875,0.5050390958786011,-1.4371238946914673,0
119,0.023455409333109856,-0.010803662240505219,-0.05440719798207283,-0.08819251507520676,0.28000250458717346,-1.4347976446151733,0
120,-0.03558305650949478,0.07443469017744064,-0.0194135420024395,-0.08672494441270828,0.48824936151504517,-1.4341788291931152,0
121,0.036644596606492996,0.11838056147098541,0.09690201282501221,-0.08672633022069931,0.26643770933151245,-1.4330192804336548,0
122,0.03738574683666229,-2.4068154743872583e-05,-0.04442397132515907,-0.0860896036028862,0.2884114682674408,-1.4307893514633179,0
123,-0.047090914100408554,0.034197188913822174,0.0579039566218853,-0.08456479012966156,0.494210809469223,-1.4295401573181152,0
124,0.04947459325194359,0.0764770582318306,-0.04692956060171127,-0.08420541882514954,0.018008137121796608,-1.4281105995178223,0
125,-0.00437959423288703,-0.06762339174747467,-0.03722955286502838,-0.0836765244603157,0.28965887427330017,-1.4265546798706055,0
126,-0.002667951863259077,0.0015796516090631485,0.03209087252616882,-0.08225282281637192,0.30741021037101746,-1.4257721900939941,0
127,-0.0486440546810627,0.03392140939831734,0.03831828013062477,-0.08140973746776581,0.32052499055862427,-1.4241050481796265,0
128,0.0627908781170845,-0.022464387118816376,0.012958379462361336,-0.08069421350955963,0.32979658246040344,-1.4225293397903442,0
129,0.06057143956422806,0.02691785618662834,-0.036857109516859055,0.0,0.0,0.0,0
130,0.02499556727707386,0.10657813400030136,-0.03685009479522705,-0.0009169962140731514,-0.6058844327926636,-0.0003879977739416063,0
131,-0.06782735884189606,0.10348150134086609,0.0033006188459694386,-0.0027064436580985785,-0.10123539716005325,-0.0006389606278389692,0
132,0.03673293814063072,0.019973348826169968,0.004642711486667395,-0.006424264516681433,1.7479603290557861,-0.0004909198614768684,0
133,0.00815221481025219,0.05691361054778099,-0.04576103761792183,-0.012677937746047974,3.635341167449951,-0.0001364142372040078,0
134,-0.006961854640394449,0.030332501977682114,0.07485376298427582,-0.01522955670952797,0.41099104285240173,-0.0008028142037801445,0
135,-0.07499375194311142,0.16608425974845886,-0.10144972056150436,-0.028891442343592644,0.43292897939682007,-0.0002687490778043866,0
136,0.013994349166750908,-0.045888375490903854,0.12278035283088684,-0.040170084685087204,2.5549023151397705,0.00012692772725131363,0
137,0.045988358557224274,0.08977961540222168,-0.010901948437094688,-0.04522142931818962,1.8493480682373047,0.00015692849410697818,0
138,-0.04380461573600769,0.014553472399711609,0.04804297164082527,-0.05802540108561516,-0.01144749391824007,-0.0016309438506141305,0
139,0.10709041357040405,0.019408559426665306,0.012809253297746181,-0.4813532829284668,0.09131868183612823,-0.004812163300812244,0
140,-0.047224365174770355,-0.03127725049853325,-0.13215303421020508,-0.3484001159667969,-1.3835395574569702,-0.013589276932179928,0
141,-0.019370876252651215,-0.0040486347861588,0.05874461680650711,0.0915711373090744,1.6345158815383911,-0.0032838531769812107,0
142,-0.008101457729935646,0.07988709956407547,-0.02073110267519951,0.04136617109179497,1.2457197904586792,-0.003156650811433792,0
143,0.014637984335422516,-0.02542833983898163,0.05465902015566826,0.008587341755628586,0.9752122163772583,-0.0035070350859314203,0
144,0.011473141610622406,-0.005310301668941975,-0.02320966310799122,-0.011497531086206436,0.7799243330955505,-0.003536656266078353,0
145,0.012008840218186378,-0.10508378595113754,-0.007353992201387882,-0.026014769449830055,0.6488388180732727,-0.0037545764353126287,0
146,-0.012968729250133038,0.03007105365395546,0.007568825967609882,-0.03568125516176224,-0.4299945533275604,-0.0037431728560477495,0
147,0.0833333432674408,0.002439893316477537,0.033691029995679855,-0.0425085686147213,0.7103903889656067,-0.003640278009697795,0
148,0.0043326267041265965,0.021872589364647865,-0.012674574740231037,-0.2664213478565216,0.6045780181884766,-0.0003304829588159919,0
149,0.011356196366250515,-0.016653774306178093,-0.023566266521811485,-0.209755077958107,-0.08786241710186005,-0.0036836678627878428,0
150,0.07991044968366623,0.04968482628464699,0.08697023242712021,-0.1682949960231781,-0.7539488673210144,-0.007736060302704573,0
151,-0.003447215771302581,0.030604643747210503,-0.033804140985012054,-0.14141826331615448,0.8328693509101868,0.0006957007572054863,0
152,-0.023004550486803055,0.016527334228157997,0.05821581184864044,-0.12043110281229019,0.6980922818183899,-0.0006161856581456959,0
153,0.11544786393642426,0.017607981339097023,-0.14266255497932434,0.0629764050245285,-0.5794833898544312,-0.008285692892968655,0
154,-0.06648245453834534,0.024769995361566544,-0.08620084822177887,0.02914288453757763,-0.013774185441434383,-0.008369232527911663,0
155,0.03904973343014717,-0.032204147428274155,0.06495837867259979,0.005146401468664408,0.2353690266609192,-0.008488131687045097,0
156,0.06415022164583206,-0.049342624843120575,-0.007596734911203384,-0.012530256994068623,0.26512402296066284,-0.007516235113143921,0
157,-0.06223767250776291,0.03802602365612984,0.054589804261922836,-0.02595323696732521,0.8657751679420471,-0.008355761878192425,0
158,-0.022187864407896996,0.09147961437702179,0.004549567122012377,-0.03656210005283356,0.31130683422088623,-0.006355594843626022,0
159,0.1280447542667389,-0.02524768002331257,-0.06873305141925812,-0.04599045589566231,-0.21708105504512787,-0.004812425933778286,0
160,-0.01183097530156374,-0.01239638403058052,-0.07454154640436172,0.0786975622177124,-0.06978627294301987,-0.008539684116840363,0
161,0.082143135368824,0.021667098626494408,0.10914894938468933,-0.08666923642158508,0.2909454107284546,-0.005571412388235331,0
162,-0.014217267744243145,-0.09538308531045914,-0.06665240973234177,-0.0840335562825203,0.06131516396999359,-0.004484144039452076,0
163,-0.0384041853249073,-0.009261907078325748,0.018133655190467834,-0.08104493468999863,0.49411457777023315,-0.005509513895958662,0
164,-0.02216644585132599,0.062044933438301086,0.01453339122235775,-0.07993433624505997,0.9222970604896545,-0.005291702691465616,0
165,0.005640616174787283,-0.0130931930616498,0.06813058257102966,-0.07907237112522125,0.7760818600654602,-0.005106181837618351,0
166,-0.07289885729551315,-0.05057401582598686,-0.027881352230906487,-0.07772661000490189,-0.10660521686077118,-0.005446248687803745,0
167,0.024138467386364937,-0.1366463005542755,-0.10058826208114624,-0.07539268583059311,0.4415067434310913,-0.00512283481657505,0
168,0.013105328194797039,-0.08465077728033066,0.02425118163228035,-0.07211170345544815,0.7345892786979675,-0.0055682603269815445,0
169,0.05827449634671211,-0.019771037623286247,-0.16225291788578033,-0.07072106748819351,0.3261716663837433,-0.006257416680455208,0
170,0.03636549040675163,-0.03298418968915939,0.013358822092413902,0.031586822122335434,0.6370343565940857,-0.007861003279685974,0
171,0.08098414540290833,-0.02235560119152069,-0.05047215148806572,-0.09416617453098297,-0.13393929600715637,-0.007173752412199974,0
172,-0.03443572670221329,-0.07484176009893417,0.015935108065605164,-0.08790549635887146,0.18403375148773193,-0.007602427154779434,0
173,-0.0739135891199112,0.09347566962242126,-0.04184933751821518,-0.08384914696216583,0.7078762054443359,-0.00704978546127677,0
174,0.046422287821769714,0.06588263064622879,0.02514834702014923,-0.08183766901493073,0.3328206241130829,-0.008069336414337158,0
175,-0.08844882249832153,0.09132475405931473,0.004294543527066708,-0.0806502103805542,0.6155853271484375,-0.007250679656863213,0
176,0.0010980425868183374,0.03607203811407089,0.0012989675160497427,-0.07938890904188156,0.18124346435070038,-0.008233482018113136,0
177,-0.025361482053995132,0.051153212785720825,-0.02227347157895565,-0.0792304128408432,-0.04720865190029144,-0.008720503188669682,0
178,0.013268440961837769,-0.0636194720864296,0.025767797604203224,-0.07930567860603333,0.318602979183197,-0.007893070578575134,0
179,-0.09513314068317413,0.10696560144424438,0.02909342758357525,-0.07938364148139954,0.41464605927467346,-0.007309785112738609,0
180,-0.016311250627040863,0.014370756223797798,-0.04050547257065773,-0.07944618910551071,0.6586810946464539,-0.006284407805651426,0
181,0.0571012981235981,0.09905631840229034,0.048170723021030426,-0.07829039543867111,0.32537806034088135,-0.007362713571637869,0
182,0.042261626571416855,0.03369515389204025,0.02290666662156582,-0.0777077004313469,0.5859971046447754,-0.0063968198373913765,0
183,-0.0921129658818245,0.07978449761867523,0.0008430995512753725,-0.0775950700044632,0.5259883999824524,-0.006166602484881878,0
184,0.060487911105155945,0.08120635151863098,0.010984297841787338,-0.07815021276473999,0.47978559136390686,-0.00582370487973094,0
185,0.03992331773042679,0.002773038577288389,0.001749230781570077,-0.07885214686393738,0.11789821088314056,-0.006618235260248184,0
186,0.05164888873696327,-0.001425560680218041,0.00960567221045494,-0.0785556212067604,0.17468976974487305,-0.006586520466953516,0
187,-0.06326907873153687,0.05674789845943451,-0.006365128792822361,-0.07906372100114822,0.5387305021286011,-0.005854050628840923,0
188,0.039102718234062195,0.055157821625471115,-0.008940118364989758,-0.07936017215251923,0.2520666718482971,-0.006879161112010479,0
189,-0.01017515268176794,-0.00044329988304525614,0.05565321072936058,-0.07941380143165588,0.2751747965812683,-0.006636238656938076,0
190,0.1629447042942047,0.061869632452726364,-0.06454207003116608,-0.07949329167604446,0.2944568991661072,-0.005847816355526447,0
191,-0.09997803717851639,-0.006554043386131525,-0.10393598675727844,-0.07966384291648865,0.3091379702091217,-0.00621451623737812,0
192,-0.00541069358587265,0.006482137832790613,-0.07414852827787399,-0.08046840876340866,0.5503036379814148,-0.0064787729643285275,0
193,-0.06605266034603119,0.00047284807078540325,-0.02917489781975746,-0.08084184676408768,0.5003798007965088,-0.00745075149461627,0
194,0.02805650234222412,-0.017286447808146477,-0.05548078194260597,-0.0808040201663971,0.23436039686203003,-0.008571701124310493,0
195,-0.06212818622589111,0.0725502148270607,-0.0418330579996109,-0.08144517242908478,0.4871281683444977,-0.008406145498156548,0
196,0.11931024491786957,0.06769809126853943,-0.10458231717348099,-0.08321597427129745,0.4518234431743622,-0.008946912363171577,0
197,0.020968331024050713,0.016342079266905785,0.013025157153606415,-0.0837196484208107,0.20295743644237518,-0.010273220017552376,0
198,0.04270613566040993,-0.07214535027742386,0.007382567506283522,-0.08271929621696472,0.45931529998779297,-0.009540889412164688,0
199,-0.030301492661237717,0.07402805238962173,-0.034729305654764175,-0.08151769638061523,0.4297991394996643,-0.009619282558560371,0
200,0.0064154877327382565,0.061807963997125626,0.004571268334984779,-0.0808856412768364,0.4072738289833069,-0.010012765415012836,0
201,0.07559958845376968,-0.05720134079456329,-0.0291338711977005,-0.08062583208084106,0.1733982414007187,-0.01075406651943922,0
202,0.01111464761197567,0.04469618201255798,-0.04758588597178459,-0.08065007627010345,0.2155604511499405,-0.011083193123340607,0
203,-0.022843383252620697,0.1417919397354126,0.07391903549432755,-0.08192721009254456,0.4631245732307434,-0.011129999533295631,0
204,-0.16366487741470337,0.0423584021627903,0.023493584245443344,-0.08337962627410889,0.4324163794517517,-0.010518203489482403,0
205,0.10893349349498749,-0.172354593873024,-0.020366039127111435,-0.08272770792245865,0.19635221362113953,-0.010803905315697193,0
206,0.05878337100148201,0.05624821037054062,0.061989590525627136,-0.010989597998559475,0.4450811743736267,-0.011424409225583076,0
207,0.03041653335094452,-0.03932376950979233,-0.030431656166911125,-0.029221175238490105,-0.07342761754989624,-0.010639817453920841,0
208,0.0523529127240181,-0.10858432948589325,0.02977169305086136,-0.042468711733818054,0.029420875012874603,-0.010889063589274883,0
209,0.19362160563468933,0.08791205286979675,-0.03268931061029434,-0.12241508811712265,0.5955184102058411,-0.009229963645339012,0
210,0.4541553258895874,-0.34297382831573486,0.8867666721343994,-0.11341235041618347,0.5378519296646118,-0.009729541838169098,0
211,-0.3959577679634094,0.44190436601638794,0.1581951379776001,-0.10699557512998581,0.0042071836069226265,-0.007486458867788315,0
212,-0.33224624395370483,0.39856430888175964,0.16284042596817017,-0.10420755296945572,0.28790634870529175,-0.007871272042393684,0
213,1.0345392227172852,0.6086092591285706,0.7990951538085938,-0.09219647943973541,0.5786074995994568,-0.007878377102315426,0
214,-0.6550673246383667,2.6025969982147217,0.7777124047279358,-0.084467813372612,0.5077958703041077,-0.006371425464749336,0
215,-2.116168260574341,0.38804054260253906,-3.550713539123535,-0.034360580146312714,-0.0454581119120121,-0.006892868783324957,0
216,0.5469777584075928,0.5123032331466675,-0.6443349123001099,-0.12379183620214462,0.02339589223265648,-0.03807844594120979,0
217,-0.568280041217804,0.03750808537006378,0.9130703806877136,-0.12242072820663452,0.08586044609546661,-0.03876500576734543,0
218,-2.796415090560913,0.6168847680091858,-0.3847712576389313,-0.13519437611103058,0.3164675831794739,-0.03549407050013542,0
219,1.0979785919189453,-3.2717604637145996,-1.0130224227905273,-0.12609027326107025,0.2931857705116272,-0.040709372609853745,0
220,-1.597096562385559,1.228790521621704,-0.04669440537691116,-0.10148860514163971,0.5493816137313843,-0.04791492968797684,0
221,3.1029887199401855,-1.6029164791107178,1.4891486167907715,-0.09273365885019302,0.4628235697746277,-0.04915469512343407,0
222,4.518094539642334,-5.553377628326416,0.0937383696436882,-0.03899130970239639,0.254612535238266,-0.03781518340110779,0
223,-4.0034260749816895,2.664942741394043,1.6591050624847412,0.014558190479874611,0.020370902493596077,-0.03645182028412819,0
224,-9.452733039855957,7.731494903564453,3.045287609100342,-0.06099594011902809,-0.07761719077825546,-0.017777929082512856,0
225,-2.109226703643799,-6.880549907684326,1.8048335313796997,0.05742618814110756,-0.07777194678783417,0.005697923246771097,0
226,-0.9938093423843384,-2.2557859420776367,5.378042221069336,-0.06743967533111572,-0.02935098484158516,0.03168709576129913,0
227,0.21385157108306885,-3.4131195545196533,3.8930065631866455,0.057550109922885895,-0.45709577202796936,0.07545536756515503,0
228,0.4829094707965851,-3.9465672969818115,5.513540744781494,0.07465261965990067,-0.5434845089912415,0.11551021784543991,0
229,9.908854484558105,-3.188736915588379,2.773364782333374,-0.15377505123615265,-0.5843563675880432,0.18903370201587677,0
230,10.157776832580566,-13.87090015411377,0.021953251212835312,-0.02009236440062523,-0.5002873539924622,0.2102169543504715,0
231,15.171342849731445,-2.508183717727661,1.3800891637802124,-0.24383163452148438,-0.66165691614151,0.24776600301265717,0
232,-23.704303741455078,3.9718823432922363,4.268279552459717,-0.15328392386436462,-0.5478512048721313,0.2553926110267639,0
233,-8.126320838928223,15.204887390136719,5.401172161102295,-0.25391507148742676,-1.0108206272125244,0.30753493309020996,0
234,22.02985191345215,16.553600311279297,4.9227166175842285,-0.5477414727210999,-0.7996062636375427,0.386535108089447,0
235,20.721017837524414,-8.551647186279297,4.012207984924316,-0.7351738214492798,-0.7982949018478394,0.4278484880924225,0
236,18.687578201293945,-33.27016830444336,1.8321561813354492,-0.7413967251777649,-0.4978204369544983,0.4817492365837097,0
237,27.310375213623047,-42.42140579223633,2.7422831058502197,-0.6742489337921143,-0.12136884033679962,0.5535916090011597,0
238,1.5744167566299438,-28.360225677490234,2.3842453956604004,-0.8967530131340027,-0.2023562341928482,0.6284253001213074,0
239,13.752129554748535,-31.975929260253906,1.769208550453186,-0.49193334579467773,0.05932523310184479,0.6666260957717896,0
240,17.588197708129883,-38.2939567565918,3.192350387573242,-0.4950830340385437,-0.003555009141564369,0.6955291032791138,0
241,16.67864990234375,-41.071624755859375,5.392212867736816,-0.11483702808618546,0.40320223569869995,0.7425811886787415,0
242,13.612550735473633,-45.67102813720703,5.575904369354248,0.43762683868408203,0.587538480758667,0.7848312854766846,0
243,12.236409187316895,-46.85099792480469,4.3841938972473145,1.5955299139022827,0.5203384160995483,0.8185691237449646,0
244,12.837973594665527,-40.18015670776367,5.100283145904541,2.2121293544769287,0.9623398780822754,0.8339205384254456,0
245,12.13734245300293,-31.709392547607422,5.68148946762085,3.0931172370910645,1.0945764780044556,0.8875852227210999,0
246,9.400242805480957,-11.644701957702637,3.770242691040039,3.814277410507202,1.5270127058029175,0.8788800239562988,0
247,10.119353294372559,12.19060230255127,2.4030299186706543,3.842693567276001,1.8042761087417603,0.8344904184341431,0
248,8.316794395446777,33.50026321411133,1.3029937744140625,2.2455902099609375,1.2217215299606323,0.9364596605300903,0
249,1.0357961654663086,51.69638442993164,0.8662081360816956,2.5799553394317627,1.3252665996551514,1.0374910831451416,0
250,-9.927535057067871,51.254024505615234,2.0511698722839355,1.2375452518463135,1.4773753881454468,0.8659078478813171,0
251,-9.124465942382812,41.056121826171875,5.2901411056518555,-0.5480934381484985,1.6683855056762695,0.6003627181053162,0
252,-3.0551514625549316,19.521196365356445,6.560218334197998,0.4667525887489319,1.7072293758392334,0.8766679167747498,0
253,5.497004508972168,-13.558022499084473,5.3156657218933105,1.0320919752120972,1.9650167226791382,1.0345959663391113,0
254,18.3673095703125,-35.70228958129883,5.110324382781982,0.11759090423583984,2.3843834400177,0.7899437546730042,0
255,18.087759017944336,-43.826622009277344,7.0727314949035645,1.1152992248535156,2.8479928970336914,0.9384754300117493,0
256,12.531134605407715,-41.01875305175781,7.626710414886475,2.250439167022705,2.9467387199401855,1.1856094598770142,0
257,-3.017632007598877,-32.68043518066406,6.928471565246582,3.932431221008301,3.0242278575897217,1.6439470052719116,0
258,-21.960620880126953,-19.570148468017578,5.71169376373291,4.125802516937256,2.8807754516601562,1.6999602317810059,0
259,-40.52366256713867,3.5107665061950684,4.304750442504883,5.020907402038574,2.4564335346221924,2.0482606887817383,0
260,-51.756351470947266,24.3732852935791,1.4223299026489258,4.992184162139893,1.8289642333984375,2.212520122528076,0
261,-57.525909423828125,49.493125915527344,0.5930096507072449,5.4962263107299805,1.5239418745040894,2.302494764328003,0
262,-48.7338981628418,70.48716735839844,-0.09511031955480576,4.595316410064697,1.1356045007705688,2.1210012435913086,0
263,-34.93941116333008,90.8895034790039,0.006192747037857771,3.552746295928955,0.6767536997795105,2.026482105255127,0
264,-17.835847854614258,103.49462127685547,-0.4206593930721283,3.3866400718688965,0.3098282516002655,2.164900779724121,0
265,-2.036421775817871,100.03917694091797,-1.947954535484314,2.1315383911132812,0.4941476583480835,1.9275950193405151,0
266,5.989617347717285,88.79852294921875,-0.4944419860839844,0.6357143521308899,0.44967716932296753,1.8857449293136597,0
267,4.03030252456665,69.83785247802734,-0.05065532028675079,-0.5195457935333252,0.8562051057815552,1.724509596824646,0
268,0.7259805798530579,49.12040328979492,-0.5777654051780701,-1.6205648183822632,0.7835932970046997,1.7392789125442505,0
269,-10.098967552185059,27.822864532470703,-2.2136430740356445,-2.4962050914764404,0.5115333795547485,1.7332209348678589,0
270,-22.635616302490234,9.345788955688477,-2.4569029808044434,-2.227696657180786,0.18657544255256653,1.712943196296692,0
271,-29.450439453125,-5.836811542510986,-2.5991337299346924,-2.702059507369995,-0.1023171991109848,1.6749366521835327,0
272,-33.943145751953125,-10.028085708618164,-1.9039344787597656,-2.235018014907837,-0.5240417718887329,1.601234793663025,0
273,-30.074874877929688,-7.5804667472839355,-1.7252825498580933,-2.610034704208374,-1.1796252727508545,1.4925013780593872,0
274,-18.95708465576172,-0.691482663154602,-1.5191378593444824,-2.782317638397217,-1.60361647605896,1.454710841178894,0
275,-2.6792757511138916,4.406242847442627,-0.8591236472129822,-3.1244962215423584,-1.935630440711975,1.440327763557434,0
276,13.033384323120117,4.479668617248535,-1.2107006311416626,-2.821368455886841,-1.9536594152450562,1.3617864847183228,0
277,20.837560653686523,4.267979621887207,0.19003866612911224,-3.0740461349487305,-2.0862159729003906,1.2681914567947388,0
278,22.96077537536621,4.598273754119873,0.9112932085990906,-3.1237807273864746,-1.5882278680801392,1.439348578453064,0
279,21.54907989501953,2.601212978363037,0.38983026146888733,-3.4332616329193115,-1.3700698614120483,1.5208839178085327,0
280,12.189864158630371,-5.570169448852539,-1.4118225574493408,-2.985971450805664,-0.4081554114818573,1.7242891788482666,0
281,9.166486740112305,-7.922861099243164,-0.8030045628547668,-2.981192111968994,-0.4300495386123657,1.6266343593597412,0
282,2.389810562133789,-7.610210418701172,-0.10929910838603973,-2.918867826461792,-0.478549599647522,1.5310930013656616,0
283,-5.810561180114746,-6.215298175811768,1.1625999212265015,-2.777707099914551,-0.7938323616981506,1.3070001602172852,0
284,-8.825554847717285,-4.637540340423584,1.9684240818023682,-2.403289318084717,-0.16929250955581665,1.6509761810302734,0
285,-8.02800464630127,-3.407463312149048,0.22997476160526276,-2.4240291118621826,-0.3788616359233856,1.612442970275879,0
286,-11.679726600646973,-4.830339431762695,0.07331902533769608,-2.4243173599243164,-0.3778630793094635,1.6678906679153442,0
287,-11.817004203796387,-4.900491237640381,-1.2695339918136597,-2.469167470932007,-0.6918144226074219,1.577673077583313,0
288,-10.384256362915039,-6.09002161026001,-1.563640832901001,-1.8122106790542603,-0.966985821723938,1.3919025659561157,0
289,-4.280521869659424,-2.732489585876465,-2.0417866706848145,-2.0522613525390625,-1.3339128494262695,1.302053451538086,0
290,2.961353302001953,0.03207823261618614,-2.7399067878723145,-1.9331891536712646,-1.2204275131225586,1.3261278867721558,0
291,11.05250072479248,3.064697742462158,-3.7072806358337402,-2.1338889598846436,-1.0124711990356445,1.4080837965011597,0
292,16.651918411254883,5.076496124267578,-4.636408805847168,-1.718593716621399,-0.9842958450317383,1.2451410293579102,0
293,13.802629470825195,9.067840576171875,-3.763711929321289,-2.1315858364105225,-1.0804469585418701,1.183486819267273,0
294,10.503856658935547,14.144145011901855,-2.9170761108398438,-2.3710153102874756,-0.8392344117164612,1.2090271711349487,0
295,8.453531265258789,15.64443302154541,-3.039592981338501,-1.8678395748138428,-0.6684485673904419,1.0668585300445557,0
296,6.838087558746338,13.195018768310547,-2.2979958057403564,-2.3936045169830322,-0.7949430346488953,1.0324218273162842,0
297,6.644697666168213,7.38170051574707,-2.511556625366211,-2.9214446544647217,-0.6938496232032776,1.090574860572815,0
298,8.128013610839844,-3.6337976455688477,-3.393843650817871,-2.4276328086853027,-1.2419347763061523,0.7410984039306641,0
299,10.424505233764648,-14.04831600189209,-2.183928966522217,-2.783313035964966,-1.227169156074524,0.7610228657722473,0
300,15.414445877075195,-17.962770462036133,-2.6332709789276123,-2.6812260150909424,-0.848962664604187,0.8599614500999451,0
301,17.241727828979492,-18.17706298828125,-3.688476800918579,-1.803402304649353,-0.5180128812789917,0.7868573069572449,0
302,18.14421272277832,-12.831764221191406,-2.9510512351989746,-1.6376270055770874,-0.19176390767097473,0.8161545991897583,0
303,16.023906707763672,-3.711195707321167,-1.9037535190582275,-1.5585825443267822,0.1177527904510498,0.8356610536575317,0
304,10.862972259521484,3.4762730598449707,-1.7564914226531982,-1.7411504983901978,1.197630524635315,1.0930297374725342,0
305,1.5672227144241333,6.519773006439209,-3.1543474197387695,-1.5903198719024658,1.2205474376678467,1.0466816425323486,0
306,-14.909255981445312,7.076497554779053,-3.0681545734405518,-2.208582878112793,1.1705788373947144,0.9798480868339539,0
307,-29.047685623168945,6.452669143676758,-3.7813167572021484,-1.70113205909729,0.7493024468421936,0.9092734456062317,0
308,-35.75912094116211,1.7816256284713745,-3.8186779022216797,-2.2553131580352783,0.2033962905406952,0.7758124470710754,0
309,-31.610973358154297,-4.185986518859863,-3.3639473915100098,-2.8147053718566895,-0.3806648552417755,0.6442681550979614,0
310,-18.192472457885742,-13.522656440734863,-2.7074570655822754,-3.252173662185669,-0.9031835198402405,0.5437541604042053,0
311,4.161177635192871,-24.038406372070312,-2.8084163665771484,-3.163696527481079,-1.0967004299163818,0.5241302251815796,0
312,24.933998107910156,-33.32793045043945,-2.99597430229187,-2.736844301223755,-0.9842325448989868,0.5272574424743652,0
313,37.777366638183594,-40.44496536254883,-2.784630060195923,-2.7144854068756104,-0.8420541286468506,0.5039405822753906,0
314,39.987545013427734,-43.546043395996094,-2.3507626056671143,-2.120453119277954,-0.4327913224697113,0.47765523195266724,0
315,32.98348617553711,-43.34855651855469,-1.8539639711380005,-2.127734422683716,-0.40114957094192505,0.38496455550193787,0
316,20.906978607177734,-39.3994255065918,-0.8551346063613892,-1.6095645427703857,0.03770122304558754,0.3874804675579071,0
317,9.853078842163086,-35.49059295654297,-1.053041696548462,-1.447329044342041,0.21456529200077057,0.38291487097740173,0
318,-0.050727251917123795,-31.237764358520508,-1.167439341545105,-0.7232449054718018,0.38703837990760803,0.36405232548713684,0
319,-3.845965623855591,-28.265348434448242,-1.4729790687561035,-0.5020222663879395,0.228608176112175,0.3271368145942688,0
320,-1.644989013671875,-26.12643814086914,-1.2756646871566772,0.23936185240745544,0.29985469579696655,0.32089632749557495,0
321,4.829108238220215,-23.638919830322266,-1.154215693473816,0.4698038697242737,0.32919833064079285,0.3076929748058319,0
322,12.807437896728516,-17.0922794342041,-0.907146155834198,0.9304383993148804,0.4624421000480652,0.2988601624965668,0
323,15.77896499633789,-11.927550315856934,-0.13482892513275146,1.3015599250793457,0.4281299114227295,0.3232121765613556,0
324,16.78926658630371,-6.14043664932251,0.6853160262107849,2.0197842121124268,0.41895657777786255,0.38956353068351746,0
325,13.262812614440918,1.3999792337417603,0.43338578939437866,1.9165340662002563,0.6809290051460266,0.3513775169849396,0
326,10.574467658996582,9.737211227416992,0.6893208622932434,1.7115371227264404,0.864777147769928,0.3207987844944,0
327,7.411686420440674,16.494853973388672,0.599434494972229,1.792137622833252,1.1812084913253784,0.26012489199638367,0
328,4.494904518127441,15.919547080993652,1.0236384868621826,2.0598793029785156,2.4364075660705566,-0.17667222023010254,0
329,-0.6287742257118225,13.810473442077637,3.5943477153778076,2.009587049484253,1.3686459064483643,0.34259989857673645,0
330,-10.312675476074219,12.826370239257812,1.0831862688064575,1.718366265296936,0.7535958886146545,0.6355629563331604,0
331,-13.596816062927246,10.557352066040039,-0.32428327202796936,1.333605408668518,0.7076916694641113,0.5817010998725891,0
332,-6.820782661437988,9.272089004516602,-0.1656685173511505,1.1306331157684326,0.49676570296287537,0.6047364473342896,0
333,3.1480824947357178,6.721777439117432,0.3950505256652832,0.3920278251171112,0.5206623077392578,0.4639636278152466,0
334,16.939268112182617,3.0743138790130615,1.4168659448623657,0.23360773921012878,0.45191672444343567,0.493725061416626,0
335,25.192157745361328,-5.24651575088501,1.8892793655395508,0.15126480162143707,0.8961114883422852,0.39842966198921204,0
336,29.56675148010254,-13.476320266723633,2.7794578075408936,0.9016278386116028,1.339497447013855,0.43874073028564453,0
337,24.285724639892578,-18.942209243774414,3.7455646991729736,1.081507682800293,2.4897162914276123,0.19632014632225037,0
338,11.597681045532227,-19.21258544921875,6.531434059143066,1.3549041748046875,1.7891459465026855,0.5418228507041931,0
339,-7.573938846588135,-12.92937183380127,4.8450140953063965,1.3929009437561035,3.6175296306610107,0.0064474004320800304,0
340,-25.237701416015625,-2.6081268787384033,6.358192443847656,1.473373532295227,3.2681493759155273,0.13021469116210938,0
341,-42.979949951171875,9.592110633850098,5.4986572265625,1.4432060718536377,2.7918355464935303,0.24757817387580872,0
342,-56.675968170166016,16.223453521728516,4.485931873321533,1.2536920309066772,2.0768020153045654,0.3717450499534607,0
343,-56.608158111572266,21.445728302001953,4.454775810241699,1.5310782194137573,1.0430046319961548,0.7326904535293579,0
344,-47.70012283325195,18.443889617919922,2.1150588989257812,1.3211230039596558,0.013774742372334003,0.935562789440155,0
345,-27.560039520263672,15.88760757446289,0.4609434902667999,1.038135290145874,-0.6537759304046631,0.9944602251052856,0
346,-1.1135611534118652,14.242039680480957,0.3934074938297272,1.1440097093582153,-0.7672870755195618,0.9869539737701416,0
347,24.64403533935547,13.517623901367188,0.7662966847419739,0.8633737564086914,-0.6260823607444763,0.9093364477157593,0
348,41.99396514892578,14.927360534667969,1.214345932006836,0.7611684799194336,0.022864919155836105,0.7879676222801208,0
349,45.70287322998047,12.48141098022461,1.8626996278762817,0.46792811155319214,0.6499940752983093,0.7260364890098572,0
350,33.760623931884766,9.672761917114258,3.0769903659820557,0.0619494654238224,0.9334340691566467,0.7757278680801392,0
351,11.71817684173584,5.067126750946045,2.667496681213379,-0.049859337508678436,1.1625030040740967,0.8322317004203796,0
352,-14.750811576843262,-0.5788605213165283,0.9784195423126221,0.4377046227455139,1.497610092163086,0.8529096245765686,0
353,-34.68109130859375,-3.0572257041931152,0.2233179807662964,0.37830108404159546,1.3369660377502441,0.8670929074287415,0
354,-46.351165771484375,-2.8458709716796875,-0.21054941415786743,0.4326731562614441,1.1409268379211426,0.8464500904083252,0
355,-45.996829986572266,1.0904936790466309,-0.7744918465614319,0.47328588366508484,0.11544207483530045,0.9449545741081238,0
356,-36.68117141723633,3.2772486209869385,-1.6281315088272095,0.3952443301677704,-0.21128986775875092,0.9108463525772095,0
357,-16.885927200317383,8.195036888122559,-1.4476615190505981,0.27818554639816284,-0.7763186693191528,0.9193161129951477,0
358,2.938992500305176,10.250475883483887,-1.8752821683883667,0.10299793630838394,-0.9966717958450317,0.9053487777709961,0
359,21.76055145263672,9.958768844604492,-1.3568313121795654,-0.1023302748799324,-0.1663522571325302,0.7890079617500305,0
360,29.74143409729004,9.496058464050293,-1.377604603767395,-0.423556923866272,-0.10971873253583908,0.799858033657074,0
361,24.21125602722168,6.568665504455566,-0.6545971632003784,-0.6242138743400574,0.19097040593624115,0.7944180965423584,0
362,9.010849952697754,-0.43191370368003845,-0.9932178258895874,-0.733169674873352,0.31552645564079285,0.7975659966468811,0
363,-9.254426002502441,-9.042919158935547,-1.4067704677581787,-1.3660876750946045,0.1504669338464737,0.8252218961715698,0
364,-22.139081954956055,-15.969402313232422,-1.9492230415344238,-1.2726670503616333,-0.06393871456384659,0.8088979125022888,0
365,-26.232534408569336,-26.282529830932617,-2.079887628555298,-1.2274671792984009,-0.17523497343063354,0.800696074962616,0
366,-22.2047119140625,-32.84250259399414,-1.870648741722107,-1.002760887145996,-0.7437300086021423,0.7606728672981262,0
367,-12.439727783203125,-37.473106384277344,-1.056113839149475,-0.6864462494850159,-0.9389677047729492,0.751030683517456,0
368,1.2135881185531616,-35.49397277832031,-0.6458889842033386,-0.19715437293052673,-0.9624961018562317,0.7432500123977661,0
369,15.614274024963379,-28.483915328979492,-0.06746205687522888,0.153439000248909,-0.9562051892280579,0.7428293228149414,0
370,23.35409164428711,-18.430086135864258,0.4010035991668701,0.33296820521354675,-0.886889636516571,0.7572005987167358,0
371,24.246917724609375,-11.299100875854492,0.27262234687805176,0.6338427662849426,-0.6336970925331116,0.7473527193069458,0
372,19.864343643188477,-5.562696933746338,0.3508719801902771,0.4132174551486969,-0.641568124294281,0.8004524111747742,0
373,11.267904281616211,-3.2958950996398926,-0.6186808347702026,0.478105753660202,-0.24610544741153717,0.8000210523605347,0
374,4.273534774780273,-5.5149054527282715,-0.41208502650260925,0.5926386117935181,-0.19981998205184937,0.782821536064148,0
375,-0.5788557529449463,-11.566367149353027,-0.4661572575569153,0.670156717300415,-0.11768259108066559,0.7731102705001831,0
376,-4.036759853363037,-19.618738174438477,-0.27954795956611633,0.3889021575450897,-0.2435721904039383,0.8274303674697876,0
377,-2.6836931705474854,-23.22857093811035,-0.45132744312286377,0.7818412780761719,-0.25302067399024963,0.7971073389053345,0
378,2.000455141067505,-26.541271209716797,-0.09735170006752014,1.0836024284362793,-0.4367509186267853,0.7987237572669983,0
379,7.39467716217041,-26.89875030517578,-0.4872637093067169,1.287259817123413,-0.32740551233291626,0.7982402443885803,0
380,11.122318267822266,-22.797685623168945,-0.13517990708351135,1.7523554563522339,-0.4039117991924286,0.7923408150672913,0
381,14.109724998474121,-16.11797332763672,-0.3465867042541504,1.9237288236618042,-0.15458130836486816,0.7792248725891113,0
382,14.85625171661377,-7.219300270080566,-0.40655943751335144,2.230099678039551,0.11762411147356033,0.7364973425865173,0
383,12.120441436767578,-0.6813265085220337,0.07978978753089905,1.8681995868682861,0.24724632501602173,0.7817656397819519,0
384,8.260712623596191,4.0666985511779785,0.0030162313487380743,1.9722657203674316,0.28007757663726807,0.7948809862136841,0
385,3.5635461807250977,3.833117961883545,0.2653845250606537,1.9397411346435547,0.45131176710128784,0.7746952772140503,0
386,1.0353758335113525,0.7633899450302124,0.12334571778774261,1.9083458185195923,0.5427496433258057,0.7641578912734985,0
387,-1.6127605438232422,-5.124329090118408,0.1374255120754242,1.9253811836242676,0.5835782289505005,0.7569249868392944,0
388,-1.1712783575057983,-10.560927391052246,-0.1271153837442398,2.1499435901641846,0.5877470970153809,0.7468233704566956,0
389,-2.335136651992798,-15.135239601135254,0.13971343636512756,2.6339008808135986,0.8484188914299011,0.6510854959487915,0
390,-2.0276269912719727,-14.35009765625,1.6217851638793945,2.9366214275360107,0.2783166170120239,0.8300644755363464,0
391,-1.6526094675064087,-7.826727390289307,0.8955307006835938,3.1852993965148926,0.4288717806339264,0.7810903787612915,0
392,0.37117862701416016,2.0996367931365967,1.0899821519851685,3.4459362030029297,-0.7563666105270386,1.238319754600525,0
393,3.5844216346740723,16.9221134185791,-1.0617958307266235,3.454828977584839,-0.5858986377716064,1.1786543130874634,0
394,13.560118675231934,29.110248565673828,-0.2356809377670288,3.16076397895813,-0.4330768585205078,1.1229742765426636,0
395,24.156536102294922,40.10593032836914,0.5241466760635376,2.676624059677124,-0.14035244286060333,1.0497928857803345,0
396,31.290666580200195,40.97308349609375,0.3955506384372711,2.1993958950042725,0.22926048934459686,0.9944297075271606,0
397,33.30223083496094,35.30832290649414,0.6080772876739502,1.6416831016540527,0.7607353329658508,0.9096209406852722,0
398,29.073453903198242,22.267539978027344,0.41579219698905945,1.203712821006775,1.1521927118301392,0.8986626863479614,0
399,17.59853172302246,8.003803253173828,0.6264721751213074,1.0457888841629028,1.3807756900787354,0.9322683811187744,0
400,6.128936290740967,-3.191399097442627,0.6947022676467896,0.9057000875473022,1.6955902576446533,0.8962638974189758,0
401,-5.013969421386719,-10.92672061920166,1.0175747871398926,1.0139939785003662,1.7385362386703491,0.9116566777229309,0
402,-15.505613327026367,-15.467687606811523,0.9705407023429871,0.9615379571914673,1.6724401712417603,0.9123976230621338,0
403,-19.32176971435547,-14.620896339416504,1.0180819034576416,1.1764050722122192,1.5282299518585205,0.9220335483551025,0
404,-17.76776885986328,-9.3993558883667,1.041061282157898,1.3533918857574463,1.463527798652649,0.8996464014053345,0
405,-13.605734825134277,-1.8883693218231201,0.7792282104492188,1.4316248893737793,1.281063199043274,0.9075727462768555,0
406,-7.471475601196289,6.711426734924316,0.757443368434906,1.4515042304992676,1.1152899265289307,0.9240391850471497,0
407,-0.486144483089447,12.21866512298584,1.0594290494918823,1.2797099351882935,1.045803189277649,0.9175464510917664,0
408,4.134871006011963,15.459281921386719,1.1945319175720215,1.0922434329986572,1.0646272897720337,0.9149630069732666,0
409,6.249049663543701,13.314574241638184,0.9479154348373413,0.877722978591919,1.1467018127441406,0.9116279482841492,0
410,6.747734546661377,12.449356079101562,0.9667567014694214,0.7641240358352661,1.2536245584487915,0.9160446524620056,0
411,2.3237199783325195,11.792581558227539,1.2998607158660889,0.6693967580795288,1.9482821226119995,0.8208495378494263,0
412,-5.525705814361572,17.786823272705078,2.491114854812622,0.48782142996788025,1.9787647724151611,0.8290613293647766,0
413,-17.766164779663086,25.873302459716797,2.9416110515594482,0.27614331245422363,1.926482915878296,0.8540593385696411,0
414,-31.72134017944336,33.850746154785156,2.097656011581421,0.1344967484474182,1.528237223625183,0.9361562132835388,0
415,-37.38259506225586,36.29352569580078,2.2677998542785645,-0.3948427140712738,1.1611522436141968,0.9362730979919434,0
416,-36.644466400146484,27.224592208862305,2.435763359069824,-0.7844076156616211,0.7887561917304993,0.9593572020530701,0
417,-28.59890365600586,10.084043502807617,2.883681535720825,-1.138373613357544,0.5147202610969543,0.9719403386116028,0
418,-18.5533390045166,-2.1512749195098877,3.1974902153015137,-1.2252284288406372,0.29008951783180237,1.0071303844451904,0
419,-9.432883262634277,-7.198355197906494,3.130239248275757,-1.1236376762390137,0.010348976589739323,1.0456292629241943,0
420,-1.7146172523498535,-4.480737209320068,2.684445381164551,-0.9783534407615662,-0.10983237624168396,1.0835599899291992,0
421,2.5595946311950684,5.048534393310547,3.0333845615386963,-0.900449275970459,-0.17823609709739685,1.1086838245391846,0
422,1.6976039409637451,15.249567031860352,2.5081539154052734,-0.9751856327056885,-0.1903655230998993,1.130628228187561,0
423,0.035299237817525864,16.90106773376465,2.6480894088745117,-1.107500433921814,-0.21208623051643372,1.1516162157058716,0
424,-2.7726542949676514,21.70720100402832,2.5286879539489746,-1.299112319946289,-0.2578166425228119,1.168915867805481,0
425,-5.6980438232421875,23.165559768676758,2.189624786376953,-1.4798986911773682,-0.2728688418865204,1.1963955163955688,0
426,-9.342140197753906,19.982250213623047,2.087303400039673,-1.6822854280471802,-0.20393919944763184,1.2420570850372314,0
427,-10.488363265991211,12.166730880737305,1.7518980503082275,-1.9559650421142578,-0.32431718707084656,1.2527300119400024,0
428,-11.868354797363281,4.472146987915039,1.0384701490402222,-2.0951502323150635,-0.2695336639881134,1.305153727531433,0
429,-10.656902313232422,-2.9615252017974854,0.8371034264564514,-2.0983197689056396,-0.4429766833782196,1.2993642091751099,0
430,-7.584409713745117,-15.606193542480469,1.0519068241119385,-1.955987811088562,-0.6515299677848816,1.2757127285003662,0
431,-4.902012348175049,-23.550989151000977,1.6094533205032349,-1.7160567045211792,-0.5368561148643494,1.3430135250091553,0
432,-1.1540206670761108,-18.664159774780273,1.9338209629058838,-1.4717817306518555,-0.6580860614776611,1.3380889892578125,0
433,-2.866340398788452,-9.750109672546387,1.2478389739990234,-1.2234617471694946,-0.7444350123405457,1.3326828479766846,0
434,-3.8499600887298584,5.803343772888184,0.7208811640739441,-1.1168930530548096,-0.8306646943092346,1.3287134170532227,0
435,-4.336782932281494,16.640167236328125,0.541709303855896,-1.170040488243103,-0.9171584844589233,1.3231770992279053,0
436,-1.7520099878311157,15.662419319152832,0.4327625334262848,-1.3994287252426147,-1.0146428346633911,1.3184518814086914,0
437,-1.689812421798706,14.553717613220215,0.1413021832704544,-1.5977768898010254,-1.0810056924819946,1.3104861974716187,0
438,-3.2494633197784424,19.095081329345703,-0.4917677342891693,-1.851937174797058,-1.2007373571395874,1.287293791770935,0
439,0.20171937346458435,11.904500961303711,-1.7585893869400024,-2.043811798095703,-1.2381175756454468,1.2775689363479614,0
440,4.940761089324951,-4.816786289215088,-2.076033592224121,-2.073556661605835,-1.3717795610427856,1.2083157300949097,0
441,7.1280131340026855,-17.85162353515625,-1.3711493015289307,-1.8930491209030151,-1.2946864366531372,1.1867092847824097,0
442,10.270485877990723,-28.813716888427734,-0.16007116436958313,-1.552216649055481,-1.1633214950561523,1.1682548522949219,0
443,14.35900592803955,-33.232215881347656,-0.21135032176971436,-1.0488533973693848,-1.0461317300796509,1.1320799589157104,0
444,13.98770523071289,-33.52634048461914,0.0886664092540741,-0.490468293428421,-1.151308536529541,1.0142887830734253,0
445,12.570699691772461,-26.56059455871582,1.485438585281372,0.029832489788532257,-0.9125254154205322,1.0182772874832153,0
446,11.049585342407227,-4.966729640960693,0.5574985146522522,0.3629099130630493,-0.6973351240158081,1.0445876121520996,0
447,6.458496570587158,20.777183532714844,-0.10007161647081375,0.33915644884109497,-0.5290196537971497,1.0802295207977295,0
448,0.3317493200302124,44.599456787109375,-0.6822991371154785,-0.0805482417345047,-0.42897242307662964,1.1255611181259155,0
449,-0.8156977891921997,61.33031463623047,-0.22699761390686035,-0.8727741837501526,-0.41480734944343567,1.1765384674072266,0
450,-4.302666664123535,68.22822570800781,-1.2041411399841309,-1.8770551681518555,-0.4528313875198364,1.2249757051467896,0
451,-3.7346811294555664,61.07332229614258,-1.2824259996414185,-2.281493663787842,-0.5208012461662292,1.1554791927337646,0
452,-0.7131438851356506,33.215118408203125,-1.018290400505066,-3.1145434379577637,-0.7041483521461487,1.1373960971832275,0
453,2.8780293464660645,10.444112777709961,-0.7907891273498535,-3.5269222259521484,0.06797423213720322,1.3619868755340576,0
454,8.452751159667969,-7.290302276611328,-2.427478313446045,-2.7336204051971436,-0.25096258521080017,1.105954885482788,0
455,8.716693878173828,-29.37285614013672,-1.011466145515442,-2.678344488143921,-0.20633700489997864,1.0814129114151,0
456,3.6388256549835205,-48.962459564208984,0.032466962933540344,-2.179330348968506,-0.11508273333311081,1.0552695989608765,0
457,0.6548750996589661,-51.70490264892578,0.5809107422828674,-2.0283594131469727,-0.07339288294315338,1.0992708206176758,0
458,-1.4635556936264038,-39.24889373779297,-0.7405053973197937,-1.5744050741195679,-0.13816429674625397,1.07958984375,0
459,-4.841241359710693,-18.448945999145508,-1.2098748683929443,-1.0177369117736816,-0.17329907417297363,1.0452101230621338,0
460,-5.530806541442871,2.6991586685180664,-1.6504181623458862,-0.8003196716308594,-0.24833235144615173,1.0205819606781006,0
461,-6.402537822723389,25.663814544677734,-2.1932852268218994,-0.9041129350662231,-0.26969292759895325,1.0203227996826172,0
462,-5.0615458488464355,47.17892074584961,-3.11431884765625,-1.5258601903915405,-0.3660754859447479,1.0204778909683228,0
463,-2.4555673599243164,57.107261657714844,-3.7359445095062256,-2.117673397064209,-0.36391159892082214,1.012797474861145,0
464,3.1258671283721924,47.755958557128906,-4.268460273742676,-2.83134126663208,-0.38588955998420715,0.9885722994804382,0
465,6.784522533416748,20.77466583251953,-4.568121433258057,-3.33504056930542,-0.33287209272384644,0.9584352374076843,0
466,8.105497360229492,-4.326884746551514,-3.4352903366088867,-3.2431886196136475,-0.29858094453811646,0.8784525394439697,0
467,9.876853942871094,-21.40217399597168,-2.378570318222046,-3.274407386779785,-0.15826143324375153,0.8696675300598145,0
468,9.905916213989258,-30.627437591552734,-1.9194873571395874,-2.890252113342285,-0.08032408356666565,0.819777250289917,0
469,6.715081691741943,-35.101280212402344,-1.475682258605957,-2.299842596054077,0.04502266272902489,0.7862403988838196,0
470,1.4735544919967651,-37.196224212646484,-1.9917144775390625,-2.4292800426483154,0.040885332971811295,0.7780683040618896,0
471,-3.0851380825042725,-33.16030502319336,-2.197341203689575,-1.8859606981277466,0.035608675330877304,0.7378129363059998,0
472,-6.428779602050781,-20.12894630432129,-2.0200626850128174,-1.5835603475570679,-0.030864505097270012,0.7041000723838806,0
473,-7.541609287261963,-2.448796510696411,-1.5210610628128052,-1.4216320514678955,-0.1443125456571579,0.6696900129318237,0
474,-5.010866641998291,12.937369346618652,-0.930013120174408,-1.3094050884246826,-0.2558721899986267,0.6373127102851868,0
475,-2.8819758892059326,18.750595092773438,-2.197962760925293,-1.4950182437896729,-0.056246817111968994,0.7049971222877502,0
476,-0.06918180733919144,17.683399200439453,-2.6307075023651123,-1.8256052732467651,-0.10562370717525482,0.6835112571716309,0
477,2.488650321960449,13.768879890441895,-1.8358415365219116,-1.7178244590759277,-0.3824506402015686,0.5617491006851196,0
478,2.780555009841919,3.0795602798461914,-1.2374753952026367,-2.0251290798187256,-0.11706344783306122,0.6178106069564819,0
479,5.335984706878662,-17.527822494506836,-1.6062147617340088,-2.3373711109161377,-0.3279358148574829,0.5428574681282043,0
480,4.97038459777832,-38.26734161376953,-0.48686590790748596,-1.9020094871520996,-0.22561831772327423,0.5281124711036682,0
481,6.954438209533691,-52.37223434448242,-1.2439579963684082,-1.4218522310256958,-0.19406414031982422,0.5074833035469055,0
482,9.427874565124512,-57.52552032470703,-0.527801513671875,-0.9789243340492249,-0.13076499104499817,0.4977167248725891,0
483,8.354647636413574,-60.562007904052734,0.16960442066192627,-0.2901141047477722,-0.11765735596418381,0.47025230526924133,0
484,8.083935737609863,-41.53929138183594,1.2217925786972046,0.13730663061141968,-0.030831871554255486,0.48056483268737793,0
485,6.194736480712891,-28.999555587768555,1.54706871509552,0.722535252571106,0.11017170548439026,0.49826478958129883,0
486,1.272174596786499,-8.014626502990723,1.2115991115570068,1.0171129703521729,0.07041420787572861,0.4978936016559601,0
487,-2.012742280960083,18.765478134155273,0.6942281723022461,0.865997850894928,0.1824222207069397,0.5255686640739441,0
488,-1.9122018814086914,38.915863037109375,1.0753438472747803,0.8217094540596008,0.16973814368247986,0.5308462977409363,0
489,-0.37953636050224304,42.67668151855469,1.5058252811431885,0.2981456220149994,0.20945648849010468,0.5444102883338928,0
490,-1.5979914665222168,30.986085891723633,1.1483700275421143,-0.23391655087471008,0.17599235475063324,0.5552504658699036,0
491,0.8238725662231445,7.149707794189453,0.4314606487751007,-0.5394739508628845,0.15239377319812775,0.5635953545570374,0
492,3.278737783432007,-16.953685760498047,0.15904712677001953,-0.49866557121276855,0.15836334228515625,0.5661711096763611,0
493,4.180175304412842,-37.81298065185547,0.7822517156600952,-0.1174248456954956,0.20133686065673828,0.5667192339897156,0
494,4.738307476043701,-38.680301666259766,1.4553817510604858,-0.07141710817813873,0.2623231112957001,0.5707483291625977,0
495,4.286524295806885,-37.53947448730469,1.4777836799621582,0.5450003743171692,0.3297867774963379,0.5841934084892273,0
496,1.1418606042861938,-31.556913375854492,1.7055389881134033,1.063990592956543,0.37755462527275085,0.5992587208747864,0
497,-1.2180030345916748,-23.351665496826172,1.7915791273117065,1.3418327569961548,0.30827948451042175,0.6189249753952026,0
498,-3.077146053314209,-8.621908187866211,2.1250202655792236,1.3787782192230225,0.1934092491865158,0.6378515362739563,0
499,-5.9693498611450195,10.020084381103516,1.8798962831497192,1.4223392009735107,0.11244362592697144,0.6558456420898438,0
500,-6.509527683258057,27.826169967651367,1.076410174369812,1.294402837753296,0.08486117422580719,0.6626027226448059,0
501,-2.97546124458313,36.204429626464844,-0.10923673957586288,0.9317412972450256,0.0022582602687180042,0.6701877117156982,0
502,-0.5024935603141785,40.10760498046875,-0.31881532073020935,0.47332140803337097,-0.012727193534374237,0.6642518639564514,0
503,7.342705726623535,25.660213470458984,-0.33370572328567505,0.17090892791748047,0.03649921342730522,0.6545088887214661,0
504,8.27381706237793,11.152164459228516,-0.2776843309402466,-0.07208327949047089,0.17155039310455322,0.6404774188995361,0
505,9.19193172454834,-9.418575286865234,0.16311267018318176,-0.11513930559158325,0.1863844096660614,0.650932252407074,0
506,7.964179992675781,-28.27613067626953,-0.47433051466941833,0.0030409973114728928,0.3465476632118225,0.6405205726623535,0
507,6.073292255401611,-37.985137939453125,0.18006762862205505,0.5162333250045776,0.4656139314174652,0.6330745220184326,0
508,0.3439771234989166,-30.810091018676758,0.7311834692955017,1.1073124408721924,0.5346578359603882,0.6346881985664368,0
509,-6.9477128982543945,-12.561014175415039,0.7880383729934692,0.9097878932952881,0.4981156885623932,0.6264051795005798,0
510,-10.323410987854004,9.031060218811035,0.5176123976707458,1.0105628967285156,0.309868186712265,0.6560196280479431,0
511,-10.158498764038086,26.14901351928711,0.27615442872047424,0.9182770252227783,0.36115172505378723,0.6307930946350098,0
512,-7.6206817626953125,37.87200164794922,-0.49491792917251587,0.6292555928230286,0.34556838870048523,0.6165321469306946,0
513,-3.542404890060425,27.497037887573242,0.2918507754802704,0.23555514216423035,0.23122958838939667,0.6245735883712769,0
514,1.0729440450668335,11.631547927856445,0.7478978633880615,0.023064427077770233,0.1888417750597,0.6326542496681213,0
515,2.736598253250122,-3.4809319972991943,1.286804437637329,-0.057527124881744385,0.20723409950733185,0.6401274800300598,0
516,2.5871059894561768,-12.64107608795166,1.2596739530563354,0.0709410309791565,0.24608644843101501,0.6546974778175354,0
517,2.664536476135254,-23.115739822387695,1.0417087078094482,0.21405918896198273,0.2943345904350281,0.6650691628456116,0
518,0.5443733334541321,-32.691001892089844,1.3580996990203857,0.6691054701805115,0.25854581594467163,0.6976417303085327,0
519,-2.5088908672332764,-30.063209533691406,1.8618972301483154,1.198217511177063,0.25561287999153137,0.7220636606216431,0
520,-4.874231338500977,-21.14392852783203,1.2110298871994019,1.5274341106414795,0.27992358803749084,0.7316924929618835,0
521,-5.73205041885376,-16.30237579345703,1.4202895164489746,1.527047038078308,0.19255585968494415,0.7437099814414978,0
522,-5.933979034423828,-8.54940414428711,0.23102885484695435,1.625539779663086,0.23883454501628876,0.7307449579238892,0
523,-5.237264156341553,-2.2680020332336426,-0.2954185903072357,1.7937631607055664,0.13814613223075867,0.749384880065918,0
524,-6.829634189605713,12.82426643371582,-0.5017909407615662,1.7477370500564575,0.05109449476003647,0.7569020390510559,0
525,-6.018360137939453,27.871780395507812,-0.28154271841049194,1.5305380821228027,0.0966925248503685,0.725654125213623,0
526,-3.7596046924591064,36.18434524536133,0.6094974279403687,1.0913231372833252,-0.07447562366724014,0.7520074248313904,0
527,-2.4636871814727783,37.20429992675781,1.5252408981323242,0.6613882780075073,-0.008239459246397018,0.7262296080589294,0
528,-1.564515471458435,27.05898094177246,1.364834189414978,0.3464037775993347,-0.07967964559793472,0.7515214085578918,0
529,-0.34183523058891296,12.050007820129395,0.6336524486541748,0.12361236661672592,-0.11558804661035538,0.7685006856918335,0
530,0.281269907951355,-4.51308536529541,-0.3753538727760315,0.10169509798288345,-0.13211067020893097,0.782370388507843,0
531,0.290822833776474,-23.585012435913086,-0.14702937006950378,0.3434308171272278,-0.1423642933368683,0.7910400032997131,0
532,0.7869052290916443,-28.367856979370117,0.3564404845237732,0.3781605362892151,-0.131818950176239,0.7891901731491089,0
533,-0.7598270773887634,-19.546833038330078,0.8427643775939941,0.8572537899017334,-0.1992892324924469,0.8156138062477112,0
534,-0.3194855749607086,-5.220746994018555,1.2682615518569946,1.0643517971038818,-0.2087867707014084,0.8285811543464661,0
535,-1.486994981765747,14.39604377746582,1.0673658847808838,0.9574207663536072,-0.15796278417110443,0.8289416432380676,0
536,-3.6808950901031494,35.905914306640625,0.5497946739196777,0.688247799873352,-0.19966819882392883,0.8437882661819458,0
537,-3.630862236022949,49.70869445800781,0.5797221064567566,0.18436792492866516,-0.2651107907295227,0.8551211953163147,0
538,-3.282115936279297,45.026336669921875,0.8112475872039795,-0.24262477457523346,-0.3210606575012207,0.8617138862609863,0
539,-0.8833915591239929,34.34016418457031,0.243350088596344,-0.8566537499427795,-0.3612234592437744,0.8702109456062317,0
540,2.9471068382263184,19.087846755981445,0.1213080957531929,-1.0645197629928589,-0.3589489161968231,0.8690529465675354,0
541,5.987105846405029,4.038444995880127,0.20023953914642334,-1.1719961166381836,-0.300919771194458,0.8644554615020752,0
542,8.253240585327148,-9.750929832458496,-0.18847030401229858,-1.108680248260498,-0.18928277492523193,0.8579041957855225,0
543,9.14844036102295,-23.066978454589844,0.3829514980316162,-1.0493501424789429,-0.04497251287102699,0.8541317582130432,0
544,8.09772777557373,-26.32853889465332,1.2128674983978271,-0.6712272763252258,0.09570163488388062,0.8513862490653992,0
545,3.6641879081726074,-28.585100173950195,1.5244483947753906,-0.3156549632549286,0.05182966589927673,0.8665311932563782,0
546,-2.340041399002075,-19.835426330566406,2.0889313220977783,0.019865522161126137,0.22363229095935822,0.8758469820022583,0
547,-7.084434509277344,-3.3782920837402344,2.0918428897857666,0.10814877599477768,0.15495167672634125,0.9001899361610413,0
548,-9.86647891998291,7.207973003387451,2.080850124359131,-0.1005852147936821,0.02169707417488098,0.9264350533485413,0
549,-9.526342391967773,17.625764846801758,1.7638801336288452,-0.27470943331718445,-0.14408375322818756,0.9501737952232361,0
550,-8.244544982910156,18.87942886352539,1.4906792640686035,-0.42922988533973694,-0.29254257678985596,0.9677653908729553,0
551,-2.9602224826812744,8.779909133911133,1.2520129680633545,-0.6064229011535645,-0.3925262689590454,0.9831955432891846,0
552,2.062729835510254,4.505640029907227,0.5625859498977661,-0.6523209810256958,-0.33712196350097656,0.9943777322769165,0
553,7.436237812042236,1.3468608856201172,0.05949772521853447,-0.6392502188682556,-0.27256742119789124,1.0004894733428955,0
554,10.902684211730957,3.9248178005218506,0.4891268014907837,-0.6771133542060852,-0.13673394918441772,1.004560112953186,0
555,10.252330780029297,7.751465320587158,0.7714220285415649,-0.7509438395500183,0.09863215684890747,1.0132933855056763,0
556,7.256359100341797,9.388019561767578,0.5565757155418396,-0.8791167736053467,0.1680435985326767,1.0208216905593872,0
557,1.2360559701919556,3.4768002033233643,0.7359681725502014,-0.8660187721252441,0.23871390521526337,1.0236867666244507,0
558,-2.682373285293579,-9.512489318847656,0.761207640171051,-0.8568382859230042,0.2250431627035141,1.0280301570892334,0
559,-6.7824554443359375,-13.776198387145996,0.601280927658081,-0.673669695854187,0.07493449747562408,1.0285191535949707,0
560,-10.104656219482422,-10.819308280944824,0.06034063920378685,-0.43971487879753113,0.0846591666340828,1.0398269891738892,0
561,-8.768782615661621,-3.9195969104766846,-0.14526015520095825,-0.2129054218530655,-0.07707647979259491,1.0371918678283691,0
562,-5.91351318359375,-1.82676100730896,-0.34461554884910583,-0.23329627513885498,-0.011006949469447136,1.0444858074188232,0
563,-2.583510637283325,4.582354545593262,-0.5335847735404968,-0.1880609542131424,-0.1124952882528305,1.0391020774841309,0
564,-0.6334709525108337,8.712040901184082,-0.5198686718940735,-0.22518302500247955,-0.1532386839389801,1.03439199924469,0
565,2.154054641723633,13.63570785522461,-0.26188433170318604,-0.32427307963371277,-0.16803833842277527,1.029189109802246,0
566,2.278895378112793,17.861469268798828,-0.5048661231994629,-0.5065927505493164,-0.07767785340547562,1.029975414276123,0
567,2.797327756881714,20.55999755859375,-0.2833333909511566,-0.7602871656417847,-0.05167677626013756,1.025470495223999,0
568,0.4708748757839203,12.120768547058105,-0.4212746322154999,-0.9840950965881348,-0.03405836224555969,1.0208675861358643,0
569,-1.02431321144104,-0.9815363883972168,-1.3736282587051392,-1.045706868171692,-0.04465366527438164,1.0145525932312012,0
570,-2.554619073867798,-9.532272338867188,-1.3634991645812988,-0.9235900044441223,-0.07781615108251572,1.0034798383712769,0
571,-2.4144294261932373,-20.32428550720215,-1.0549993515014648,-0.8116401433944702,-0.12610365450382233,0.9911350011825562,0
572,-1.7756150960922241,-28.678625106811523,-1.1613770723342896,-0.944444477558136,-0.17109154164791107,0.9832620024681091,0
573,-0.46641141176223755,-32.43402099609375,-0.5191585421562195,-0.6551284193992615,-0.20412245392799377,0.9720399975776672,0
574,-1.2491044998168945,-25.811767578125,-0.6207767724990845,-0.12271672487258911,-0.21252770721912384,0.9654759168624878,0
575,-1.3030458688735962,-19.960546493530273,-1.2164745330810547,0.2682919204235077,-0.24592329561710358,0.9567486047744751,0
576,-0.9248479604721069,-13.306164741516113,-2.013702392578125,0.345340758562088,-0.21323901414871216,0.9503940939903259,0
577,-0.6152618527412415,-8.813117980957031,-2.8556716442108154,0.34661632776260376,-0.23758326470851898,0.9325177669525146,0
578,0.47382286190986633,-6.254811763763428,-3.4334146976470947,0.3645491600036621,-0.18253421783447266,0.9081960916519165,0
579,-0.3529747426509857,3.924960136413574,-3.431767702102661,0.4935547709465027,-0.1778622567653656,0.8748502731323242,0
580,-3.4620752334594727,14.168327331542969,-3.259488821029663,0.3159785270690918,-0.21421898901462555,0.8434681296348572,0
581,-2.475431442260742,22.818021774291992,-2.9125516414642334,0.11970531195402145,-0.2788906991481781,0.8087419271469116,0
582,-1.8485878705978394,24.19778060913086,-2.3105199337005615,-0.04088747501373291,-0.32653674483299255,0.7741177678108215,0
583,-0.13999423384666443,14.310364723205566,-2.527600049972534,-0.17342892289161682,-0.3534225523471832,0.7459890842437744,0
584,1.4285376071929932,-2.6859683990478516,-2.5938220024108887,-0.2078613042831421,-0.34354180097579956,0.7191116213798523,0
585,4.131510257720947,-20.12772560119629,-2.357187271118164,-0.04875810071825981,-0.30220887064933777,0.6918544769287109,0
586,4.3721699714660645,-24.862627029418945,-1.966399073600769,0.08253084868192673,-0.23282486200332642,0.6726650595664978,0
587,2.478696584701538,-18.579349517822266,-1.4896613359451294,0.5034279823303223,-0.17744790017604828,0.646950364112854,0
588,-0.17330579459667206,-6.068329334259033,-0.865753710269928,0.7755487561225891,-0.16396184265613556,0.627132773399353,0
589,-3.709916353225708,12.992387771606445,-0.8686812520027161,0.6734917163848877,-0.12436090409755707,0.6204468607902527,0
590,-6.354683876037598,31.59630012512207,-1.1766124963760376,0.3702569603919983,-0.20603880286216736,0.6190768480300903,0
591,-6.636656284332275,43.18195343017578,-1.2905101776123047,-0.03637091815471649,-0.3091787099838257,0.613646388053894,0
592,-4.620667457580566,37.01713180541992,-1.3218482732772827,-0.46542394161224365,-0.4052791893482208,0.6033565402030945,0
593,-0.2191842794418335,18.499937057495117,-0.870897650718689,-0.900741696357727,-0.45603975653648376,0.5926066040992737,0
594,4.26340389251709,2.209958553314209,-0.5411778688430786,-1.046258568763733,-0.43703562021255493,0.5818955898284912,0
595,6.821391582489014,-7.432227611541748,0.18444105982780457,-0.9493730068206787,-0.28676459193229675,0.5726136565208435,0
596,8.743175506591797,-27.009929656982422,0.08939538151025772,-0.6322342157363892,-0.2462664395570755,0.5642523765563965,0
597,7.453885078430176,-30.51707649230957,0.8750340342521667,-0.20241014659404755,-0.18922093510627747,0.5613822937011719,0
598,3.3150291442871094,-31.143230438232422,1.298154354095459,-0.21896913647651672,-0.09390279650688171,0.5849429965019226,0
599,-0.37181589007377625,-22.514225006103516,1.5187866687774658,0.07932934910058975,-0.06806927174329758,0.5986146330833435,0
600,-3.30849027633667,-15.786113739013672,1.3353487253189087,0.37769702076911926,-0.09975678473711014,0.6117203831672668,0
601,-5.565862655639648,-2.922097682952881,1.0830934047698975,0.462050199508667,-0.16839689016342163,0.6287276148796082,0
602,-5.808283805847168,13.317834854125977,1.0698823928833008,0.33637693524360657,-0.25928276777267456,0.6460309028625488,0
603,-5.160341262817383,25.942441940307617,0.9042189717292786,0.20129327476024628,-0.35292163491249084,0.6577427387237549,0
604,-0.8783440589904785,31.753324508666992,1.1277886629104614,-0.19001317024230957,-0.4202147424221039,0.6703670024871826,0
605,3.7657077312469482,25.510272979736328,1.335166573524475,-0.563023030757904,-0.4215937852859497,0.6795047521591187,0
606,8.612320899963379,16.271730422973633,1.0534429550170898,-0.9079886674880981,-0.34107616543769836,0.691341757774353,0
607,12.210067749023438,4.647533893585205,0.7417677044868469,-1.0107125043869019,-0.1880117803812027,0.696577250957489,0
608,12.398171424865723,-12.927422523498535,0.9205541014671326,-1.02107572555542,-0.05488051101565361,0.7012135982513428,0
609,9.357421875,-23.503023147583008,1.5716238021850586,-0.6910660266876221,0.14362116158008575,0.7049355506896973,0
610,4.619673252105713,-32.27752685546875,1.7024768590927124,-0.34245774149894714,0.13443735241889954,0.7128764390945435,0
611,-2.1943836212158203,-29.696884155273438,2.1524887084960938,-0.2894143760204315,0.2756318151950836,0.7411255836486816,0
612,-6.084010601043701,-25.319705963134766,2.0122241973876953,0.14608366787433624,0.2306375503540039,0.7600467801094055,0
613,-7.894974231719971,-20.866178512573242,1.1198469400405884,0.42837420105934143,0.12136784940958023,0.777487576007843,0
614,-9.231741905212402,-13.823963165283203,0.5987781286239624,0.7466817498207092,-0.008142165839672089,0.7884783148765564,0
615,-9.040366172790527,1.0290483236312866,0.17831951379776,0.8491624593734741,-0.14238902926445007,0.7986185550689697,0
616,-7.979090213775635,19.519506454467773,-0.25211066007614136,0.8504170179367065,-0.2704319953918457,0.8059480786323547,0
617,-2.1047170162200928,33.1442985534668,-0.2806720435619354,0.6305193305015564,-0.3706192374229431,0.8080470561981201,0
618,3.7236168384552,40.72349166870117,-0.12011118233203888,0.10401704162359238,-0.38152167201042175,0.806345522403717,0
619,8.74769115447998,34.862213134765625,-0.7159156799316406,-0.3498731255531311,-0.3625786006450653,0.8045633435249329,0
620,13.510658264160156,14.953431129455566,-0.99077969789505,-0.7363261580467224,-0.10860608518123627,0.7936420440673828,0
621,17.162574768066406,-10.913509368896484,-1.0983957052230835,-0.7383990287780762,0.13439615070819855,0.7855033278465271,0
622,13.216172218322754,-27.01335906982422,-0.03871121257543564,-0.39617663621902466,0.308399498462677,0.7801600098609924,0
623,9.183733940124512,-36.272254943847656,0.7958316206932068,0.0636000856757164,0.5056034922599792,0.7812114953994751,0
624,2.015395164489746,-34.28119659423828,1.482999563217163,0.45620372891426086,0.4073575437068939,0.7897995114326477,0
625,-5.949309825897217,-18.796051025390625,1.718215823173523,0.5300120711326599,0.403138667345047,0.8025200366973877,0
626,-12.14875316619873,-7.420346260070801,0.8185413479804993,0.6276266574859619,0.3601415157318115,0.8204564452171326,0
627,-13.698668479919434,0.7592951059341431,0.4465252161026001,0.7761610746383667,0.1601768583059311,0.8375097513198853,0
628,-11.265929222106934,3.835982322692871,0.24732208251953125,0.7259689569473267,0.16042259335517883,0.8344242572784424,0
629,-6.75457763671875,10.946248054504395,0.13147158920764923,0.6748114228248596,0.0570194348692894,0.8363639712333679,0
630,-1.5802826881408691,20.157135009765625,-0.26291996240615845,0.5214201807975769,-0.03593078628182411,0.8390486240386963,0
631,2.502544641494751,23.421518325805664,-0.4583336412906647,0.33591756224632263,-0.04808869585394859,0.8365787863731384,0
632,5.593159198760986,31.09866714477539,-0.905792772769928,0.0006359260296449065,0.002817753469571471,0.825640082359314,0
633,4.985901355743408,23.631874084472656,-1.1081383228302002,-0.1756991297006607,-0.06819459050893784,0.8251485228538513,0
634,6.828939914703369,11.504541397094727,-0.6659613847732544,-0.37955084443092346,0.015481782145798206,0.8120306730270386,0
635,5.906681060791016,2.483525037765503,-0.04389503598213196,-0.487689733505249,0.04024239256978035,0.8088650703430176,0
636,4.240652561187744,-2.447664499282837,0.07264719158411026,-0.5318968892097473,0.06436112523078918,0.8108162879943848,0
637,2.737713098526001,-11.56080150604248,0.21314415335655212,-0.46721553802490234,0.12901560962200165,0.8133534789085388,0
638,-0.4353145658969879,-14.469860076904297,0.3653639256954193,-0.2623564898967743,0.1472114473581314,0.8187002539634705,0
639,-2.2070693969726562,-13.989510536193848,0.5973663330078125,-0.081186942756176,-0.021671544760465622,0.825322687625885,0
640,-2.660468578338623,-7.653218746185303,0.971487820148468,0.061307813972234726,-0.057300668209791183,0.8306648135185242,0
641,-0.8672193288803101,-3.6455142498016357,0.4778832495212555,0.2665450870990753,-0.013000952079892159,0.8418951034545898,0
642,3.4199600219726562,-1.4457900524139404,-0.25831738114356995,0.3738487958908081,0.003546366235241294,0.849842369556427,0
643,6.862839698791504,-0.8425719738006592,0.2537635266780853,0.4511529207229614,0.1360066533088684,0.8475427627563477,0
644,7.273004531860352,7.7433953285217285,0.47625330090522766,0.4658854603767395,0.09504520893096924,0.854295551776886,0
645,4.208133697509766,20.422325134277344,0.9135710000991821,0.32313188910484314,0.27432966232299805,0.8528569340705872,0
646,0.9832367300987244,33.609947204589844,0.6331343650817871,-0.010217200964689255,0.2633053660392761,0.862264096736908,0
647,-2.8626580238342285,40.04594039916992,0.7611379623413086,-0.5187588930130005,0.26671844720840454,0.8651875257492065,0
648,-5.4300947189331055,40.088409423828125,0.2916542887687683,-1.0409865379333496,0.2779756784439087,0.8683329820632935,0
649,-6.217161655426025,31.823789596557617,0.6054739356040955,-1.4506494998931885,0.18540716171264648,0.8729739785194397,0
650,-5.0861005783081055,11.203811645507812,0.6965430974960327,-1.6278544664382935,0.09250545501708984,0.8870097398757935,0
651,-2.1800615787506104,-3.2969400882720947,1.0844923257827759,-1.58064866065979,0.021494317799806595,0.9050784707069397,0
652,1.7896056175231934,-11.510884284973145,1.1655369997024536,-1.437875747680664,0.14647658169269562,0.9331337809562683,0
653,4.732900142669678,-11.295618057250977,1.2216078042984009,-1.2718923091888428,0.18580341339111328,0.9482507109642029,0
654,4.097188472747803,-3.433616876602173,1.2226687669754028,-1.1292099952697754,0.1875813901424408,0.9551175832748413,0
655,0.3540309965610504,7.999133110046387,1.1573569774627686,-1.2428207397460938,0.25188779830932617,0.9639261960983276,0
656,-2.995650291442871,17.992828369140625,0.9627447724342346,-1.274160623550415,0.26804473996162415,0.9790219664573669,0
657,-6.823301315307617,17.718128204345703,0.551690399646759,-1.29288911819458,0.21402938663959503,0.9907400012016296,0
658,-8.913617134094238,6.794825553894043,0.08449472486972809,-1.380569577217102,-0.1877327263355255,0.9558406472206116,0
659,-7.5972442626953125,-8.462499618530273,0.5205965638160706,-1.52145516872406,-0.026571812108159065,0.9902510046958923,0
660,-1.190512776374817,-20.981557846069336,0.15014582872390747,-1.3667248487472534,-0.11454033106565475,0.9987581372261047,0
661,4.761379718780518,-23.620441436767578,0.7014445066452026,-1.0502887964248657,-0.10014121979475021,1.0113258361816406,0
662,9.510315895080566,-25.595314025878906,0.4349202513694763,-0.5842276811599731,0.004690708592534065,1.0342917442321777,0
663,10.090434074401855,-22.365671157836914,0.4527420401573181,-0.7143883109092712,0.16464361548423767,1.0407302379608154,0
664,7.459255695343018,-8.471543312072754,0.860291063785553,-0.3578176498413086,0.3797298073768616,1.0631866455078125,0
665,1.3502882719039917,7.932858467102051,0.750099778175354,-0.32892948389053345,0.400570273399353,1.0603837966918945,0
666,-3.8098745346069336,13.652284622192383,0.4229603707790375,-0.35306254029273987,0.41276299953460693,1.067725419998169,0
667,-9.312954902648926,10.459675788879395,-0.2339329868555069,-0.43438348174095154,0.3387714922428131,1.0692789554595947,0
668,-13.012995719909668,5.451050281524658,-1.6887426376342773,-0.5742649435997009,0.22799311578273773,1.0644006729125977,0
669,-12.218313217163086,5.307126522064209,-2.0244691371917725,-0.5497639775276184,0.008132584393024445,1.0448440313339233,0
670,-9.735803604125977,7.6865363121032715,-1.8619472980499268,-0.6618269681930542,-0.03917309641838074,1.0334752798080444,0
671,-3.845745086669922,10.46892261505127,-1.811519980430603,-0.7913114428520203,-0.1766679435968399,1.0077975988388062,0
672,2.1020853519439697,13.756799697875977,-2.526099681854248,-0.8904685378074646,-0.22698482871055603,0.9898005723953247,0
673,6.789241313934326,7.732534408569336,-2.384763240814209,-1.0059155225753784,-0.18216176331043243,0.9706681966781616,0
674,9.340118408203125,5.187531471252441,-2.07306170463562,-1.0513474941253662,-0.13771067559719086,0.9460535049438477,0
675,9.359421730041504,4.289231300354004,-2.226656675338745,-1.070721983909607,0.08928874880075455,0.9437677264213562,0
676,7.184072017669678,-3.387486696243286,-2.121673822402954,-1.046707034111023,0.1519244760274887,0.9193302989006042,0
677,2.184544563293457,-3.237912654876709,-1.96928870677948,-0.9382817149162292,0.23604072630405426,0.9006608128547668,0
678,-4.071695804595947,0.4441489279270172,-2.2636406421661377,-0.9173774719238281,0.24363435804843903,0.8778720498085022,0
679,-8.025308609008789,6.394585132598877,-2.906609058380127,-0.8878726363182068,0.08827704936265945,0.8408869504928589,0
680,-9.184778213500977,5.1792311668396,-3.0269463062286377,-0.9228487014770508,0.02458961308002472,0.8151902556419373,0
681,-8.331724166870117,-4.318896770477295,-3.0124619007110596,-0.899067223072052,-0.05126314237713814,0.7902260422706604,0
682,-4.92567253112793,-15.926616668701172,-3.071310043334961,-0.7224748134613037,-0.10416527837514877,0.7665970325469971,0
683,0.09614188224077225,-16.61648941040039,-2.979281187057495,-1.0900554656982422,-0.10027144849300385,0.7364286780357361,0
684,3.795983076095581,-6.970653533935547,-2.8764474391937256,-0.8173685073852539,-0.09696074575185776,0.7105836868286133,0
685,4.799770832061768,3.188883066177368,-2.958348274230957,-0.8646697998046875,-0.03611690551042557,0.6855853199958801,0
686,3.5554611682891846,3.4159891605377197,-3.0395374298095703,-0.8238492608070374,0.039409685879945755,0.6607370972633362,0
687,0.8077105283737183,-3.8697614669799805,-2.978475332260132,-0.8321877121925354,0.08297356218099594,0.6328953504562378,0
688,-0.6718140840530396,-13.441914558410645,-3.042736291885376,-0.7216516137123108,0.09010480344295502,0.60484778881073,0
689,-2.4661974906921387,-14.146592140197754,-2.509744882583618,-0.5618936419487,0.06436895579099655,0.5723404884338379,0
690,-5.118365287780762,-8.481416702270508,-2.427645444869995,-0.40820395946502686,0.07095257192850113,0.5515005588531494,0
691,-6.560129642486572,2.554288387298584,-2.826648712158203,-0.5870670080184937,0.03876306489109993,0.5276756286621094,0
692,-8.49720573425293,13.654441833496094,-3.3163435459136963,-0.5763323903083801,-0.091794952750206,0.49410930275917053,0
693,-8.739208221435547,18.07054328918457,-2.8264682292938232,-0.7826405167579651,-0.2345450073480606,0.45678815245628357,0
694,-6.8173112869262695,11.260239601135254,-2.128333330154419,-0.9485405683517456,-0.23449216783046722,0.43730542063713074,0
695,-1.6273237466812134,-3.6534955501556396,-2.358458995819092,-0.9747135043144226,-0.34268465638160706,0.4114144742488861,0
696,2.7556674480438232,-13.924298286437988,-2.7303411960601807,-0.991885781288147,-0.3717595934867859,0.38933923840522766,0
697,5.267786979675293,-27.028886795043945,-3.0227673053741455,-0.6637483835220337,-0.33706048130989075,0.36286550760269165,0
698,5.440577030181885,-35.852291107177734,-2.7337543964385986,-0.07217621058225632,-0.2624175548553467,0.33094558119773865,0
699,2.9183194637298584,-31.32340431213379,-2.1799421310424805,0.4148328900337219,-0.18703484535217285,0.3038696348667145,0
700,-1.4909502267837524,-25.086477279663086,-2.4642341136932373,0.27213916182518005,-0.15842421352863312,0.2938264012336731,0
701,-6.153940677642822,-15.611821174621582,-2.5843100547790527,0.6183143258094788,-0.1964903026819229,0.26791316270828247,0
702,-7.969411849975586,-7.594640731811523,-2.805387020111084,0.8742414116859436,-0.30234256386756897,0.24155043065547943,0
703,-8.605494499206543,5.553003787994385,-2.7574965953826904,0.9964399933815002,-0.43069034814834595,0.21564258635044098,0
704,-7.907774925231934,18.4586181640625,-2.9439027309417725,0.9172597527503967,-0.5604951977729797,0.1917283684015274,0
705,-2.9869658946990967,25.729955673217773,-2.988713264465332,0.6860826015472412,-0.45496779680252075,0.1543504297733307,0
706,1.7448310852050781,29.75225257873535,-3.483755350112915,0.3384130299091339,-0.6437742114067078,0.13580313324928284,0
707,4.901724815368652,31.742923736572266,-3.502044677734375,-0.06470204889774323,-0.5260426998138428,0.09522806107997894,0
708,7.446862697601318,26.505634307861328,-3.5844526290893555,-0.46571627259254456,-0.43780356645584106,0.059848442673683167,0
709,8.401164054870605,17.243383407592773,-3.303494930267334,-0.6864612102508545,-0.38621798157691956,0.019758829846978188,0
710,5.7898850440979,-3.1265904903411865,-3.5639569759368896,-0.7800815105438232,-0.26530295610427856,-0.020632904022932053,0
711,4.83453893661499,-22.852901458740234,-3.2528679370880127,-0.5559239387512207,-0.17501017451286316,-0.0690830796957016,0
712,1.057770013809204,-31.961360931396484,-2.9095637798309326,-0.05749509483575821,-0.2624197006225586,-0.11246795952320099,0
713,-3.051215887069702,-24.338956832885742,-2.363640069961548,-0.2737458646297455,-0.256900429725647,-0.11231331527233124,0
714,-5.5630269050598145,-11.006458282470703,-1.8956632614135742,0.17648492753505707,-0.3088908791542053,-0.14503289759159088,0
715,-4.86989688873291,6.990694522857666,-1.6459141969680786,0.25760072469711304,-0.3924359083175659,-0.16037166118621826,0
716,-2.5753157138824463,24.507064819335938,-2.1408531665802,0.048394232988357544,-0.45801079273223877,-0.1674657166004181,0
717,1.2788536548614502,34.73588180541992,-2.664581060409546,-0.28332969546318054,-0.48308297991752625,-0.18343308568000793,0
718,6.73858642578125,35.691436767578125,-2.68741512298584,-0.6906067728996277,-0.5131728649139404,-0.20604722201824188,0
719,11.99021053314209,21.292831420898438,-2.130239963531494,-1.128900170326233,-0.4476088583469391,-0.23060929775238037,0
720,16.40653419494629,6.434948444366455,-2.088589668273926,-1.4008251428604126,-0.22675257921218872,-0.25466683506965637,0
721,18.45013999938965,-8.636739730834961,-2.0293896198272705,-1.346358299255371,-0.1563272476196289,-0.2845887243747711,0
722,14.38484001159668,-18.633970260620117,-1.406753420829773,-1.1314939260482788,0.1392320990562439,-0.312762051820755,0
723,8.905020713806152,-23.17813491821289,-0.7536941766738892,-0.8428181409835815,0.2984718978404999,-0.3343892991542816,0
724,1.5327428579330444,-21.430830001831055,-0.7362789511680603,-0.857019305229187,0.29733675718307495,-0.3358401358127594,0
725,-5.086724281311035,-23.782934188842773,-1.217296838760376,-0.5123811364173889,0.32263702154159546,-0.3485962450504303,0
726,-7.967646598815918,-26.36125946044922,-1.281781792640686,-0.2201319932937622,0.25108039379119873,-0.36249056458473206,0
727,-7.401922702789307,-27.783462524414062,-1.8082689046859741,0.24898399412631989,0.21204034984111786,-0.37866318225860596,0
728,-4.068115711212158,-17.21722412109375,-1.1504137516021729,0.5357394814491272,0.11592499166727066,-0.3962743878364563,0
729,-0.5016716122627258,-1.047719955444336,-0.8304694890975952,0.43845465779304504,0.07113808393478394,-0.40644651651382446,0
730,1.9826412200927734,14.548038482666016,-1.0835520029067993,0.3923850953578949,0.00696862768381834,-0.41327449679374695,0
731,5.503222465515137,26.791522979736328,-0.9825448989868164,0.25031620264053345,0.06447211652994156,-0.4244025647640228,0
732,7.278670787811279,31.980993270874023,-1.2179762125015259,-0.07735057920217514,0.16236060857772827,-0.4352938234806061,0
733,7.574872970581055,27.783771514892578,-1.383591890335083,-0.39847972989082336,0.28887230157852173,-0.44826021790504456,0
734,7.524769306182861,10.162413597106934,-1.1020694971084595,-0.6107586622238159,0.42097312211990356,-0.4606931507587433,0
735,5.847136497497559,-12.529922485351562,-0.7216426730155945,-0.6701531410217285,0.534911572933197,-0.4697817265987396,0
736,1.4014699459075928,-27.680112838745117,-0.7407745718955994,-0.5208696126937866,0.4039857089519501,-0.47294488549232483,0
737,-1.678761601448059,-32.419315338134766,0.42432698607444763,-0.163115456700325,0.4347917437553406,-0.47799748182296753,0
738,-4.078579425811768,-37.025596618652344,0.5427481532096863,0.285216361284256,0.40533050894737244,-0.47375887632369995,0
739,-3.124906063079834,-34.68429183959961,1.120039939880371,0.6928309202194214,0.3504045605659485,-0.4695090353488922,0
740,-3.105487108230591,-28.029346466064453,1.0790979862213135,0.9886214733123779,0.3097994923591614,-0.4638384282588959,0
741,-1.4618873596191406,-10.895082473754883,1.9578229188919067,1.3513667583465576,0.2745262682437897,-0.449746698141098,0
742,0.13986431062221527,10.129663467407227,1.978435754776001,1.559773325920105,0.2658858299255371,-0.4271826446056366,0
743,0.8233304619789124,31.908464431762695,1.1622498035430908,1.2536507844924927,0.28446465730667114,-0.4206025004386902,0
744,0.2673954367637634,46.26804733276367,0.9279131889343262,0.7799938321113586,0.30159950256347656,-0.416798859834671,0
745,0.6169924736022949,47.19965362548828,0.8172993063926697,0.26177361607551575,0.31637489795684814,-0.4105880558490753,0
746,1.6373623609542847,35.89439010620117,0.6608706712722778,-0.2976091802120209,0.3315505087375641,-0.40625518560409546,0
747,3.1992406845092773,11.835508346557617,0.685433566570282,-0.6854451298713684,0.36565980315208435,-0.40029868483543396,0
748,3.420957088470459,-19.255062103271484,0.4049633741378784,-0.6655775904655457,0.4213881194591522,-0.3860521614551544,0
749,3.5157594680786133,-47.09020233154297,0.5019988417625427,-0.14815790951251984,0.48424234986305237,-0.3667111396789551,0
750,2.8634796142578125,-55.608314514160156,1.048653483390808,0.5240433216094971,0.5286058783531189,-0.3537375032901764,0
751,0.08613983541727066,-47.0557861328125,1.904663324356079,0.6908196806907654,0.4206748604774475,-0.3595873713493347,0
752,-3.6971960067749023,-33.581565856933594,2.0450780391693115,1.4375381469726562,0.4164234399795532,-0.3244916498661041,0
753,-6.851237773895264,-10.547518730163574,1.9494657516479492,1.629811406135559,0.3483627736568451,-0.31086012721061707,0
754,-7.615492820739746,8.929400444030762,1.4501959085464478,1.5583056211471558,0.23862510919570923,-0.2988683879375458,0
755,-6.090961933135986,31.329025268554688,1.2983052730560303,1.4468693733215332,0.19212836027145386,-0.29386359453201294,0
756,-2.7736778259277344,45.77098846435547,0.7383195757865906,1.0001212358474731,0.11175436526536942,-0.288582980632782,0
757,2.01177978515625,48.61613464355469,0.6763811111450195,0.5690255165100098,0.16029462218284607,-0.29404568672180176,0
758,4.557156085968018,38.7525749206543,0.6154290437698364,-0.017720941454172134,0.1967063993215561,-0.2963603734970093,0
759,7.695393085479736,21.763385772705078,0.60748291015625,-0.4902900159358978,0.2817736864089966,-0.2996945381164551,0
760,9.399224281311035,-6.514244079589844,0.6166704297065735,-0.6311971545219421,0.40378761291503906,-0.29402482509613037,0
761,6.903207778930664,-35.88783645629883,0.5532112717628479,-0.32809287309646606,0.5332912802696228,-0.280921995639801,0
762,6.7674970626831055,-54.5279426574707,2.606640338897705,0.22451092302799225,0.6339065432548523,-0.2683020532131195,0
763,0.3987065255641937,-52.52634811401367,2.8036420345306396,0.8646328449249268,0.5611053109169006,-0.22710052132606506,0
764,-6.764954566955566,-42.4437141418457,2.6697983741760254,1.4094315767288208,0.5419759750366211,-0.2005252093076706,0
765,-13.444145202636719,-22.284147262573242,1.2030643224716187,2.0761823654174805,0.40246689319610596,-0.14960600435733795,0
766,-16.41162109375,4.902683734893799,2.0020482540130615,1.757843255996704,0.3162941336631775,-0.18478365242481232,0
767,-17.252601623535156,30.465347290039062,1.8577483892440796,1.6765567064285278,0.11566919088363647,-0.16096337139606476,0
768,-12.054839134216309,39.366050720214844,1.7446033954620361,1.268372893333435,0.06704787164926529,-0.17667970061302185,0
769,-7.69910192489624,48.2673225402832,0.7838747501373291,0.7546727657318115,-0.1348143219947815,-0.15177468955516815,0
770,-1.7655695676803589,47.31071853637695,0.09541410952806473,0.20613357424736023,-0.11401461064815521,-0.1708802878856659,0
771,2.6355340480804443,38.019615173339844,0.3071034550666809,-0.3718034029006958,-0.14275723695755005,-0.1742125302553177,0
772,7.221053123474121,18.159563064575195,-0.545287013053894,-0.6882924437522888,-0.09089905768632889,-0.17509135603904724,0
773,8.522104263305664,2.8323991298675537,-0.4121910333633423,-0.8555960655212402,0.016610821709036827,-0.1839238852262497,0
774,7.467771530151367,-23.26675796508789,-0.9802318215370178,-0.7514489889144897,0.05538685619831085,-0.18167045712471008,0
775,4.282208442687988,-48.48014450073242,-0.988382875919342,-0.3310721516609192,0.1363694816827774,-0.1869983971118927,0
776,0.8662383556365967,-60.3623161315918,-0.44838759303092957,0.26415735483169556,0.16268523037433624,-0.19107984006404877,0
777,-6.186425685882568,-51.6116943359375,-0.7560887336730957,0.7626098990440369,0.19180122017860413,-0.2012762427330017,0
778,-10.280360221862793,-39.82047653198242,-1.1026540994644165,1.6219196319580078,0.05873996391892433,-0.19177845120429993,0
779,-11.860488891601562,-22.06056022644043,-1.6707056760787964,1.766524076461792,-0.04867341369390488,-0.20514056086540222,0
780,-11.2979736328125,4.635246753692627,0.14371778070926666,1.870644211769104,-0.24133314192295074,-0.20596078038215637,0
781,-8.907441139221191,22.868183135986328,0.35799136757850647,1.803092122077942,-0.35804668068885803,-0.20580434799194336,0
782,-6.609461307525635,38.125144958496094,-0.28694218397140503,1.439273715019226,-0.359995037317276,-0.2210070937871933,0
783,-1.0187647342681885,42.67355728149414,0.9580946564674377,1.091869831085205,-0.4478534460067749,-0.21711723506450653,0
784,3.0798494815826416,44.18355178833008,1.430347204208374,0.4759351313114166,-0.45855844020843506,-0.20999394357204437,0
785,6.729327201843262,37.15825271606445,0.606806755065918,0.019651683047413826,-0.40057626366615295,-0.20468927919864655,0
786,8.648856163024902,23.071048736572266,-0.10016578435897827,-0.36365005373954773,-0.28656598925590515,-0.2074807733297348,0
787,7.793861389160156,6.8979411125183105,0.5328184366226196,-0.5349439382553101,-0.15283623337745667,-0.2150675505399704,0
788,6.207427024841309,-4.995418548583984,1.616405963897705,-0.5516639351844788,-0.10867246240377426,-0.2079818993806839,0
789,5.045410633087158,-8.095349311828613,1.4748594760894775,-0.4662000238895416,-0.033893752843141556,-0.19987167418003082,0
790,-1.8954461812973022,-6.940402030944824,0.4878857731819153,-0.30524030327796936,-0.02252376638352871,-0.19042347371578217,0
791,-8.796728134155273,-4.658200263977051,0.4333336651325226,-0.20950472354888916,-0.03458236902952194,-0.18629173934459686,0
792,-11.160841941833496,-12.698103904724121,1.3808375597000122,-0.18497885763645172,-0.18989764153957367,-0.17090319097042084,0
793,-7.940165042877197,-11.662572860717773,1.7727705240249634,-0.0013083528028801084,-0.3449115753173828,-0.1540425568819046,0
794,-3.803706407546997,5.0175042152404785,0.8286789059638977,0.06200489401817322,-0.2989312708377838,-0.14331737160682678,0
795,2.7709505558013916,20.69354820251465,1.0822513103485107,-0.07805749773979187,-0.33542928099632263,-0.1335906684398651,0
796,5.296480178833008,27.471824645996094,0.0342598594725132,-0.19779030978679657,-0.3698118329048157,-0.13085347414016724,0
797,4.992455005645752,28.86040687561035,-0.968966543674469,-0.5580875277519226,-0.3091944754123688,-0.1309680938720703,0
798,2.4070074558258057,18.630401611328125,0.028618456795811653,-0.887827455997467,-0.24081727862358093,-0.13549460470676422,0
799,3.49055552482605,8.990309715270996,1.07201087474823,-1.068266749382019,-0.19697502255439758,-0.13343806564807892,0
800,1.9225102663040161,1.5111700296401978,0.6975269913673401,-1.178722858428955,-0.15770459175109863,-0.1233854666352272,0
801,0.49771928787231445,-1.1358333826065063,0.06257343292236328,-1.1020931005477905,-0.12512409687042236,-0.12243284285068512,0
802,-0.9356735348701477,-4.405116081237793,0.13700436055660248,-1.1105186939239502,-0.11447100341320038,-0.11934026330709457,0
803,-2.1997230052948,-9.80337905883789,0.33624210953712463,-0.9459477663040161,-0.1397949606180191,-0.12383444607257843,0
804,-4.56688117980957,-9.487624168395996,0.24931824207305908,-1.044339656829834,-0.21988099813461304,-0.11872440576553345,0
805,-7.276772975921631,-3.9037413597106934,-0.007232213858515024,-1.0558772087097168,-0.3477850556373596,-0.1203407347202301,0
806,-6.889786720275879,-6.350557327270508,-0.9555166363716125,-0.9291408658027649,-0.40171095728874207,-0.11936891824007034,0
807,-2.705886125564575,-15.536396980285645,-0.8932965993881226,-0.5624597072601318,-0.49191442131996155,-0.13925176858901978,0
808,1.8655118942260742,-20.52361297607422,-0.3966178596019745,-0.37005946040153503,-0.4261085093021393,-0.13097929954528809,0
809,3.56123685836792,-12.109960556030273,-0.44380491971969604,-0.09105996787548065,-0.37160101532936096,-0.13103726506233215,0
810,6.504361629486084,-3.565138339996338,0.49548354744911194,-0.16270330548286438,-0.40914952754974365,-0.12845176458358765,0
811,7.044309616088867,6.36440896987915,1.537266731262207,-0.20730508863925934,-0.21212367713451385,-0.10078760981559753,0
812,4.262358665466309,4.7788519859313965,1.7360727787017822,-0.3545058071613312,-0.1804089993238449,-0.08502145856618881,0
813,0.7745224833488464,-4.466821193695068,1.5450079441070557,-0.4536255896091461,-0.12752731144428253,-0.06605830043554306,0
814,-0.6401488184928894,-18.82590103149414,2.3516790866851807,-0.45428401231765747,-0.12238503247499466,-0.05003213882446289,0
815,-1.4437273740768433,-22.696748733520508,2.6125588417053223,-0.05221707373857498,-0.1387632042169571,-0.045090898871421814,0
816,-1.38365638256073,-26.740631103515625,2.4966742992401123,0.0816304087638855,-0.23027141392230988,-0.023188630118966103,0
817,-1.6224361658096313,-29.299179077148438,2.5032639503479004,0.4408928155899048,-0.2437756061553955,-0.0020946438889950514,0
818,-0.4741882085800171,-30.394128799438477,2.679039478302002,0.6896162033081055,-0.263273149728775,0.02606354095041752,0
819,0.7614243626594543,-21.19585609436035,3.6444849967956543,1.0859345197677612,-0.27784374356269836,0.04666667804121971,0
820,-0.6612494587898254,-6.989946365356445,2.690504312515259,1.3687360286712646,-0.2793423533439636,0.07407727092504501,0
821,0.7930640578269958,1.685017704963684,2.188117027282715,1.3978878259658813,-0.2778441607952118,0.1024613231420517,0
822,1.8115251064300537,15.114826202392578,1.4059224128723145,1.2767417430877686,-0.2495458573102951,0.13017059862613678,0
823,2.8599069118499756,26.4688777923584,1.494442343711853,1.0999637842178345,-0.27506357431411743,0.15090791881084442,0
824,2.82352876663208,31.519290924072266,1.505542516708374,0.8144013285636902,-0.21579399704933167,0.16702388226985931,0
825,3.404493570327759,27.930356979370117,0.7552692294120789,0.38177597522735596,-0.1768648773431778,0.18580621480941772,0
826,3.492582321166992,27.092416763305664,0.6868745684623718,0.1295204609632492,-0.12770423293113708,0.19014686346054077,0
827,2.6917672157287598,9.795022964477539,0.2845466434955597,-0.10950447618961334,-0.2094385027885437,0.2022876739501953,0
828,2.1991467475891113,1.6382560729980469,0.10053545236587524,-0.1735076606273651,-0.0659942477941513,0.19942130148410797,0
829,1.7489027976989746,-2.118940830230713,0.5433953404426575,-0.0728665441274643,-0.015877114608883858,0.19766561686992645,0
830,1.4486408233642578,-9.892359733581543,0.9810788631439209,-0.012617927975952625,0.018077069893479347,0.2051982581615448,0
831,0.6056649684906006,-12.709752082824707,1.261488914489746,0.21582314372062683,-0.10274133086204529,0.21807603538036346,0
832,0.1016162857413292,-17.54119300842285,1.0676336288452148,0.1825607568025589,-0.15367114543914795,0.2404395341873169,0
833,1.118188500404358,-19.556699752807617,-0.3237122595310211,0.33980998396873474,-0.051724862307310104,0.249142587184906,0
834,2.5746564865112305,-19.327003479003906,-0.4254860281944275,0.5141556859016418,-0.0009562336490489542,0.2501662075519562,0
835,2.3295695781707764,-17.449819564819336,-0.48329082131385803,0.7561713457107544,0.06696324795484543,0.24848507344722748,0
836,2.892791509628296,-14.953370094299316,0.18573026359081268,0.9641581177711487,0.048467691987752914,0.2516309916973114,0
837,1.9662917852401733,-6.392928123474121,0.8394760489463806,1.0880615711212158,-0.035278674215078354,0.2653621435165405,0
838,2.811918258666992,6.8640265464782715,0.8245106935501099,1.0956032276153564,0.08617907762527466,0.26874840259552,0
839,-0.30292853713035583,24.285179138183594,-0.4958130717277527,0.9504109621047974,0.12795725464820862,0.27666622400283813,0
840,-0.5749859809875488,29.193145751953125,-0.8229618072509766,0.621208906173706,0.12874485552310944,0.27584365010261536,0
841,-1.3948882818222046,22.047651290893555,-0.01803208515048027,0.4281764030456543,0.035926997661590576,0.2777355909347534,0
842,-0.9634329080581665,14.968734741210938,-0.2960484027862549,0.19770611822605133,0.08289045840501785,0.2704927623271942,0
843,1.646492600440979,1.371397852897644,-0.5415026545524597,0.03503856807947159,0.0027012531645596027,0.2752576768398285,0
844,2.260848045349121,-6.828721046447754,-0.5613868236541748,-0.004059357102960348,0.037286631762981415,0.26969724893569946,0
845,4.932869911193848,-7.897554397583008,-0.8735355734825134,0.0580185130238533,0.10120251029729843,0.26071521639823914,0
846,5.850169658660889,-11.466571807861328,-0.7843510508537292,0.003273970680311322,0.19079594314098358,0.251934677362442,0
847,5.086755275726318,-16.56792449951172,-1.1224937438964844,0.1594136655330658,0.22064106166362762,0.2508203089237213,0
848,2.6294727325439453,-20.702457427978516,-0.7049435377120972,0.3980632722377777,0.29978010058403015,0.23899148404598236,0
849,-1.2340459823608398,-22.74250602722168,-0.588089108467102,0.691442608833313,0.33441686630249023,0.229653462767601,0
850,-3.4789066314697266,-13.50214958190918,-0.10372309386730194,0.9613582491874695,0.24285513162612915,0.2300782948732376,0
851,-5.999663352966309,0.18562255799770355,-0.3502172529697418,0.8610205054283142,0.1897858828306198,0.2231377363204956,0
852,-6.268555641174316,7.846163272857666,-0.7716665267944336,0.9402795433998108,0.10620371997356415,0.22330302000045776,0
853,-7.433858394622803,16.499914169311523,-1.3693333864212036,0.8643637299537659,0.004957482218742371,0.21770918369293213,0
854,-4.344525337219238,16.96256446838379,-1.482125997543335,0.5424753427505493,-0.01840098947286606,0.19286946952342987,0
855,-0.2514936327934265,17.887439727783203,-1.3743700981140137,0.3495830297470093,-0.05980289727449417,0.17792056500911713,0
856,3.7474875450134277,15.778328895568848,-1.3501781225204468,0.1599295437335968,-0.039846744388341904,0.16236178576946259,0
857,7.519790172576904,5.113336563110352,-1.3200438022613525,0.04955565929412842,0.05262712389230728,0.14602892100811005,0
858,7.973840236663818,-1.4819447994232178,-1.070769190788269,0.08132173866033554,0.1748519241809845,0.13161268830299377,0
859,9.422221183776855,-10.877279281616211,-1.1951767206192017,0.2368263304233551,0.24286998808383942,0.12392453104257584,0
860,5.734267234802246,-14.497669219970703,-2.07551646232605,0.29101666808128357,0.23900873959064484,0.11525934189558029,0
861,0.9172413349151611,-18.62519073486328,-2.2574496269226074,0.48039567470550537,0.3120984435081482,0.09742499142885208,0
862,-2.0589706897735596,-21.044906616210938,-2.0357861518859863,0.6580623388290405,0.3157244622707367,0.07630863040685654,0
863,-5.048821926116943,-15.271568298339844,-1.2378183603286743,1.0316088199615479,0.26871296763420105,0.0660659447312355,0
864,-6.952502727508545,-1.889575719833374,-0.8909429311752319,1.1650850772857666,0.2500229477882385,0.05214128643274307,0
865,-8.087581634521484,17.815689086914062,-0.5699440836906433,0.9707638621330261,0.1345319002866745,0.04044530168175697,0
866,-5.703037738800049,35.94401168823242,-0.4024449288845062,0.7737577557563782,0.026317955926060677,0.03829945623874664,0
867,-2.20509672164917,36.14122009277344,-0.830345630645752,0.24761149287223816,-0.045732010155916214,0.027843764051795006,0
868,2.0637471675872803,21.598735809326172,-0.8973821997642517,-0.07019919157028198,-0.056342046707868576,0.020753251388669014,0
869,6.6080427169799805,9.769988059997559,-0.9087803363800049,-0.3332003057003021,0.08107279241085052,0.0034098539035767317,0
870,9.281022071838379,-8.72571086883545,-0.7486429810523987,-0.3552019000053406,0.20669688284397125,-0.0054426034912467,0
871,8.335152626037598,-17.994430541992188,-0.25721603631973267,-0.11673413962125778,0.35253697633743286,-0.009302685037255287,0
872,7.017191410064697,-16.543607711791992,0.6167188286781311,0.1573137491941452,0.3364122807979584,-0.0052842204459011555,0
873,1.3026145696640015,-7.424396514892578,1.403041958808899,0.22115719318389893,0.41813963651657104,-0.005120463203638792,0
874,-3.6106643676757812,6.011910438537598,1.3767423629760742,0.2603561580181122,0.3412834703922272,0.007678892929106951,0
875,-7.34807825088501,10.863396644592285,0.477893590927124,0.05567000061273575,0.267170250415802,0.013648849911987782,0
876,-8.69211483001709,9.050383567810059,-0.18642295897006989,-0.041037630289793015,0.14901608228683472,0.01963038742542267,0
877,-5.863348484039307,3.377429246902466,-0.74268639087677,-0.14648225903511047,0.10133635997772217,0.014911402948200703,0
878,-1.6790765523910522,0.8581508994102478,-0.9167125821113586,-0.16456668078899384,0.027709269896149635,0.0076101175509393215,0
879,0.5099518299102783,-0.02756533771753311,-1.3153890371322632,-0.09414544701576233,0.007825568318367004,0.0013487373944371939,0
880,4.781282424926758,5.00480842590332,-1.3528214693069458,-0.11855340003967285,0.03676837310194969,-0.014428403228521347,0
881,6.362304210662842,4.431305408477783,-1.0515568256378174,-0.19137458503246307,0.1247880682349205,-0.02792668528854847,0
882,7.822493076324463,-2.791968822479248,-0.8184022307395935,-0.22540521621704102,0.23974530398845673,-0.03664453700184822,0
883,5.665440559387207,-3.7245936393737793,-0.4260483682155609,-0.17510932683944702,0.3530145585536957,-0.042770177125930786,0
884,2.486990451812744,-0.0933767780661583,-0.0972428023815155,-0.06632407009601593,0.4218634068965912,-0.044634491205215454,0
885,-1.3842651844024658,-3.6949174404144287,-0.09067452698945999,0.013270803727209568,0.42566290497779846,-0.044604040682315826,0
886,-4.753201007843018,-8.333046913146973,0.4945876896381378,0.09508971869945526,0.3071058392524719,-0.04814261570572853,0
887,-7.650211334228516,-5.357872486114502,0.11922048032283783,0.23587314784526825,0.22560833394527435,-0.0423593670129776,0
888,-10.76574420928955,3.9683876037597656,-0.655718982219696,0.1627131998538971,0.09972819685935974,-0.04751542583107948,0
889,-7.275147438049316,12.700532913208008,-1.0542863607406616,-0.14504459500312805,0.09256623685359955,-0.06173244118690491,0
890,-3.122483253479004,18.853343963623047,-1.4334715604782104,-0.3876223564147949,-0.004464315716177225,-0.07720322161912918,0
891,0.3889792859554291,22.693300247192383,-1.7756283283233643,-0.6337724924087524,0.10853574424982071,-0.08609604835510254,0
892,3.941416025161743,21.45187759399414,-0.8537360429763794,-0.8971395492553711,0.1241697371006012,-0.10354162007570267,0
893,6.493116855621338,16.700759887695312,0.1601114422082901,-0.9836680889129639,0.11512573808431625,-0.11297489702701569,0
894,5.91655969619751,1.8202648162841797,0.29516223073005676,-1.0825704336166382,0.20814506709575653,-0.10851901024580002,0
895,5.1817145347595215,-16.39228057861328,0.5887306332588196,-1.008944034576416,0.21870751678943634,-0.10754157602787018,0
896,1.9038335084915161,-26.201574325561523,0.8768137097358704,-0.8271223306655884,0.27718380093574524,-0.09872903674840927,0
897,-1.112897515296936,-23.8251895904541,1.5198848247528076,-0.5323888659477234,0.2866351306438446,-0.0890779048204422,0
898,-5.202218532562256,-14.237213134765625,1.657809853553772,-0.10413944721221924,0.23909398913383484,-0.07193327695131302,0
899,-7.6947526931762695,-1.123910665512085,1.2115956544876099,0.057461630553007126,0.20823553204536438,-0.05242814123630524,0
900,-11.571592330932617,15.7756986618042,0.7221276760101318,-0.1461242139339447,0.06409389525651932,-0.05530315637588501,0
901,-11.35224437713623,30.473901748657227,0.9859817624092102,-0.37772423028945923,-0.11898722499608994,-0.057707998901605606,0
902,-7.5395731925964355,34.55720901489258,2.1006805896759033,-0.7339649796485901,-0.287612646818161,-0.056835275143384933,0
903,-0.920806348323822,31.71767807006836,2.6830806732177734,-1.121280550956726,-0.3007305860519409,-0.03217865154147148,0
904,6.39259672164917,22.65667724609375,2.6097047328948975,-1.4165672063827515,-0.274272620677948,-0.0023318706080317497,0
905,12.329203605651855,9.846660614013672,2.6635935306549072,-1.6203430891036987,-0.14437395334243774,0.035489004105329514,0
906,13.128707885742188,-2.9304046630859375,2.0615739822387695,-1.6230878829956055,0.058167435228824615,0.0772300735116005,0
907,10.229903221130371,-13.033674240112305,2.2218198776245117,-1.4277231693267822,0.2593388855457306,0.11049692332744598,0
908,4.126474857330322,-16.030683517456055,2.6181371212005615,-1.3195111751556396,0.23802442848682404,0.10383173078298569,0
909,-4.804747581481934,-13.770536422729492,3.068098306655884,-1.3289090394973755,0.17535457015037537,0.10334384441375732,0
910,-9.339421272277832,-6.568270683288574,3.2046058177948,-1.117828607559204,0.07492242753505707,0.11878044903278351,0
911,-10.740428924560547,1.695104718208313,3.3611464500427246,-1.0867812633514404,-0.07784530520439148,0.1352936178445816,0
912,-9.090522766113281,7.484650135040283,2.724937915802002,-1.0311434268951416,-0.16660235822200775,0.1716272383928299,0
913,-5.2790937423706055,10.83031940460205,1.9352943897247314,-1.2073289155960083,-0.2975102663040161,0.18815737962722778,0
914,0.6089993715286255,12.432124137878418,1.849520206451416,-1.2893540859222412,-0.3440914452075958,0.2074759304523468,0
915,5.8405609130859375,9.912410736083984,1.1748803853988647,-1.3776557445526123,-0.29632896184921265,0.2336990237236023,0
916,11.565800666809082,5.621345043182373,1.0622464418411255,-1.4809099435806274,-0.17268794775009155,0.2612626850605011,0
917,13.70750904083252,-0.06532339006662369,0.7193479537963867,-1.5879555940628052,0.025278551504015923,0.2936837375164032,0
918,13.055411338806152,-12.027750968933105,0.35682231187820435,-1.4312454462051392,0.1725171059370041,0.29805806279182434,0
919,8.73108959197998,-27.44388198852539,0.17940543591976166,-1.6163464784622192,0.21707138419151306,0.2814760208129883,0
920,2.1509320735931396,-33.182212829589844,0.6668910980224609,-1.083229899406433,0.33759596943855286,0.28552114963531494,0
921,-4.091347694396973,-28.70433235168457,0.8456773161888123,-0.6608609557151794,0.4163486063480377,0.3018726408481598,0
922,-9.104666709899902,-16.694475173950195,0.5708214044570923,-0.2682639956474304,0.25838300585746765,0.27454081177711487,0
923,-12.5031156539917,-0.04596322402358055,0.5222702622413635,-0.2934633195400238,0.108713299036026,0.2622210383415222,0
924,-10.695903778076172,17.386899948120117,0.8653732538223267,-0.5770838260650635,-0.009996937587857246,0.26376086473464966,0
925,-7.260444641113281,26.52653694152832,1.0492132902145386,-0.7424959540367126,-0.17267803847789764,0.25739872455596924,0
926,-0.14156748354434967,28.071874618530273,2.11859130859375,-1.0215566158294678,-0.24636618793010712,0.26621997356414795,0
927,7.6197638511657715,21.11308479309082,2.414581298828125,-1.2048008441925049,-0.1947299838066101,0.29726719856262207,0
928,13.04734992980957,9.231749534606934,2.4369606971740723,-1.3393568992614746,-0.027561336755752563,0.342100590467453,0
929,14.411276817321777,-5.194246768951416,2.126547336578369,-1.418299913406372,0.19343799352645874,0.38850879669189453,0
930,12.459721565246582,-16.180614471435547,2.2046542167663574,-1.3581719398498535,0.28594857454299927,0.39910975098609924,0
931,7.1780853271484375,-22.122976303100586,2.0205650329589844,-1.0763959884643555,0.4693078100681305,0.4329589307308197,0
932,-0.5523890256881714,-25.450307846069336,2.487187147140503,-0.7126733660697937,0.46895942091941833,0.4361615478992462,0
933,-6.907320499420166,-28.637304306030273,2.626899480819702,-0.37434136867523193,0.43345606327056885,0.45195096731185913,0
934,-12.017476081848145,-33.31014633178711,2.2714598178863525,-0.17668737471103668,0.3622799217700958,0.47294431924819946,0
935,-14.009476661682129,-26.490568161010742,2.2871217727661133,0.06919834017753601,0.16305729746818542,0.47902098298072815,0
936,-12.051393508911133,-14.161348342895508,2.322206497192383,0.4541383981704712,0.09049171954393387,0.5159887671470642,0
937,-6.644800186157227,2.220696210861206,2.0138301849365234,0.16156913340091705,-0.009438710287213326,0.5328732132911682,0
938,-0.2387664020061493,14.820963859558105,1.7718555927276611,0.20757895708084106,-0.08449706435203552,0.5554251074790955,0
939,4.568351745605469,20.59760284423828,1.8462400436401367,0.016368946060538292,-0.06879352778196335,0.5772330164909363,0
940,7.668731212615967,20.764556884765625,1.8725472688674927,-0.16528180241584778,0.012987109832465649,0.6009750962257385,0
941,10.24513053894043,12.444156646728516,2.0270965099334717,-0.39807870984077454,0.06692372262477875,0.6185398697853088,0
942,8.24979305267334,1.825147271156311,2.8157076835632324,-0.5626254081726074,0.2772209942340851,0.6449257135391235,0
943,3.7637016773223877,-9.617457389831543,2.890270709991455,-0.45199495553970337,0.2954239249229431,0.6681875586509705,0
944,-1.8881949186325073,-15.71112060546875,2.7986836433410645,-0.1640317142009735,0.25987452268600464,0.6973573565483093,0
945,-4.1318464279174805,-18.892793655395508,2.979271411895752,0.25141167640686035,0.29131975769996643,0.7353075742721558,0
946,-8.163761138916016,-25.626392364501953,2.2761430740356445,0.05665314197540283,0.19201795756816864,0.7562313079833984,0
947,-7.234377384185791,-30.130107879638672,2.563363552093506,0.4695849120616913,0.05928962677717209,0.7812989950180054,0
948,-6.789714813232422,-23.789838790893555,2.4765779972076416,0.758025586605072,-0.05514587089419365,0.8056683540344238,0
949,-4.447604656219482,-12.244019508361816,2.3093793392181396,1.1509103775024414,-0.1474660038948059,0.8338286876678467,0
950,-1.1409966945648193,3.97821044921875,1.9652652740478516,1.0249606370925903,-0.07194287329912186,0.8464499115943909,0
951,1.9991129636764526,19.453397750854492,2.1945548057556152,0.9242191910743713,-0.15412715077400208,0.8723794221878052,0
952,4.1182451248168945,28.022981643676758,1.8294214010238647,0.7569762468338013,-0.11543203145265579,0.8958077430725098,0
953,3.442425012588501,28.517494201660156,1.9431862831115723,0.42853856086730957,-0.051032617688179016,0.9135182499885559,0
954,3.4198453426361084,25.051612854003906,1.143670916557312,0.11025172472000122,0.018775397911667824,0.9302056431770325,0
955,1.0621334314346313,13.91176700592041,0.8250736594200134,-0.014732315205037594,0.07187935709953308,0.9450297355651855,0
956,-0.9925279021263123,1.3314647674560547,0.7796971797943115,-0.06978897005319595,0.07237903773784637,0.9574416875839233,0
957,-3.235841989517212,-8.48063850402832,0.4413018524646759,-0.2399413287639618,0.054875876754522324,0.9637173414230347,0
958,-2.740077018737793,-16.14328956604004,0.6075116395950317,0.007881912402808666,0.02063668891787529,0.9685759544372559,0
959,-5.751677989959717,-20.147306442260742,0.9823183417320251,0.274105042219162,-0.04991196468472481,0.9780601859092712,0
960,-5.020895481109619,-14.081046104431152,0.9675450325012207,0.3486253619194031,-0.15745271742343903,0.9889578819274902,0
961,-1.7581228017807007,-4.469777584075928,0.20469801127910614,0.3496474325656891,-0.22393931448459625,0.9960916042327881,0
962,1.6597522497177124,0.7592947483062744,-0.5381360054016113,0.3611511290073395,-0.16325069963932037,0.9862833023071289,0
963,2.7848784923553467,8.10112476348877,-0.4784544110298157,0.33531999588012695,-0.1572972536087036,0.9779906272888184,0
964,4.346353054046631,12.677838325500488,-0.01453179121017456,0.3154936730861664,-0.11226793378591537,0.9679781198501587,0
965,3.6955647468566895,14.109230041503906,0.6867979764938354,0.15392136573791504,-0.10555453598499298,0.9725438356399536,0
966,1.9114093780517578,11.241515159606934,0.6332293748855591,0.07042299956083298,0.027179976925253868,0.9636155366897583,0
967,0.7035499811172485,5.552922248840332,0.18316742777824402,-0.169610396027565,-0.01420574076473713,0.9734998941421509,0
