,timestamp_start,timestamp_end,acc.x,acc.y,acc.z,gyro.x,gyro.y,gyro.z,mag.x,mag.y,mag.z,stabilizer.pitch,stabilizer.roll,stabilizer.yaw
0,181701,181702,-0.02860679104924202,-0.15298053622245789,1.036392331123352,58.60517883300781,-15.064621925354004,-1.2447211742401123,-0.014999249950051308,1.5779210329055786,2.918853998184204,0.3494785726070404,2.176532506942749,1.812630534172058
1,181711,181712,-0.033208273351192474,-0.2210003286600113,0.9437099099159241,44.518367767333984,-22.23014259338379,-4.990735054016113,-0.026998650282621384,1.5539222955703735,2.9548521041870117,0.34576529264450073,2.394717216491699,1.6803189516067505
2,181721,181722,-0.017120184376835823,-0.13373808562755585,0.9641810059547424,15.581192016601562,-17.38282012939453,-7.47260046005249,-0.019499024376273155,1.567421555519104,2.9593520164489746,0.5554971098899841,2.655313491821289,1.6081557273864746
3,181731,181732,0.013269887305796146,-0.1675562858581543,0.8963145613670349,-19.838001251220703,-5.6038498878479,-5.9124674797058105,-0.0029998498503118753,1.5719213485717773,2.9098544120788574,0.7713099718093872,2.8127193450927734,1.5839695930480957
4,181741,181742,0.02562491036951542,-0.13778477907180786,0.8932734131813049,-46.586666107177734,14.031906127929688,-5.272665500640869,-0.005999699700623751,1.5509223937988281,2.894855260848999,0.7406204342842102,2.4054086208343506,1.516890287399292
5,181751,181752,0.006860887631773949,-0.1731013059616089,0.8602278232574463,-49.98078536987305,20.47174644470215,-6.290080547332764,0.007499624975025654,1.5734213590621948,2.9053547382354736,0.3802274465560913,1.7633153200149536,1.342702031135559
6,181761,181762,0.017730245366692543,-0.14309492707252502,0.9013486504554749,-33.283390045166016,14.904623985290527,-7.139784336090088,0.014999249950051308,1.5629218816757202,2.9038548469543457,0.2811468243598938,1.3085261583328247,1.345973014831543
7,181771,181772,0.025579506531357765,-0.1332046389579773,0.9448158144950867,-9.810643196105957,13.486410140991211,-9.770148277282715,0.0014999249251559377,1.5554221868515015,2.890355348587036,0.05142701417207718,1.3672149181365967,1.215396523475647
8,181781,181782,0.012261240743100643,-0.1582687646150589,0.9469766020774841,14.996176719665527,9.914129257202148,-11.614655494689941,0.0014999249251559377,1.5584220886230469,2.8873555660247803,0.05048196017742157,1.389022707939148,1.2012280225753784
9,181791,181792,0.034684568643569946,-0.05176853388547897,1.0155308246612549,33.47837448120117,2.5514352321624756,-13.75700855255127,-0.0029998498503118753,1.5599219799041748,2.9128541946411133,-0.08310923725366592,1.7629636526107788,1.0461376905441284
10,181801,181802,0.02542397379875183,-0.04747363552451134,1.0258641242980957,49.66641616821289,-2.888415813446045,-13.249509811401367,-0.005999699700623751,1.565921664237976,2.888855457305908,0.0294028427451849,1.7477471828460693,0.9698794484138489
11,181811,181812,0.05019381269812584,-0.12999823689460754,0.9993731379508972,52.18518829345703,-3.1408376693725586,-9.849666595458984,-0.03149842470884323,1.5644217729568481,2.9323532581329346,-0.4660698175430298,2.388796329498291,0.5056319832801819
12,181821,181822,0.027045994997024536,-0.1164088249206543,0.9638652801513672,40.26821517944336,-3.276829957962036,-4.918601036071777,-0.026998650282621384,1.5779210329055786,2.9488525390625,-1.2028834819793701,3.198761463165283,-0.032018885016441345
13,181831,181832,-0.0019970820285379887,-0.15345355868339539,0.9522958397865295,21.027563095092773,-1.06855309009552,-3.9933841228485107,-0.013499325141310692,1.5644217729568481,2.9293534755706787,-1.2131930589675903,3.7761762142181396,-0.06465192884206772
14,181841,181842,0.03139342740178108,-0.09943517297506332,0.9365514516830444,-15.943528175354004,-2.269836664199829,-4.328417778015137,-0.005999699700623751,1.565921664237976,2.9158542156219482,-1.0866875648498535,3.9385557174682617,-0.027552077546715736
15,181851,181852,0.06623607873916626,-0.07884572446346283,1.0278481245040894,-47.832637786865234,-6.103083610534668,-4.864037990570068,-0.010499474592506886,1.5524224042892456,2.899354934692383,-0.9691503047943115,3.41440486907959,-0.04336230456829071
16,181861,181862,0.0846337154507637,-0.14136727154254913,0.9628615975379944,-67.39383697509766,-28.041461944580078,-7.378183364868164,0.005999699700623751,1.5389230251312256,2.870856523513794,-0.6958523392677307,3.128113269805908,0.04853447154164314
17,181871,181872,0.035960081964731216,-0.15828648209571838,0.9752956032752991,-76.99835205078125,-53.75621795654297,-10.335992813110352,0.004499774891883135,1.5524224042892456,2.899354934692383,-0.2294638454914093,2.0268611907958984,-0.05214809626340866
18,181881,181882,0.007553316652774811,-0.16849887371063232,0.9534926414489746,-65.90164947509766,-57.41474151611328,-11.305863380432129,0.0,1.565921664237976,2.9128541946411133,0.6769861578941345,1.5523978471755981,0.12219534814357758
19,181891,181892,0.019424721598625183,-0.16150283813476562,0.9065918326377869,-47.94810485839844,-40.46782684326172,-14.055745124816895,0.011999399401247501,1.5539222955703735,2.8798558712005615,1.365013599395752,0.8952674269676208,0.09639781713485718
20,181901,181902,-0.01996246539056301,-0.16910706460475922,0.8549972176551819,-19.96978759765625,-10.466591835021973,-11.082881927490234,0.022498873993754387,1.5584220886230469,2.866356611251831,1.6939996480941772,0.7009238600730896,-0.005317511968314648
21,181911,181912,0.012485257349908352,-0.1321452409029007,0.863008439540863,-2.213459014892578,21.253116607666016,-3.8881194591522217,0.014999249950051308,1.5569220781326294,2.8618569374084473,1.5170133113861084,0.7057801485061646,-0.195521742105484
22,181921,181922,0.007198871113359928,-0.13828866183757782,0.8174508810043335,11.339853286743164,39.47378921508789,4.1487603187561035,0.03449827432632446,1.5554221868515015,2.8513574600219727,1.1066467761993408,0.9426459074020386,-0.2718700170516968
23,181931,181932,0.022866493090987206,-0.14568105340003967,0.8333812952041626,16.414913177490234,49.13993835449219,11.028103828430176,0.010499474592506886,1.5644217729568481,2.8783559799194336,0.731421947479248,1.084153413772583,-0.16239672899246216
24,181941,181942,0.027965566143393517,-0.11512670665979385,0.8872211575508118,6.912093639373779,47.78401184082031,14.687393188476562,0.0014999249251559377,1.5644217729568481,2.890355348587036,0.31312787532806396,1.2297289371490479,0.01727428287267685
25,181951,181952,0.003961883019655943,-0.10242269188165665,0.8734593987464905,-21.582365036010742,40.28042221069336,13.314529418945312,0.0,1.5629218816757202,2.8798558712005615,-0.2564755976200104,1.146998643875122,0.09984394907951355
26,181961,181962,0.03677365928888321,-0.10878468304872513,0.8488154411315918,-59.502803802490234,25.06273651123047,13.619675636291504,0.004499774891883135,1.567421555519104,2.869356393814087,-0.4709739089012146,0.6570257544517517,0.3158787190914154
27,181971,181972,0.055563539266586304,-0.10415399819612503,0.8601838946342468,-79.65696716308594,6.444178581237793,9.792306900024414,-0.007499624975025654,1.5584220886230469,2.872356414794922,-0.6147357821464539,-0.1723819077014923,0.4518616497516632
28,181981,181982,0.03572027012705803,-0.10022970288991928,0.8578174710273743,-81.76956939697266,-18.239849090576172,3.4655497074127197,-0.013499325141310692,1.5734213590621948,2.899354934692383,-0.610368549823761,-1.1924899816513062,0.5150965452194214
29,181991,181992,0.011837695725262165,-0.09153486043214798,0.8429641723632812,-74.83349609375,-39.84030532836914,-1.5546424388885498,0.0029998498503118753,1.580920934677124,2.8798558712005615,-0.17047825455665588,-1.779874324798584,0.6454556584358215
30,182001,182002,-0.0001697217085165903,-0.07595544308423996,0.818917453289032,-71.24967956542969,-48.11701583862305,-4.555421829223633,0.0029998498503118753,1.5899205207824707,2.897855043411255,0.32480719685554504,-2.467296600341797,0.6598958373069763
31,182011,182012,-0.009894374758005142,-0.07863745093345642,0.803255021572113,-64.81216430664062,-54.41240692138672,-3.02492094039917,-0.00899954978376627,1.595920205116272,2.9158542156219482,0.8153250217437744,-3.1187243461608887,0.6378747224807739
32,182021,182022,-0.018425242975354195,-0.07209910452365875,0.836636483669281,-47.47380828857422,-49.84689712524414,-2.0525619983673096,0.005999699700623751,1.5989199876785278,2.92185378074646,1.5491889715194702,-3.6735622882843018,0.7184941172599792
33,182031,182032,-0.0014604866737499833,-0.07793723791837692,0.853793740272522,-25.642505645751953,-32.17350769042969,-1.1490875482559204,0.014999249950051308,1.6019198894500732,2.9038548469543457,1.913475513458252,-3.685349941253662,0.7277041077613831
34,182041,182042,-0.00377743155695498,-0.05524744465947151,0.8959947824478149,-4.424335479736328,-0.8694053292274475,1.035239338874817,0.0014999249251559377,1.6064196825027466,2.917354106903076,2.0658929347991943,-3.8040060997009277,0.7256135940551758
35,182051,182052,-0.02015971951186657,-0.07140551507472992,0.8679213523864746,11.20685863494873,33.2495231628418,2.6554930210113525,0.00899954978376627,1.6019198894500732,2.9068546295166016,1.8216549158096313,-3.8769564628601074,0.70719975233078
36,182061,182062,-0.009338252246379852,-0.09544257819652557,0.8794528245925903,18.256755828857422,52.120601654052734,4.334217071533203,-0.011999399401247501,1.595920205116272,2.924853801727295,1.1787089109420776,-3.6669328212738037,0.6796991229057312
37,182071,182072,-0.030371852219104767,-0.14989714324474335,0.9381040930747986,25.638240814208984,57.73542785644531,7.290155410766602,-0.010499474592506886,1.6274186372756958,2.950352430343628,0.7806298136711121,-3.690704107284546,0.71328204870224
38,182081,182082,-0.01419353112578392,-0.08424324542284012,0.9426220655441284,32.405372619628906,56.17155838012695,8.717220306396484,-0.010499474592506886,1.6184190511703491,2.9593520164489746,-0.023744842037558556,-3.300265073776245,0.7475472688674927
39,182091,182092,0.0026114892680197954,-0.04485095664858818,0.9514760375022888,34.920684814453125,40.41442108154297,10.539978981018066,-0.03449827432632446,1.6214189529418945,2.9623517990112305,-0.17226161062717438,-3.2245941162109375,0.8099625706672668
40,182101,182102,0.011642896570265293,-0.07332159578800201,0.9064992070198059,22.213621139526367,15.720991134643555,13.991660118103027,-0.007499624975025654,1.6094194650650024,2.9563522338867188,-0.639076292514801,-2.6693339347839355,0.9144746661186218
41,182111,182112,-0.006389240268617868,-0.11919202655553818,0.8519474267959595,-3.5752274990081787,-0.7758864164352417,19.74896812438965,-0.022498873993754387,1.6094194650650024,2.944352626800537,-0.6625528335571289,-2.8289546966552734,1.0623064041137695
42,182121,182122,-0.0034724166616797447,-0.1015930324792862,0.8585061430931091,-29.89339828491211,-20.645423889160156,24.080169677734375,0.0029998498503118753,1.595920205116272,2.9308533668518066,-0.5036668181419373,-3.0559744834899902,1.2695178985595703
43,182131,182132,-0.08241085708141327,-0.050291623920202255,0.840265691280365,-44.436798095703125,-43.629981994628906,23.18624496459961,-0.026998650282621384,1.6079195737838745,2.9578521251678467,-0.2869933247566223,-3.5104482173919678,1.5289708375930786
44,182141,182142,-0.04917605593800545,-0.05280112475156784,0.8694985508918762,-44.57929992675781,-54.843753814697266,20.84792137145996,-0.019499024376273155,1.6064196825027466,2.947352647781372,0.408024400472641,-4.098602771759033,1.7470126152038574
45,182151,182152,-0.012750212103128433,-0.0697917491197586,0.89421546459198,-45.2955436706543,-55.75020217895508,19.5357723236084,-0.02099894918501377,1.6139192581176758,2.9608519077301025,0.9309002161026001,-4.4732346534729,1.9987441301345825
46,182161,182162,-0.0477905236184597,0.02430075779557228,0.9185397028923035,-39.60471725463867,-47.673397064208984,19.022274017333984,-0.029998499900102615,1.6169191598892212,2.9668517112731934,1.4192836284637451,-5.181942462921143,2.2352497577667236
47,182171,182172,-0.04063805937767029,-0.029954755678772926,0.9106680154800415,-22.650056838989258,-25.135513305664062,17.52816390991211,-0.025498725473880768,1.6214189529418945,2.971351385116577,1.673464059829712,-5.431235313415527,2.4852917194366455
48,182181,182182,-0.0011971753556281328,-0.07390730082988739,0.9340312480926514,1.7016944885253906,-0.5560576319694519,15.685114860534668,-0.01799909956753254,1.6229188442230225,2.9608519077301025,1.7864559888839722,-5.518251419067383,2.6800453662872314
49,182191,182192,-0.06525249779224396,-0.05632150545716286,0.9558175802230835,27.04007339477539,24.245952606201172,12.219186782836914,-0.019499024376273155,1.6244187355041504,2.944352626800537,1.6428264379501343,-5.533963203430176,2.836824417114258
50,182201,182202,-0.035037774592638016,-0.06628718972206116,0.9734004139900208,48.21048355102539,49.023338317871094,6.8291497230529785,-0.03599819913506508,1.6379181146621704,2.978851079940796,1.0894912481307983,-4.922921657562256,2.9743716716766357
51,182211,182212,0.0002015589561779052,-0.11530125141143799,0.9305077195167542,59.94851303100586,59.778690338134766,0.36617738008499146,-0.04949752241373062,1.6424179077148438,2.9953501224517822,0.6898618340492249,-4.729338645935059,2.926687002182007
52,182221,182222,-0.0024971088860183954,-0.12205369025468826,0.9880774617195129,74.3467025756836,42.03861999511719,-4.716761589050293,-0.05549722537398338,1.648417592048645,3.031348466873169,-0.07760249823331833,-3.903968095779419,2.95257306098938
53,182231,182232,0.05655475705862045,-0.06580805033445358,0.98304682970047,83.11070251464844,22.994436264038086,-9.890860557556152,-0.04349782317876816,1.6244187355041504,3.0193488597869873,-0.21412967145442963,-3.132957696914673,2.7799901962280273
54,182241,182242,0.04829572141170502,-0.12018172442913055,0.9904584884643555,94.5687484741211,-3.252770185470581,-14.6864013671875,-0.0659966990351677,1.6289185285568237,3.0358481407165527,-0.4211803376674652,-2.297825336456299,2.6960439682006836
55,182251,182252,-0.050319425761699677,-0.12634636461734772,1.0240306854248047,104.61045837402344,-15.740853309631348,-16.022127151489258,-0.04949752241373062,1.6214189529418945,3.025348663330078,-0.1527237445116043,-1.7380602359771729,2.4650206565856934
56,182261,182262,-0.02683550864458084,-0.12734463810920715,1.0539110898971558,97.20619201660156,-22.126192092895508,-15.168357849121094,-0.058497074991464615,1.6064196825027466,3.049347400665283,0.11938557773828506,-0.3782215118408203,2.2772412300109863
57,182271,182272,0.018758559599518776,-0.15704245865345,1.0668737888336182,88.07818603515625,-18.574466705322266,-15.87070083618164,-0.04649767279624939,1.6214189529418945,3.0463476181030273,0.4710635542869568,0.18566524982452393,2.068070650100708
58,182281,182282,0.011702205054461956,-0.16722552478313446,1.0487749576568604,74.08125305175781,-15.20572280883789,-16.6124210357666,-0.056997150182724,1.6019198894500732,3.029848337173462,0.6969103217124939,1.1107648611068726,1.8813326358795166
59,182291,182292,-0.0012600288027897477,-0.18699415028095245,1.0561723709106445,48.80013656616211,-4.954531192779541,-19.47762680053711,-0.03599819913506508,1.6079195737838745,3.0208489894866943,0.8792870044708252,1.545736312866211,1.68229079246521
60,182301,182302,0.02817818708717823,-0.2006896287202835,1.0565584897994995,6.664190292358398,19.342716217041016,-19.931438446044922,-0.029998499900102615,1.595920205116272,3.005849599838257,0.8423746824264526,1.9754822254180908,1.4801667928695679
61,182311,182312,0.00604975875467062,-0.1753750443458557,1.0691064596176147,-27.235366821289062,40.22996139526367,-20.482444763183594,-0.037498123943805695,1.5764211416244507,2.9893505573272705,0.4434906840324402,1.8452950716018677,1.316843032836914
62,182321,182322,0.028331676498055458,-0.15994079411029816,1.0817691087722778,-38.613128662109375,58.114070892333984,-18.838998794555664,-0.03599819913506508,1.5929203033447266,2.9848506450653076,-0.29172250628471375,1.4390947818756104,1.1748366355895996
63,182331,182332,0.021548258140683174,-0.12817825376987457,1.1136003732681274,-35.25867462158203,59.80097579956055,-17.836273193359375,-0.05549722537398338,1.6064196825027466,2.9893505573272705,-0.7294665575027466,1.0039044618606567,0.9824589490890503
64,182341,182342,0.11235705763101578,-0.0898858904838562,1.1122894287109375,-22.92313575744629,51.40423583984375,-15.495217323303223,-0.04949752241373062,1.5914204120635986,2.9923503398895264,-1.4088083505630493,0.681710422039032,0.8243922591209412
65,182351,182352,0.05034647881984711,-0.09232966601848602,1.1259313821792603,-2.732292413711548,28.96997833251953,-17.00582504272461,-0.047997597604990005,1.6079195737838745,2.9848506450653076,-1.7356445789337158,0.5066707730293274,0.6721897721290588
66,182361,182362,0.039427194744348526,-0.12284062057733536,1.1375819444656372,36.737239837646484,1.9852813482284546,-23.095441818237305,-0.023998798802495003,1.604919672012329,2.9908504486083984,-2.0896389484405518,0.865383505821228,0.502495288848877
67,182371,182372,0.05153600126504898,-0.14658117294311523,1.0952645540237427,60.040771484375,-13.666646957397461,-25.284500122070312,-0.037498123943805695,1.5854207277297974,2.9653515815734863,-1.9032317399978638,1.3479483127593994,0.25864219665527344
68,182381,182382,0.04178348183631897,-0.1779182255268097,1.0674494504928589,61.9013671875,-23.960988998413086,-17.224533081054688,-0.044997747987508774,1.5839207172393799,2.9938502311706543,-1.728974461555481,2.0856950283050537,0.040597520768642426
69,182391,182392,0.046426884829998016,-0.15543101727962494,1.0875389575958252,61.11284255981445,-29.348859786987305,-12.128881454467773,-0.044997747987508774,1.5749212503433228,2.972851276397705,-1.335188388824463,2.538923501968384,-0.13981588184833527
70,182401,182402,-0.010644502937793732,-0.23193542659282684,1.0974786281585693,55.97100067138672,-30.665496826171875,-7.168735504150391,-0.037498123943805695,1.5764211416244507,2.977351188659668,-1.0711528062820435,3.3207972049713135,-0.23546181619167328
71,182411,182412,-0.03137117251753807,-0.22275371849536896,1.0640355348587036,48.36959457397461,-16.86634063720703,-1.9290962219238281,-0.03899804875254631,1.565921664237976,2.9608519077301025,-0.8382329344749451,3.782228946685791,-0.3193424940109253
72,182421,182422,-0.0003080639580730349,-0.13516610860824585,1.0754536390304565,30.683454513549805,-3.1593916416168213,-1.1582326889038086,-0.023998798802495003,1.5689215660095215,2.9548521041870117,-0.7257782816886902,4.258392810821533,-0.33126312494277954
73,182431,182432,0.023164039477705956,-0.1366766095161438,1.0113078355789185,10.938170433044434,20.331451416015625,-3.036299467086792,-0.025498725473880768,1.5614218711853027,2.9353532791137695,-0.8858461976051331,4.392763137817383,-0.39056894183158875
74,182441,182442,0.02637866698205471,-0.18697892129421234,0.9656355977058411,-26.44587516784668,35.561649322509766,-3.1773359775543213,-0.016499174758791924,1.5584220886230469,2.917354106903076,-1.3400137424468994,4.459384441375732,-0.4375002086162567
75,182451,182452,0.003792667295783758,-0.17580252885818481,0.9674857258796692,-59.022003173828125,37.22124099731445,1.04390287399292,-0.03599819913506508,1.5599219799041748,2.927853584289551,-1.8116860389709473,4.041313171386719,-0.4626076817512512
76,182461,182462,-0.008355524390935898,-0.16660256683826447,0.9107703566551208,-73.19673156738281,19.61737060546875,2.682931900024414,-0.026998650282621384,1.5779210329055786,2.942852735519409,-2.0631961822509766,3.264413595199585,-0.4237520098686218
77,182471,182472,-0.026715533807873726,-0.14988166093826294,0.9800360202789307,-72.89124298095703,-11.163813591003418,-0.24001391232013702,-0.026998650282621384,1.5629218816757202,2.942852735519409,-2.0761067867279053,2.6695446968078613,-0.33176156878471375
78,182481,182482,-0.010350794531404972,-0.15638571977615356,1.0351821184158325,-56.64608383178711,-40.933650970458984,-5.767735481262207,-0.022498873993754387,1.5614218711853027,2.944352626800537,-1.7929179668426514,1.890769124031067,-0.3578260540962219
79,182491,182492,0.0035216466058045626,-0.1579347550868988,1.0350306034088135,-30.52214813232422,-64.65666961669922,-13.17232894897461,-0.026998650282621384,1.5599219799041748,2.945852756500244,-1.2719343900680542,1.5440036058425903,-0.40716955065727234
80,182501,182502,0.0100856376811862,-0.1346978098154068,1.0410715341567993,12.24021053314209,-75.9027099609375,-16.51024055480957,-0.040497973561286926,1.5734213590621948,2.9653515815734863,-0.49159926176071167,1.6539682149887085,-0.46112701296806335
81,182511,182512,-0.037282370030879974,-0.17953741550445557,1.0509533882141113,54.78386306762695,-72.38548278808594,-16.312942504882812,-0.03149842470884323,1.567421555519104,2.977351188659668,0.4434291422367096,2.0793163776397705,-0.5188148021697998
82,182521,182522,-0.03111882507801056,-0.17853766679763794,1.037537693977356,88.50397491455078,-52.99058151245117,-17.573427200317383,-0.023998798802495003,1.5779210329055786,2.9668517112731934,0.7406953573226929,2.8913567066192627,-0.8472862839698792
83,182531,182532,0.04838453605771065,-0.14725378155708313,0.9538799524307251,103.80665588378906,-25.845020294189453,-19.89870834350586,-0.026998650282621384,1.580920934677124,2.9848506450653076,1.2774056196212769,4.201642990112305,-0.932959794998169
84,182541,182542,0.01449015736579895,-0.1629280000925064,0.9351493716239929,99.66265106201172,-3.5459837913513184,-24.714048385620117,-0.023998798802495003,1.5689215660095215,2.9908504486083984,1.2666561603546143,4.826684951782227,-1.3303000926971436
85,182551,182552,0.062329985201358795,-0.11474058032035828,0.9494369029998779,71.0683822631836,15.197381019592285,-23.05867576599121,-0.016499174758791924,1.5614218711853027,2.974351167678833,1.2262688875198364,5.829726219177246,-1.5587764978408813
86,182561,182562,0.08986024558544159,-0.12043033540248871,0.9840874671936035,30.176294326782227,34.07537078857422,-17.51207160949707,-0.03149842470884323,1.5464226007461548,2.9863505363464355,0.9397368431091309,6.2057671546936035,-1.807337999343872
87,182571,182572,0.06665920466184616,-0.16086095571517944,0.943847119808197,-20.246292114257812,55.88949203491211,-15.081859588623047,-0.01799909956753254,1.5479226112365723,2.9488525390625,0.3347204327583313,6.300342559814453,-2.0266928672790527
88,182581,182582,0.02209966443479061,-0.16294610500335693,0.950406014919281,-76.76712036132812,67.16064453125,-13.105072021484375,-0.023998798802495003,1.565921664237976,2.9578521251678467,-0.4360339641571045,5.729427337646484,-2.212486743927002
89,182591,182592,0.06349644809961319,-0.1062556728720665,0.9297897815704346,-118.89647674560547,67.6371078491211,-10.785057067871094,-0.028498575091362,1.582420825958252,2.9653515815734863,-1.021295428276062,4.51019287109375,-2.2522146701812744
90,182601,182602,0.07711070030927658,-0.08984248340129852,0.9027265310287476,-139.15133666992188,56.949546813964844,-11.914556503295898,-0.014999249950051308,1.595920205116272,2.9668517112731934,-1.6317172050476074,3.397998332977295,-2.2674167156219482
91,182611,182612,0.06043948978185654,-0.06115422397851944,0.9921302795410156,-128.2980499267578,30.590145111083984,-12.505304336547852,-0.019499024376273155,1.5974200963974,2.9563522338867188,-2.2728395462036133,1.7035304307937622,-2.520620822906494
92,182621,182622,0.13812431693077087,-0.1554088443517685,0.9651749134063721,-103.23564910888672,2.700655221939087,-7.27376651763916,-0.022498873993754387,1.6004199981689453,2.9413528442382812,-2.229459047317505,1.0514212846755981,-2.3538923263549805
93,182631,182632,0.08332961052656174,-0.12672795355319977,0.9354777932167053,-64.61936950683594,-18.558494567871094,-3.8274247646331787,-0.0029998498503118753,1.5779210329055786,2.927853584289551,-2.0995516777038574,-0.04617247357964516,-2.4103434085845947
94,182641,182642,0.047021593898534775,-0.10295111685991287,0.9138457775115967,-30.72757339477539,-21.693967819213867,-0.7386938333511353,0.010499474592506886,1.5854207277297974,2.9083545207977295,-1.964868426322937,-0.17918452620506287,-2.397254467010498
95,182651,182652,0.03948229178786278,-0.053197942674160004,0.8815950155258179,-10.23580265045166,-29.487449645996094,1.074285626411438,-0.013499325141310692,1.5764211416244507,2.899354934692383,-1.625089168548584,-0.5292820930480957,-2.365010976791382
96,182661,182662,-0.02588978037238121,-0.05046965181827545,0.923774003982544,-5.560924053192139,-30.376340866088867,3.613701820373535,-0.0014999249251559377,1.5944201946258545,2.920353889465332,-1.4707201719284058,-0.4795398712158203,-2.3947818279266357
97,182671,182672,-0.022052543237805367,-0.11967884749174118,0.9066802859306335,-15.719106674194336,-23.83428955078125,5.775914192199707,-0.016499174758791924,1.582420825958252,2.9023547172546387,-1.0615144968032837,-0.5993814468383789,-2.2866199016571045
98,182681,182682,-0.004812060855329037,-0.092453233897686,0.8754055500030518,-33.30044937133789,-24.31095314025879,5.56410026550293,0.0014999249251559377,1.5854207277297974,2.9023547172546387,-1.0747908353805542,-0.7940344214439392,-2.3396198749542236
99,182691,182692,0.07765533775091171,-0.09479166567325592,0.8072547912597656,-42.6910400390625,-25.93889617919922,4.551935195922852,0.0029998498503118753,1.5749212503433228,2.8858556747436523,-0.6934125423431396,-1.107615351676941,-2.2082035541534424
100,182701,182702,0.10918892920017242,-0.027675064280629158,0.8307182788848877,-44.065940856933594,-31.981237411499023,0.3998294472694397,-0.005999699700623751,1.5989199876785278,2.9128541946411133,-0.37790563702583313,-1.8170239925384521,-2.2257440090179443
101,182711,182712,0.025892576202750206,-0.05215222015976906,0.88726806640625,-33.21598434448242,-32.72605514526367,-3.7037110328674316,0.0,1.5929203033447266,2.9158542156219482,-0.14252310991287231,-2.2405500411987305,-2.264923095703125
102,182721,182722,-0.022172577679157257,-0.1373584121465683,0.9578315019607544,-20.33737564086914,-29.042539596557617,-6.084614276885986,0.0,1.604919672012329,2.924853801727295,0.06916466355323792,-2.3938865661621094,-2.30081844329834
103,182731,182732,0.015724018216133118,-0.2074117511510849,0.9677014350891113,-11.30270767211914,-15.283076286315918,-8.712371826171875,-0.007499624975025654,1.6004199981689453,2.923353672027588,0.44460198283195496,-2.3779542446136475,-2.285538673400879
104,182741,182742,0.06559155881404877,-0.11524227261543274,0.976630449295044,-5.081684112548828,-8.344483375549316,-10.94955062866211,-0.016499174758791924,1.6004199981689453,2.9383530616760254,0.4334581792354584,-2.5175657272338867,-2.4161200523376465
105,182751,182752,0.07247327268123627,-0.014502260833978653,0.9886386394500732,-3.3335483074188232,-12.194578170776367,-12.095231056213379,-0.01799909956753254,1.6169191598892212,2.951852321624756,0.6031712293624878,-2.6340463161468506,-2.5297770500183105
106,182761,182762,0.0734175518155098,-0.10448008030653,1.0276037454605103,-4.119541645050049,-15.537835121154785,-12.741181373596191,-0.02099894918501377,1.61091947555542,2.945852756500244,0.7300165295600891,-2.641737222671509,-2.647794723510742
107,182771,182772,0.01658996380865574,-0.1992739588022232,1.0001355409622192,-10.060783386230469,-19.234315872192383,-9.491598129272461,-0.007499624975025654,1.6154191493988037,2.944352626800537,0.9030986428260803,-2.7759923934936523,-2.7693607807159424
108,182781,182782,0.002023800276219845,-0.1358059048652649,0.9388708472251892,-14.834329605102539,-21.717227935791016,-4.00502347946167,-0.007499624975025654,1.6034197807312012,2.944352626800537,1.018143653869629,-2.946165084838867,-2.8426029682159424
109,182791,182792,0.04262678697705269,-0.08489090949296951,1.0252418518066406,-13.884856224060059,-23.875213623046875,1.161739706993103,0.0,1.6229188442230225,2.9668517112731934,1.3105545043945312,-3.1533877849578857,-2.8572373390197754
110,182801,182802,0.05547956004738808,-0.07824115455150604,1.0663596391677856,3.4948530197143555,-23.726421356201172,6.112154960632324,-0.014999249950051308,1.6169191598892212,2.9488525390625,1.5402195453643799,-3.2484354972839355,-2.8159708976745605
111,182811,182812,0.024136273190379143,-0.07389514148235321,0.9437932968139648,12.507909774780273,-21.941694259643555,10.412654876708984,-0.005999699700623751,1.619918942451477,2.9398529529571533,1.8926424980163574,-3.0656020641326904,-2.7348241806030273
112,182821,182822,-0.03460409864783287,-0.09944944828748703,0.9559059739112854,9.448604583740234,-21.446636199951172,14.566176414489746,-0.0014999249251559377,1.6064196825027466,2.953352212905884,1.7861576080322266,-3.0351107120513916,-2.5683727264404297
113,182831,182832,-0.058529261499643326,-0.18594299256801605,0.92771315574646,1.7493252754211426,-10.937371253967285,17.750762939453125,-0.00899954978376627,1.6079195737838745,2.9488525390625,2.0641775131225586,-2.993800163269043,-2.4168131351470947
114,182841,182842,-0.0015258870553225279,-0.12045370787382126,0.973386824131012,-11.961886405944824,4.6087870597839355,19.99876594543457,0.0,1.6169191598892212,2.9368531703948975,2.053542375564575,-3.2580575942993164,-2.212209939956665
115,182851,182852,0.060087405145168304,-0.06646966934204102,0.9744881391525269,-27.443702697753906,21.402774810791016,21.892335891723633,0.013499325141310692,1.5974200963974,2.9353532791137695,1.8028323650360107,-3.4561262130737305,-1.9764899015426636
116,182861,182862,0.0677758976817131,-0.059686485677957535,1.0560789108276367,-32.32514190673828,31.819168090820312,24.089860916137695,-0.007499624975025654,1.6094194650650024,2.9593520164489746,1.5088247060775757,-3.795718193054199,-1.757340669631958
117,182871,182872,0.01563112437725067,-0.07270316779613495,1.066114902496338,-23.417070388793945,36.28643798828125,27.060400009155273,-0.005999699700623751,1.6379181146621704,2.969851493835449,1.2080488204956055,-3.9768192768096924,-1.5552643537521362
118,182881,182882,0.005717038176953793,-0.056144773960113525,1.0215569734573364,-18.025157928466797,35.844581604003906,28.14686393737793,-0.01799909956753254,1.6439177989959717,2.972851276397705,0.8667599558830261,-4.307350158691406,-1.3049720525741577
119,182891,182892,0.03316040337085724,-0.010441376827657223,0.9657994508743286,-11.173588752746582,28.79387855529785,27.653352737426758,-0.007499624975025654,1.6274186372756958,2.9833507537841797,0.4215005338191986,-4.468501567840576,-1.0227192640304565
120,182901,182902,0.10777773708105087,0.03069218434393406,1.012052297592163,0.36091098189353943,19.251279830932617,25.255176544189453,-0.016499174758791924,1.633418321609497,2.977351188659668,0.19465318322181702,-4.556626796722412,-0.7850430607795715
121,182911,182912,0.13856081664562225,-0.006238263100385666,1.0172442197799683,23.072429656982422,1.3077466487884521,22.697498321533203,-0.013499325141310692,1.6304184198379517,2.947352647781372,0.003424804424867034,-4.5255022048950195,-0.5313457250595093
122,182921,182922,0.09918128699064255,-0.039649028331041336,0.9976320862770081,50.39057159423828,-25.79865837097168,20.843994140625,-0.013499325141310692,1.636418104171753,2.953352212905884,0.1703691929578781,-4.153966426849365,-0.3507691025733948
123,182931,182932,0.053512152284383774,-0.01586596854031086,1.0042879581451416,72.51374053955078,-47.529258728027344,22.23715591430664,-0.022498873993754387,1.6214189529418945,2.9683516025543213,0.6872655153274536,-3.496918201446533,-0.20373718440532684
124,182941,182942,0.005471821408718824,-0.0027070080395787954,1.0058658123016357,81.61734771728516,-58.475643157958984,26.56856918334961,-0.029998499900102615,1.6289185285568237,2.999850034713745,1.1344233751296997,-2.9764294624328613,0.11011047661304474
125,182951,182952,0.018192213028669357,-0.021409370005130768,1.0234590768814087,82.17560577392578,-50.42212677001953,29.66605567932129,-0.03299834951758385,1.6379181146621704,3.0178489685058594,1.8808101415634155,-1.7605925798416138,0.2864209711551666
126,182961,182962,0.06200402230024338,-0.03390283137559891,1.076634407043457,70.88436126708984,-29.929006576538086,33.38026809692383,-0.023998798802495003,1.6409178972244263,3.026848554611206,2.2670607566833496,-1.412941575050354,0.6795552372932434
127,182971,182972,0.016338558867573738,-0.07413730025291443,1.0710805654525757,57.827396392822266,-10.333137512207031,37.1973762512207,-0.029998499900102615,1.6169191598892212,2.9938502311706543,2.504948377609253,-0.410986989736557,0.9770185947418213
128,182981,182982,-0.0023737058509141207,-0.05942453071475029,1.0280729532241821,41.28951644897461,6.875733852386475,41.391090393066406,-0.014999249950051308,1.5989199876785278,2.9878506660461426,2.486698627471924,-0.3975233733654022,1.473008394241333
129,182991,182992,0.08626963943243027,0.009087582118809223,1.0999356508255005,17.480573654174805,32.290191650390625,42.49028396606445,-0.026998650282621384,1.5869206190109253,2.9668517112731934,2.193366527557373,0.14009803533554077,1.9190610647201538
130,183001,183002,0.08942289650440216,-0.08994588255882263,1.0921977758407593,10.841432571411133,48.292842864990234,43.83277130126953,-0.026998650282621384,1.5839207172393799,2.9638516902923584,1.6760424375534058,0.14750495553016663,2.4228389263153076
131,183011,183012,0.07721197605133057,-0.12820714712142944,1.0612314939498901,3.5853705406188965,44.193641662597656,46.518489837646484,-0.02099894918501377,1.6019198894500732,2.9668517112731934,1.2191346883773804,0.09184162318706512,2.8861165046691895
132,183021,183022,0.028342369943857193,-0.07645274698734283,1.055972933769226,-10.391815185546875,29.506118774414062,48.891990661621094,-0.025498725473880768,1.6004199981689453,2.9593520164489746,0.7015774846076965,0.24232183396816254,3.37823748588562
133,183031,183032,0.0834847092628479,-0.06164460629224777,1.091850757598877,-27.72085952758789,17.217113494873047,50.735164642333984,-0.028498575091362,1.5884205102920532,2.9653515815734863,0.559598982334137,-0.08319942653179169,3.8720242977142334
134,183041,183042,0.027040621265769005,-0.08756960183382034,1.0284395217895508,-34.20600891113281,-9.841882705688477,46.55763244628906,-0.03899804875254631,1.5689215660095215,2.9548521041870117,0.5234616994857788,-0.5713565945625305,4.3834547996521
135,183051,183052,-0.05243979021906853,-0.1061854362487793,0.9706075191497803,-19.1197509765625,-34.12662124633789,40.23033142089844,-0.019499024376273155,1.567421555519104,2.9293534755706787,0.8518661856651306,-0.9675474762916565,4.810512542724609
136,183061,183062,-0.06556452065706253,-0.062166497111320496,1.0166059732437134,3.7599987983703613,-50.80606460571289,31.955570220947266,-0.011999399401247501,1.5719213485717773,2.918853998184204,1.5116000175476074,-0.9837164282798767,5.11577033996582
137,183071,183072,0.0002748372498899698,-0.025387031957507133,0.9638162851333618,30.546525955200195,-59.73551940917969,23.75950813293457,-0.007499624975025654,1.5764211416244507,2.9353532791137695,1.9807301759719849,-0.8892059922218323,5.437995433807373
138,183081,183082,0.04154018685221672,-0.014572740532457829,0.948830783367157,55.05268478393555,-58.999961853027344,16.68157958984375,-0.010499474592506886,1.5764211416244507,2.9653515815734863,2.6892268657684326,-0.14839942753314972,5.57513952255249
139,183091,183092,0.017415456473827362,-0.029886269941926003,0.9019679427146912,65.56749725341797,-46.84621047973633,12.089064598083496,-0.03599819913506508,1.5629218816757202,2.969851493835449,3.405970573425293,-0.20277158915996552,5.818182945251465
140,183101,183102,-0.012838490307331085,-0.00907087605446577,0.9535685181617737,57.593223571777344,-21.957897186279297,7.849923610687256,-0.019499024376273155,1.579421043395996,2.953352212905884,3.75724720954895,0.7612770795822144,5.861935615539551
141,183111,183112,-0.0027370392344892025,-0.053033649921417236,0.9331303238868713,38.45447540283203,14.030800819396973,3.801532506942749,-0.004499774891883135,1.567421555519104,2.9353532791137695,3.86564564704895,0.8702639937400818,6.021235466003418
142,183121,183122,-0.025371184572577477,-0.0936344563961029,0.9440985918045044,11.9743070602417,51.3912353515625,1.3072082996368408,0.0029998498503118753,1.5719213485717773,2.924853801727295,3.339568614959717,1.4191001653671265,6.026922225952148
143,183131,183132,-0.087314672768116,-0.08125415444374084,0.993105947971344,-10.832908630371094,73.60664367675781,1.7222532033920288,-0.010499474592506886,1.5554221868515015,2.9353532791137695,2.703084945678711,0.9594600200653076,6.192572116851807
144,183141,183142,-0.06476150453090668,-0.053939253091812134,0.9812366962432861,-27.151765823364258,82.3924331665039,2.418740749359131,-0.028498575091362,1.579421043395996,2.9683516025543213,1.6972318887710571,0.8167853355407715,6.232450008392334
145,183151,183152,-0.044180963188409805,0.02342531457543373,1.0162490606307983,-20.501384735107422,72.5552749633789,4.318230628967285,-0.026998650282621384,1.5989199876785278,2.9878506660461426,1.090050458908081,0.4668399393558502,6.286359786987305
146,183161,183162,0.02790735475718975,0.0023228421341627836,0.9939767718315125,-3.6742916107177734,50.95269012451172,4.954024791717529,-0.026998650282621384,1.5929203033447266,2.969851493835449,0.34954291582107544,0.38238751888275146,6.322601795196533
147,183171,183172,0.08035572618246078,-0.009724458679556847,0.9683917760848999,8.442363739013672,22.597917556762695,5.008972644805908,-0.03899804875254631,1.5839207172393799,2.9548521041870117,-0.06201540678739548,0.47246891260147095,6.355113506317139
148,183181,183182,0.059687063097953796,-0.07091593742370605,0.9270313382148743,16.86611557006836,-13.397788047790527,4.066327095031738,-0.026998650282621384,1.5779210329055786,2.945852756500244,0.09793493896722794,0.6100867390632629,6.397740364074707
149,183191,183192,-0.01829887367784977,-0.14871735870838165,0.9330521821975708,29.78771209716797,-45.71477127075195,3.775620937347412,-0.03149842470884323,1.5644217729568481,2.9683516025543213,0.5582820773124695,0.6857486963272095,6.466218948364258
150,183201,183202,-0.0879516676068306,-0.17096002399921417,0.9473993182182312,48.25577163696289,-62.94099807739258,5.048834800720215,-0.03149842470884323,1.5914204120635986,2.9953501224517822,1.1953105926513672,1.069132685661316,6.496689319610596
151,183211,183212,-0.06160876154899597,-0.12344294786453247,0.9576242566108704,64.89936065673828,-59.00847625732422,5.734489917755127,-0.037498123943805695,1.582420825958252,3.028348445892334,1.8967479467391968,1.6029499769210815,6.538710594177246
152,183221,183222,-0.048673901706933975,-0.06608268618583679,0.9629202485084534,71.21253204345703,-43.65638732910156,5.801244735717773,-0.040497973561286926,1.5884205102920532,3.031348466873169,2.461729049682617,2.4198150634765625,6.548872470855713
153,183231,183232,-0.011807153932750225,-0.08163368701934814,0.9446959495544434,66.09688568115234,-15.94959545135498,4.242104530334473,-0.04649767279624939,1.582420825958252,3.034348249435425,2.6170434951782227,2.9979255199432373,6.602683067321777
154,183241,183242,-0.07231376320123672,-0.0695110410451889,0.9395619034767151,48.479942321777344,5.253474235534668,1.3001354932785034,-0.044997747987508774,1.5869206190109253,3.029848337173462,2.7134757041931152,3.5856409072875977,6.639645099639893
155,183251,183252,-0.0006211068830452859,-0.005493392702192068,0.9335612654685974,18.623876571655273,22.090496063232422,-2.7341928482055664,-0.03299834951758385,1.5719213485717773,3.0148491859436035,2.535479784011841,3.931786298751831,6.649321556091309
156,183261,183262,0.012776227667927742,0.07138898223638535,1.0417252779006958,-4.9420166015625,32.342254638671875,-7.224125385284424,-0.03599819913506508,1.565921664237976,2.99685001373291,2.2120048999786377,3.8788697719573975,6.650769233703613
157,183271,183272,0.053418826311826706,-0.07835134118795395,1.0357049703598022,-16.662208557128906,36.149375915527344,-11.21638298034668,-0.04199789837002754,1.5929203033447266,3.0448477268218994,1.9714652299880981,3.791435718536377,6.606228828430176
158,183281,183282,0.010352523066103458,-0.1628338098526001,1.032843828201294,-17.753259658813477,35.80495834350586,-15.57939624786377,-0.04949752241373062,1.6004199981689453,3.025348663330078,1.4011714458465576,3.6523187160491943,6.445650577545166
159,183291,183292,-0.042280346155166626,-0.18527887761592865,0.978905975818634,-21.924089431762695,34.5257682800293,-20.70923614501953,-0.04349782317876816,1.582420825958252,3.025348663330078,1.280098795890808,3.1966631412506104,6.426322937011719
160,183301,183302,-0.058760035783052444,-0.06142280995845795,1.0414576530456543,-26.06532096862793,31.076236724853516,-26.47354507446289,-0.04349782317876816,1.5884205102920532,3.028348445892334,0.7921526432037354,2.9589784145355225,6.174034595489502
161,183311,183312,-0.014601065777242184,-0.016445918008685112,1.0159821510314941,-21.558246612548828,24.696557998657227,-30.447589874267578,-0.06749662756919861,1.5914204120635986,3.0403478145599365,0.614033043384552,2.7015433311462402,5.956251621246338
162,183321,183322,-0.00896300096064806,-0.030672196298837662,1.0373495817184448,-3.8024702072143555,15.883172035217285,-35.768707275390625,-0.04649767279624939,1.6034197807312012,3.0193488597869873,0.2653617858886719,2.648256540298462,5.574378967285156
163,183331,183332,-0.013931971974670887,0.006917465012520552,1.0751241445541382,33.76546859741211,11.855260848999023,-36.401248931884766,-0.05399730056524277,1.5929203033447266,3.0418479442596436,0.034288305789232254,2.776472568511963,5.182352066040039
164,183341,183342,-0.002584520960226655,0.05956060066819191,1.148929238319397,83.92040252685547,12.166483879089355,-36.19720458984375,-0.06749662756919861,1.5884205102920532,3.049347400665283,-0.01310028787702322,3.4631924629211426,4.833481788635254
165,183351,183352,0.04554041847586632,0.06256894022226334,1.201889991760254,124.79759979248047,16.205810546875,-40.08340835571289,-0.08249587565660477,1.5854207277297974,3.0973451137542725,0.11365275084972382,4.4474358558654785,4.586653709411621
166,183361,183362,0.041825730353593826,-0.05259481444954872,1.1486338376998901,140.98406982421875,21.3477725982666,-49.377601623535156,-0.08699564635753632,1.595920205116272,3.1168441772460938,-0.07501156628131866,6.012487411499023,4.1583404541015625
167,183371,183372,0.02204071171581745,-0.11985880136489868,1.1157759428024292,128.28485107421875,26.208995819091797,-60.533668518066406,-0.085495725274086,1.5914204120635986,3.106344699859619,-0.32285842299461365,7.099507808685303,3.701819658279419
168,183381,183382,-0.022616498172283173,-0.15201795101165771,1.0517617464065552,94.56454467773438,24.329910278320312,-67.19905090332031,-0.08849557489156723,1.582420825958252,3.1003448963165283,-0.6285213828086853,8.4999361038208,3.113647937774658
169,183391,183392,-0.016606668010354042,-0.13671962916851044,1.0365533828735352,29.784645080566406,40.40596008300781,-69.60643005371094,-0.06449677050113678,1.582420825958252,3.1003448963165283,-0.9544359445571899,9.057239532470703,2.528559446334839
170,183401,183402,0.05360623449087143,-0.12226215749979019,1.0826232433319092,-30.604228973388672,47.805389404296875,-69.22908020019531,-0.07349632680416107,1.5524224042892456,3.0373480319976807,-1.509454607963562,9.048664093017578,1.8999444246292114
171,183411,183412,0.04368748515844345,-0.13966631889343262,1.0373125076293945,-80.73750305175781,43.718650817871094,-64.72945404052734,-0.037498123943805695,1.5584220886230469,3.034348249435425,-2.0510525703430176,8.410836219787598,1.3078981637954712
172,183421,183422,0.04186851531267166,-0.1490599513053894,1.0444220304489136,-125.20367431640625,37.30961608886719,-55.76691436767578,-0.044997747987508774,1.5629218816757202,3.029848337173462,-2.70780348777771,7.204042434692383,0.6254886388778687
173,183431,183432,0.058036256581544876,-0.09107444435358047,1.1096303462982178,-140.8546905517578,20.916831970214844,-47.888893127441406,-0.07349632680416107,1.567421555519104,3.028348445892334,-2.988184690475464,6.064767360687256,0.22309136390686035
174,183441,183442,0.04170747473835945,-0.08390133082866669,1.0291414260864258,-142.1094970703125,25.061613082885742,-40.71290588378906,-0.06449677050113678,1.5554221868515015,3.0133492946624756,-3.3335750102996826,4.2014875411987305,-0.3576180636882782
175,183451,183452,0.015608658082783222,-0.10482460260391235,0.9870687127113342,-135.39222717285156,37.96642303466797,-30.353130340576172,-0.056997150182724,1.5719213485717773,2.9878506660461426,-3.5374021530151367,3.1397056579589844,-0.5367071628570557
176,183461,183462,0.04832778126001358,-0.0751577764749527,1.0815504789352417,-82.8813247680664,24.25967788696289,-19.453401565551758,-0.047997597604990005,1.5779210329055786,2.9608519077301025,-4.07626485824585,1.8145862817764282,-0.9732754230499268
177,183471,183472,0.10410259664058685,-0.012325185351073742,1.1210821866989136,-22.055784225463867,3.67018985748291,-6.422688961029053,-0.04199789837002754,1.5779210329055786,2.9488525390625,-4.132678508758545,1.374362587928772,-0.9590758085250854
178,183481,183482,0.07251675426959991,-0.08456193655729294,1.1311851739883423,38.85655212402344,-13.226396560668945,7.805114269256592,-0.05999699980020523,1.5569220781326294,2.972851276397705,-4.149662494659424,1.504813551902771,-0.9645054936408997
179,183491,183492,-0.05118782818317413,-0.2480933517217636,1.0675842761993408,64.75983428955078,-6.081171989440918,21.8936767578125,-0.0764961764216423,1.5644217729568481,3.001349925994873,-4.116100311279297,2.130627393722534,-0.8372943997383118
180,183501,183502,-0.06613023579120636,-0.24391630291938782,1.0398902893066406,61.212459564208984,-2.8437068462371826,30.251708984375,-0.05999699980020523,1.5719213485717773,2.9908504486083984,-4.125361919403076,2.7796895503997803,-0.6463186144828796
181,183511,183512,0.001991124590858817,-0.12527282536029816,1.0136991739273071,40.80487823486328,-7.029881477355957,29.87111473083496,-0.056997150182724,1.5839207172393799,2.9818508625030518,-4.131878852844238,3.3423540592193604,-0.3942282795906067
182,183521,183522,0.029195234179496765,-0.11695963144302368,0.9647011756896973,15.987149238586426,-30.95430564880371,25.387353897094727,-0.047997597604990005,1.5629218816757202,2.9608519077301025,-3.974309206008911,3.608264207839966,-0.16341789066791534
183,183531,183532,-0.04416889324784279,-0.1563585102558136,0.953809916973114,-14.733419418334961,-60.1187858581543,20.680803298950195,-0.04199789837002754,1.5569220781326294,2.9488525390625,-3.744419574737549,3.3685898780822754,-0.23760773241519928
184,183541,183542,-0.09703551977872849,-0.161543607711792,0.9540795683860779,-42.004493713378906,-83.46095275878906,15.404626846313477,-0.026998650282621384,1.5539222955703735,2.9638516902923584,-2.7530641555786133,3.1355643272399902,0.0866096168756485
185,183551,183552,-0.08472498506307602,-0.11618632078170776,0.9927108883857727,-59.459434509277344,-89.72937774658203,11.128240585327148,-0.04199789837002754,1.565921664237976,2.9668517112731934,-1.6874674558639526,2.560035228729248,0.23510681092739105
186,183561,183562,-0.04712838679552078,-0.16012193262577057,1.0348352193832397,-57.65781784057617,-74.08204650878906,7.731545925140381,-0.00899954978376627,1.5689215660095215,2.9668517112731934,-1.0643019676208496,1.9559834003448486,0.15352824330329895
187,183571,183572,-0.002436330309137702,-0.138494074344635,1.0218702554702759,-42.2109375,-46.5491828918457,6.557295322418213,-0.023998798802495003,1.5629218816757202,2.9548521041870117,-0.14116883277893066,1.3770992755889893,0.3288351893424988
188,183581,183582,-0.011285755783319473,-0.10760670900344849,1.0037761926651,-15.383750915527344,-24.530101776123047,8.34359073638916,-0.014999249950051308,1.5839207172393799,2.9308533668518066,-0.2195213884115219,1.2549681663513184,0.2545880973339081
189,183591,183592,-0.0036938092671334743,-0.019516626372933388,0.9983031749725342,10.046944618225098,-5.451844692230225,14.648686408996582,-0.0014999249251559377,1.5644217729568481,2.920353889465332,-0.04346427321434021,1.1426588296890259,0.32733121514320374
190,183601,183602,0.012532333843410015,-0.041224896907806396,0.9838991165161133,28.65880012512207,12.613673210144043,16.181596755981445,-0.011999399401247501,1.565921664237976,2.9338531494140625,-0.10578299313783646,1.3581342697143555,0.47549575567245483
191,183611,183612,-0.022893043234944344,-0.11717402189970016,1.0304821729660034,40.754615783691406,32.707298278808594,15.225554466247559,-0.026998650282621384,1.5719213485717773,2.9368531703948975,-0.42964598536491394,1.9155149459838867,0.6966491937637329
192,183621,183622,-0.012881921604275703,-0.13231275975704193,1.0004138946533203,47.71894836425781,52.66899108886719,13.145648002624512,-0.019499024376273155,1.5704214572906494,2.9383530616760254,-0.9199181199073792,2.3045594692230225,0.8070059418678284
193,183631,183632,-0.05507785826921463,-0.16557210683822632,0.971515953540802,52.58089065551758,54.300636291503906,9.344236373901367,-0.04349782317876816,1.567421555519104,2.9593520164489746,-1.6366826295852661,3.0954062938690186,1.0154329538345337
194,183641,183642,-0.06976678222417831,-0.08856887370347977,0.9616819620132446,43.274959564208984,41.99716567993164,8.19604206085205,-0.037498123943805695,1.5764211416244507,2.9623517990112305,-2.000185251235962,3.522806167602539,1.151928424835205
195,183651,183652,-0.03833824768662453,-0.09743877500295639,0.9377624988555908,20.829967498779297,14.928244590759277,5.186904430389404,-0.03599819913506508,1.5599219799041748,2.942852735519409,-2.508021116256714,3.9311630725860596,1.2053967714309692
196,183661,183662,0.035833872854709625,-0.09793896228075027,0.9423484206199646,-5.891791343688965,-16.75702476501465,3.3852035999298096,-0.026998650282621384,1.5599219799041748,2.9398529529571533,-2.534755229949951,4.0098676681518555,1.2430380582809448
197,183671,183672,0.003455667058005929,-0.15877123177051544,0.9194496273994446,-28.1024227142334,-46.05861282348633,-0.7622352838516235,-0.026998650282621384,1.5539222955703735,2.918853998184204,-2.062687873840332,3.740159273147583,1.2630589008331299
198,183681,183682,0.039434466511011124,-0.10555073618888855,0.9693750143051147,-49.68597412109375,-64.29354858398438,-6.843441486358643,-0.028498575091362,1.5494225025177002,2.9353532791137695,-1.3627339601516724,3.249648332595825,1.2064859867095947
199,183691,183692,0.05470410734415054,-0.053216300904750824,0.9778931140899658,-58.05485153198242,-71.1308364868164,-13.48137378692627,-0.016499174758791924,1.5704214572906494,2.9593520164489746,-0.5803067684173584,2.4108455181121826,0.9864146113395691
200,183701,183702,-0.02207048423588276,-0.10025473684072495,0.9370570778846741,-54.20680618286133,-69.10820007324219,-16.827770233154297,-0.00899954978376627,1.5719213485717773,2.969851493835449,0.10418660193681717,2.142228841781616,0.9332547783851624
201,183711,183712,-0.04678800329566002,-0.16676340997219086,0.894414484500885,-46.39234161376953,-57.00740051269531,-18.93035125732422,-0.011999399401247501,1.5629218816757202,2.945852756500244,0.7826217412948608,1.5470954179763794,0.7080305218696594
202,183721,183722,0.0012169749243184924,-0.17428439855575562,0.8812488317489624,-43.63685607910156,-41.15703582763672,-16.40445899963379,0.013499325141310692,1.567421555519104,2.9353532791137695,1.2551859617233276,1.1836098432540894,0.522842288017273
203,183731,183732,0.040258318185806274,-0.10154899954795837,0.8904485702514648,-38.06157684326172,-24.37659454345703,-11.49089527130127,-0.014999249950051308,1.5899205207824707,2.942852735519409,1.8120932579040527,0.723492443561554,0.41257819533348083
204,183741,183742,0.05168871581554413,-0.05614715442061424,0.9224401116371155,-29.848018646240234,-15.90314769744873,-8.277146339416504,-0.0029998498503118753,1.5779210329055786,2.924853801727295,1.5782960653305054,0.39475777745246887,0.17923305928707123
205,183751,183752,0.11951329559087753,-0.02884092926979065,0.9692578315734863,-25.45635414123535,-8.143465995788574,-6.024101734161377,-0.004499774891883135,1.5704214572906494,2.944352626800537,1.7930090427398682,0.16978991031646729,0.1372903734445572
206,183761,183762,0.06778305023908615,-0.028585167601704597,1.0168942213058472,-18.98700714111328,8.208178520202637,-6.696156978607178,0.0014999249251559377,1.5974200963974,2.9353532791137695,1.6796371936798096,-0.11871211230754852,0.030134819447994232
207,183771,183772,0.0419958233833313,-0.08560092747211456,1.0525093078613281,-4.151992321014404,32.62355041503906,-7.559597492218018,-0.013499325141310692,1.5884205102920532,2.947352647781372,1.4662725925445557,-0.19359628856182098,-0.0385994128882885
208,183781,183782,-0.014875122345983982,-0.11424191296100616,1.033286213874817,11.291810035705566,45.13591003417969,-8.67566204071045,-0.019499024376273155,1.6034197807312012,2.971351385116577,1.1685411930084229,-0.17152002453804016,-0.10791505128145218
209,183791,183792,-0.009077657014131546,-0.1112871766090393,1.0142065286636353,28.295976638793945,44.76781463623047,-8.72039794921875,-0.019499024376273155,1.5914204120635986,2.9683516025543213,0.5410840511322021,0.11628468334674835,-0.2033052146434784
210,183801,183802,0.015206187032163143,-0.1490977555513382,0.9699044823646545,38.3244514465332,34.44938659667969,-9.015581130981445,-0.040497973561286926,1.5944201946258545,2.974351167678833,0.19407479465007782,0.5220328569412231,-0.27747848629951477
211,183811,183812,0.03306886553764343,-0.13981880247592926,1.0018513202667236,33.3203010559082,21.038339614868164,-9.558927536010742,-0.044997747987508774,1.5899205207824707,2.99685001373291,-0.23740580677986145,1.0599212646484375,-0.3579193651676178
212,183821,183822,0.01751292683184147,-0.15133291482925415,1.0391486883163452,7.477300643920898,3.8693370819091797,-11.093510627746582,-0.022498873993754387,1.5884205102920532,2.977351188659668,-0.33275607228279114,1.1316765546798706,-0.4723520576953888
213,183831,183832,0.016317924484610558,-0.1923086792230606,1.0502439737319946,-29.175090789794922,5.230506896972656,-7.057716369628906,-0.01799909956753254,1.5869206190109253,2.9668517112731934,-0.3363741636276245,0.9652776122093201,-0.578788161277771
214,183841,183842,0.008187685161828995,-0.06424329429864883,1.0672519207000732,-58.788116455078125,8.056938171386719,-0.7803020477294922,-0.004499774891883135,1.579421043395996,2.9353532791137695,-0.27561435103416443,0.45001494884490967,-0.6368784308433533
215,183851,183852,0.027829665690660477,-0.04250181466341019,1.0238709449768066,-69.87248992919922,2.0461175441741943,3.8777365684509277,-0.014999249950051308,1.5899205207824707,2.9488525390625,-0.32955795526504517,-0.22438719868659973,-0.6255347728729248
216,183861,183862,0.06974705308675766,-0.06717070937156677,1.0109734535217285,-62.35458755493164,-10.652886390686035,5.970403671264648,-0.02099894918501377,1.5869206190109253,2.9578521251678467,-0.290397971868515,-0.8314553499221802,-0.5741066336631775
217,183871,183872,0.14024722576141357,-0.031097983941435814,1.0405915975570679,-48.22477340698242,-45.381900787353516,6.187688827514648,-0.005999699700623751,1.595920205116272,2.924853801727295,0.14086546003818512,-1.2566437721252441,-0.5074626207351685
218,183881,183882,0.14753033220767975,0.015285740606486797,1.0433950424194336,-29.255338668823242,-66.90176391601562,5.832260608673096,-0.004499774891883135,1.5734213590621948,2.917354106903076,0.7076882719993591,-1.5952163934707642,-0.43195685744285583
219,183891,183892,0.06360641866922379,-0.04567430168390274,0.9621523022651672,-8.078899383544922,-66.7815933227539,5.389266490936279,-0.019499024376273155,1.5854207277297974,2.9563522338867188,1.5589430332183838,-1.8694736957550049,-0.3759310245513916
220,183901,183902,-0.02851032093167305,-0.08043689280748367,0.9933608770370483,-0.4062950313091278,-44.16922378540039,6.176218032836914,-0.007499624975025654,1.5914204120635986,2.944352626800537,1.6807583570480347,-1.9261478185653687,-0.2351597249507904
221,183911,183912,-0.1140572726726532,-0.19394150376319885,0.9781402349472046,-1.919677734375,-16.170034408569336,4.421923637390137,0.0,1.6019198894500732,2.9308533668518066,2.248328685760498,-2.007844924926758,-0.2066553682088852
222,183921,183922,-0.16063018143177032,-0.1910010278224945,0.9119776487350464,-8.272381782531738,7.2084269523620605,1.0055696964263916,0.014999249950051308,1.5779210329055786,2.9128541946411133,2.106015920639038,-1.8691993951797485,-0.1345258355140686
223,183931,183932,-0.11587581038475037,-0.19963277876377106,0.8275407552719116,-13.176651954650879,21.851398468017578,0.05211556330323219,0.023998798802495003,1.5749212503433228,2.894855260848999,1.9989967346191406,-2.1131322383880615,-0.13016104698181152
224,183941,183942,0.02416275441646576,-0.16826531291007996,0.7739065885543823,-17.814159393310547,22.526103973388672,-0.46341392397880554,0.00899954978376627,1.5779210329055786,2.888855457305908,1.8342489004135132,-2.2130815982818604,-0.1537393480539322
225,183951,183952,0.058757234364748,-0.06430238485336304,0.7944630980491638,-24.703495025634766,18.21641731262207,-1.6845282316207886,0.0014999249251559377,1.5734213590621948,2.8873555660247803,1.54990553855896,-2.389680862426758,-0.14279496669769287
226,183961,183962,0.08037970215082169,0.049175016582012177,0.8957400918006897,-34.17349624633789,10.59827995300293,-2.840832233428955,0.010499474592506886,1.5884205102920532,2.9083545207977295,1.4156440496444702,-2.7552695274353027,-0.16501083970069885
227,183971,183972,0.111061692237854,0.08401113748550415,0.9270546436309814,-44.1126823425293,1.2580018043518066,-1.75478196144104,0.0014999249251559377,1.5914204120635986,2.9113543033599854,1.3414816856384277,-3.197561740875244,-0.18149065971374512
228,183981,183982,0.05274009704589844,0.06048079952597618,0.9743381142616272,-40.93050765991211,-4.890995502471924,-0.11099635064601898,-0.011999399401247501,1.61091947555542,2.9398529529571533,1.3749394416809082,-3.586937665939331,-0.20807786285877228
229,183991,183992,0.045104850083589554,-0.02914712019264698,1.032812237739563,-30.14377212524414,-8.834558486938477,-2.2326507568359375,0.0014999249251559377,1.6034197807312012,2.9383530616760254,1.3403257131576538,-4.106750965118408,-0.15671943128108978
230,184001,184002,0.010905527509748936,-0.0838383287191391,0.9439922571182251,-8.804847717285156,-16.081037521362305,-5.507762432098389,0.010499474592506886,1.6034197807312012,2.920353889465332,1.5413895845413208,-3.9643428325653076,-0.28594860434532166
231,184011,184012,0.04008525237441063,-0.0897405818104744,0.9105240106582642,15.110855102539062,-25.00526237487793,-4.9639129638671875,-0.0029998498503118753,1.595920205116272,2.9488525390625,1.8239206075668335,-3.9706666469573975,-0.36643365025520325
232,184021,184022,0.1106964722275734,-0.02315356582403183,0.9461290240287781,32.933101654052734,-29.914648056030273,-2.288926124572754,0.004499774891883135,1.6064196825027466,2.974351167678833,2.0194497108459473,-3.7371723651885986,-0.3494705557823181
233,184031,184032,0.028461266309022903,0.02102966420352459,0.9951211810112,42.95859146118164,-24.31155776977539,-0.9893398284912109,-0.016499174758791924,1.6094194650650024,2.971351385116577,2.4964375495910645,-3.3779098987579346,-0.45427021384239197
234,184041,184042,0.06497284770011902,0.004527459852397442,1.065513014793396,43.75457763671875,-5.867286205291748,-0.6031595468521118,-0.01799909956753254,1.61091947555542,2.975851058959961,2.577803134918213,-2.8416404724121094,-0.41784530878067017
235,184051,184052,-0.004148609470576048,-0.10032887011766434,1.0102601051330566,40.353843688964844,16.4393310546875,-1.634836196899414,-0.013499325141310692,1.6124193668365479,2.9863505363464355,2.5578513145446777,-2.466183662414551,-0.41111645102500916
236,184061,184062,-0.039546120911836624,-0.13933108747005463,0.981512188911438,33.38466262817383,36.06544876098633,-4.369731903076172,-0.03449827432632446,1.6094194650650024,2.9923503398895264,2.172635555267334,-2.0299291610717773,-0.36794665455818176
237,184071,184072,-0.011076511815190315,-0.10353226959705353,0.9951202869415283,19.91519546508789,49.55470657348633,-6.414153575897217,-0.03449827432632446,1.6214189529418945,3.0103495121002197,1.653809666633606,-2.1502275466918945,-0.2577809989452362
238,184081,184082,0.008795755915343761,-0.08012529462575912,0.9507666826248169,2.551028251647949,52.617210388183594,-10.305564880371094,-0.040497973561286926,1.6274186372756958,3.0103495121002197,0.9801252484321594,-1.989694356918335,-0.25494253635406494
239,184091,184092,-0.006187901832163334,-0.08544621616601944,0.98332279920578,-14.425712585449219,31.219057083129883,-11.900064468383789,-0.03299834951758385,1.619918942451477,3.002849817276001,0.5347431302070618,-2.1166629791259766,-0.36664876341819763
240,184101,184102,0.11084847152233124,-0.07398685812950134,1.0332655906677246,-22.32160186767578,5.176059722900391,-10.768261909484863,-0.011999399401247501,1.6139192581176758,2.9848506450653076,0.277519553899765,-2.399305582046509,-0.4396217465400696
241,184111,184112,0.11576830595731735,-0.10705234855413437,0.9720311760902405,-30.351640701293945,-18.555265426635742,-10.839326858520508,-0.016499174758791924,1.5944201946258545,2.977351188659668,0.6033049821853638,-2.777162790298462,-0.6848402619361877
242,184121,184122,0.07184795290231705,-0.11237999051809311,0.9706156849861145,-33.56997299194336,-33.54523849487305,-10.059760093688965,-0.011999399401247501,1.61091947555542,2.99685001373291,1.256561517715454,-3.0747315883636475,-1.0155631303787231
243,184131,184132,0.038744766265153885,-0.15309889614582062,0.961922287940979,-24.448955535888672,-36.21874237060547,-8.974538803100586,-0.03449827432632446,1.6184190511703491,3.0073494911193848,1.6300344467163086,-3.2640254497528076,-1.1204379796981812
244,184141,184142,0.07350023835897446,-0.09869120270013809,0.9599032998085022,-18.7045955657959,-25.668136596679688,-9.009757041931152,-0.028498575091362,1.6304184198379517,3.0073494911193848,2.021934747695923,-3.6035828590393066,-1.1912775039672852
245,184151,184152,0.039265625178813934,-0.035099927335977554,0.9902462959289551,-13.93541431427002,-8.963746070861816,-9.474485397338867,-0.02099894918501377,1.61091947555542,2.999850034713745,2.1979522705078125,-3.8310704231262207,-1.2327364683151245
246,184161,184162,-0.001078522764146328,-0.08501993119716644,1.0059609413146973,-4.613025188446045,17.95960807800293,-10.132303237915039,-0.03299834951758385,1.6229188442230225,2.9908504486083984,2.1717355251312256,-3.8229048252105713,-1.3388502597808838
247,184171,184172,0.03094918094575405,-0.06138879060745239,0.9863853454589844,6.3226189613342285,50.04830551147461,-9.485485076904297,-0.022498873993754387,1.6124193668365479,2.998350143432617,1.6934177875518799,-3.807596206665039,-1.3338581323623657
248,184181,184182,0.07759302109479904,0.014397776685655117,0.9674599170684814,26.133230209350586,65.82720184326172,-9.700301170349121,-0.03149842470884323,1.6274186372756958,3.001349925994873,0.9173759818077087,-3.5595176219940186,-1.3487578630447388
249,184191,184192,0.061871327459812164,0.005393102299422026,0.9649055600166321,45.83218002319336,65.45266723632812,-7.822521686553955,-0.04649767279624939,1.6244187355041504,3.0223488807678223,0.32090938091278076,-3.319106101989746,-1.5026923418045044
250,184201,184202,-0.01428392343223095,-0.07724238932132721,1.0130525827407837,55.754390716552734,48.4445915222168,-5.729359149932861,-0.044997747987508774,1.619918942451477,3.0178489685058594,-0.32691189646720886,-2.8000118732452393,-1.5840349197387695
251,184211,184212,0.020877055823802948,-0.12977750599384308,1.0484912395477295,55.736549377441406,27.667375564575195,-5.446539878845215,-0.06149692460894585,1.6214189529418945,3.0193488597869873,-0.5159385204315186,-2.400233030319214,-1.7781835794448853
252,184221,184222,0.018304875120520592,-0.11603269726037979,1.0675609111785889,52.40908432006836,5.642580032348633,-5.70465612411499,-0.029998499900102615,1.6139192581176758,3.0208489894866943,-0.725793182849884,-1.719416856765747,-1.8612637519836426
253,184231,184232,-0.04571903496980667,-0.13098233938217163,1.0362679958343506,48.520050048828125,-16.3571720123291,-8.83377742767334,-0.04199789837002754,1.6079195737838745,3.005849599838257,-0.6622767448425293,-1.2581254243850708,-1.9595792293548584
254,184241,184242,-0.11691191792488098,-0.18770553171634674,1.0056195259094238,52.2989501953125,-32.384525299072266,-11.210186004638672,-0.03149842470884323,1.5914204120635986,3.004349708557129,-0.33259668946266174,-0.7996995449066162,-2.119155168533325
255,184251,184252,-0.1528249830007553,-0.17124059796333313,1.0195531845092773,50.45656967163086,-31.283031463623047,-11.867197036743164,-0.037498123943805695,1.5974200963974,2.9953501224517822,0.02757059782743454,-0.3089832663536072,-2.2490780353546143
256,184261,184262,-0.017515292391180992,-0.1286371499300003,1.069590449333191,50.8564567565918,-20.79376983642578,-12.248140335083008,-0.03299834951758385,1.6019198894500732,2.9878506660461426,0.24018017947673798,0.08400790393352509,-2.315762996673584
257,184271,184272,0.003472577780485153,-0.1194169670343399,1.1187002658843994,46.580875396728516,-14.891797065734863,-15.283370971679688,-0.04349782317876816,1.5884205102920532,2.9953501224517822,0.4489305317401886,0.5649875402450562,-2.4579355716705322
258,184281,184282,0.011035348288714886,-0.07612328976392746,1.0749688148498535,26.811033248901367,-5.39912748336792,-13.840301513671875,-0.014999249950051308,1.5929203033447266,2.99685001373291,0.6285468339920044,0.9745486378669739,-2.63742733001709
259,184291,184292,-0.052304722368717194,-0.1506403088569641,1.0180788040161133,-3.7152342796325684,14.78439712524414,-13.482307434082031,0.0,1.5899205207824707,2.9848506450653076,0.6307587027549744,0.7741837501525879,-2.75518798828125
260,184301,184302,-0.08752143383026123,-0.2424801141023636,1.0424267053604126,-34.022071838378906,27.647310256958008,-12.045059204101562,-0.014999249950051308,1.5989199876785278,3.002849817276001,0.24418343603610992,0.5714947581291199,-2.8044655323028564
261,184311,184312,-0.028291750699281693,-0.15449745953083038,1.0913231372833252,-46.683162689208984,31.16512680053711,-7.356832027435303,-0.025498725473880768,1.6214189529418945,3.0223488807678223,0.02839711681008339,0.2271469533443451,-2.944451093673706
262,184321,184322,0.06061628460884094,-0.08788292855024338,1.0910824537277222,-29.75169563293457,37.79499053955078,-3.568411111831665,-0.03449827432632446,1.6064196825027466,3.0163490772247314,-0.44403427839279175,-0.294452041387558,-2.9467132091522217
263,184331,184332,0.10877765715122223,-0.05406925827264786,1.0699576139450073,2.5713250637054443,44.93244934082031,1.3351247310638428,-0.04349782317876816,1.6004199981689453,3.0073494911193848,-0.8824741840362549,-0.3486914336681366,-2.958975076675415
264,184341,184342,0.16965623199939728,-0.06640331447124481,1.1090461015701294,46.79220199584961,51.4502067565918,6.064207553863525,-0.044997747987508774,1.61091947555542,3.0208489894866943,-1.611495852470398,0.09025382250547409,-2.8632142543792725
265,184351,184352,0.14782902598381042,0.004382054787129164,1.1580427885055542,83.2379379272461,39.86018753051758,9.552777290344238,-0.0659966990351677,1.604919672012329,3.059846878051758,-1.7124168872833252,0.6228145956993103,-2.8892321586608887
266,184361,184362,0.05144289880990982,-0.021103352308273315,1.1336357593536377,94.5657958984375,20.713918685913086,13.162092208862305,-0.07349632680416107,1.6094194650650024,3.0763461589813232,-2.3001904487609863,1.760931372642517,-2.7068920135498047
267,184371,184372,0.0037415993865579367,-0.1218210831284523,1.0800431966781616,82.02566528320312,5.813241958618164,17.2998046875,-0.07199639827013016,1.6019198894500732,3.0688464641571045,-2.418614625930786,2.489297389984131,-2.574199676513672
268,184381,184382,0.0639924705028534,-0.11549277603626251,1.0837329626083374,62.33036422729492,-10.655847549438477,19.074108123779297,-0.08099594712257385,1.604919672012329,3.053847312927246,-2.412578821182251,3.395961046218872,-2.3778128623962402
269,184391,184392,0.11038833856582642,-0.10997156798839569,1.0885624885559082,34.01415252685547,-28.306461334228516,23.92989730834961,-0.05399730056524277,1.5839207172393799,3.0178489685058594,-2.2021915912628174,3.845635414123535,-2.2007687091827393
270,184401,184402,0.05531330779194832,-0.18134906888008118,0.9952021241188049,-0.5828969478607178,-37.003936767578125,28.677169799804688,-0.03899804875254631,1.5689215660095215,3.008849620819092,-1.8603737354278564,3.8733842372894287,-2.0003581047058105
271,184411,184412,0.007561098784208298,-0.16298705339431763,1.0059727430343628,-36.59669494628906,-29.061622619628906,28.370471954345703,-0.03149842470884323,1.579421043395996,3.0103495121002197,-1.6338753700256348,3.7290589809417725,-1.7306245565414429
272,184421,184422,0.04394437372684479,-0.0792938694357872,1.0153084993362427,-50.541969299316406,-28.042509078979492,25.86014175415039,-0.03149842470884323,1.5704214572906494,3.0133492946624756,-1.218576192855835,3.1785056591033936,-1.493945837020874
273,184431,184432,0.09172505885362625,0.010652642697095871,1.0849790573120117,-43.0128173828125,-38.973045349121094,24.166120529174805,-0.03149842470884323,1.582420825958252,2.9893505573272705,-0.9820018410682678,2.751180648803711,-1.2499635219573975
274,184441,184442,0.08942056447267532,-0.0323343351483345,1.1055430173873901,-7.097221374511719,-45.15350341796875,21.849267959594727,-0.03449827432632446,1.5734213590621948,2.9953501224517822,-0.6872337460517883,2.6543760299682617,-1.0038626194000244
275,184451,184452,0.11681092530488968,-0.02966172620654106,1.1159262657165527,42.27821731567383,-34.73350143432617,21.280643463134766,-0.014999249950051308,1.5779210329055786,2.9818508625030518,-0.22196908295154572,2.8865699768066406,-0.7757540345191956
276,184461,184462,0.12411701679229736,-0.031958311796188354,1.1040210723876953,83.5320816040039,-11.36697006225586,20.896059036254883,-0.03899804875254631,1.5539222955703735,3.0178489685058594,0.1234716847538948,3.7404372692108154,-0.5032475590705872
277,184471,184472,0.055192138999700546,-0.11012500524520874,1.0315563678741455,94.0609359741211,14.615852355957031,18.30133628845215,-0.05249737575650215,1.582420825958252,3.034348249435425,0.04661804065108299,4.406685829162598,-0.3789821267127991
278,184481,184482,-0.009312623180449009,-0.11211173981428146,0.9730693101882935,72.16130065917969,29.02617645263672,12.498283386230469,-0.040497973561286926,1.5734213590621948,3.0193488597869873,-0.30505093932151794,5.463525772094727,-0.20423105359077454
279,184491,184492,0.0034066541120409966,-0.10657429695129395,0.9895482063293457,19.699241638183594,36.38932800292969,4.614467620849609,-0.03149842470884323,1.5524224042892456,2.9863505363464355,-0.6476669907569885,5.780181407928467,-0.1301415115594864
280,184501,184502,0.003790198126807809,-0.15735729038715363,1.007904291152954,-48.594032287597656,25.08790397644043,-4.959949016571045,-0.03299834951758385,1.5569220781326294,2.972851276397705,-1.0869423151016235,5.7353739738464355,-0.11376743763685226
281,184511,184512,-0.04346158728003502,-0.1431482583284378,1.0072377920150757,-101.58613586425781,-0.15986603498458862,-15.753260612487793,-0.03149842470884323,1.5554221868515015,2.980350971221924,-1.110433578491211,4.977203845977783,-0.13052959740161896
282,184521,184522,0.009232625365257263,-0.11037597805261612,1.039499044418335,-126.63433837890625,-33.17131423950195,-21.06459617614746,-0.03449827432632446,1.579421043395996,3.0193488597869873,-0.880416989326477,3.7822306156158447,-0.27662524580955505
283,184531,184532,0.04947568103671074,-0.10185273736715317,1.0611870288848877,-113.43891906738281,-61.242027282714844,-24.339845657348633,-0.028498575091362,1.6064196825027466,3.025348663330078,-0.51002436876297,2.8792271614074707,-0.4799821376800537
284,184541,184542,0.04710135981440544,-0.08053244650363922,1.0662071704864502,-78.33861541748047,-69.18421936035156,-26.756460189819336,-0.040497973561286926,1.6124193668365479,3.031348466873169,0.5379995107650757,1.6298716068267822,-0.5900619626045227
285,184551,184552,0.016940515488386154,-0.11215085536241531,1.0141226053237915,-40.79411315917969,-50.65541076660156,-22.456480026245117,-0.01799909956753254,1.6079195737838745,2.9938502311706543,0.9636644124984741,1.4683218002319336,-0.8957586884498596
286,184561,184562,0.05877510830760002,-0.10419086366891861,0.997808575630188,-7.986390590667725,-16.436317443847656,-15.476629257202148,-0.014999249950051308,1.5839207172393799,2.9548521041870117,1.3693255186080933,1.0421653985977173,-1.1220463514328003
287,184571,184572,0.013134215958416462,-0.11502093076705933,0.9739610552787781,16.774608612060547,24.801454544067383,-10.595085144042969,-0.004499774891883135,1.582420825958252,2.950352430343628,1.3102346658706665,1.228424310684204,-1.2807774543762207
288,184581,184582,0.03391149267554283,-0.0820799395442009,1.0010377168655396,41.46687316894531,69.84136199951172,-7.119658946990967,-0.02099894918501377,1.580920934677124,2.972851276397705,0.6852437257766724,1.5331337451934814,-1.4651055335998535
289,184591,184592,0.04610716551542282,-0.08723624795675278,1.0124728679656982,54.68996047973633,88.45647430419922,-5.684420108795166,-0.04949752241373062,1.5944201946258545,2.9953501224517822,-0.06330407410860062,2.111757516860962,-1.4738445281982422
290,184601,184602,0.043714702129364014,-0.0999770238995552,0.9592158794403076,54.02009963989258,72.86772155761719,-6.609709739685059,-0.04949752241373062,1.582420825958252,2.998350143432617,-1.2714496850967407,2.6797807216644287,-1.6622436046600342
291,184611,184612,0.04831193760037422,-0.11106077581644058,0.9406298398971558,30.373239517211914,42.95722961425781,-5.7964067459106445,-0.044997747987508774,1.5749212503433228,2.9818508625030518,-1.9540553092956543,3.2547171115875244,-1.7031785249710083
292,184621,184622,0.0002655461721587926,-0.12069633603096008,0.934469997882843,-1.139318823814392,4.459206581115723,-7.590000152587891,-0.023998798802495003,1.5689215660095215,2.9488525390625,-2.121140956878662,3.2471141815185547,-1.706828236579895
293,184631,184632,-0.017161419615149498,-0.09914316982030869,0.9528450965881348,-41.167236328125,-31.143770217895508,-8.928296089172363,-0.010499474592506886,1.543422818183899,2.9383530616760254,-1.9220776557922363,2.9423792362213135,-1.7589905261993408
294,184641,184642,-0.011008071713149548,-0.10470819473266602,0.9405083656311035,-80.69650268554688,-53.28715133666992,-9.329568862915039,-0.00899954978376627,1.5539222955703735,2.927853584289551,-1.4127264022827148,2.4056384563446045,-1.81985342502594
295,184651,184652,0.020812300965189934,-0.045867349952459335,0.9344552755355835,-108.2441635131836,-56.262290954589844,-9.77362060546875,-0.02099894918501377,1.5869206190109253,2.9488525390625,-0.6098233461380005,1.2305362224578857,-1.8602967262268066
296,184661,184662,0.013964689336717129,0.01853368431329727,0.8875993490219116,-116.542724609375,-60.042572021484375,-10.524707794189453,-0.022498873993754387,1.5884205102920532,2.9623517990112305,-0.19584082067012787,0.4634586572647095,-1.9867770671844482
297,184671,184672,0.01400640420615673,0.054357968270778656,0.8858385682106018,-98.06462097167969,-62.993003845214844,-8.091390609741211,-0.016499174758791924,1.5944201946258545,2.974351167678833,0.6244788765907288,-0.9128448963165283,-2.030198097229004
298,184681,184682,-0.009144270792603493,0.0077376458793878555,0.8860079050064087,-69.3995132446289,-60.0411376953125,-1.7676584720611572,-0.011999399401247501,1.5719213485717773,2.945852756500244,1.0272072553634644,-1.6269299983978271,-2.1421866416931152
299,184691,184692,-0.04633136838674545,-0.05734959989786148,0.8930343389511108,-49.185184478759766,-54.85158157348633,5.664999008178711,0.005999699700623751,1.5869206190109253,2.927853584289551,1.7830326557159424,-2.32531476020813,-2.0497915744781494
300,184701,184702,-0.0361342616379261,-0.10174967348575592,0.9416034817695618,-32.58591842651367,-44.6239128112793,8.511308670043945,0.013499325141310692,1.5734213590621948,2.9293534755706787,2.2109227180480957,-2.4008708000183105,-1.952732801437378
301,184711,184712,-0.03820674121379852,-0.08827921003103256,0.9137181043624878,-9.970949172973633,-30.28737449645996,6.306245803833008,0.007499624975025654,1.6004199981689453,2.917354106903076,2.7458858489990234,-2.835193634033203,-1.8267430067062378
302,184721,184722,-0.0006260322988964617,0.0012722205137833953,0.9493384957313538,9.803085327148438,-22.6297607421875,2.196488380432129,0.014999249950051308,1.5899205207824707,2.9338531494140625,2.8597395420074463,-2.5949642658233643,-1.795448899269104
303,184731,184732,0.02682645432651043,-0.030391300097107887,1.0278451442718506,26.841896057128906,-15.827672958374023,-0.01113467663526535,0.014999249950051308,1.5929203033447266,2.924853801727295,3.1320912837982178,-2.405907392501831,-1.7615001201629639
304,184741,184742,0.03474939614534378,-0.07371678948402405,1.0647486448287964,36.3235969543457,-10.739948272705078,-3.2111456394195557,0.0,1.5989199876785278,2.9488525390625,3.1666924953460693,-2.269557476043701,-1.764779806137085
305,184751,184752,0.03293541073799133,-0.05975254997611046,1.0404636859893799,31.924434661865234,-9.236459732055664,-5.29561710357666,0.0014999249251559377,1.582420825958252,2.950352430343628,3.293748617172241,-1.6867070198059082,-1.8292665481567383
306,184761,184762,0.061930958181619644,-0.021530456840991974,1.007797122001648,17.782901763916016,-3.393683671951294,-6.628774166107178,0.016499174758791924,1.5884205102920532,2.9083545207977295,3.1696863174438477,-1.5763169527053833,-1.852083444595337
307,184771,184772,0.02039518393576145,-0.046207036823034286,0.9894371032714844,-2.7945194244384766,6.38387393951416,-7.3516058921813965,0.03299834951758385,1.5749212503433228,2.897855043411255,3.129986047744751,-1.7359750270843506,-1.868518352508545
308,184781,184782,-0.04287652671337128,-0.135311558842659,0.9717389941215515,-18.047012329101562,13.153423309326172,-5.82861328125,0.03899804875254631,1.565921664237976,2.8828558921813965,3.012448310852051,-1.7011390924453735,-1.9665452241897583
309,184791,184792,-0.08611173182725906,-0.14938032627105713,0.9119101762771606,-25.456153869628906,25.495380401611328,-3.2702479362487793,0.029998499900102615,1.5899205207824707,2.897855043411255,2.7551724910736084,-2.103057861328125,-1.965466022491455
310,184801,184802,-0.10753191262483597,-0.14129647612571716,0.8751595616340637,-22.891298294067383,35.119239807128906,-2.120532751083374,0.01799909956753254,1.595920205116272,2.891855239868164,2.5275516510009766,-2.154801607131958,-2.071693181991577
311,184811,184812,0.0021266741678118706,-0.09580600261688232,0.9352140426635742,-3.3284075260162354,26.212310791015625,-4.584771156311035,0.023998798802495003,1.6079195737838745,2.9038548469543457,2.0229225158691406,-2.456604480743408,-2.04209041595459
312,184821,184822,0.03819134086370468,-0.06257552653551102,1.007920503616333,17.179649353027344,10.925411224365234,-6.732775688171387,0.025498725473880768,1.5884205102920532,2.923353672027588,1.922685146331787,-2.274460792541504,-2.169957399368286
313,184831,184832,-0.03075384348630905,-0.06105370819568634,1.0157971382141113,36.056243896484375,-2.682309865951538,-7.148648738861084,-0.0014999249251559377,1.5944201946258545,2.9293534755706787,1.984958291053772,-1.9936014413833618,-2.2820818424224854
314,184841,184842,-0.06272991001605988,-0.12530748546123505,0.9587627053260803,45.98862075805664,-7.0323166847229,-5.635120868682861,0.0014999249251559377,1.6004199981689453,2.9623517990112305,2.0935657024383545,-1.635351300239563,-2.338271141052246
315,184851,184852,0.028388023376464844,-0.10989321768283844,0.8870896100997925,39.7052116394043,-4.58650016784668,-5.824212551116943,0.0014999249251559377,1.5884205102920532,2.944352626800537,2.2365310192108154,-1.0862983465194702,-2.440091848373413
316,184861,184862,0.05776502937078476,-0.05937240645289421,0.9149298667907715,23.314157485961914,-1.4192062616348267,-9.261046409606934,0.005999699700623751,1.5869206190109253,2.9548521041870117,2.3024661540985107,-0.8934950828552246,-2.4611403942108154
317,184871,184872,0.04182203859090805,-0.050903964787721634,0.9197231531143188,-0.8665858507156372,7.536224365234375,-14.43565559387207,0.014999249950051308,1.5989199876785278,2.942852735519409,2.205350399017334,-0.652134895324707,-2.574767827987671
318,184881,184882,0.01232790295034647,-0.05494929477572441,0.9993162155151367,-27.335582733154297,23.196971893310547,-19.065458297729492,0.016499174758791924,1.5944201946258545,2.9413528442382812,2.053417205810547,-0.8520816564559937,-2.69973087310791
319,184891,184892,-0.04494275897741318,-0.12029595673084259,1.0182803869247437,-44.51862716674805,31.678842544555664,-23.957935333251953,-0.02099894918501377,1.5929203033447266,2.978851079940796,1.737845540046692,-1.428398847579956,-2.817406415939331
320,184901,184902,-0.043027155101299286,-0.08537903428077698,1.0281813144683838,-53.209957122802734,30.23176383972168,-28.761821746826172,-0.013499325141310692,1.6244187355041504,2.971351385116577,1.66472327709198,-1.874684453010559,-3.1593096256256104
321,184911,184912,0.006924544461071491,-0.05812564492225647,0.9926420450210571,-51.93292236328125,22.93585777282715,-30.038589477539062,-0.014999249950051308,1.6229188442230225,2.9848506450653076,1.2058354616165161,-2.3951666355133057,-3.4136645793914795
322,184921,184922,0.08341699838638306,-0.010857675224542618,1.0177956819534302,-38.184879302978516,16.57331657409668,-30.485837936401367,-0.011999399401247501,1.6289185285568237,2.975851058959961,1.2209490537643433,-2.8886168003082275,-3.7801616191864014
323,184931,184932,0.0646982192993164,-0.06404492259025574,1.0346033573150635,-11.74128246307373,12.963264465332031,-27.061939239501953,-0.01799909956753254,1.6259186267852783,2.9848506450653076,1.0276529788970947,-3.1632449626922607,-4.074550628662109
324,184941,184942,0.05699196457862854,-0.074827641248703,1.0580357313156128,13.54543685913086,6.995262622833252,-22.141029357910156,-0.02099894918501377,1.6259186267852783,2.9878506660461426,0.9350479245185852,-3.19473934173584,-4.330908298492432
325,184951,184952,0.06234024837613106,-0.060179710388183594,1.036291480064392,35.36002731323242,6.252957820892334,-15.085673332214355,-0.023998798802495003,1.634918212890625,2.9938502311706543,0.8170837759971619,-2.884399652481079,-4.539924144744873
326,184961,184962,0.026424670591950417,-0.09098140150308609,0.9575579762458801,45.169349670410156,16.025239944458008,-7.503576755523682,-0.013499325141310692,1.6124193668365479,2.998350143432617,0.8559756875038147,-2.5924265384674072,-4.687999248504639
327,184971,184972,0.06293728947639465,-0.09966712445020676,0.9394867420196533,45.022727966308594,24.038522720336914,0.8492948412895203,-0.005999699700623751,1.6169191598892212,2.999850034713745,0.5405880212783813,-1.8283042907714844,-4.774348735809326
328,184981,184982,0.05989257991313934,-0.09636165201663971,0.985331654548645,34.938880920410156,28.024105072021484,9.504486083984375,-0.028498575091362,1.6094194650650024,3.001349925994873,0.3642897605895996,-1.8397762775421143,-4.665994167327881
329,184991,184992,0.0018907602643594146,-0.13205569982528687,1.0085463523864746,17.58382225036621,26.239887237548828,16.915367126464844,-0.02099894918501377,1.6079195737838745,2.9818508625030518,0.07990969717502594,-1.4825793504714966,-4.5710272789001465
330,185001,185002,-0.008704429492354393,-0.07718899846076965,1.0052134990692139,0.8553555011749268,10.834945678710938,24.852140426635742,-0.016499174758791924,1.6004199981689453,2.9863505363464355,-0.07417875528335571,-1.4108868837356567,-4.3943986892700195
331,185011,185012,0.003831172361969948,-0.07210138440132141,0.923516035079956,-10.21513557434082,-5.7643723487854,35.179988861083984,-0.01799909956753254,1.6079195737838745,2.999850034713745,-0.1887511909008026,-1.5104142427444458,-4.0719804763793945
332,185021,185022,0.05105172097682953,-0.01946924440562725,0.892637312412262,-7.8342156410217285,-20.071304321289062,41.56883239746094,-0.00899954978376627,1.6139192581176758,2.9938502311706543,-0.11763621121644974,-1.6315149068832397,-3.6763157844543457
333,185031,185032,0.03902234509587288,-0.04106125235557556,0.9290434718132019,3.4955575466156006,-24.937976837158203,46.13741683959961,-0.013499325141310692,1.6094194650650024,3.0163490772247314,0.21673958003520966,-1.5926302671432495,-3.2948243618011475
334,185041,185042,0.04681225121021271,-0.11867837607860565,1.0519087314605713,26.268850326538086,-5.963447570800781,51.16593933105469,-0.01799909956753254,1.6019198894500732,3.0118494033813477,0.35559719800949097,-1.4468178749084473,-2.798187494277954
335,185051,185052,0.029203033074736595,-0.15999841690063477,1.0710505247116089,46.76998519897461,20.678178787231445,55.33259963989258,-0.023998798802495003,1.6289185285568237,3.0388479232788086,0.3277249038219452,-1.0862455368041992,-2.2777597904205322
336,185061,185062,0.053729891777038574,-0.10447020828723907,1.085681438446045,63.92277145385742,33.27581024169922,56.67607116699219,-0.040497973561286926,1.6244187355041504,3.0463476181030273,-0.050028055906295776,-0.5470229983329773,-1.6799145936965942
337,185071,185072,0.008732158690690994,-0.16770923137664795,1.082503080368042,71.89208221435547,41.65462875366211,57.76609802246094,-0.03299834951758385,1.6139192581176758,3.032848358154297,-0.5849456787109375,0.0910966694355011,-1.0439494848251343
338,185081,185082,0.0722200945019722,-0.16827252507209778,1.0956995487213135,81.60842895507812,43.83730697631836,56.35996627807617,-0.03149842470884323,1.579421043395996,3.0193488597869873,-0.9481291174888611,0.6608654856681824,-0.4792953133583069
339,185091,185092,0.05148746445775032,-0.1311931610107422,1.0262212753295898,76.6337661743164,29.974836349487305,56.99684143066406,-0.03899804875254631,1.5629218816757202,3.0118494033813477,-1.6014511585235596,1.8635213375091553,0.17488422989845276
340,185101,185102,0.036636143922805786,-0.11930149048566818,0.9650446176528931,59.74081802368164,10.505013465881348,51.67551803588867,-0.03299834951758385,1.5869206190109253,3.008849620819092,-1.679382562637329,2.375808000564575,0.6968210339546204
341,185111,185112,0.03162478655576706,-0.11626824736595154,0.937414824962616,34.08222961425781,-5.822934627532959,42.062618255615234,-0.04199789837002754,1.5839207172393799,3.008849620819092,-1.7239547967910767,2.8481249809265137,1.1919533014297485
342,185121,185122,0.007494527380913496,-0.174228236079216,0.9469290375709534,6.682895183563232,-15.276616096496582,33.23556137084961,-0.05399730056524277,1.5869206190109253,3.0118494033813477,-1.5493592023849487,3.0401995182037354,1.562467336654663
343,185131,185132,0.02314022183418274,-0.18281447887420654,0.9267915487289429,-18.70346450805664,-22.7480411529541,29.033559799194336,-0.044997747987508774,1.5749212503433228,3.005849599838257,-1.3667054176330566,3.0382239818573,1.8733577728271484
344,185141,185142,0.03343747556209564,-0.16957226395606995,0.9755181074142456,-34.0423469543457,-31.17928695678711,27.3911075592041,-0.03599819913506508,1.5719213485717773,2.999850034713745,-0.9688417911529541,2.600590467453003,2.1123783588409424
345,185151,185152,-0.0028973377775400877,-0.16704542934894562,0.9351991415023804,-42.734737396240234,-26.53420639038086,24.72104835510254,-0.04949752241373062,1.5884205102920532,3.0133492946624756,-0.6603439450263977,2.323425531387329,2.3795735836029053
346,185161,185162,-0.005723781418055296,-0.09815187007188797,0.9873994588851929,-34.2249870300293,-16.148757934570312,22.870567321777344,-0.04649767279624939,1.5944201946258545,3.025348663330078,-0.26353660225868225,1.8405553102493286,2.6057369709014893
347,185171,185172,-0.04752209782600403,-0.10987746715545654,1.042720913887024,-20.79279899597168,-10.128254890441895,21.854087829589844,-0.044997747987508774,1.5869206190109253,3.0178489685058594,-0.3297671377658844,1.6728031635284424,2.834110736846924
348,185181,185182,-0.06247396394610405,-0.07573310285806656,1.055738091468811,-0.1373268961906433,-10.940194129943848,20.122228622436523,-0.03299834951758385,1.5989199876785278,3.0358481407165527,-0.16591115295886993,1.4827085733413696,3.042224884033203
349,185191,185192,0.008146826177835464,-0.007836490869522095,1.0687659978866577,15.960155487060547,-14.596611022949219,21.018659591674805,-0.044997747987508774,1.5779210329055786,3.02384877204895,0.044704798609018326,1.623199462890625,3.266847610473633
350,185201,185202,0.05465881526470184,-0.08978109806776047,1.0202207565307617,19.328327178955078,-10.296767234802246,17.061725616455078,-0.050997450947761536,1.5899205207824707,3.0418479442596436,0.0015084320912137628,1.943134069442749,3.4612910747528076
351,185211,185212,0.03870260715484619,-0.15343478322029114,0.9740370512008667,15.680737495422363,8.146829605102539,13.132802963256836,-0.04649767279624939,1.5974200963974,3.0403478145599365,0.033911678940057755,2.2491345405578613,3.6296792030334473
352,185221,185222,0.004467880353331566,-0.19414250552654266,1.011508584022522,8.6149263381958,16.54486846923828,14.924615859985352,-0.04949752241373062,1.5974200963974,3.0433478355407715,-0.1381559818983078,2.2662413120269775,3.739844799041748
353,185231,185232,-0.023768123239278793,-0.19603799283504486,1.062813639640808,2.006885051727295,18.048782348632812,19.061473846435547,-0.047997597604990005,1.5989199876785278,3.029848337173462,-0.39143291115760803,2.2748448848724365,3.8872785568237305
354,185241,185242,-0.0640072301030159,-0.1353098452091217,1.0960328578948975,14.860261917114258,16.262624740600586,20.995702743530273,-0.05399730056524277,1.5839207172393799,3.032848358154297,-0.6617467403411865,2.3771097660064697,4.079209327697754
355,185251,185252,-0.06506801396608353,-0.13896077871322632,1.1064200401306152,28.172842025756836,5.175753116607666,20.652236938476562,-0.05249737575650215,1.5854207277297974,3.0433478355407715,-0.7700862288475037,2.699977397918701,4.318941593170166
356,185261,185262,-0.02326248213648796,-0.15915241837501526,1.1120697259902954,29.34188461303711,6.171596527099609,21.776878356933594,-0.04949752241373062,1.5914204120635986,3.0463476181030273,-0.813896119594574,3.1831164360046387,4.5611138343811035
357,185271,185272,-0.037372052669525146,-0.19264131784439087,1.0782661437988281,27.425527572631836,3.6214656829833984,20.885971069335938,-0.05999699980020523,1.5869206190109253,3.0358481407165527,-0.7106971740722656,3.4835712909698486,4.8232421875
358,185281,185282,-0.0488453209400177,-0.23841261863708496,1.0400534868240356,23.717662811279297,13.664408683776855,22.78328514099121,-0.05999699980020523,1.5719213485717773,3.02384877204895,-0.7907893061637878,3.749225616455078,5.033136367797852
359,185291,185292,-0.16617228090763092,-0.14377690851688385,0.988724410533905,9.999733924865723,17.101415634155273,25.240827560424805,-0.047997597604990005,1.5719213485717773,3.0118494033813477,-0.9984337687492371,3.61269211769104,5.199337959289551
360,185301,185302,-0.16612248122692108,-0.1527613401412964,0.9206774234771729,-12.29249382019043,18.485382080078125,26.992881774902344,-0.05399730056524277,1.5779210329055786,3.008849620819092,-1.2676491737365723,3.632669687271118,5.440066337585449
361,185311,185312,-0.07259378582239151,-0.21321284770965576,0.9983503222465515,-27.813390731811523,1.8187681436538696,28.03435516357422,-0.03449827432632446,1.5854207277297974,3.0073494911193848,-1.437525749206543,3.327742576599121,5.678295612335205
362,185321,185322,0.021760011091828346,-0.21624282002449036,1.0247457027435303,-37.76744842529297,-32.904151916503906,26.993331909179688,-0.047997597604990005,1.5749212503433228,2.9908504486083984,-1.1919512748718262,3.0803534984588623,6.0132856369018555
363,185331,185332,0.028809668496251106,-0.1916189342737198,1.0771654844284058,-44.06280517578125,-61.54766845703125,28.588958740234375,-0.05249737575650215,1.567421555519104,3.0223488807678223,-0.48582300543785095,2.8393166065216064,6.404041767120361
364,185341,185342,0.03215031325817108,-0.2112283855676651,1.104557752609253,-45.14651870727539,-65.66278076171875,36.123470306396484,-0.037498123943805695,1.5914204120635986,3.028348445892334,0.2686152756214142,2.356213331222534,6.717675685882568
365,185351,185352,-0.028654512017965317,-0.195718914270401,1.0770597457885742,-42.67416763305664,-55.947574615478516,41.76346969604492,-0.037498123943805695,1.5914204120635986,3.028348445892334,0.8957809805870056,2.2002220153808594,7.119556427001953
366,185361,185362,-0.016789892688393593,-0.0744222104549408,1.0644603967666626,-32.8095817565918,-37.68498229980469,46.22004318237305,-0.023998798802495003,1.5899205207824707,3.002849817276001,1.5350706577301025,1.913794755935669,7.607382297515869
367,185371,185372,-0.006888174451887608,-0.0983334481716156,1.017391562461853,-27.219148635864258,-15.550029754638672,48.42998504638672,-0.044997747987508774,1.5929203033447266,3.008849620819092,1.6991971731185913,1.736979603767395,8.012726783752441
368,185381,185382,-0.010262887924909592,-0.05997157096862793,0.9487623572349548,-29.284507751464844,10.892998695373535,50.29639434814453,-0.023998798802495003,1.5869206190109253,2.9818508625030518,1.6936758756637573,1.3400440216064453,8.452065467834473
369,185391,185392,-0.05102640390396118,-0.0593503937125206,0.9244674444198608,-47.672645568847656,27.961172103881836,49.47718048095703,-0.037498123943805695,1.5884205102920532,2.980350971221924,1.4295138120651245,1.234749674797058,8.92603588104248
370,185401,185402,-0.040224529802799225,-0.05111369863152504,1.0248942375183105,-66.38378143310547,34.18277359008789,48.001338958740234,-0.03149842470884323,1.5944201946258545,2.9863505363464355,1.174864649772644,0.513521671295166,9.437265396118164
371,185411,185412,-0.04041841998696327,-0.06847357004880905,1.0203382968902588,-82.54458618164062,27.81139373779297,46.76619338989258,-0.03899804875254631,1.5929203033447266,2.978851079940796,0.7997999787330627,-0.19630475342273712,9.893756866455078
372,185421,185422,-0.003403568407520652,-0.10195213556289673,1.0238256454467773,-91.55751037597656,13.487011909484863,45.94279098510742,-0.037498123943805695,1.6064196825027466,2.9833507537841797,0.5722317099571228,-1.2883358001708984,10.370534896850586
373,185431,185432,-0.047894589602947235,-0.08425936847925186,0.989831805229187,-85.56344604492188,-10.838869094848633,42.98897933959961,-0.037498123943805695,1.6094194650650024,2.998350143432617,0.6030842661857605,-1.806274175643921,10.844805717468262
374,185441,185442,-0.02036791667342186,-0.08781972527503967,1.0308550596237183,-68.07489776611328,-31.363927841186523,39.32627868652344,-0.028498575091362,1.6034197807312012,2.9563522338867188,0.8935585021972656,-2.518080711364746,11.300566673278809
375,185451,185452,-0.052114252001047134,-0.08343033492565155,1.0401220321655273,-21.278352737426758,-49.97774887084961,30.89684295654297,-0.03299834951758385,1.6019198894500732,2.9548521041870117,1.3033708333969116,-2.6289541721343994,11.660882949829102
376,185461,185462,-0.05953265726566315,-0.05078759044408798,1.0034236907958984,25.10590934753418,-43.63808059692383,21.71658706665039,-0.050997450947761536,1.61091947555542,2.9668517112731934,1.946174144744873,-2.5869290828704834,11.990311622619629
377,185471,185472,-0.04596986621618271,-0.10962992906570435,0.999271810054779,46.49485397338867,-33.611236572265625,15.30359935760498,-0.05549722537398338,1.6124193668365479,3.0223488807678223,2.2884366512298584,-2.280776023864746,12.199505805969238
378,185481,185482,-0.07121258974075317,-0.10856638103723526,1.0051804780960083,41.307098388671875,-21.484525680541992,7.6219258308410645,-0.026998650282621384,1.6169191598892212,2.9848506450653076,2.52417254447937,-1.9377548694610596,12.340529441833496
379,185491,185492,-0.028835074976086617,-0.09305720031261444,0.995720624923706,18.438758850097656,-13.596229553222656,-4.399509429931641,-0.029998499900102615,1.61091947555542,2.972851276397705,2.7135705947875977,-1.540602684020996,12.354701042175293
380,185501,185502,-0.037808310240507126,-0.07998055219650269,0.9953781366348267,-5.3598480224609375,-6.976497173309326,-17.482868194580078,-0.016499174758791924,1.579421043395996,2.9023547172546387,2.8703227043151855,-1.5296019315719604,12.265849113464355
381,185511,185512,-0.03406737372279167,-0.0992245078086853,1.0149123668670654,-29.408863067626953,-8.082038879394531,-29.31700897216797,-0.004499774891883135,1.5734213590621948,2.8813557624816895,2.956672191619873,-1.918600082397461,12.082292556762695
382,185521,185522,-0.047154273837804794,-0.09869453310966492,1.1130149364471436,-36.577327728271484,-7.479615211486816,-35.87579345703125,-0.0029998498503118753,1.565921664237976,2.8828558921813965,3.076467752456665,-2.203333854675293,11.74400520324707
383,185531,185532,-0.011758833192288876,-0.08599068224430084,1.12602698802948,-21.298362731933594,2.3188648223876953,-34.98918533325195,0.0,1.5779210329055786,2.8828558921813965,3.144981622695923,-2.766400098800659,11.454818725585938
384,185541,185542,-0.004356649704277515,-0.11826755851507187,1.0264463424682617,9.042444229125977,31.367351531982422,-31.54170036315918,0.013499325141310692,1.5944201946258545,2.8603570461273193,3.0201828479766846,-2.964184284210205,11.139301300048828
385,185551,185552,0.002121798926964402,-0.1338820904493332,0.9855849742889404,33.159767150878906,70.81982421875,-27.178503036499023,-0.0014999249251559377,1.5734213590621948,2.8753561973571777,2.636706590652466,-2.4449410438537598,10.709856033325195
386,185561,185562,-0.007954956032335758,-0.11321451514959335,0.9562089443206787,45.5917854309082,106.347900390625,-25.09145736694336,-0.026998650282621384,1.5869206190109253,2.9038548469543457,1.576904296875,-2.122671604156494,10.476594924926758
387,185571,185572,0.005782437045127153,-0.10233596712350845,0.928155243396759,53.46886444091797,128.530517578125,-24.432525634765625,-0.023998798802495003,1.6139192581176758,2.918853998184204,0.5680280327796936,-1.4756286144256592,10.108176231384277
388,185581,185582,0.02619990147650242,-0.0913180485367775,0.9215006232261658,46.0878791809082,129.8918914794922,-22.709768295288086,-0.028498575091362,1.5914204120635986,2.920353889465332,-1.1634480953216553,-0.9362680912017822,9.940807342529297
389,185591,185592,0.013552386313676834,-0.0846882238984108,0.9071891903877258,28.07038688659668,113.71656799316406,-19.824806213378906,-0.04949752241373062,1.5764211416244507,2.917354106903076,-2.0917961597442627,-0.5519316792488098,9.625612258911133
390,185601,185602,-0.011859151534736156,-0.11535798013210297,0.934291660785675,1.8763823509216309,82.66448974609375,-15.535758972167969,-0.04199789837002754,1.5839207172393799,2.9068546295166016,-3.0796775817871094,-0.5056493878364563,9.463534355163574
391,185611,185612,0.020781483501195908,-0.15092353522777557,0.9465296864509583,-23.454177856445312,32.7701301574707,-13.087681770324707,-0.029998499900102615,1.5749212503433228,2.867856502532959,-3.5988802909851074,-0.7340598702430725,9.310105323791504
392,185621,185622,0.0475618876516819,-0.13505715131759644,0.8934780955314636,-50.64309310913086,-17.596845626831055,-12.1714448928833,-0.02099894918501377,1.5449227094650269,2.8558571338653564,-3.81978178024292,-1.1079102754592896,9.217408180236816
393,185631,185632,0.02549159526824951,-0.13159020245075226,0.8720232248306274,-65.58726501464844,-56.85479736328125,-16.943021774291992,-0.00899954978376627,1.5689215660095215,2.8768560886383057,-3.206040859222412,-1.9863418340682983,9.041170120239258
394,185641,185642,0.023659054189920425,-0.06269150972366333,0.9160692095756531,-65.7515869140625,-79.48641967773438,-23.006183624267578,-0.025498725473880768,1.579421043395996,2.893355369567871,-2.345156669616699,-2.360801935195923,8.829936981201172
395,185651,185652,0.06904929876327515,-0.02749618887901306,0.9187502264976501,-56.64127731323242,-89.1033706665039,-22.855836868286133,-0.03599819913506508,1.5899205207824707,2.92185378074646,-1.2481553554534912,-3.191145181655884,8.565460205078125
396,185661,185662,0.07812774181365967,-0.08407555520534515,0.9037154912948608,-36.525352478027344,-82.82362365722656,-19.501432418823242,-0.050997450947761536,1.6019198894500732,2.9488525390625,-0.5098324418067932,-3.5523157119750977,8.449333190917969
397,185671,185672,0.05307266488671303,-0.08333075791597366,0.8869836330413818,-15.254737854003906,-59.12787628173828,-16.970375061035156,-0.047997597604990005,1.5989199876785278,2.9398529529571533,0.3847139775753021,-3.98475980758667,8.25595760345459
398,185681,185682,0.04000097140669823,-0.1139705628156662,0.8837603330612183,6.217080116271973,-11.487754821777344,-11.954157829284668,-0.01799909956753254,1.580920934677124,2.897855043411255,0.6695621609687805,-3.784266471862793,8.19920539855957
399,185691,185692,0.017594244331121445,-0.11863682419061661,0.919890820980072,27.533306121826172,38.95411682128906,-7.5497355461120605,-0.0014999249251559377,1.5884205102920532,2.896355152130127,0.5289153456687927,-3.631516933441162,8.118687629699707
400,185701,185702,0.02557111531496048,-0.12498759478330612,0.9580965638160706,38.824424743652344,71.79305267333984,-2.717327356338501,-0.03599819913506508,1.604919672012329,2.918853998184204,-0.28858187794685364,-3.149193525314331,8.153557777404785
401,185711,185712,-0.022069772705435753,-0.1109326183795929,0.9601876735687256,32.5971565246582,84.08098602294922,1.2153187990188599,-0.044997747987508774,1.595920205116272,2.9308533668518066,-1.2932709455490112,-2.6094956398010254,8.21321964263916
402,185721,185722,-0.04279842972755432,-0.1588164120912552,0.9069040417671204,23.442033767700195,87.5644302368164,4.616103172302246,-0.056997150182724,1.5929203033447266,2.945852756500244,-1.996207356452942,-2.758918523788452,8.085827827453613
403,185731,185732,0.025198278948664665,-0.10652592778205872,0.9174061417579651,18.56661033630371,75.609130859375,5.054415702819824,-0.06749662756919861,1.5944201946258545,2.9563522338867188,-3.034933090209961,-2.236361265182495,8.22729206085205
404,185741,185742,0.08563006669282913,-0.10896147042512894,0.9133406281471252,4.857341766357422,45.149681091308594,-0.14806528389453888,-0.05399730056524277,1.604919672012329,2.9308533668518066,-3.702848196029663,-1.9289518594741821,8.273366928100586
405,185751,185752,0.03842538595199585,-0.11609543114900589,0.8510617613792419,-17.513914108276367,5.947859764099121,-7.662034511566162,-0.050997450947761536,1.5839207172393799,2.9158542156219482,-4.100861549377441,-2.1623940467834473,8.229451179504395
406,185761,185762,0.017535286024212837,-0.10653551667928696,0.8493826985359192,-42.692684173583984,-38.56578063964844,-14.231234550476074,-0.03599819913506508,1.5869206190109253,2.891855239868164,-3.738123893737793,-2.2902421951293945,8.045063972473145
407,185771,185772,0.033407725393772125,-0.09549624472856522,0.8594987988471985,-63.396270751953125,-77.5441665649414,-17.822118759155273,-0.04349782317876816,1.5884205102920532,2.9383530616760254,-3.015247344970703,-3.1966001987457275,7.732387542724609
408,185781,185782,0.05693922936916351,-0.05007581785321236,0.8728443384170532,-65.73280334472656,-113.76290130615234,-22.420001983642578,-0.04349782317876816,1.6004199981689453,2.980350971221924,-1.9148845672607422,-4.176137924194336,7.441304683685303
409,185791,185792,0.027369674295186996,-0.04230481758713722,0.9027057886123657,-48.20237731933594,-128.64796447753906,-26.621843338012695,-0.044997747987508774,1.6169191598892212,3.008849620819092,-0.2936600148677826,-4.598341941833496,7.174397945404053
410,185801,185802,0.018819129094481468,-0.09153236448764801,0.8906384110450745,-29.176658630371094,-120.56486511230469,-26.567180633544922,-0.056997150182724,1.6229188442230225,3.02384877204895,0.7558881044387817,-4.855850696563721,7.163301467895508
411,185811,185812,-0.02077207900583744,-0.07701923698186874,0.9293559193611145,-7.9221720695495605,-90.68036651611328,-23.043615341186523,-0.047997597604990005,1.6289185285568237,3.0358481407165527,2.1366310119628906,-5.209089279174805,6.8382768630981445
412,185821,185822,-0.006945720408111811,-0.054229628294706345,0.9598549604415894,9.197555541992188,-45.55298614501953,-19.21195411682129,-0.04349782317876816,1.633418321609497,3.034348249435425,2.403934955596924,-5.089278697967529,6.976004123687744
413,185831,185832,0.004557717591524124,-0.032835930585861206,0.97819983959198,40.2140998840332,9.941431999206543,-22.956058502197266,-0.03149842470884323,1.6544172763824463,3.0073494911193848,2.6320650577545166,-4.756855487823486,6.806953430175781
414,185841,185842,-0.01961195282638073,-0.06878669559955597,0.9996289014816284,63.64771270751953,45.82404708862305,-26.19963836669922,-0.037498123943805695,1.6184190511703491,3.0103495121002197,2.2368109226226807,-4.240800857543945,6.646397113800049
415,185851,185852,0.029928753152489662,-0.05020346865057945,0.9760844707489014,77.18798065185547,79.91783905029297,-31.220630645751953,-0.04199789837002754,1.619918942451477,3.029848337173462,1.2467232942581177,-3.35772967338562,6.566501140594482
416,185861,185862,0.040713999420404434,-0.09228943288326263,0.9306921362876892,69.3594741821289,98.93344116210938,-34.947227478027344,-0.05549722537398338,1.6244187355041504,3.031348466873169,0.4655923545360565,-2.761049270629883,6.117725372314453
417,185871,185872,0.03523626923561096,-0.10497180372476578,0.9780848622322083,55.22620391845703,100.5645751953125,-34.8065185546875,-0.056997150182724,1.6439177989959717,3.053847312927246,-0.7296808362007141,-1.9848519563674927,5.860774040222168
418,185881,185882,0.03850107640028,-0.13014070689678192,1.033512830734253,31.32246208190918,81.98320770263672,-32.771766662597656,-0.07349632680416107,1.6394180059432983,3.052347421646118,-1.4545153379440308,-1.6694170236587524,5.360324859619141
419,185891,185892,0.06794170290231705,-0.12987306714057922,1.049362301826477,3.127711296081543,48.07636260986328,-26.891324996948242,-0.07049647718667984,1.6574170589447021,3.05834698677063,-2.283173084259033,-1.4224586486816406,5.139791965484619
420,185901,185902,0.08592066913843155,-0.14685913920402527,1.0414707660675049,-23.09710121154785,7.531528949737549,-18.940921783447266,-0.07049647718667984,1.636418104171753,3.0163490772247314,-2.427394390106201,-1.637869954109192,4.797983169555664
421,185911,185912,0.0004098275676369667,-0.14140136539936066,1.026355504989624,-33.426815032958984,-33.920204162597656,-9.045458793640137,-0.085495725274086,1.6274186372756958,3.052347421646118,-2.254957675933838,-2.126845121383667,4.609545707702637
422,185921,185922,-0.04436889663338661,-0.10560156404972076,1.017622709274292,-18.286815643310547,-71.04395294189453,-2.9217755794525146,-0.056997150182724,1.6289185285568237,3.056847095489502,-1.3991838693618774,-2.2800254821777344,4.4162421226501465
423,185931,185932,-0.09573277831077576,-0.14747248589992523,1.0489214658737183,-3.3003695011138916,-83.0199966430664,0.01662796549499035,-0.07349632680416107,1.6274186372756958,3.079345941543579,-0.4615371525287628,-2.4404349327087402,4.361036777496338
424,185941,185942,-0.11771104484796524,-0.17818231880664825,1.084303855895996,14.672874450683594,-64.56236267089844,0.5937286615371704,-0.07049647718667984,1.6304184198379517,3.0973451137542725,0.0013462550705298781,-2.3590199947357178,4.543905258178711
425,185951,185952,-0.10910937935113907,-0.15139301121234894,1.1507456302642822,43.288352966308594,-32.18372344970703,-0.49396610260009766,-0.056997150182724,1.6379181146621704,3.0748462677001953,0.5721206665039062,-1.9611034393310547,4.548503398895264
426,185961,185962,-0.020352134481072426,-0.15681973099708557,1.086741328239441,62.384178161621094,-0.4675440788269043,1.1680644750595093,-0.056997150182724,1.6379181146621704,3.059846878051758,0.8078342080116272,-1.4954016208648682,4.519598484039307
427,185971,185972,-0.0017107948660850525,-0.12951494753360748,1.0674610137939453,54.22517013549805,17.663007736206055,1.549489974975586,-0.058497074991464615,1.636418104171753,3.0643467903137207,0.703924298286438,-0.7544324994087219,4.56414794921875
428,185981,185982,-0.0036727830301970243,-0.1866702437400818,1.0206811428070068,35.01118850708008,33.548885345458984,1.8624569177627563,-0.03449827432632446,1.6094194650650024,3.0373480319976807,0.3369993269443512,-0.6251693964004517,4.595579147338867
429,185991,185992,-0.02507568523287773,-0.17002858221530914,1.0380275249481201,19.523775100708008,29.979196548461914,-1.1453282833099365,-0.06299684941768646,1.6139192581176758,3.0178489685058594,0.008676376193761826,-0.01957947574555874,4.619986534118652
430,186001,186002,-0.025544974952936172,-0.1739613562822342,1.0435404777526855,7.363737106323242,13.137191772460938,-4.9144463539123535,-0.04349782317876816,1.6094194650650024,2.9923503398895264,-0.3337439000606537,-0.11595563590526581,4.613692283630371
431,186011,186012,0.006267016753554344,-0.188981294631958,1.0354970693588257,7.968925952911377,-12.830094337463379,-7.622165203094482,-0.03599819913506508,1.5869206190109253,2.975851058959961,-0.2868123948574066,-0.19699566066265106,4.524835109710693
432,186021,186022,0.0014141377760097384,-0.19686298072338104,1.0357881784439087,19.01935386657715,-28.810558319091797,-9.51172161102295,-0.023998798802495003,1.5869206190109253,2.975851058959961,0.021036949008703232,0.04567420110106468,4.412059783935547
433,186031,186032,-0.009477975778281689,-0.20987315475940704,1.0424413681030273,27.43281364440918,-33.21310043334961,-9.945399284362793,-0.037498123943805695,1.5944201946258545,2.9863505363464355,0.5275227427482605,0.31211158633232117,4.265697479248047
434,186041,186042,-0.0633440688252449,-0.17103344202041626,1.0681318044662476,18.065404891967773,-23.58304786682129,-4.003018856048584,-0.040497973561286926,1.5884205102920532,2.9953501224517822,0.889052152633667,0.5655401349067688,4.170111656188965
435,186051,186052,-0.04536623880267143,-0.16715341806411743,1.0372196435928345,1.826979637145996,-0.4030162990093231,4.156078338623047,-0.019499024376273155,1.5944201946258545,2.9683516025543213,1.0469835996627808,0.5880774259567261,4.1566643714904785
436,186061,186062,-0.07803363353013992,-0.162845641374588,1.0244593620300293,-12.852544784545898,21.246036529541016,6.809394836425781,-0.03599819913506508,1.5899205207824707,2.969851493835449,0.912595808506012,0.5777247548103333,4.217543125152588
437,186071,186072,-0.030306220054626465,-0.1557532697916031,1.027420163154602,-22.571025848388672,38.08534622192383,8.975271224975586,-0.04199789837002754,1.595920205116272,2.975851058959961,0.46481674909591675,0.3334394693374634,4.316992282867432
438,186081,186082,0.03204556927084923,-0.12627089023590088,1.0358847379684448,-25.205785751342773,50.89472198486328,14.42965030670166,-0.03449827432632446,1.5944201946258545,2.971351385116577,0.18326860666275024,0.21074014902114868,4.40855073928833
439,186091,186092,0.026275791227817535,-0.08295121788978577,1.0832927227020264,-12.452092170715332,58.27909469604492,21.967342376708984,-0.03899804875254631,1.6169191598892212,2.9638516902923584,-0.5126844048500061,-0.11776100844144821,4.591944694519043
440,186101,186102,-0.014899109490215778,-0.09491407126188278,1.0721125602722168,-2.6770215034484863,52.74296569824219,23.03435516357422,-0.03599819913506508,1.6019198894500732,2.975851058959961,-0.974467396736145,-0.14891807734966278,4.8149614334106445
441,186111,186112,-0.003945718985050917,-0.017314976081252098,1.1341798305511475,17.37137794494629,30.701719284057617,20.719745635986328,-0.03299834951758385,1.5899205207824707,2.9668517112731934,-1.602542757987976,-0.04639890044927597,5.039661407470703
442,186121,186122,0.03664601966738701,-0.05491888150572777,1.1219786405563354,39.880916595458984,-1.0230189561843872,11.294599533081055,-0.03599819913506508,1.5869206190109253,2.9638516902923584,-1.799899935722351,0.26996415853500366,5.216707706451416
443,186131,186132,0.020341364666819572,-0.061457451432943344,1.0969812870025635,52.2565803527832,-33.079017639160156,5.577372074127197,-0.044997747987508774,1.5719213485717773,2.9878506660461426,-1.588362693786621,0.9703994989395142,5.31196403503418
444,186141,186142,0.04200826957821846,-0.07121957093477249,1.03721022605896,55.812957763671875,-54.563777923583984,4.8308491706848145,-0.044997747987508774,1.5719213485717773,2.975851058959961,-0.9201945066452026,1.577157735824585,5.372305393218994
445,186151,186152,-0.0004974366747774184,-0.1007159948348999,0.9521864056587219,44.96444320678711,-54.234840393066406,4.357987403869629,-0.047997597604990005,1.580920934677124,2.9908504486083984,-0.37995949387550354,1.9719948768615723,5.3930487632751465
446,186161,186162,-0.04185277596116066,-0.1093149334192276,0.9136859178543091,18.833084106445312,-51.62306213378906,4.471937656402588,-0.016499174758791924,1.5734213590621948,2.953352212905884,0.3845888674259186,2.25028133392334,5.43797492980957
447,186171,186172,-0.023763881996273994,-0.08976168930530548,0.8626511693000793,-22.504060745239258,-41.91466522216797,2.9242594242095947,-0.016499174758791924,1.5704214572906494,2.9383530616760254,0.8836727142333984,2.206481695175171,5.453418731689453
448,186181,186182,0.02618448995053768,-0.04951690137386322,0.9249742031097412,-66.84918212890625,-19.401819229125977,3.284059524536133,-0.011999399401247501,1.5719213485717773,2.9398529529571533,0.990290105342865,1.6828492879867554,5.41957950592041
449,186191,186192,0.05611233040690422,-0.10809941589832306,0.9069933891296387,-99.6538314819336,-2.2740988731384277,6.020750522613525,-0.00899954978376627,1.5749212503433228,2.9608519077301025,1.1708195209503174,1.1107374429702759,5.47404670715332
450,186201,186202,0.008223957382142544,-0.12184791266918182,0.9345393776893616,-104.13191986083984,8.57262134552002,11.665800094604492,-0.022498873993754387,1.6004199981689453,2.974351167678833,1.1903345584869385,-0.49504023790359497,5.565244197845459
451,186211,186212,-0.1012033149600029,-0.07632437348365784,0.9614543318748474,-76.89616394042969,26.187728881835938,16.34054946899414,-0.047997597604990005,1.6079195737838745,2.975851058959961,0.719562828540802,-0.9631645083427429,5.594473361968994
452,186221,186222,-0.04695127159357071,-0.06077834591269493,0.9851293563842773,-28.94141387939453,44.005393981933594,22.415157318115234,-0.037498123943805695,1.6064196825027466,2.9623517990112305,0.48246702551841736,-1.5298619270324707,5.79368257522583
453,186231,186232,-0.010525700636208057,-0.05251345410943031,1.0608935356140137,3.5933613777160645,55.22849655151367,24.899185180664062,-0.047997597604990005,1.61091947555542,2.9488525390625,0.0372135192155838,-1.655002474784851,6.021716594696045
454,186241,186242,0.029280906543135643,-0.09242523461580276,1.0546958446502686,27.776805877685547,62.10905838012695,27.264009475708008,-0.04199789837002754,1.595920205116272,2.9488525390625,-0.798832356929779,-1.2958601713180542,6.195541858673096
455,186251,186252,-0.006436933297663927,-0.14373768866062164,1.0133588314056396,38.854827880859375,50.69293212890625,28.026826858520508,-0.05549722537398338,1.5974200963974,2.9563522338867188,-1.2873317003250122,-0.9675191044807434,6.485116481781006
456,186261,186262,-0.024747319519519806,-0.06223493814468384,0.9688641428947449,35.930416107177734,18.873876571655273,27.663124084472656,-0.03899804875254631,1.5869206190109253,2.942852735519409,-1.6812877655029297,-0.6109874248504639,6.7638726234436035
457,186271,186272,0.04165580868721008,-0.06184762343764305,0.9585697054862976,23.847679138183594,-14.972566604614258,28.213281631469727,-0.03899804875254631,1.5719213485717773,2.9308533668518066,-1.6548484563827515,-0.5602748990058899,7.0604248046875
458,186281,186282,0.06147507205605507,-0.09039728343486786,0.9935153722763062,12.753860473632812,-34.00343322753906,30.71037483215332,-0.04649767279624939,1.5944201946258545,2.9593520164489746,-1.1510543823242188,-0.3373289704322815,7.395903587341309
459,186291,186292,0.03407304733991623,-0.11969556659460068,0.9743070006370544,-5.293919563293457,-44.2763671875,33.7181396484375,-0.03299834951758385,1.5749212503433228,2.969851493835449,-0.7925009727478027,-0.26199018955230713,7.716187953948975
460,186301,186302,-0.030909862369298935,-0.13358300924301147,0.9441238045692444,-20.40170669555664,-46.62176513671875,31.851106643676758,-0.04649767279624939,1.5764211416244507,2.980350971221924,-0.2722317576408386,-0.49121639132499695,8.056825637817383
461,186311,186312,-0.05321492254734039,-0.08000784367322922,0.9071502089500427,-19.998395919799805,-31.441255569458008,29.484045028686523,-0.03599819913506508,1.5839207172393799,2.969851493835449,0.18067823350429535,-0.5911445021629333,8.3832368850708
462,186321,186322,-0.02688058838248253,-0.12398482859134674,0.9374009966850281,-13.72341251373291,-19.349628448486328,26.09087562561035,-0.03599819913506508,1.5749212503433228,2.9638516902923584,0.5029736757278442,-0.7964516282081604,8.680806159973145
463,186331,186332,-0.03764394670724869,-0.12811128795146942,0.9127483367919922,-0.3651484251022339,-15.879351615905762,21.26441764831543,-0.03449827432632446,1.5764211416244507,2.9683516025543213,0.6079651713371277,-0.9835418462753296,8.91735553741455
464,186341,186342,-0.05050995573401451,-0.05504591390490532,0.8906838297843933,4.624300956726074,-18.60723114013672,19.03832244873047,-0.04199789837002754,1.5899205207824707,2.9908504486083984,0.8371785283088684,-0.9055477976799011,9.134390830993652
465,186351,186352,-0.03173470124602318,-0.09997062385082245,0.8946208357810974,3.151447057723999,-23.216978073120117,17.946964263916016,-0.03899804875254631,1.580920934677124,2.9848506450653076,1.1231688261032104,-0.8001068830490112,9.334548950195312
466,186361,186362,-0.04815070331096649,-0.1226295456290245,0.8929174542427063,2.3033435344696045,-22.11448097229004,17.66283416748047,-0.03149842470884323,1.5914204120635986,2.998350143432617,1.314040184020996,-0.7350770831108093,9.512499809265137
467,186371,186372,-0.04670843109488487,-0.0613885298371315,0.8979936242103577,13.970406532287598,-11.736927032470703,15.175238609313965,-0.03449827432632446,1.5944201946258545,2.9923503398895264,1.2247494459152222,-0.7675630450248718,9.659324645996094
468,186381,186382,-0.046902891248464584,-0.04735307767987251,0.9885097742080688,32.188621520996094,6.5743513107299805,12.794807434082031,-0.04199789837002754,1.5869206190109253,2.999850034713745,1.1559510231018066,-0.7508159279823303,9.804673194885254
469,186391,186392,-0.06704317033290863,-0.08780378103256226,1.0026063919067383,43.10909652709961,35.678165435791016,12.407515525817871,-0.04649767279624939,1.5944201946258545,3.0103495121002197,1.0423051118850708,-0.4466171860694885,9.939179420471191
470,186401,186402,-0.017069309949874878,-0.0878574475646019,1.0348118543624878,51.39377975463867,72.53914642333984,9.640536308288574,-0.04649767279624939,1.6004199981689453,3.0103495121002197,0.22419551014900208,0.27830880880355835,10.005690574645996
471,186411,186412,0.006990981288254261,-0.12524549663066864,1.0882973670959473,57.501834869384766,94.05093383789062,4.897190570831299,-0.07799609750509262,1.6019198894500732,3.0358481407165527,-0.4661984443664551,0.4847525954246521,10.130614280700684
472,186421,186422,-0.019134551286697388,-0.14432409405708313,1.0632514953613281,52.10991287231445,91.00605773925781,1.2418700456619263,-0.06299684941768646,1.595920205116272,2.99685001373291,-1.6840115785598755,1.2490731477737427,10.14421272277832
473,186431,186432,-0.010689148679375648,-0.10518643260002136,1.057639241218567,39.422122955322266,51.84465026855469,-3.101966142654419,-0.07799609750509262,1.595920205116272,3.008849620819092,-2.1017401218414307,1.5374420881271362,10.205496788024902
474,186441,186442,0.08019866049289703,-0.08820701390504837,1.0658093690872192,14.832589149475098,-11.900773048400879,-8.641392707824707,-0.06749662756919861,1.579421043395996,2.998350143432617,-2.37623929977417,1.9783424139022827,10.17300796508789
