,timestamp_start,timestamp_end,acc.x,acc.y,acc.z,gyro.x,gyro.y,gyro.z,mag.x,mag.y,mag.z,stabilizer.pitch,stabilizer.roll,stabilizer.yaw
0,19883,19884,0.07339335232973099,-0.059194423258304596,0.9238149523735046,52.27091598510742,31.666107177734375,-22.002511978149414,1.246437668800354,2.0233988761901855,2.8603570461273193,-0.42106619477272034,2.3075926303863525,0.6700730919837952
1,19893,19894,0.03416992351412773,-0.07956382632255554,0.9199196100234985,40.03926086425781,1.6516402959823608,-23.899803161621094,1.2659367322921753,2.03389835357666,2.8528573513031006,-0.6800762414932251,2.9784748554229736,0.45668813586235046
2,19903,19904,0.07440078258514404,-0.03887948766350746,0.8964871764183044,26.886632919311523,-25.004108428955078,-23.421390533447266,1.2509374618530273,1.9919003248214722,2.840857982635498,-0.5322025418281555,3.084888458251953,0.19790875911712646
3,19913,19914,0.03553396463394165,-0.013595200143754482,0.8933132290840149,1.2242242097854614,-45.40482711791992,-22.67117691040039,1.2629368305206299,1.9949002265930176,2.8348581790924072,0.0992126613855362,3.3123741149902344,-0.05896637961268425
4,19923,19924,0.0945773497223854,0.06166220083832741,0.9396654367446899,-33.25934600830078,-40.97183609008789,-21.081886291503906,1.2734363079071045,2.005399703979492,2.842357873916626,0.4818025827407837,2.792750120162964,-0.32665756344795227
5,19933,19934,0.1308208853006363,0.05395534262061119,0.9394544959068298,-59.92058181762695,-31.338077545166016,-18.09537124633789,1.2749361991882324,2.012899398803711,2.843857765197754,1.0866161584854126,2.312797784805298,-0.5327487587928772
6,19943,19944,0.13928519189357758,-0.007569692563265562,0.9349384903907776,-74.81066131591797,-20.64507293701172,-14.78722858428955,1.2869356870651245,2.0248987674713135,2.8618569374084473,1.184370756149292,1.7141047716140747,-0.7145001292228699
7,19953,19954,0.11130599677562714,-0.010930896736681461,0.9759778380393982,-85.01904296875,-20.37242317199707,-11.262808799743652,1.2884355783462524,2.0413978099823,2.866356611251831,1.2309308052062988,0.6055614352226257,-0.879416823387146
8,19963,19964,0.06606622040271759,0.01583225466310978,1.009236454963684,-79.18023681640625,-22.77533531188965,-7.90352725982666,1.2914353609085083,2.0563971996307373,2.863356828689575,1.5641891956329346,-0.0456770621240139,-0.9586166739463806
9,19973,19974,0.026718609035015106,-0.06906167417764664,0.9977636933326721,-53.22967529296875,-10.790876388549805,-4.0917439460754395,1.2869356870651245,2.0518972873687744,2.8618569374084473,1.6731250286102295,-0.8815639615058899,-1.0252293348312378
10,19983,19984,0.07716617733240128,-0.062307700514793396,0.9517024755477905,-16.45197296142578,3.7016873359680176,-0.15646186470985413,1.2824358940124512,2.0263986587524414,2.815359115600586,1.6107773780822754,-1.1666169166564941,-1.051548719406128
11,19993,19994,0.11969531327486038,-0.05603870376944542,0.9435487985610962,42.73073959350586,5.440871715545654,1.7733614444732666,1.2824358940124512,1.999400019645691,2.8033597469329834,1.5610144138336182,-0.9565044641494751,-1.04342520236969
12,20003,20004,0.09499198943376541,-0.020186617970466614,0.9154646396636963,91.41514587402344,12.20380973815918,0.5912164449691772,1.2749361991882324,2.012899398803711,2.819859027862549,1.4667174816131592,-0.2780599594116211,-1.029921293258667
13,20013,20014,0.06559892743825912,-0.016572019085288048,0.8898653984069824,125.49922180175781,24.343645095825195,-0.43107089400291443,1.2794359922409058,2.0233988761901855,2.863356828689575,1.2441637516021729,1.1113922595977783,-1.0337319374084473
14,20023,20024,0.07831469178199768,-0.030255133286118507,0.8855478167533875,126.97473907470703,31.731752395629883,-2.847179651260376,1.2629368305206299,2.036898136138916,2.894855260848999,0.9602507948875427,2.0771384239196777,-1.0282930135726929
15,20033,20034,0.06799714267253876,0.02002693898975849,0.91108238697052,93.52629089355469,30.98857307434082,-5.314944744110107,1.27643620967865,2.0293984413146973,2.8813557624816895,0.5329604744911194,3.371631622314453,-1.0506672859191895
16,20043,20044,0.05870334804058075,0.028094211593270302,0.8799477815628052,31.072065353393555,30.75201988220215,-8.055253028869629,1.283935785293579,1.9919003248214722,2.840857982635498,0.40747615694999695,3.707728624343872,-1.0978059768676758
17,20053,20054,0.07114476710557938,-0.02519303187727928,0.8587280511856079,-19.403369903564453,28.642667770385742,-7.283451080322266,1.2629368305206299,2.00689959526062,2.813859224319458,-0.08147746324539185,3.897952079772949,-1.1527694463729858
18,20063,20064,0.04392273351550102,0.07051823288202286,0.8884552717208862,-60.46006393432617,17.846261978149414,-4.820550441741943,1.270436406135559,2.008399486541748,2.8483574390411377,-0.20909735560417175,3.2924447059631348,-1.1944791078567505
19,20073,20074,0.07513143867254257,0.10238438844680786,0.8944239020347595,-80.91596984863281,-9.481260299682617,-4.04394006729126,1.2869356870651245,2.0278985500335693,2.8528573513031006,-0.2910965383052826,2.4846417903900146,-1.236061453819275
20,20083,20084,0.09597790241241455,0.10788965225219727,0.9555869698524475,-75.02850341796875,-45.0002555847168,-6.957565784454346,1.2884355783462524,2.0293984413146973,2.8513574600219727,0.023488841950893402,1.4075419902801514,-1.2905852794647217
21,20093,20094,0.0883418396115303,0.041062261909246445,0.9599369764328003,-59.068477630615234,-67.25682830810547,-9.343775749206543,1.2824358940124512,2.0533971786499023,2.8873555660247803,0.8793209791183472,0.9318946599960327,-1.3500057458877563
22,20103,20104,0.08068101853132248,0.018495256081223488,0.9616490602493286,-29.372255325317383,-70.56901550292969,-10.849381446838379,1.2899354696273804,2.0458977222442627,2.894855260848999,1.7167974710464478,0.411094605922699,-1.4479727745056152
23,20113,20114,0.0565212219953537,-0.01969495788216591,1.0075109004974365,5.66425895690918,-54.267478942871094,-10.690630912780762,1.2869356870651245,2.036898136138916,2.891855239868164,2.149822950363159,0.4162569046020508,-1.5838971138000488
24,20123,20124,-0.0085145253688097,-0.0587165430188179,0.9905873537063599,37.06538391113281,-28.47672462463379,-6.7640228271484375,1.2809358835220337,2.0188989639282227,2.8528573513031006,2.826472043991089,0.7695536613464355,-1.6659399271011353
25,20133,20134,0.012321761809289455,-0.03937944024801254,0.9460200667381287,51.162681579589844,8.817532539367676,-1.378623366355896,1.2869356870651245,2.0488975048065186,2.8588569164276123,2.987455129623413,1.2599560022354126,-1.7087547779083252
26,20143,20144,0.0237896628677845,-0.07269483804702759,0.9599992036819458,50.52254867553711,39.072608947753906,1.6286044120788574,1.2809358835220337,2.015899181365967,2.837857961654663,2.647627592086792,1.8145030736923218,-1.710337519645691
27,20153,20154,-0.0051977806724607944,-0.1344325691461563,0.942411482334137,30.817123413085938,59.41285705566406,5.179215908050537,1.27643620967865,2.0233988761901855,2.8543572425842285,1.95574152469635,2.062596321105957,-1.6575729846954346
28,20163,20164,0.06037325784564018,-0.06470327824354172,0.9246463775634766,11.872896194458008,69.60558319091797,9.437418937683105,1.2734363079071045,2.035398244857788,2.869356393814087,1.0650795698165894,2.1892662048339844,-1.562739372253418
29,20173,20174,0.0467202328145504,-0.050753697752952576,0.9483673572540283,-6.8572998046875,71.85812377929688,11.900456428527832,1.285435676574707,2.0443978309631348,2.8813557624816895,0.234602689743042,2.219935655593872,-1.430105209350586
30,20183,20184,0.12027794867753983,0.005733865778893232,0.9756293296813965,-9.311969757080078,67.05387878417969,11.389301300048828,1.2689365148544312,2.060896873474121,2.891855239868164,-0.25353872776031494,2.1560323238372803,-1.2685438394546509
31,20193,20194,0.07703372091054916,-0.05603678151965141,0.9613938331604004,-11.245707511901855,53.67928695678711,8.619009971618652,1.2629368305206299,2.0488975048065186,2.8768560886383057,-0.8722200989723206,2.0695879459381104,-1.1443201303482056
32,20203,20204,0.08084902912378311,-0.08206536620855331,0.9962190389633179,-9.14345645904541,31.017112731933594,3.8377861976623535,1.2629368305206299,2.015899181365967,2.8468575477600098,-1.113386631011963,1.8245429992675781,-1.0397348403930664
33,20213,20214,0.0778375193476677,-0.1226113811135292,1.0162729024887085,-9.571113586425781,2.113429069519043,0.2616373896598816,1.2719364166259766,1.985900640487671,2.792860269546509,-1.1821879148483276,1.7620970010757446,-1.0030367374420166
34,20223,20224,0.06790924817323685,-0.02940984070301056,1.0394811630249023,-7.68439245223999,-28.389991760253906,-0.8644264340400696,1.2674366235733032,1.9874006509780884,2.7973601818084717,-1.026512861251831,1.673966646194458,-1.0081673860549927
35,20233,20234,-0.001909801154397428,-0.044653359800577164,0.9834157824516296,3.1424357891082764,-46.61206817626953,-1.0591599941253662,1.2779361009597778,1.982900857925415,2.816859006881714,-0.4931303560733795,1.544648289680481,-1.0198785066604614
36,20243,20244,0.0223703570663929,-0.05728095397353172,0.9655149579048157,6.147758960723877,-41.505496978759766,1.453506588935852,1.2929353713989258,2.0009000301361084,2.8258585929870605,0.21022677421569824,1.6238536834716797,-1.0114092826843262
37,20253,20254,0.07326424866914749,0.00881410576403141,0.9622201323509216,5.339353561401367,-24.552528381347656,3.2275238037109375,1.2914353609085083,2.005399703979492,2.8303585052490234,0.45085328817367554,1.516341209411621,-1.0180732011795044
38,20263,20264,0.09264445304870605,0.0009987351950258017,0.9481166005134583,2.7682087421417236,0.04694121703505516,4.206490516662598,1.283935785293579,1.9949002265930176,2.8048596382141113,0.5250000357627869,1.6772316694259644,-0.9795666933059692
39,20273,20274,0.07831444591283798,-0.019888896495103836,0.9723808765411377,-0.3649415671825409,26.54186248779297,3.6214919090270996,1.2689365148544312,1.9979000091552734,2.813859224319458,0.35292279720306396,1.7062262296676636,-0.9345370531082153
40,20283,20284,0.08610492199659348,-0.003274043556302786,1.0133914947509766,-5.328485488891602,48.365997314453125,-0.6064600944519043,1.2584370374679565,1.999400019645691,2.8273584842681885,0.037529606372117996,1.6848015785217285,-0.8988201022148132
41,20293,20294,0.09713059663772583,-0.007475349586457014,1.0122052431106567,-17.58103370666504,63.122310638427734,-4.456960201263428,1.2404379844665527,2.014399290084839,2.8303585052490234,-0.6650068759918213,1.6119097471237183,-0.9164265990257263
42,20303,20304,0.10893040895462036,0.003767885733395815,1.0614502429962158,-26.284250259399414,61.511051177978516,-4.760721683502197,1.2539372444152832,2.036898136138916,2.8588569164276123,-1.5327510833740234,1.1906505823135376,-0.9823815822601318
43,20313,20314,0.15640206634998322,0.05169207230210304,1.1091445684432983,-22.38051414489746,47.03350830078125,-4.103508472442627,1.2629368305206299,2.036898136138916,2.8468575477600098,-1.7300713062286377,0.9000956416130066,-0.9913012385368347
44,20323,20324,0.07996091991662979,0.0012712291209027171,1.0922214984893799,-5.880983352661133,26.560731887817383,-0.2259412705898285,1.2509374618530273,1.9919003248214722,2.8288586139678955,-2.3447184562683105,0.6839859485626221,-1.04201078414917
45,20333,20334,0.07479158043861389,-0.058644868433475494,1.0564708709716797,26.82600212097168,2.942284107208252,5.6414971351623535,1.2494374513626099,2.011399507522583,2.8273584842681885,-2.0603108406066895,0.8294445276260376,-0.9766505360603333
46,20343,20344,0.10476452112197876,-0.06294479221105576,1.0231596231460571,61.71400833129883,-21.785573959350586,9.9710693359375,1.2659367322921753,2.0009000301361084,2.8348581790924072,-2.0322306156158447,1.4636785984039307,-0.8652462959289551
47,20353,20354,0.13477906584739685,-0.16707707941532135,0.9789066910743713,90.28341674804688,-44.14994430541992,10.998655319213867,1.246437668800354,2.0233988761901855,2.8513574600219727,-1.6442885398864746,2.131645679473877,-0.7843879461288452
48,20363,20364,0.14837440848350525,-0.1521768718957901,0.9184746146202087,97.99935913085938,-66.28832244873047,12.08511734008789,1.2554372549057007,2.0203988552093506,2.8783559799194336,-0.8694614171981812,3.2345998287200928,-0.655099630355835
49,20373,20374,0.1271267682313919,-0.11690078675746918,0.8573240637779236,92.01739501953125,-74.62779998779297,11.528864860534668,1.2659367322921753,2.0488975048065186,2.897855043411255,-0.16951721906661987,3.886753559112549,-0.6554163098335266
50,20383,20384,0.10267332941293716,-0.0827074870467186,0.8694821000099182,71.10392761230469,-69.12307739257812,10.644553184509277,1.2734363079071045,2.011399507522583,2.8753561973571777,0.8278170228004456,4.984099864959717,-0.5270781517028809
51,20393,20394,0.13139992952346802,-0.10095341503620148,0.873090386390686,38.873783111572266,-43.532508850097656,11.03637981414795,1.2524373531341553,2.0293984413146973,2.8813557624816895,1.233962059020996,5.326842784881592,-0.5310625433921814
52,20403,20404,0.11599191278219223,-0.09279225766658783,0.8230465650558472,8.784937858581543,-12.333503723144531,9.643644332885742,1.2719364166259766,1.9889005422592163,2.837857961654663,1.560667634010315,5.560960292816162,-0.44601207971572876
53,20413,20414,0.10131377726793289,-0.10354065150022507,0.8075058460235596,-16.933334350585938,22.49714469909668,7.07075834274292,1.261436939239502,1.9934003353118896,2.83935809135437,1.4706677198410034,5.545170307159424,-0.35963642597198486
54,20423,20424,0.16526208817958832,-0.08482540398836136,0.8090196847915649,-43.726436614990234,44.40080642700195,5.79313850402832,1.2629368305206299,2.0278985500335693,2.8618569374084473,0.905643880367279,5.038758754730225,-0.34252816438674927
55,20433,20434,0.10929550975561142,-0.0807063952088356,0.8176664710044861,-66.00719451904297,57.09585952758789,3.8988425731658936,1.2554372549057007,2.0533971786499023,2.890355348587036,0.3194442093372345,4.592745304107666,-0.25225400924682617
56,20443,20444,0.10315365344285965,-0.05869309976696968,0.8643687963485718,-70.15788269042969,55.3995246887207,3.6235885620117188,1.2509374618530273,2.0488975048065186,2.9128541946411133,-0.33896371722221375,3.8006632328033447,-0.2043524980545044
57,20453,20454,0.12673726677894592,-0.025730827823281288,0.9024696946144104,-51.07633590698242,39.64848709106445,0.8230410814285278,1.244937777519226,2.066896677017212,2.9308533668518066,-0.7421513795852661,3.276573896408081,-0.10796605795621872
58,20463,20464,0.10891536623239517,-0.03183213621377945,0.9155767560005188,-16.752071380615234,20.42242431640625,-2.055382251739502,1.2539372444152832,2.063896656036377,2.9308533668518066,-1.0724706649780273,2.9980056285858154,-0.09120763838291168
59,20473,20474,0.08826970309019089,-0.11019676178693771,0.867500901222229,17.18556785583496,0.06612090766429901,-3.2698118686676025,1.261436939239502,2.06839656829834,2.9353532791137695,-1.0892032384872437,3.0613420009613037,-0.06552546471357346
60,20483,20484,0.007364559452980757,-0.09008876979351044,0.9363579154014587,42.12184524536133,-13.942705154418945,-2.761671781539917,1.2599369287490845,2.0788960456848145,2.9638516902923584,-1.0000178813934326,3.645132064819336,-0.05625493451952934
61,20493,20494,-0.007460446562618017,-0.026405038312077522,0.9967638850212097,49.513824462890625,-15.335637092590332,-2.3488123416900635,1.2494374513626099,2.089395523071289,2.9833507537841797,-0.8391274213790894,4.163590908050537,-0.07855941355228424
62,20503,20504,-0.010134652256965637,0.028358083218336105,1.0167474746704102,40.535789489746094,-13.469517707824707,-2.789762496948242,1.261436939239502,2.0713963508605957,2.980350971221924,-0.6654716730117798,4.694702625274658,-0.09498496353626251
63,20513,20514,-0.011790269054472446,-0.009911924600601196,1.0025991201400757,18.80240249633789,-13.107598304748535,-3.7828147411346436,1.2569371461868286,2.063896656036377,2.972851276397705,-0.4374524652957916,4.780494689941406,-0.1479465514421463
64,20523,20524,0.054920636117458344,-0.06919924914836884,1.012473464012146,-6.543580055236816,-13.870884895324707,-8.01958179473877,1.247937560081482,2.084895610809326,2.9548521041870117,-0.23876750469207764,4.993507385253906,-0.16464605927467346
65,20533,20534,0.06491721421480179,-0.10754170268774033,1.0273332595825195,-32.474571228027344,-13.192895889282227,-11.256285667419434,1.285435676574707,2.0713963508605957,2.9623517990112305,-0.11539119482040405,4.6953535079956055,-0.2904966175556183
66,20543,20544,0.0444757342338562,-0.10697530955076218,1.001022458076477,-56.56332015991211,-8.904703140258789,-12.46529769897461,1.2869356870651245,2.0728962421417236,2.945852756500244,-0.006287289783358574,4.340381145477295,-0.4032725393772125
67,20553,20554,0.010092856362462044,-0.042552441358566284,0.9994925856590271,-79.3325424194336,-9.121241569519043,-14.126123428344727,1.2674366235733032,2.0743961334228516,2.950352430343628,0.18560905754566193,3.5225751399993896,-0.5212045311927795
68,20563,20564,0.06084103882312775,-0.06598009169101715,1.0148658752441406,-98.4853515625,-9.734078407287598,-16.8765811920166,1.2719364166259766,2.0758962631225586,2.9488525390625,0.30285248160362244,2.7026240825653076,-0.6559184789657593
69,20573,20574,0.0836373120546341,-0.012217164039611816,1.066818118095398,-100.74134063720703,-9.834871292114258,-18.024938583374023,1.2629368305206299,2.093895196914673,2.9578521251678467,0.40847018361091614,1.5886980295181274,-0.8401837944984436
70,20583,20584,0.03600112721323967,-0.014076690189540386,1.0444915294647217,-92.45428466796875,-4.235627174377441,-17.415802001953125,1.27643620967865,2.062396764755249,2.9353532791137695,0.587492823600769,0.9944494366645813,-0.9288438558578491
71,20593,20594,0.056587107479572296,0.01184092927724123,1.0465105772018433,-74.86448669433594,8.423295021057129,-14.56147289276123,1.27643620967865,2.065396785736084,2.917354106903076,0.46999457478523254,-0.0859738439321518,-1.153749942779541
72,20603,20604,0.03362742066383362,-0.022916758432984352,1.0383142232894897,-47.81084442138672,21.893688201904297,-10.071199417114258,1.2689365148544312,2.060896873474121,2.891855239868164,0.6287593245506287,-0.36722004413604736,-1.1378285884857178
73,20613,20614,0.07413311302661896,-0.04438895732164383,1.051211953163147,-17.344970703125,36.08647537231445,-4.18179988861084,1.2794359922409058,2.0503973960876465,2.8873555660247803,0.22314897179603577,-0.7895405888557434,-1.2602896690368652
74,20623,20624,0.09110788255929947,-0.02150183729827404,1.0675746202468872,2.1080479621887207,47.05674362182617,1.4561033248901367,1.2569371461868286,2.063896656036377,2.9158542156219482,-0.11249204725027084,-0.4800527095794678,-1.227340579032898
75,20633,20634,0.05465199425816536,-0.04482119157910347,1.0122027397155762,5.052680015563965,47.190460205078125,6.192933559417725,1.2629368305206299,2.0758962631225586,2.9158542156219482,-0.7911386489868164,-0.46826717257499695,-1.2327085733413696
76,20643,20644,0.04027225449681282,-0.0314377136528492,1.0321370363235474,-1.0828677415847778,34.73517608642578,9.874013900756836,1.2719364166259766,2.0698964595794678,2.897855043411255,-0.8179279565811157,-0.44976919889450073,-1.1040592193603516
77,20653,20654,-0.03807063773274422,-0.06995987892150879,1.0132215023040771,-19.644699096679688,24.031314849853516,12.437395095825195,1.2554372549057007,2.0713963508605957,2.9143543243408203,-1.1673152446746826,-0.6583284735679626,-1.012771725654602
78,20663,20664,-0.04486414045095444,-0.03002993017435074,1.0556739568710327,-31.282991409301758,19.84174346923828,14.929885864257812,1.2599369287490845,2.0518972873687744,2.897855043411255,-1.362806797027588,-0.8747062683105469,-0.8744395971298218
79,20673,20674,-0.05605088919401169,-0.04668502137064934,1.0571036338806152,-29.913713455200195,19.66457748413086,16.374977111816406,1.2554372549057007,2.059396982192993,2.9083545207977295,-1.5163580179214478,-1.123657464981079,-0.7127692699432373
80,20683,20684,-0.051706910133361816,0.0025860213208943605,1.0517951250076294,-26.015193939208984,18.656946182250977,13.608487129211426,1.2629368305206299,2.0788960456848145,2.9098544120788574,-1.452268123626709,-1.5643470287322998,-0.5956386923789978
81,20693,20694,-0.003687964752316475,0.031731318682432175,1.0419718027114868,-4.225406169891357,18.63585090637207,7.459481716156006,1.2629368305206299,2.063896656036377,2.918853998184204,-1.8729400634765625,-1.7568873167037964,-0.47244590520858765
82,20703,20704,0.05587588623166084,0.02209342271089554,1.0183799266815186,10.538268089294434,26.798290252685547,-1.782368779182434,1.2644367218017578,2.0773961544036865,2.920353889465332,-2.1881327629089355,-1.5510536432266235,-0.40559765696525574
83,20713,20714,0.09754686057567596,0.0656905472278595,1.0183759927749634,9.747721672058105,33.52879333496094,-5.822088241577148,1.2494374513626099,2.086395740509033,2.926353693008423,-2.2010722160339355,-1.403409719467163,-0.4908166825771332
84,20723,20724,0.12498057633638382,0.022533072158694267,1.0254160165786743,-5.7850494384765625,39.91823196411133,-5.196084022521973,1.261436939239502,2.1013948917388916,2.9563522338867188,-2.5526394844055176,-1.4112766981124878,-0.5672582387924194
85,20733,20734,0.10455029457807541,-0.059750352054834366,1.024604320526123,-25.217849731445312,38.56483459472656,-2.530092716217041,1.2434377670288086,2.0983951091766357,2.950352430343628,-2.9818243980407715,-1.6808722019195557,-0.648074209690094
86,20743,20744,0.05398514121770859,-0.10205680876970291,1.0351799726486206,-61.800907135009766,23.84041404724121,5.732266902923584,1.246437668800354,2.095395088195801,2.947352647781372,-3.25445818901062,-2.0451478958129883,-0.6542205810546875
87,20753,20754,0.039181485772132874,-0.06027984991669655,1.0297247171401978,-90.20133209228516,-0.8403101563453674,16.154970169067383,1.2404379844665527,2.1103944778442383,2.9623517990112305,-3.3096847534179688,-2.9253733158111572,-0.6142735481262207
88,20763,20764,0.11861535161733627,0.03197193890810013,1.12183678150177,-88.6754379272461,-31.35162353515625,23.5011043548584,1.2524373531341553,2.119394063949585,2.980350971221924,-3.229983329772949,-3.8381588459014893,-0.39248281717300415
89,20773,20774,0.10166879743337631,-0.004490424878895283,1.141449213027954,-40.6552734375,-43.5278205871582,29.872594833374023,1.2674366235733032,2.1283936500549316,2.971351385116577,-2.6946048736572266,-4.711409091949463,-0.22230373322963715
90,20783,20784,0.10343398153781891,0.030940070748329163,1.1293880939483643,26.48763656616211,-38.596839904785156,37.510009765625,1.2554372549057007,2.119394063949585,2.9863505363464355,-2.4998412132263184,-4.602673053741455,0.3074064552783966
91,20793,20794,0.09127337485551834,-0.06330925971269608,1.1311924457550049,87.67083740234375,-25.812164306640625,42.07765197753906,1.2524373531341553,2.140393018722534,3.0163490772247314,-2.1512715816497803,-3.816701889038086,0.7933964729309082
92,20803,20804,0.09067857265472412,-0.03975434973835945,1.1178719997406006,130.2683868408203,-3.381223201751709,41.764137268066406,1.2344383001327515,2.146392583847046,3.0223488807678223,-1.9671107530593872,-2.7218785285949707,1.1980457305908203
93,20813,20814,0.0743785947561264,-0.030415277928113937,1.0563876628875732,148.61062622070312,21.540050506591797,36.145843505859375,1.244937777519226,2.1358931064605713,3.0178489685058594,-2.1522610187530518,-1.1151337623596191,1.7266876697540283
94,20823,20824,0.05149761587381363,-0.04586305469274521,1.0914751291275024,147.81678771972656,49.492183685302734,25.117916107177734,1.2254387140274048,2.1103944778442383,2.9863505363464355,-2.666475296020508,0.05672246217727661,2.0007457733154297
95,20833,20834,0.06568019092082977,-0.011122334748506546,1.0416315793991089,125.60135650634766,55.94044876098633,11.112147331237793,1.2149392366409302,2.066896677017212,2.9668517112731934,-3.258786916732788,1.5716848373413086,2.27268385887146
96,20843,20844,0.06338396668434143,-0.07563521713018417,1.0449024438858032,85.33079528808594,35.51511001586914,-1.9126557111740112,1.2194390296936035,2.0713963508605957,2.9353532791137695,-3.7332816123962402,2.419987678527832,2.238816738128662
97,20853,20854,0.052340492606163025,-0.10288489609956741,0.9605908989906311,24.243913650512695,9.539339065551758,-12.766363143920898,1.2344383001327515,2.0443978309631348,2.9023547172546387,-4.045246124267578,3.098464012145996,2.264137029647827
98,20863,20864,0.028302637860178947,-0.14351637661457062,0.9185104966163635,-48.640316009521484,-13.072436332702637,-22.110553741455078,1.2374380826950073,2.0443978309631348,2.9053547382354736,-4.026017189025879,2.7613019943237305,1.9645426273345947
99,20873,20874,0.08042077720165253,-0.06352706253528595,1.0407555103302002,-101.20173645019531,-38.5754508972168,-29.245586395263672,1.2569371461868286,2.0758962631225586,2.9488525390625,-3.7110090255737305,1.735709309577942,1.5362482070922852
100,20883,20884,0.10316461324691772,-0.0540759451687336,1.1070057153701782,-131.33155822753906,-61.40814971923828,-34.26591110229492,1.2659367322921753,2.1028947830200195,2.9548521041870117,-3.1241517066955566,0.7361807227134705,1.2581472396850586
101,20893,20894,0.040980979800224304,-0.041960932314395905,1.075976014137268,-131.16554260253906,-76.48143768310547,-36.92567443847656,1.261436939239502,2.119394063949585,2.974351167678833,-2.3169472217559814,-0.9855921864509583,0.6746284365653992
102,20903,20904,0.01673491671681404,-0.04621487483382225,1.0773053169250488,-106.60631561279297,-80.55394744873047,-39.43496322631836,1.283935785293579,2.114894151687622,2.951852321624756,-1.5362073183059692,-1.905566692352295,0.47841864824295044
103,20913,20914,0.036070987582206726,-0.02593863755464554,1.076969861984253,-64.14109802246094,-69.10860443115234,-39.2130241394043,1.2779361009597778,2.1268935203552246,2.945852756500244,-0.6006106734275818,-2.899977684020996,0.014610975980758667
104,20923,20924,-0.009663324803113937,-0.0013070607092231512,1.0973783731460571,-17.738082885742188,-44.93502426147461,-34.958656311035156,1.2734363079071045,2.1043946743011475,2.9143543243408203,-0.15003961324691772,-3.09608793258667,-0.17101655900478363
105,20933,20934,0.022460483014583588,-0.04228891432285309,1.028041124343872,30.044538497924805,-16.991680145263672,-26.8133487701416,1.261436939239502,2.086395740509033,2.9053547382354736,0.3163209855556488,-3.0226500034332275,-0.5004841685295105
106,20943,20944,0.010414437390863895,0.00821963045746088,1.0283186435699463,67.2444076538086,14.766095161437988,-20.22316551208496,1.261436939239502,2.065396785736084,2.872356414794922,0.36725562810897827,-2.563321113586426,-0.7507393956184387
107,20953,20954,0.025401722639799118,-0.039771780371665955,1.0218168497085571,86.34920501708984,49.676490783691406,-18.13509750366211,1.247937560081482,2.0548973083496094,2.8828558921813965,-0.11678427457809448,-1.5955935716629028,-0.8087757229804993
108,20963,20964,0.06157451495528221,-0.033200111240148544,1.0099233388900757,91.2337875366211,77.14016723632812,-20.07929229736328,1.2344383001327515,2.086395740509033,2.9293534755706787,-0.9130711555480957,-0.8156236410140991,-0.9758240580558777
109,20973,20974,0.04220696911215782,-0.05659164488315582,0.987052321434021,81.17323303222656,89.05282592773438,-22.59981346130371,1.231438398361206,2.089395523071289,2.9323532581329346,-1.8594495058059692,0.31214720010757446,-1.065598726272583
110,20983,20984,0.04852786287665367,-0.06489115953445435,0.9545885920524597,54.86067581176758,77.9220962524414,-23.769472122192383,1.2194390296936035,2.0833957195281982,2.926353693008423,-2.807650089263916,0.7739360332489014,-1.3205125331878662
111,20993,20994,0.05316881090402603,-0.05299801006913185,0.9058374166488647,15.817008018493652,48.74696350097656,-23.364002227783203,1.2269386053085327,2.0548973083496094,2.897855043411255,-3.611794948577881,1.234667420387268,-1.4602657556533813
112,21003,21004,0.04555056616663933,-0.09177715331315994,0.9248268008232117,-22.14479637145996,11.948498725891113,-18.701038360595703,1.2299385070800781,2.0218989849090576,2.8528573513031006,-3.4834654331207275,1.1669355630874634,-1.8619986772537231
113,21013,21014,0.03547538071870804,-0.02432645484805107,0.928758978843689,-48.642269134521484,-28.00430679321289,-15.039000511169434,1.244937777519226,2.00689959526062,2.8318583965301514,-3.5159645080566406,0.6278399229049683,-2.057631015777588
114,21023,21024,0.013877538964152336,-0.09651370346546173,0.9267561435699463,-62.382408142089844,-62.097110748291016,-13.179675102233887,1.2374380826950073,1.999400019645691,2.8303585052490234,-2.990558624267578,0.010601975955069065,-2.2523231506347656
115,21033,21034,0.03440271317958832,-0.044946007430553436,0.9336917996406555,-65.15504455566406,-85.84855651855469,-12.291620254516602,1.2389379739761353,2.0218989849090576,2.8618569374084473,-1.9574881792068481,-0.768823504447937,-2.5059633255004883
116,21043,21044,0.02448841743171215,-0.04004101827740669,0.9425317645072937,-58.83484649658203,-91.23684692382812,-12.051406860351562,1.2509374618530273,2.0458977222442627,2.87385630607605,-0.9183226227760315,-1.389116883277893,-2.6460464000701904
117,21053,21054,0.021199461072683334,-0.04955383762717247,0.9572271704673767,-43.253997802734375,-72.87669372558594,-10.364286422729492,1.2389379739761353,2.03389835357666,2.867856502532959,0.01713121496140957,-1.7962369918823242,-2.7205581665039062
118,21063,21064,0.021963920444250107,-0.029807358980178833,0.9737823009490967,-24.01362419128418,-40.152645111083984,-6.818405628204346,1.2539372444152832,2.0188989639282227,2.837857961654663,0.6281552314758301,-2.133466958999634,-2.792750358581543
119,21073,21074,0.004046034533530474,-0.02843773178756237,0.9877795577049255,-5.6508684158325195,-3.8290164470672607,-2.215890645980835,1.261436939239502,1.9904004335403442,2.809359550476074,0.6224973797798157,-2.2320189476013184,-2.74348783493042
120,21083,21084,0.020668134093284607,-0.014670129865407944,0.9656624794006348,12.324077606201172,29.546852111816406,1.382796287536621,1.2434377670288086,1.9784010648727417,2.7763612270355225,0.536996603012085,-2.1160638332366943,-2.740002393722534
121,21093,21094,0.022516928613185883,-0.038157589733600616,0.9354443550109863,30.910661697387695,50.2768440246582,3.33134388923645,1.244937777519226,2.0038998126983643,2.813859224319458,0.0266144759953022,-1.8369007110595703,-2.6805012226104736
122,21103,21104,0.02693122811615467,-0.045843616127967834,0.9134697318077087,44.393341064453125,54.677215576171875,3.0768327713012695,1.2404379844665527,2.014399290084839,2.8333582878112793,-0.579416811466217,-1.3500593900680542,-2.6168007850646973
123,21113,21114,0.03220237419009209,-0.03758788853883743,0.9338105916976929,50.16261672973633,53.81642150878906,1.062973976135254,1.2569371461868286,2.012899398803711,2.8258585929870605,-1.0772147178649902,-0.9624236822128296,-2.6353275775909424
124,21123,21124,0.04063020274043083,-0.040769580751657486,0.9458221793174744,47.65763473510742,49.47853088378906,0.16300752758979797,1.2539372444152832,2.012899398803711,2.843857765197754,-1.622391939163208,-0.2500186562538147,-2.595139503479004
125,21133,21134,0.01628432609140873,-0.006287614814937115,0.9872511029243469,39.14305877685547,34.12618637084961,-0.711771547794342,1.247937560081482,2.0038998126983643,2.843857765197754,-1.880444049835205,0.0950259119272232,-2.666165590286255
126,21143,21144,-0.0074601261876523495,-0.08166371285915375,0.9655104279518127,22.627422332763672,15.124856948852539,-1.2785444259643555,1.2419378757476807,2.0038998126983643,2.8288586139678955,-2.1974823474884033,0.3632485866546631,-2.6655023097991943
127,21153,21154,0.008012917824089527,-0.0660027489066124,0.917559802532196,0.3616185486316681,-7.627958297729492,-1.6474357843399048,1.2434377670288086,1.9904004335403442,2.818359136581421,-2.019819736480713,0.45507046580314636,-2.758512020111084
128,21163,21164,-0.04465305805206299,-0.09141524136066437,0.9236120581626892,-17.00131607055664,-23.869998931884766,-2.208763360977173,1.2599369287490845,1.9799009561538696,2.8018598556518555,-1.7417316436767578,0.28698357939720154,-2.8324265480041504
129,21173,21174,-0.04088658466935158,-0.07813756167888641,0.946053683757782,-26.172273635864258,-32.33365249633789,-4.940944671630859,1.2524373531341553,1.999400019645691,2.8333582878112793,-1.3832775354385376,0.09392844885587692,-2.885446786880493
130,21183,21184,-0.00925139244645834,-0.08565568923950195,0.8864770531654358,-30.6190128326416,-33.64855194091797,-8.47652530670166,1.2509374618530273,1.9919003248214722,2.8288586139678955,-0.9229891300201416,-0.43916213512420654,-3.023097038269043
131,21193,21194,0.060386475175619125,-0.02870751917362213,0.9055310487747192,-26.5454158782959,-26.03734588623047,-11.682808876037598,1.270436406135559,1.9964001178741455,2.836358070373535,-0.497818261384964,-0.6425449848175049,-3.140263319015503
132,21203,21204,0.08087614178657532,0.07693815231323242,0.9274237751960754,-20.13318634033203,-9.796537399291992,-13.784276962280273,1.2599369287490845,2.012899398803711,2.8348581790924072,-0.38267606496810913,-0.7717927694320679,-3.236055850982666
133,21213,21214,0.0638880655169487,0.058008354157209396,0.8837917447090149,-13.675973892211914,15.70752239227295,-16.594955444335938,1.2539372444152832,2.0009000301361084,2.813859224319458,-0.4318709969520569,-1.0062227249145508,-3.3947341442108154
134,21223,21224,0.031263355165719986,-0.0326271653175354,0.9245399832725525,-9.784734725952148,40.7593879699707,-18.380216598510742,1.261436939239502,2.0233988761901855,2.815359115600586,-0.8468919396400452,-1.131611943244934,-3.55203914642334
135,21233,21234,0.09245955944061279,-0.03478564694523811,0.9301314949989319,-12.474162101745605,59.864810943603516,-20.677410125732422,1.2494374513626099,2.0173990726470947,2.8513574600219727,-1.3657612800598145,-1.1648352146148682,-3.7549312114715576
136,21243,21244,0.14694653451442719,-0.009104928933084011,0.8912486433982849,-25.986919403076172,67.1943359375,-21.2775821685791,1.2359381914138794,2.039897918701172,2.8588569164276123,-2.0328824520111084,-1.39146888256073,-3.9795689582824707
137,21253,21254,0.09582726657390594,-0.011730857193470001,0.937379777431488,-38.76520919799805,67.12226867675781,-18.28443717956543,1.2404379844665527,2.0473976135253906,2.8513574600219727,-2.6267547607421875,-1.7685692310333252,-4.223108291625977
138,21263,21264,0.04120146855711937,-0.03202793002128601,0.9762248396873474,-54.655460357666016,55.229248046875,-10.775457382202148,1.2344383001327515,2.0293984413146973,2.863356828689575,-3.2930054664611816,-2.28672456741333,-4.379592418670654
139,21273,21274,0.04686466231942177,-0.0903606116771698,0.8801621794700623,-64.87667083740234,28.705047607421875,2.7360987663269043,1.2299385070800781,2.03389835357666,2.864856719970703,-3.345170259475708,-2.828138589859009,-4.516704082489014
140,21283,21284,0.10112293809652328,0.06097390502691269,0.8979988694190979,-54.58589553833008,-13.213069915771484,13.967334747314453,1.2359381914138794,2.039897918701172,2.8558571338653564,-3.561908721923828,-3.5685858726501465,-4.403841018676758
141,21293,21294,0.04347793757915497,-0.009576470591127872,0.9373126029968262,-17.826557159423828,-42.18390655517578,21.847360610961914,1.2509374618530273,2.0488975048065186,2.867856502532959,-3.223106861114502,-3.802081346511841,-4.189682960510254
142,21303,21304,0.020898589864373207,0.0007370969979092479,0.9504708647727966,21.257518768310547,-55.577049255371094,32.15951919555664,1.247937560081482,2.03389835357666,2.87385630607605,-2.253024101257324,-3.687839984893799,-4.0179290771484375
143,21313,21314,0.03541859984397888,-0.004692963790148497,0.9726527333259583,57.20720291137695,-50.9290657043457,44.293487548828125,1.2419378757476807,2.060896873474121,2.897855043411255,-1.829775333404541,-3.1227710247039795,-3.534902334213257
144,21323,21324,0.08520641177892685,-0.0417122058570385,0.985387921333313,89.39812469482422,-36.30325698852539,55.3793830871582,1.2539372444152832,2.060896873474121,2.9098544120788574,-1.2825944423675537,-2.1770641803741455,-3.024807929992676
145,21333,21334,0.1240752637386322,0.014536823146045208,0.9854520559310913,113.65616607666016,-20.60759162902832,61.99606704711914,1.247937560081482,2.0758962631225586,2.9368531703948975,-1.0953606367111206,-1.32789146900177,-2.426903009414673
146,21343,21344,0.1055617406964302,-0.05831380933523178,0.990123450756073,121.50236511230469,1.1508541107177734,62.190528869628906,1.2509374618530273,2.093895196914673,2.9638516902923584,-1.103550910949707,0.048294782638549805,-1.718025803565979
147,21353,21354,-0.002241940936073661,-0.20024190843105316,0.9326164126396179,112.2909164428711,25.010080337524414,56.10527420043945,1.244937777519226,2.084895610809326,2.9638516902923584,-1.2635351419448853,0.807723879814148,-1.1942859888076782
148,21363,21364,0.042351096868515015,-0.05870918184518814,0.9431477785110474,85.25982666015625,46.05666732788086,45.89487075805664,1.247937560081482,2.0728962421417236,2.942852735519409,-1.770146369934082,2.0963480472564697,-0.5723156929016113
149,21373,21374,-0.028876006603240967,-0.06926500052213669,0.9128304719924927,48.76795959472656,52.99195861816406,35.063026428222656,1.231438398361206,2.0713963508605957,2.9353532791137695,-2.2118947505950928,2.375006914138794,-0.24674656987190247
150,21383,21384,0.05553348734974861,0.027379365637898445,0.9990407824516296,14.633078575134277,46.611995697021484,20.951528549194336,1.2434377670288086,2.06839656829834,2.9383530616760254,-2.752633810043335,2.7881948947906494,0.09389114379882812
151,21393,21394,0.044528618454933167,-0.06966856867074966,0.9600014686584473,-17.22568130493164,23.742429733276367,5.850915908813477,1.2419378757476807,2.0458977222442627,2.9128541946411133,-2.9490411281585693,2.659237861633301,0.17566128075122833
152,21403,21404,0.04444742202758789,-0.03044789843261242,0.9285749197006226,-56.134029388427734,-13.769425392150879,-2.630527973175049,1.231438398361206,2.062396764755249,2.920353889465332,-3.101886034011841,2.101198434829712,0.1716657280921936
153,21413,21414,0.06850497424602509,-0.004130278714001179,1.0063908100128174,-83.5853042602539,-41.6912841796875,-10.079008102416992,1.246437668800354,2.0803959369659424,2.953352212905884,-2.4667859077453613,1.324889898300171,0.04392896592617035
154,21423,21424,0.05127209052443504,0.006689837202429771,1.031954288482666,-84.68302917480469,-48.54397964477539,-17.945512771606445,1.2584370374679565,2.092395305633545,2.9623517990112305,-2.150729179382324,0.37997451424598694,-0.11017587780952454
155,21433,21434,0.007735274266451597,0.044713351875543594,1.038122534751892,-61.2021369934082,-40.110843658447266,-24.781688690185547,1.2584370374679565,2.0983951091766357,2.9353532791137695,-1.4549453258514404,-0.12221180647611618,-0.28848031163215637
156,21443,21444,0.01534948218613863,0.05304061248898506,1.0476171970367432,-29.076431274414062,-23.16756820678711,-29.893022537231445,1.2494374513626099,2.0743961334228516,2.926353693008423,-1.110033631324768,-0.5439040064811707,-0.5643258094787598
157,21453,21454,0.058341559022665024,-0.0038201247807592154,1.005595326423645,-3.5850741863250732,-2.2126071453094482,-32.09971237182617,1.2554372549057007,2.0743961334228516,2.917354106903076,-0.956421971321106,-0.7195717692375183,-0.8906773328781128
158,21463,21464,0.0518549382686615,0.016048099845647812,1.0028557777404785,11.51569652557373,20.373191833496094,-32.860801696777344,1.2629368305206299,2.0698964595794678,2.9098544120788574,-1.1465250253677368,-0.5697646737098694,-1.1961473226547241
159,21473,21474,-0.017431246116757393,-0.05074717849493027,0.9960070252418518,23.015779495239258,40.220211029052734,-36.04966354370117,1.2524373531341553,2.0743961334228516,2.920353889465332,-1.552484154701233,-0.28788986802101135,-1.521938681602478
160,21483,21484,0.030008720234036446,-0.035808924585580826,0.987044632434845,37.050941467285156,44.88688278198242,-38.47101593017578,1.2419378757476807,2.1028947830200195,2.9368531703948975,-1.857337236404419,0.20675095915794373,-1.875875473022461
161,21493,21494,0.03790098428726196,-0.03989454358816147,0.9749945402145386,42.59193420410156,36.156410217285156,-40.500308990478516,1.2419378757476807,2.0818958282470703,2.9398529529571533,-2.2243010997772217,0.4324546456336975,-2.3079512119293213
162,21503,21504,0.025895344093441963,-0.01256147213280201,0.9942881464958191,43.291839599609375,25.26923179626465,-40.29292678833008,1.2509374618530273,2.090895414352417,2.9608519077301025,-2.5474557876586914,0.7809831500053406,-2.72304105758667
163,21513,21514,0.09777365624904633,0.06718635559082031,0.9869623780250549,33.523040771484375,19.47093391418457,-38.45061111450195,1.2374380826950073,2.092395305633545,2.953352212905884,-2.7139363288879395,1.1469753980636597,-3.115225076675415
164,21523,21524,0.06589971482753754,0.03963039815425873,0.9575019478797913,15.29537296295166,15.91720962524414,-34.33197021484375,1.2209389209747314,2.084895610809326,2.9638516902923584,-2.937706470489502,1.2270920276641846,-3.501455783843994
165,21533,21534,0.04639352485537529,-0.006347564049065113,0.9236772656440735,-13.106988906860352,13.019390106201172,-27.42806625366211,1.2284384965896606,2.0773961544036865,2.9383530616760254,-3.1182003021240234,1.2470134496688843,-3.798431396484375
166,21543,21544,-0.012009430676698685,0.007297583390027285,0.8958683013916016,-38.42097854614258,4.170106887817383,-21.178985595703125,1.2239388227462769,2.0758962631225586,2.9398529529571533,-3.2631990909576416,0.8017520308494568,-4.070406436920166
167,21553,21554,0.005544564686715603,-0.02329988218843937,0.9579688310623169,-46.81047058105469,-0.48284482955932617,-17.177453994750977,1.2254387140274048,2.0743961334228516,2.947352647781372,-3.344330072402954,0.327964186668396,-4.26402473449707
168,21563,21564,0.01347733847796917,0.010737505741417408,1.0350828170776367,-33.586673736572266,-8.355291366577148,-13.823843955993652,1.2239388227462769,2.0698964595794678,2.951852321624756,-3.0493013858795166,-0.06892955303192139,-4.396586894989014
169,21573,21574,-0.015773886814713478,-0.04192298278212547,1.0457842350006104,-3.2123422622680664,-19.064821243286133,-11.472477912902832,1.232938289642334,2.0698964595794678,2.9398529529571533,-2.75724458694458,-0.25113973021507263,-4.520056247711182
170,21583,21584,-0.011441411450505257,-0.11432988196611404,0.9640201926231384,25.447006225585938,-26.640626907348633,-8.832582473754883,1.2359381914138794,2.066896677017212,2.945852756500244,-2.4798614978790283,-0.06430651247501373,-4.607639789581299
171,21593,21594,0.12444548308849335,-0.0011382810771465302,0.9882723689079285,42.01380920410156,-21.40031623840332,-5.753854274749756,1.2344383001327515,2.06839656829834,2.9593520164489746,-2.2839643955230713,0.4916026294231415,-4.631026744842529
172,21603,21604,0.0878448411822319,0.00841414462774992,1.0543456077575684,46.35176467895508,-12.80380630493164,-3.73948073387146,1.2299385070800781,2.0758962631225586,2.942852735519409,-2.0334665775299072,0.8653661012649536,-4.694158554077148
173,21613,21614,0.060132283717393875,-0.027414916083216667,1.0255632400512695,34.018619537353516,-3.9152820110321045,-4.055753707885742,1.2419378757476807,2.0488975048065186,2.927853584289551,-2.092240333557129,1.444278597831726,-4.696887493133545
174,21623,21624,-0.0004811653634533286,-0.12982919812202454,1.0354140996932983,5.864566326141357,4.967508792877197,-5.871336936950684,1.2359381914138794,2.0518972873687744,2.924853801727295,-2.0969619750976562,1.482065200805664,-4.78079080581665
175,21633,21634,0.055848848074674606,-0.05730604752898216,0.9974530339241028,-31.225229263305664,11.023681640625,-7.416197776794434,1.244937777519226,2.0488975048065186,2.9038548469543457,-2.2929983139038086,1.2107516527175903,-4.880756855010986
176,21643,21644,0.04936293512582779,-0.0613032765686512,0.9172150492668152,-57.456695556640625,17.915674209594727,-6.0327863693237305,1.2434377670288086,2.065396785736084,2.9383530616760254,-2.5018818378448486,0.6675791144371033,-4.962779521942139
177,21653,21654,0.11690985411405563,0.03639300540089607,0.9917605519294739,-61.2685546875,26.158550262451172,-3.633470296859741,1.2404379844665527,2.065396785736084,2.9293534755706787,-2.547351598739624,-0.15868966281414032,-5.037715435028076
178,21663,21664,0.12319831550121307,0.04944852367043495,1.0099742412567139,-48.21244430541992,33.717716217041016,-1.5054898262023926,1.2299385070800781,2.0758962631225586,2.9338531494140625,-2.986685276031494,-0.6414818167686462,-5.05999755859375
179,21673,21674,0.077336385846138,-0.048816222697496414,1.0403375625610352,-17.092180252075195,35.691131591796875,-0.9679440259933472,1.2254387140274048,2.065396785736084,2.9143543243408203,-3.4359242916107178,-0.9901912808418274,-5.094834804534912
180,21683,21684,-0.023882664740085602,-0.03867710009217262,1.049548625946045,27.904224395751953,26.741107940673828,-2.3097786903381348,1.2194390296936035,2.0713963508605957,2.9323532581329346,-3.511711359024048,-0.7825245261192322,-5.0685882568359375
181,21693,21694,0.025022003799676895,-0.020875925198197365,1.0512382984161377,65.70684814453125,13.395305633544922,-6.851197719573975,1.2239388227462769,2.063896656036377,2.9638516902923584,-3.9199225902557373,0.04231003299355507,-5.049417972564697
182,21703,21704,0.06189507246017456,0.03449774533510208,1.0221476554870605,85.31796264648438,0.5595515966415405,-14.125101089477539,1.2194390296936035,2.0743961334228516,2.971351385116577,-3.7985355854034424,0.6974988579750061,-5.186870098114014
183,21713,21714,0.07185032963752747,0.000753837579395622,1.0281777381896973,74.92513275146484,-5.603185653686523,-22.80362319946289,1.2224388122558594,2.065396785736084,2.971351385116577,-3.8576765060424805,1.638295292854309,-5.344343185424805
184,21723,21724,0.12348845601081848,0.03382518142461777,1.051998496055603,32.25394058227539,-8.69610595703125,-28.22292709350586,1.231438398361206,2.035398244857788,2.953352212905884,-3.7137234210968018,1.9683189392089844,-5.662714958190918
185,21733,21734,0.07454106956720352,-0.02776053361594677,1.0057674646377563,-31.353918075561523,-14.460127830505371,-27.06882667541504,1.2359381914138794,2.03389835357666,2.924853801727295,-3.5736212730407715,1.6408733129501343,-6.0224609375
186,21743,21744,0.055233556777238846,-0.03814277425408363,1.0263235569000244,-89.69194030761719,-13.278862953186035,-23.02692985534668,1.2359381914138794,2.066896677017212,2.951852321624756,-3.4248206615448,0.8327127695083618,-6.321098327636719
187,21753,21754,0.05885813385248184,-0.02491087093949318,1.0488966703414917,-124.89421081542969,-4.278317451477051,-15.942922592163086,1.2344383001327515,2.0773961544036865,2.9653515815734863,-3.364579439163208,-0.6463384628295898,-6.629083156585693
188,21763,21764,0.09017709642648697,-0.05377749726176262,1.076235294342041,-131.1607666015625,7.436197280883789,-6.067607879638672,1.2254387140274048,2.0833957195281982,2.944352626800537,-3.4007620811462402,-1.91227126121521,-6.71257209777832
189,21773,21774,0.09524758160114288,0.06401725113391876,1.07693350315094,-104.39230346679688,8.363508224487305,0.5921697020530701,1.2359381914138794,2.060896873474121,2.924853801727295,-3.54967999458313,-3.2049622535705566,-6.779946804046631
190,21783,21784,0.03914662450551987,0.08027084916830063,1.081742286682129,-62.49453353881836,-5.806804656982422,5.065186500549316,1.2299385070800781,2.0758962631225586,2.9308533668518066,-3.732727527618408,-3.8576440811157227,-6.7129292488098145
191,21793,21794,0.016594810411334038,-0.00611651549115777,1.1051669120788574,-9.408904075622559,-31.431636810302734,16.274089813232422,1.2374380826950073,2.0503973960876465,2.896355152130127,-3.3914952278137207,-4.243142604827881,-6.60670804977417
192,21803,21804,0.027717139571905136,0.0020130483899265528,1.1190613508224487,56.38229751586914,-52.17751693725586,25.90300178527832,1.2374380826950073,2.065396785736084,2.9083545207977295,-3.024909496307373,-3.8138840198516846,-6.301978588104248
193,21813,21814,0.027423925697803497,0.07104634493589401,1.1083779335021973,109.217041015625,-56.13424301147461,29.408716201782227,1.2494374513626099,2.065396785736084,2.950352430343628,-2.2709646224975586,-2.437633514404297,-5.838850498199463
194,21823,21824,0.0337311252951622,0.015408076345920563,1.053877830505371,131.0914306640625,-51.4560661315918,31.222332000732422,1.2434377670288086,2.0833957195281982,2.9653515815734863,-2.0858078002929688,-1.3470081090927124,-5.523473262786865
195,21833,21834,0.04854431003332138,-0.0369025319814682,1.0032340288162231,130.13694763183594,-40.42778396606445,33.53223419189453,1.2374380826950073,2.065396785736084,2.950352430343628,-1.550661325454712,0.23718810081481934,-5.121795654296875
196,21843,21844,0.04413694143295288,-0.03244873508810997,0.9511897563934326,115.354736328125,-37.70186996459961,34.74119186401367,1.244937777519226,2.063896656036377,2.951852321624756,-1.0089079141616821,1.2863503694534302,-4.8749470710754395
197,21853,21854,0.05108864605426788,0.017961416393518448,0.9432628750801086,85.62551879882812,-36.84867858886719,34.78633117675781,1.2569371461868286,2.060896873474121,2.9368531703948975,-0.6334989070892334,2.524998903274536,-4.481443881988525
198,21863,21864,0.08695182204246521,-0.019954850897192955,0.9937471151351929,41.043251037597656,-32.49547576904297,37.072147369384766,1.2584370374679565,2.035398244857788,2.9113543033599854,-0.4357842803001404,2.9032602310180664,-4.183435440063477
199,21873,21874,0.08737228810787201,0.01609751395881176,0.9990909695625305,-9.86860466003418,-30.511425018310547,39.722591400146484,1.2554372549057007,2.0173990726470947,2.893355369567871,0.01663300208747387,3.083641529083252,-3.825686454772949
200,21883,21884,0.04808465763926506,-0.072730153799057,0.9401501417160034,-45.68552780151367,-21.199464797973633,41.53989791870117,1.2584370374679565,2.0473976135253906,2.9113543033599854,0.2550034523010254,2.7753260135650635,-3.434969186782837
201,21893,21894,-0.014535075053572655,-0.17176170647144318,0.8668688535690308,-63.260292053222656,-9.21554183959961,42.3419075012207,1.2629368305206299,2.0578970909118652,2.92185378074646,0.3961900770664215,2.050755023956299,-3.04017972946167
202,21903,21904,-0.008122656494379044,-0.17157664895057678,0.9062284827232361,-60.06913375854492,-1.0975769758224487,42.150115966796875,1.2569371461868286,2.060896873474121,2.9098544120788574,0.4841986894607544,1.5035831928253174,-2.6119251251220703
203,21913,21914,-0.03226936236023903,-0.13847646117210388,0.973296046257019,-35.45903778076172,-8.434481620788574,39.862545013427734,1.2659367322921753,2.0548973083496094,2.9068546295166016,0.3040395975112915,0.8218913674354553,-2.218933582305908
204,21923,21924,-0.023696942254900932,-0.1173877939581871,0.9962277412414551,4.932859897613525,-14.32545280456543,33.36933517456055,1.270436406135559,2.0563971996307373,2.896355152130127,0.4872758090496063,0.7874734997749329,-1.8425016403198242
205,21933,21934,0.004034093581140041,-0.07849735021591187,1.0183335542678833,55.10462188720703,-4.340559005737305,26.422779083251953,1.261436939239502,2.0443978309631348,2.9113543033599854,0.6794349551200867,1.1779087781906128,-1.5387629270553589
206,21943,21944,0.06854360550642014,-0.07091457396745682,1.0238888263702393,90.40023803710938,9.459258079528809,21.599632263183594,1.261436939239502,2.06839656829834,2.947352647781372,0.7230672836303711,2.112398862838745,-1.304986596107483
207,21953,21954,0.11682670563459396,-0.0564049668610096,1.042601227760315,96.95099639892578,13.744820594787598,17.65099334716797,1.2629368305206299,2.0728962421417236,2.945852756500244,0.5637652277946472,3.2488977909088135,-1.1219236850738525
208,21963,21964,0.03496997430920601,-0.025158094242215157,1.030717372894287,74.60887908935547,3.820197105407715,16.119672775268555,1.2539372444152832,2.066896677017212,2.9488525390625,0.43990787863731384,3.770836591720581,-0.8993132710456848
209,21973,21974,0.06159529834985733,-0.024539710953831673,0.9888451099395752,25.547517776489258,-20.808019638061523,17.514209747314453,1.261436939239502,2.0443978309631348,2.9113543033599854,0.5363528728485107,4.5028300285339355,-0.7663509845733643
210,21983,21984,0.04017450660467148,-0.03639218211174011,1.0108921527862549,-28.814470291137695,-47.059349060058594,18.343976974487305,1.27643620967865,2.035398244857788,2.9053547382354736,1.0164291858673096,4.4372429847717285,-0.5711358785629272
211,21993,21994,0.04115164652466774,-0.04557182639837265,1.051315426826477,-70.70541381835938,-58.196929931640625,18.038471221923828,1.2779361009597778,2.0458977222442627,2.924853801727295,1.6352461576461792,3.8162171840667725,-0.38175877928733826
212,22003,22004,0.03540423512458801,0.002241526497527957,1.036232352256775,-90.16808319091797,-54.060848236083984,17.485153198242188,1.2779361009597778,2.0758962631225586,2.927853584289551,2.2733302116394043,3.1184444427490234,-0.2571985125541687
213,22013,22014,0.015323169529438019,-0.014609470963478088,1.0613399744033813,-88.24069213867188,-42.052825927734375,17.472614288330078,1.2734363079071045,2.0743961334228516,2.9413528442382812,2.639652729034424,1.983402967453003,-0.08205963671207428
214,22023,22024,0.013451901264488697,-0.03675707057118416,1.0625382661819458,-68.75367736816406,-22.73273277282715,17.647066116333008,1.2944352626800537,2.0773961544036865,2.9323532581329346,2.9910476207733154,1.2747896909713745,0.04999524727463722
215,22033,22034,0.016767870634794235,-0.059152696281671524,1.0353004932403564,-42.08820724487305,-0.5537747144699097,16.6793212890625,1.2779361009597778,2.063896656036377,2.8858556747436523,3.2056148052215576,0.8505380153656006,0.19164802134037018
216,22043,22044,0.028487637639045715,-0.05168101564049721,1.0341296195983887,-10.048084259033203,26.54840087890625,15.796244621276855,1.2689365148544312,2.0548973083496094,2.894855260848999,2.962172508239746,0.4397622346878052,0.3616408705711365
217,22053,22054,0.01710362546145916,-0.020852558314800262,1.0344507694244385,18.97200584411621,41.51197052001953,14.78633975982666,1.2659367322921753,2.0578970909118652,2.897855043411255,2.661752223968506,0.7183355093002319,0.4208127558231354
218,22063,22064,0.025422928854823112,-0.047583822160959244,1.001041054725647,35.46569061279297,48.52704620361328,12.344451904296875,1.261436939239502,2.06839656829834,2.9113543033599854,2.048391580581665,1.091292142868042,0.4532250761985779
219,22073,22074,0.053719885647296906,-0.07240460067987442,0.9917822480201721,44.71022415161133,60.738521575927734,7.688893795013428,1.2554372549057007,2.0773961544036865,2.9293534755706787,1.568230152130127,1.6355555057525635,0.5185868144035339
220,22083,22084,0.03769749030470848,-0.019498635083436966,0.9833952784538269,33.37026596069336,58.16738510131836,-0.14010389149188995,1.247937560081482,2.084895610809326,2.9308533668518066,1.0836982727050781,2.2171220779418945,0.5241473913192749
221,22093,22094,0.0786934420466423,-0.008126279339194298,0.9923787713050842,12.547221183776855,50.164146423339844,-7.831185817718506,1.244937777519226,2.0758962631225586,2.945852756500244,0.6082835793495178,2.391698122024536,0.5665341019630432
222,22103,22104,0.05991541966795921,0.005853647366166115,0.9663589000701904,-15.595730781555176,44.895179748535156,-14.045589447021484,1.2419378757476807,2.0788960456848145,2.9338531494140625,-0.03664454445242882,2.195244312286377,0.5425898432731628
223,22113,22114,0.06449223309755325,0.00886948686093092,0.9951658248901367,-41.38481521606445,41.74928665161133,-16.436677932739258,1.244937777519226,2.0758962631225586,2.9338531494140625,-0.050360940396785736,1.9057912826538086,0.5307034850120544
224,22123,22124,0.06201503425836563,-0.0363427959382534,0.9994009733200073,-56.43843078613281,32.48980712890625,-17.471172332763672,1.2359381914138794,2.084895610809326,2.9098544120788574,-0.6525810360908508,1.2396835088729858,0.4010128080844879
225,22133,22134,0.07084191590547562,-0.027053173631429672,1.0133030414581299,-56.70655822753906,17.228199005126953,-19.647884368896484,1.2344383001327515,2.0713963508605957,2.9323532581329346,-0.619093120098114,0.6822986602783203,0.29016315937042236
226,22143,22144,0.06449016183614731,-0.002167848637327552,1.0271507501602173,-45.69500732421875,11.698087692260742,-21.538347244262695,1.2359381914138794,2.0728962421417236,2.9158542156219482,-0.5907422304153442,0.06640351563692093,0.17350295186042786
227,22153,22154,0.06542687118053436,-0.014393370598554611,1.0557281970977783,-34.65151596069336,13.108613967895508,-17.921571731567383,1.2194390296936035,2.065396785736084,2.917354106903076,-0.7596250772476196,-0.08759713917970657,-0.15792618691921234
228,22163,22164,0.06529968231916428,-0.0033605911303311586,1.043567419052124,-30.949491500854492,-1.393108606338501,-11.022745132446289,1.2179391384124756,2.0698964595794678,2.9008548259735107,-0.8810136914253235,-0.5327425003051758,-0.2685428857803345
229,22173,22174,0.04150351509451866,0.017375897616147995,1.0768717527389526,-25.929208755493164,-23.610877990722656,-3.8927998542785645,1.2389379739761353,2.066896677017212,2.9128541946411133,-0.7016828060150146,-0.7764702439308167,-0.35102567076683044
230,22183,22184,0.035738226026296616,0.07131271809339523,1.0890583992004395,-10.8197660446167,-42.0008544921875,-0.0942978486418724,1.2554372549057007,2.0713963508605957,2.9083545207977295,-0.254905641078949,-0.9068982601165771,-0.3705056309700012
231,22193,22194,0.07142646610736847,0.02463809959590435,1.032750129699707,3.5185141563415527,-35.680084228515625,2.399564743041992,1.244937777519226,2.0788960456848145,2.9368531703948975,0.31082749366760254,-0.977637767791748,-0.3161914348602295
232,22203,22204,0.04356420785188675,-0.00996016152203083,0.9951953291893005,8.434529304504395,-10.827848434448242,3.3093535900115967,1.2389379739761353,2.0728962421417236,2.924853801727295,0.5154303312301636,-0.8595926761627197,-0.30657336115837097
233,22213,22214,0.04739123210310936,0.0006343577988445759,1.0196412801742554,6.104605197906494,11.079118728637695,3.922163486480713,1.2539372444152832,2.060896873474121,2.897855043411255,0.37874332070350647,-0.783754825592041,-0.28411665558815
234,22223,22224,0.019380683079361916,-0.03157338500022888,0.9933786988258362,6.36476993560791,22.827852249145508,4.758993148803711,1.2404379844665527,2.059396982192993,2.9023547172546387,0.08854802697896957,-0.7368195056915283,-0.24758374691009521
235,22233,22234,0.0472801998257637,0.024706929922103882,1.0118017196655273,2.330646276473999,22.75664710998535,4.167732238769531,1.247937560081482,2.0698964595794678,2.9098544120788574,-0.10409463196992874,-0.6182500720024109,-0.22232119739055634
236,22243,22244,0.041529640555381775,-0.025278311222791672,0.9627799391746521,-9.70649242401123,17.669509887695312,1.371776819229126,1.2374380826950073,2.065396785736084,2.9023547172546387,-0.3438180088996887,-0.7614049911499023,-0.15951518714427948
237,22253,22254,0.041625335812568665,-0.03941936045885086,0.9570834636688232,-15.113983154296875,3.128267765045166,-2.2177841663360596,1.2419378757476807,2.0578970909118652,2.897855043411255,-0.3719307780265808,-0.9223694205284119,-0.1561650186777115
238,22263,22264,0.014881405048072338,-0.02275472693145275,0.9934847354888916,-15.982217788696289,-2.9021527767181396,-5.184736251831055,1.2509374618530273,2.063896656036377,2.9068546295166016,-0.40956413745880127,-1.2095636129379272,-0.1498691588640213
239,22273,22274,-0.00642778305336833,-0.03217132389545441,1.002599835395813,-19.935304641723633,5.286619663238525,-8.040043830871582,1.2494374513626099,2.065396785736084,2.9143543243408203,-0.4964667856693268,-1.3665311336517334,-0.21581150591373444
240,22283,22284,0.027896009385585785,-0.01197371631860733,1.0045500993728638,-24.326278686523438,7.524020671844482,-10.169411659240723,1.2524373531341553,2.065396785736084,2.917354106903076,-0.4124017059803009,-1.7376980781555176,-0.280486524105072
241,22293,22294,0.034197594970464706,0.001903018681332469,1.0406564474105835,-20.503740310668945,-1.2236213684082031,-10.559240341186523,1.2374380826950073,2.0563971996307373,2.923353672027588,-0.392343133687973,-1.8585468530654907,-0.4254302382469177
242,22303,22304,0.024274306371808052,-0.023429876193404198,1.023482084274292,-3.524238109588623,-13.79942798614502,-10.31446647644043,1.246437668800354,2.06839656829834,2.926353693008423,-0.3426893949508667,-2.0635132789611816,-0.506857693195343
243,22313,22314,0.06463415175676346,0.0018252021400257945,1.0320707559585571,18.806793212890625,-23.318517684936523,-9.726886749267578,1.2584370374679565,2.0533971786499023,2.9083545207977295,-0.09668473154306412,-1.9505678415298462,-0.6256914138793945
244,22323,22324,0.0524689219892025,0.006594385486096144,1.0517627000808716,42.83434295654297,-23.4099063873291,-9.056705474853516,1.2584370374679565,2.0533971786499023,2.9083545207977295,0.2538432776927948,-1.5996556282043457,-0.7446972727775574
245,22333,22334,0.008119696751236916,-0.004182281903922558,1.0547726154327393,56.4552116394043,-19.7767276763916,-7.407191276550293,1.2569371461868286,2.060896873474121,2.924853801727295,0.5088486075401306,-1.1194697618484497,-0.8226786851882935
246,22343,22344,0.1019883006811142,-0.0024900874122977257,1.0541150569915771,58.368370056152344,-11.369354248046875,-9.18323040008545,1.2659367322921753,2.0818958282470703,2.924853801727295,0.517220139503479,-0.4018374979496002,-0.8952041864395142
247,22353,22354,0.07719890773296356,-0.0393989235162735,1.0317713022232056,49.346351623535156,0.7186902165412903,-14.551841735839844,1.2509374618530273,2.066896677017212,2.9068546295166016,0.5141832232475281,0.01701667159795761,-0.9643682241439819
248,22363,22364,0.06194136664271355,-0.04125653952360153,1.0306037664413452,21.970535278320312,10.674907684326172,-17.7557373046875,1.2359381914138794,2.0488975048065186,2.9068546295166016,0.40625399351119995,0.39580321311950684,-1.1163126230239868
249,22373,22374,0.0482536256313324,-0.040843088179826736,1.0230640172958374,2.634106397628784,21.383411407470703,-19.054218292236328,1.2359381914138794,2.0488975048065186,2.9068546295166016,0.27844682335853577,0.3410669267177582,-1.2698473930358887
250,22383,22384,0.16019076108932495,0.08367688953876495,1.058457851409912,-7.528885364532471,28.525989532470703,-17.876623153686523,1.2494374513626099,2.038398027420044,2.8873555660247803,-0.1302163153886795,0.2584584951400757,-1.4062457084655762
251,22393,22394,0.07662197202444077,-0.01538325659930706,1.0119426250457764,-13.36132526397705,21.325471878051758,-15.474822044372559,1.2494374513626099,2.038398027420044,2.8873555660247803,-0.38259315490722656,0.18776659667491913,-1.5840728282928467
252,22403,22404,0.01967380754649639,-0.030933480709791183,0.9401457905769348,-19.601192474365234,0.18128573894500732,-12.476014137268066,1.2494374513626099,2.0473976135253906,2.872356414794922,-0.5136643052101135,-0.0520668551325798,-1.7078322172164917
253,22413,22414,0.050436682999134064,-0.034389108419418335,0.9509743452072144,-20.423826217651367,-20.365381240844727,-9.310320854187012,1.2419378757476807,2.0248987674713135,2.8498575687408447,-0.37156784534454346,-0.30509501695632935,-1.8139655590057373
254,22423,22424,0.016822583973407745,0.03672003373503685,0.9874019026756287,-8.061180114746094,-29.269100189208984,-9.761323928833008,1.2509374618530273,2.0188989639282227,2.8588569164276123,-0.011571853421628475,-0.5069486498832703,-1.9158103466033936
255,22433,22434,0.02543562650680542,-0.02530844509601593,0.9706559181213379,12.908844947814941,-21.72460174560547,-9.48693561553955,1.2509374618530273,2.03389835357666,2.8798558712005615,0.3374905288219452,-0.517000138759613,-2.019487142562866
256,22443,22444,0.03825727850198746,-0.007867716252803802,0.9350324273109436,31.694368362426758,-4.166681289672852,-6.099653244018555,1.2584370374679565,2.0233988761901855,2.866356611251831,0.5220018029212952,-0.2069685459136963,-2.128586530685425
257,22453,22454,0.047027379274368286,-0.044923994690179825,0.9411560297012329,45.108463287353516,13.570199012756348,-1.7145463228225708,1.2599369287490845,2.0248987674713135,2.867856502532959,0.45582315325737,0.18997052311897278,-2.1653599739074707
258,22463,22464,-0.013258861377835274,-0.12546680867671967,0.9485875368118286,45.069969177246094,26.063661575317383,1.430382251739502,1.244937777519226,2.03389835357666,2.8768560886383057,0.13090692460536957,0.6733829975128174,-2.1456122398376465
259,22473,22474,0.06001182273030281,-0.13678953051567078,0.9661543965339661,43.6296272277832,39.97549819946289,0.11066165566444397,1.2494374513626099,2.0293984413146973,2.890355348587036,-0.4060062766075134,1.1358299255371094,-2.102224588394165
260,22483,22484,0.06116940826177597,-0.03876449912786484,0.947215735912323,32.81024932861328,43.64030075073242,-3.014632225036621,1.2494374513626099,2.0443978309631348,2.893355369567871,-0.6869859099388123,1.540938138961792,-2.126291275024414
261,22493,22494,0.02415168099105358,-0.04500069096684456,0.9197450876235962,8.032793998718262,32.49412536621094,-6.288759231567383,1.2404379844665527,2.038398027420044,2.896355152130127,-1.0994043350219727,1.7616853713989258,-2.160172700881958
262,22503,22504,0.07955127954483032,-0.002950408263131976,0.9361470937728882,-22.53816795349121,16.7784423828125,-9.075630187988281,1.2434377670288086,2.0233988761901855,2.8783559799194336,-1.522859811782837,1.7612704038619995,-2.2216720581054688
263,22513,22514,0.09559372812509537,0.04236750304698944,0.899391233921051,-45.78181838989258,2.503535509109497,-8.905403137207031,1.2434377670288086,2.0203988552093506,2.869356393814087,-1.5368415117263794,1.2077945470809937,-2.2907791137695312
264,22523,22524,0.04110841453075409,0.008114844560623169,0.9187679886817932,-51.287628173828125,-7.7655253410339355,-7.7620391845703125,1.2374380826950073,2.0173990726470947,2.8813557624816895,-1.4044713973999023,0.7836574912071228,-2.387538433074951
265,22533,22534,0.0631934329867363,-0.09986133128404617,0.9654372334480286,-33.413063049316406,-11.136316299438477,-7.509036540985107,1.2434377670288086,2.0413978099823,2.8873555660247803,-1.292860984802246,0.09462116658687592,-2.4444925785064697
266,22543,22544,0.11016309261322021,0.026120565831661224,0.9881091117858887,-4.510038375854492,-11.672748565673828,-9.28962516784668,1.2434377670288086,2.0413978099823,2.893355369567871,-1.1133038997650146,0.1089198961853981,-2.544917583465576
267,22553,22554,0.010204681195318699,-0.013802455738186836,1.0138006210327148,19.115999221801758,-7.104654788970947,-10.414520263671875,1.2434377670288086,2.035398244857788,2.8843557834625244,-1.084570288658142,0.22131623327732086,-2.647566556930542
268,22563,22564,-0.008265958167612553,-0.09574463963508606,0.9958599209785461,27.269100189208984,2.4880080223083496,-11.8895263671875,1.2419378757476807,2.0458977222442627,2.891855239868164,-1.098838210105896,0.5166029334068298,-2.7585651874542236
269,22573,22574,0.026037205010652542,-0.04774825647473335,1.0067691802978516,18.134580612182617,1.7616357803344727,-12.262426376342773,1.2509374618530273,2.0428977012634277,2.9158542156219482,-1.1046651601791382,0.7968759536743164,-2.880622625350952
270,22583,22584,0.02111366204917431,-0.07527186721563339,0.9795030951499939,-15.307887077331543,-17.74092674255371,-8.943999290466309,1.2554372549057007,2.0533971786499023,2.9143543243408203,-1.1450527906417847,0.8171626329421997,-2.9922080039978027
271,22593,22594,0.02583242952823639,-0.05585478991270065,0.8937235474586487,-52.99272918701172,-36.277427673339844,-3.055760383605957,1.2419378757476807,2.0488975048065186,2.9098544120788574,-0.7231377363204956,0.3883231580257416,-3.0580670833587646
272,22603,22604,0.08729428052902222,0.018785575404763222,0.895650327205658,-69.9854736328125,-47.295692443847656,0.4126598834991455,1.2569371461868286,2.060896873474121,2.9308533668518066,-0.31245508790016174,-0.42332881689071655,-3.070263624191284
273,22613,22614,0.06570678949356079,0.11149761825799942,1.009852647781372,-63.614013671875,-49.50476837158203,2.9943349361419678,1.2629368305206299,2.087895631790161,2.9668517112731934,0.3267998993396759,-1.3307420015335083,-3.0410866737365723
274,22623,22624,0.019186103716492653,0.06530532985925674,1.059486985206604,-39.57594299316406,-39.76258850097656,5.784107685089111,1.2599369287490845,2.096895217895508,2.9638516902923584,0.7925941944122314,-1.5252594947814941,-2.993726968765259
275,22633,22634,0.017709098756313324,0.01584041304886341,1.0680710077285767,-5.981537818908691,-11.26826000213623,8.29835033416748,1.2659367322921753,2.114894151687622,2.969851493835449,1.006972074508667,-1.7926520109176636,-2.914579391479492
276,22643,22644,0.04377773404121399,-0.012882833369076252,1.092725157737732,24.377521514892578,17.96017074584961,11.56143856048584,1.247937560081482,2.090895414352417,2.9488525390625,0.8852725625038147,-1.6649296283721924,-2.8141801357269287
277,22653,22654,0.03902715444564819,-0.05192089080810547,1.0212476253509521,47.60466384887695,41.35918426513672,14.515359878540039,1.2629368305206299,2.093895196914673,2.9548521041870117,0.44225171208381653,-1.1454638242721558,-2.6952083110809326
278,22663,22664,0.07070301473140717,-0.018121905624866486,1.004729986190796,67.60322570800781,46.084625244140625,15.969454765319824,1.261436939239502,2.1013948917388916,2.9683516025543213,0.004110951442271471,-0.640612781047821,-2.546351909637451
279,22673,22674,0.07508163154125214,-0.016474276781082153,1.0099834203720093,82.94335174560547,43.73283386230469,13.087730407714844,1.2404379844665527,2.1103944778442383,2.9653515815734863,-0.4587319791316986,0.26634636521339417,-2.4101223945617676
280,22683,22684,0.03955351561307907,-0.044640567153692245,1.014112949371338,71.73368835449219,39.639793395996094,9.022089004516602,1.246437668800354,2.092395305633545,2.9653515815734863,-0.8101794719696045,1.0251964330673218,-2.2966091632843018
281,22693,22694,0.05756644159555435,0.0019776641856878996,1.017234206199646,38.11234664916992,26.564489364624023,6.62663459777832,1.2374380826950073,2.113394260406494,2.980350971221924,-1.127905249595642,1.6292073726654053,-2.2142632007598877
282,22703,22704,0.06158056855201721,-0.030032247304916382,1.0045772790908813,3.001169443130493,18.735544204711914,5.753748416900635,1.2284384965896606,2.06839656829834,2.9623517990112305,-1.389362096786499,1.653852105140686,-2.1298723220825195
283,22713,22714,0.08259279280900955,-0.09417429566383362,0.9993049502372742,-26.859506607055664,9.085693359375,4.141496181488037,1.2269386053085327,2.066896677017212,2.942852735519409,-1.525466799736023,1.3605493307113647,-2.067596197128296
284,22723,22724,-0.021511711180210114,0.004860944580286741,0.993597149848938,-39.410247802734375,4.6149983406066895,0.3176218569278717,1.2374380826950073,2.0833957195281982,2.953352212905884,-1.5041943788528442,1.0899128913879395,-2.0471129417419434
285,22733,22734,-0.020549247041344643,-0.016028614714741707,1.0128456354141235,-39.47370910644531,4.690681457519531,-5.0752668380737305,1.246437668800354,2.095395088195801,2.9593520164489746,-1.607321858406067,0.4615170955657959,-2.063192129135132
286,22743,22744,0.025967203080654144,-0.016297494992613792,1.0563803911209106,-30.8391170501709,-7.121463298797607,-12.778509140014648,1.2419378757476807,2.084895610809326,2.9368531703948975,-1.3593361377716064,0.08451711386442184,-2.147153615951538
287,22753,22754,0.052196383476257324,-0.0027917902916669846,1.035266637802124,-20.076478958129883,-16.427814483642578,-19.02252197265625,1.2254387140274048,2.0743961334228516,2.9293534755706787,-1.2124121189117432,-0.2572609484195709,-2.3127598762512207
288,22763,22764,-0.017361314967274666,-0.03416500240564346,1.0077496767044067,-18.909629821777344,-18.915103912353516,-19.899181365966797,1.2359381914138794,2.060896873474121,2.9488525390625,-1.1496918201446533,-0.1803252398967743,-2.4995710849761963
289,22773,22774,-0.05886220932006836,-0.09802450239658356,0.9959577322006226,-23.81087303161621,-15.033926963806152,-18.458372116088867,1.2344383001327515,2.092395305633545,2.9563522338867188,-0.938022255897522,-0.35003483295440674,-2.6909334659576416
290,22783,22784,-0.11112798750400543,-0.11534754931926727,0.965341329574585,-28.174015045166016,-4.420820713043213,-16.618396759033203,1.231438398361206,2.0803959369659424,2.9593520164489746,-0.8445561528205872,-0.6149247884750366,-2.8660073280334473
291,22793,22794,-0.06556494534015656,-0.09327714145183563,0.9973723888397217,-23.046791076660156,7.9598236083984375,-14.651312828063965,1.2434377670288086,2.086395740509033,2.9413528442382812,-0.8472800254821777,-1.03708815574646,-3.034055471420288
292,22803,22804,-0.013419974595308304,-0.04415168985724449,1.0164763927459717,-9.276961326599121,14.993607521057129,-14.438995361328125,1.2359381914138794,2.0698964595794678,2.9098544120788574,-1.0495747327804565,-1.1849379539489746,-3.178055763244629
293,22813,22814,0.11531754583120346,0.032909706234931946,1.0330106019973755,5.83482551574707,10.687129974365234,-15.125304222106934,1.2254387140274048,2.062396764755249,2.923353672027588,-1.2334860563278198,-1.2416552305221558,-3.329927682876587
294,22823,22824,0.1299324929714203,0.1405787318944931,1.02092707157135,14.611676216125488,-0.37936800718307495,-17.589418411254883,1.246437668800354,2.0533971786499023,2.9023547172546387,-1.2182673215866089,-1.153161883354187,-3.4980194568634033
295,22833,22834,0.06104250252246857,0.10346291959285736,1.0498656034469604,17.15057945251465,-14.862494468688965,-18.946596145629883,1.231438398361206,2.0503973960876465,2.899354934692383,-1.1329892873764038,-0.87468421459198,-3.67050838470459
296,22843,22844,-0.07798057794570923,0.04206269979476929,0.9547482132911682,4.243809223175049,-18.281051635742188,-16.238964080810547,1.231438398361206,2.0233988761901855,2.8783559799194336,-0.9979915618896484,-0.7479528784751892,-3.8456664085388184
297,22853,22854,-0.07194389402866364,-0.07241072505712509,0.8184467554092407,-19.745702743530273,-14.608804702758789,-11.337995529174805,1.2524373531341553,2.0293984413146973,2.8783559799194336,-0.5906774997711182,-0.8278477191925049,-4.01650857925415
298,22863,22864,0.011624197475612164,0.018165115267038345,0.878144383430481,-39.09220886230469,-11.989655494689941,-6.075524806976318,1.2344383001327515,2.0233988761901855,2.869356393814087,-0.5993196368217468,-1.215901255607605,-4.097273349761963
299,22873,22874,0.012884100899100304,0.02925332635641098,0.9563169479370117,-42.40610122680664,-13.600956916809082,-0.4724308252334595,1.247937560081482,2.036898136138916,2.8858556747436523,-0.40981897711753845,-1.7048659324645996,-4.1397552490234375
300,22883,22884,-0.00557307992130518,0.08712606877088547,0.9662849307060242,-29.42717170715332,-15.664847373962402,4.799777030944824,1.2419378757476807,2.03389835357666,2.891855239868164,-0.1963375210762024,-2.303650140762329,-4.138918876647949
301,22893,22894,0.00845495518296957,0.10508746653795242,1.0416582822799683,-6.3813982009887695,-15.687631607055664,10.638307571411133,1.2674366235733032,2.0473976135253906,2.899354934692383,0.050397831946611404,-2.4889440536499023,-4.070310592651367
302,22903,22904,0.05092529207468033,0.050213754177093506,1.0394130945205688,24.59402084350586,-14.429316520690918,17.65934944152832,1.2569371461868286,2.036898136138916,2.894855260848999,0.2713182270526886,-2.390619993209839,-3.93593168258667
303,22913,22914,0.056459810584783554,0.06252384930849075,1.0131477117538452,50.28729248046875,-7.395212173461914,23.289785385131836,1.2539372444152832,2.0458977222442627,2.897855043411255,0.31072568893432617,-1.8143877983093262,-3.7072510719299316
304,22923,22924,0.015625035390257835,0.023884238675236702,0.9921350479125977,67.77882385253906,3.799351215362549,27.5178165435791,1.2629368305206299,2.036898136138916,2.9038548469543457,0.2781473398208618,-1.4808568954467773,-3.4434566497802734
305,22933,22934,-0.0017054883064702153,0.025285275653004646,1.0255388021469116,70.09191131591797,23.358949661254883,30.4797420501709,1.2374380826950073,2.0563971996307373,2.9113543033599854,0.11193153262138367,-0.5633286833763123,-3.1456193923950195
306,22943,22944,0.07054971158504486,0.10013549774885178,0.9922081232070923,64.96268463134766,42.92808532714844,31.488296508789062,1.2419378757476807,2.039897918701172,2.9068546295166016,-0.22551210224628448,-0.09444811940193176,-2.8279247283935547
307,22953,22954,0.18120822310447693,0.0706823468208313,0.9911237955093384,65.74585723876953,51.280033111572266,29.6795654296875,1.2509374618530273,2.039897918701172,2.9098544120788574,-0.7739512920379639,0.6141096353530884,-2.495244026184082
308,22963,22964,0.015207953751087189,-0.041362885385751724,1.0379283428192139,64.99551391601562,53.900516510009766,21.20191192626953,1.2524373531341553,2.0503973960876465,2.917354106903076,-1.2556535005569458,0.998420238494873,-2.227119207382202
309,22973,22974,0.021456465125083923,-0.08042459189891815,1.0375317335128784,48.832942962646484,50.06473159790039,11.494535446166992,1.2434377670288086,2.0533971786499023,2.926353693008423,-1.916421890258789,1.7374249696731567,-2.0188241004943848
310,22983,22984,0.08499891310930252,-0.01955946907401085,1.0347708463668823,26.083526611328125,33.00803756713867,3.823826313018799,1.2389379739761353,2.039897918701172,2.9038548469543457,-2.0984489917755127,1.949630856513977,-1.979667067527771
311,22993,22994,0.07694088667631149,-0.0029034512117505074,1.0709832906723022,4.788610935211182,11.146625518798828,1.3229992389678955,1.2494374513626099,2.0533971786499023,2.9323532581329346,-2.4052722454071045,2.2976748943328857,-1.9289551973342896
312,23003,23004,0.08231262117624283,-0.0023712285328656435,1.1064766645431519,-14.116915702819824,-7.7239603996276855,2.8624179363250732,1.2254387140274048,2.0473976135253906,2.9293534755706787,-2.3713810443878174,2.2934677600860596,-1.912593126296997
313,23013,23014,0.039649657905101776,-0.06816303730010986,1.0890018939971924,-18.718189239501953,-35.63759231567383,1.0763695240020752,1.244937777519226,2.039897918701172,2.927853584289551,-2.1202592849731445,1.8129295110702515,-1.9262633323669434
314,23023,23024,0.06535342335700989,0.011805754154920578,1.1012864112854004,-12.067220687866211,-58.581111907958984,-0.9615395069122314,1.244937777519226,2.036898136138916,2.92185378074646,-1.4943770170211792,1.6252315044403076,-1.947770118713379
315,23033,23034,0.11413102596998215,0.11508684605360031,1.0509147644042969,5.602230548858643,-74.33168029785156,-2.9240152835845947,1.2509374618530273,2.0518972873687744,2.9398529529571533,-0.8037941455841064,1.613054871559143,-1.9826840162277222
316,23043,23044,0.11752397567033768,0.15322279930114746,1.044539451599121,23.578327178955078,-74.34217834472656,-4.080069065093994,1.2524373531341553,2.0563971996307373,2.9563522338867188,0.12936215102672577,1.7394356727600098,-2.0368330478668213
317,23053,23054,0.04745997488498688,0.1434655636548996,1.0402586460113525,33.55057144165039,-59.238433837890625,-4.832211494445801,1.246437668800354,2.0533971786499023,2.9293534755706787,0.6901686191558838,2.146202802658081,-2.099717855453491
318,23063,23064,0.06543046981096268,0.04865531623363495,1.0719678401947021,26.455739974975586,-22.02664566040039,-6.128929138183594,1.2419378757476807,2.0458977222442627,2.924853801727295,1.043900966644287,2.604283094406128,-2.166337251663208
319,23073,23074,0.017928486689925194,-0.025591151788830757,1.021662712097168,7.797895431518555,23.48882484436035,-5.8815598487854,1.2509374618530273,2.030898332595825,2.9038548469543457,0.9413147568702698,2.4600985050201416,-2.260500192642212
320,23083,23084,0.04135047271847725,-0.03352433815598488,1.0310790538787842,-16.058256149291992,56.306636810302734,-4.394521236419678,1.247937560081482,2.0278985500335693,2.894855260848999,0.36314886808395386,2.4045398235321045,-2.3198556900024414
321,23093,23094,0.06921519339084625,0.005875471513718367,0.9953681230545044,-28.656143188476562,70.26903533935547,-3.7238686084747314,1.2554372549057007,2.0443978309631348,2.9053547382354736,-0.41736412048339844,2.153451442718506,-2.359373092651367
322,23103,23104,0.06671573966741562,0.021099789068102837,1.0341236591339111,-36.34877395629883,69.62594604492188,-1.8064643144607544,1.2539372444152832,2.0518972873687744,2.9158542156219482,-1.2689247131347656,1.7229063510894775,-2.3926424980163574
323,23113,23114,0.08624760806560516,0.05262722447514534,1.0387085676193237,-37.51869583129883,58.08405303955078,1.6620606184005737,1.2284384965896606,2.062396764755249,2.9323532581329346,-1.8248915672302246,1.2073326110839844,-2.363176107406616
324,23123,23124,0.081928551197052,0.028649907559156418,1.0255959033966064,-28.2477970123291,33.48466873168945,5.928619861602783,1.2299385070800781,2.066896677017212,2.9338531494140625,-2.352041006088257,0.8012121319770813,-2.33400821685791
325,23133,23134,0.02981608547270298,0.05812738090753555,1.0863388776779175,-5.574192047119141,3.2705910205841064,10.530912399291992,1.231438398361206,2.059396982192993,2.9293534755706787,-2.3691978454589844,0.6897882223129272,-2.203913927078247
326,23143,23144,0.03111250512301922,0.05566360056400299,1.0869652032852173,30.976871490478516,-36.53895950317383,13.294734954833984,1.2434377670288086,2.0473976135253906,2.9323532581329346,-2.21020245552063,0.8595182299613953,-2.0776491165161133
327,23153,23154,0.031892918050289154,0.004434358794242144,1.0512497425079346,71.42881774902344,-64.02521514892578,15.900919914245605,1.246437668800354,2.0443978309631348,2.9143543243408203,-1.5725022554397583,1.455014705657959,-1.9074137210845947
328,23163,23164,-0.07505299150943756,-0.05253042280673981,1.0495713949203491,96.70610809326172,-65.71054077148438,19.636499404907227,1.2644367218017578,2.0473976135253906,2.9353532791137695,-0.7049599289894104,2.5636229515075684,-1.6871827840805054
329,23173,23174,0.04236266762018204,-0.021571366116404533,1.0097277164459229,89.38390350341797,-54.005516052246094,24.492000579833984,1.2494374513626099,2.0743961334228516,2.9653515815734863,-0.24585627019405365,3.289552927017212,-1.555054783821106
330,23183,23184,0.03269309550523758,-0.02027241140604019,1.0112621784210205,64.4985122680664,-28.86973762512207,26.45269203186035,1.2689365148544312,2.063896656036377,2.9578521251678467,0.26940497756004333,4.403628349304199,-1.2828842401504517
331,23193,23194,0.04344635456800461,0.00656639551743865,1.0483248233795166,30.607837677001953,9.820279121398926,21.863798141479492,1.2584370374679565,2.065396785736084,2.953352212905884,0.3645813763141632,4.489697456359863,-1.0800553560256958
332,23203,23204,0.09513957053422928,0.00780102051794529,1.0557790994644165,-7.991673946380615,36.66817855834961,12.406859397888184,1.2509374618530273,2.0518972873687744,2.945852756500244,0.07448967546224594,4.584020614624023,-0.9065064191818237
333,23213,23214,0.08822114020586014,0.011608896777033806,1.0320730209350586,-50.181453704833984,34.99544906616211,6.6956987380981445,1.2404379844665527,2.0533971786499023,2.926353693008423,-0.45161688327789307,4.094217777252197,-0.8418111205101013
334,23223,23224,0.06590109318494797,-0.04359795153141022,1.0132215023040771,-81.84453582763672,13.44062614440918,7.663744926452637,1.2404379844665527,2.0533971786499023,2.9323532581329346,-0.8955377340316772,3.3088815212249756,-0.8306872844696045
335,23233,23234,0.09335207939147949,-0.02069525606930256,1.0606106519699097,-88.74346923828125,-17.029081344604492,12.722687721252441,1.2389379739761353,2.066896677017212,2.9398529529571533,-0.7847216725349426,2.4936487674713135,-0.6851053237915039
336,23243,23244,0.08104364573955536,-0.022062143310904503,1.078576683998108,-75.35700988769531,-45.78144836425781,20.979164123535156,1.2389379739761353,2.0698964595794678,2.951852321624756,-0.3160269558429718,1.5954407453536987,-0.4623798131942749
337,23253,23254,0.08244315534830093,-0.029512183740735054,1.05401611328125,-40.300601959228516,-64.38619232177734,29.105449676513672,1.2434377670288086,2.06839656829834,2.944352626800537,0.2929314970970154,1.2509757280349731,-0.20221127569675446
338,23263,23264,0.11281236261129379,0.0662577673792839,1.0214154720306396,2.9969711303710938,-65.73746490478516,38.47651672363281,1.2554372549057007,2.0443978309631348,2.9083545207977295,1.173484206199646,0.9973604083061218,0.2132902294397354
339,23273,23274,0.04887867346405983,-0.01571391522884369,0.9914790391921997,56.86873245239258,-47.98752975463867,45.81492614746094,1.246437668800354,2.0443978309631348,2.9053547382354736,1.4846245050430298,1.3683021068572998,0.4998863637447357
340,23283,23284,0.03067430667579174,-0.05333752930164337,0.976797342300415,97.6017074584961,-10.699740409851074,49.47220230102539,1.2644367218017578,2.038398027420044,2.9143543243408203,1.8386690616607666,2.3434364795684814,0.9685995578765869
341,23293,23294,0.04878758639097214,-0.03342437371611595,0.9498282074928284,125.40547943115234,30.406917572021484,47.782981872558594,1.247937560081482,2.0548973083496094,2.9368531703948975,1.7781909704208374,3.396944284439087,1.4706507921218872
342,23303,23304,0.011582543142139912,-0.02312725968658924,0.9442430734634399,135.37454223632812,62.1533203125,40.52299499511719,1.247937560081482,2.036898136138916,2.924853801727295,1.1532859802246094,5.034671783447266,1.842743158340454
343,23313,23314,0.03160913661122322,-0.07827092707157135,0.933627724647522,122.95198822021484,73.85355377197266,30.374807357788086,1.2734363079071045,2.011399507522583,2.899354934692383,0.4315354526042938,6.05814790725708,2.284559488296509
344,23323,23324,0.051004450768232346,-0.06830410659313202,0.9266769289970398,101.01974487304688,73.10226440429688,18.008804321289062,1.2674366235733032,1.9964001178741455,2.8873555660247803,-0.43420615792274475,7.4036865234375,2.526428461074829
345,23333,23334,0.07791297137737274,-0.03286921977996826,0.9241212606430054,54.93483352661133,47.10314178466797,4.633877754211426,1.2689365148544312,1.982900857925415,2.8798558712005615,-1.0804179906845093,8.124723434448242,2.724144697189331
346,23343,23344,0.06540019065141678,-0.0549759641289711,0.9178250432014465,-6.076453685760498,11.035649299621582,-4.744710922241211,1.2509374618530273,1.9979000091552734,2.864856719970703,-1.3870011568069458,8.405106544494629,2.7563390731811523
347,23353,23354,0.04227317124605179,-0.06912083923816681,0.9077393412590027,-63.390777587890625,-18.67197608947754,-10.738685607910156,1.2344383001327515,1.9904004335403442,2.8813557624816895,-1.358496069908142,7.984624862670898,2.6937625408172607
348,23363,23364,0.041936781257390976,-0.04667017236351967,0.9050022959709167,-111.12566375732422,-43.755516052246094,-18.028419494628906,1.2404379844665527,1.9754011631011963,2.8513574600219727,-0.9403117895126343,6.829906940460205,2.6315159797668457
349,23373,23374,0.05515863373875618,0.001841104356572032,0.9000480771064758,-149.56658935546875,-60.2656135559082,-24.566972732543945,1.2359381914138794,1.9889005422592163,2.8828558921813965,-0.32694345712661743,5.703277587890625,2.4371209144592285
350,23383,23384,0.04848529398441315,-0.004887509159743786,0.9285211563110352,-168.33547973632812,-62.4635009765625,-29.939361572265625,1.2494374513626099,2.011399507522583,2.9083545207977295,0.357178658246994,3.812732219696045,2.1966147422790527
351,23393,23394,0.052014805376529694,-0.05617024004459381,1.003253698348999,-165.57017517089844,-42.65059280395508,-35.107418060302734,1.2344383001327515,2.0533971786499023,2.9383530616760254,0.7319424152374268,2.5300233364105225,1.6870936155319214
352,23403,23404,0.041731495410203934,7.378371810773388e-05,1.0076990127563477,-146.57696533203125,-19.59823226928711,-38.18684387207031,1.2554372549057007,2.0563971996307373,2.944352626800537,1.2675739526748657,0.5885884761810303,1.5362039804458618
353,23413,23414,0.012604419142007828,0.01744089648127556,0.9896529912948608,-120.82925415039062,-5.956676006317139,-37.479496002197266,1.2554372549057007,2.0803959369659424,2.9383530616760254,1.2478365898132324,-0.21492110192775726,0.9727221131324768
354,23423,23424,0.04499024897813797,0.03288809210062027,1.0043492317199707,-80.90647888183594,-4.339766025543213,-32.323219299316406,1.2554372549057007,2.0773961544036865,2.9413528442382812,1.228391408920288,-1.4115509986877441,0.5924961566925049
355,23433,23434,0.021097352728247643,0.056638721376657486,1.031807780265808,-23.41554832458496,-14.225473403930664,-28.023162841796875,1.2539372444152832,2.0758962631225586,2.924853801727295,1.3809162378311157,-2.0601978302001953,0.3500309884548187
356,23443,23444,0.015272642485797405,0.03951839730143547,1.0072729587554932,33.37184524536133,-28.543302536010742,-22.811588287353516,1.246437668800354,2.0413978099823,2.8873555660247803,1.59713876247406,-1.7477308511734009,0.050052281469106674
357,23453,23454,0.011281054466962814,0.027280202135443687,0.9883543252944946,72.81877136230469,-37.55268859863281,-19.54326820373535,1.2584370374679565,2.0503973960876465,2.9023547172546387,2.025235176086426,-1.031163215637207,-0.1453375220298767
358,23463,23464,0.03464670479297638,0.03620181977748871,0.9747512936592102,85.78563690185547,-36.82136535644531,-17.450965881347656,1.2569371461868286,2.0488975048065186,2.9128541946411133,2.5267791748046875,0.04847990721464157,-0.3385009467601776
359,23473,23474,0.013825502246618271,0.024294454604387283,0.9561134576797485,66.5346450805664,-23.20123291015625,-16.02935218811035,1.2539372444152832,2.0518972873687744,2.918853998184204,2.79482102394104,0.8655593991279602,-0.5301693081855774
360,23483,23484,0.007341077551245689,0.007017364725470543,0.9524997472763062,26.50782012939453,-2.5007238388061523,-13.26252269744873,1.2719364166259766,2.0488975048065186,2.918853998184204,2.7257614135742188,1.2375311851501465,-0.7017343044281006
361,23493,23494,0.005144626833498478,-0.002757614478468895,0.9508885145187378,-22.60111427307129,19.469324111938477,-9.478177070617676,1.2554372549057007,2.032398223876953,2.9053547382354736,2.536100387573242,0.9789212346076965,-0.749113917350769
362,23503,23504,0.02457580529153347,0.0021469721104949713,0.943027675151825,-67.81779479980469,33.451351165771484,-3.256215810775757,1.261436939239502,2.0233988761901855,2.8603570461273193,2.175048828125,0.3561009168624878,-0.7754001021385193
363,23513,23514,0.0009190262062475085,-0.0029685318004339933,0.9444029927253723,-95.76546478271484,32.313926696777344,0.11816516518592834,1.2659367322921753,2.036898136138916,2.867856502532959,1.7989020347595215,-0.7525870203971863,-0.6950902938842773
364,23523,23524,0.020090889185667038,0.018974509090185165,0.9667144417762756,-102.34291076660156,22.533863067626953,1.6931060552597046,1.2554372549057007,2.0503973960876465,2.8873555660247803,1.631933569908142,-1.428350806236267,-0.7970537543296814
365,23533,23534,0.02143445611000061,-0.014902081340551376,0.9567435383796692,-82.86087799072266,8.400238037109375,2.0447988510131836,1.2689365148544312,2.0488975048065186,2.870856523513794,1.353257417678833,-2.712555408477783,-0.6682556867599487
366,23543,23544,0.04810464382171631,0.008213586173951626,0.9783127307891846,-44.79474639892578,-9.577242851257324,1.912146806716919,1.2659367322921753,2.03389835357666,2.8528573513031006,1.3529807329177856,-3.1309497356414795,-0.7431930303573608
367,23553,23554,0.04275123029947281,0.014356718398630619,1.0050731897354126,5.652019500732422,-20.777286529541016,2.010065793991089,1.2599369287490845,2.030898332595825,2.8588569164276123,1.5967899560928345,-3.428330898284912,-0.6775794625282288
368,23563,23564,0.08257614076137543,-0.0031073412392288446,1.0646153688430786,50.34808349609375,-23.50391387939453,2.407796859741211,1.246437668800354,2.0293984413146973,2.8513574600219727,1.9820044040679932,-2.853949785232544,-0.7751657366752625
369,23573,23574,0.03395864740014076,-0.008774015121161938,1.0182856321334839,83.15459442138672,-11.847654342651367,3.274569272994995,1.261436939239502,2.032398223876953,2.863356828689575,2.336153030395508,-2.036376714706421,-0.8158563375473022
370,23583,23584,0.024352625012397766,-0.06310556828975677,0.992350161075592,99.3424301147461,11.477152824401855,0.9568127989768982,1.244937777519226,2.0428977012634277,2.8798558712005615,2.2742364406585693,-1.061928629875183,-0.7981223464012146
371,23593,23594,0.04038288816809654,-0.02890273556113243,0.9867446422576904,90.77022552490234,38.036685943603516,-4.486134052276611,1.244937777519226,2.0518972873687744,2.9038548469543457,1.8613184690475464,0.050391294062137604,-0.8342946767807007
372,23603,23604,0.07296666502952576,-0.00035509560257196426,0.97076016664505,58.978702545166016,59.30876922607422,-12.561513900756836,1.246437668800354,2.06839656829834,2.9053547382354736,1.2691718339920044,0.46357250213623047,-0.7328156232833862
373,23613,23614,0.04427492618560791,-0.017177069559693336,0.9616263508796692,10.14950942993164,70.01947021484375,-18.39398765563965,1.231438398361206,2.0503973960876465,2.9143543243408203,0.4636191427707672,0.9100344181060791,-0.8796252608299255
374,23623,23624,0.05560525134205818,-0.08313030749559402,0.9678996801376343,-42.12958526611328,69.36436462402344,-19.153236389160156,1.2509374618530273,2.0578970909118652,2.92185378074646,-0.10114263743162155,0.40533140301704407,-0.9498245120048523
375,23633,23634,0.011756546795368195,-0.048387326300144196,0.989992618560791,-84.6851806640625,52.69953918457031,-17.855026245117188,1.247937560081482,2.060896873474121,2.891855239868164,-0.93609219789505,-0.490653932094574,-0.9884602427482605
376,23643,23644,0.04403456673026085,0.009499366395175457,1.0127415657043457,-98.48509216308594,24.20207977294922,-18.021080017089844,1.2554372549057007,2.062396764755249,2.920353889465332,-1.0365172624588013,-1.2827109098434448,-1.2933837175369263
377,23653,23654,0.05213621258735657,0.019256068393588066,0.9950005412101746,-91.4000244140625,-14.844654083251953,-20.259592056274414,1.2344383001327515,2.0743961334228516,2.926353693008423,-1.0763295888900757,-2.539512872695923,-1.4009414911270142
378,23663,23664,0.03284063935279846,0.031194373965263367,1.0405219793319702,-61.788963317871094,-51.7142448425293,-19.587114334106445,1.2524373531341553,2.06839656829834,2.926353693008423,-0.4531806707382202,-3.0572962760925293,-1.7369550466537476
379,23673,23674,0.09364796429872513,-0.043696098029613495,1.042250156402588,-18.535232543945312,-64.19271850585938,-14.397610664367676,1.2539372444152832,2.084895610809326,2.9368531703948975,0.41617369651794434,-3.433936595916748,-1.9653853178024292
380,23683,23684,0.03298303112387657,-0.012099622748792171,1.0501047372817993,26.437238693237305,-48.163448333740234,-9.68683910369873,1.2659367322921753,2.0758962631225586,2.927853584289551,0.8831133246421814,-3.3589248657226562,-2.019810199737549
381,23693,23694,0.0351392924785614,0.006138949654996395,1.036281704902649,59.621726989746094,-21.322431564331055,-6.313388824462891,1.2524373531341553,2.0713963508605957,2.9113543033599854,1.2296350002288818,-2.7366883754730225,-2.119887113571167
382,23703,23704,0.043659284710884094,0.001281976466998458,1.0217818021774292,73.83031463623047,3.3902857303619385,-4.220420837402344,1.2644367218017578,2.0533971786499023,2.9113543033599854,1.2774914503097534,-2.1873016357421875,-2.1166579723358154
383,23713,23714,0.06260675191879272,0.01732153818011284,1.0312243700027466,80.37245178222656,26.01952362060547,-3.3653571605682373,1.2659367322921753,2.0458977222442627,2.9038548469543457,1.0712709426879883,-1.2916865348815918,-2.1586246490478516
384,23723,23724,0.027207812294363976,-0.03947179391980171,1.0417109727859497,73.98090362548828,44.24858856201172,-4.272673606872559,1.2434377670288086,2.0563971996307373,2.8873555660247803,0.5933516025543213,-0.6513104438781738,-2.108368396759033
385,23733,23734,0.06110869720578194,-0.03228848800063133,1.0230484008789062,61.4503173828125,54.32590866088867,-5.346837997436523,1.2509374618530273,2.0548973083496094,2.894855260848999,-0.12167973071336746,0.13134077191352844,-2.075394868850708
386,23743,23744,0.05719136446714401,-0.07202022522687912,0.9970496296882629,42.9706916809082,44.14773941040039,-6.476017475128174,1.2524373531341553,2.0443978309631348,2.890355348587036,-0.4708711802959442,0.6071323156356812,-2.200281858444214
387,23753,23754,0.07001994550228119,-0.03633281961083412,0.9910755157470703,14.154129981994629,19.6138973236084,-5.750959873199463,1.2524373531341553,2.0503973960876465,2.899354934692383,-0.9962704181671143,0.944704532623291,-2.1772091388702393
388,23763,23764,0.042754877358675,-0.06322631239891052,0.9709659814834595,-14.475284576416016,-9.728590965270996,-1.9720768928527832,1.244937777519226,2.0188989639282227,2.8618569374084473,-0.7851873636245728,0.7218335866928101,-2.2925095558166504
389,23773,23774,0.05011045187711716,-0.029346339404582977,0.9774051904678345,-35.625247955322266,-34.6531867980957,-1.975334644317627,1.244937777519226,2.012899398803711,2.8588569164276123,-0.48004230856895447,0.3650503158569336,-2.325366258621216
390,23783,23784,0.09214650094509125,-0.027606137096881866,0.9740581512451172,-40.217281341552734,-45.71083068847656,-4.328164577484131,1.2509374618530273,2.0578970909118652,2.9098544120788574,-0.07561250776052475,0.038284558802843094,-2.3686656951904297
391,23793,23794,0.03272153437137604,-0.023332767188549042,0.987601637840271,-30.03616714477539,-45.913238525390625,-5.119589805603027,1.2689365148544312,2.0578970909118652,2.9308533668518066,0.549284815788269,-0.4261660873889923,-2.4522626399993896
392,23803,23804,0.009673959575593472,-0.01915629580616951,1.0062315464019775,-8.319650650024414,-31.115245819091797,-7.148900508880615,1.2659367322921753,2.060896873474121,2.927853584289551,0.9207577705383301,-0.5832664370536804,-2.505723714828491
393,23813,23814,0.04368734359741211,-0.012505468912422657,1.0133692026138306,18.533626556396484,-12.42403793334961,-10.62433910369873,1.2629368305206299,2.066896677017212,2.92185378074646,1.0826853513717651,-0.5524008274078369,-2.573483467102051
394,23823,23824,0.029515106230974197,-0.020945804193615913,0.98958420753479,34.590126037597656,6.812871932983398,-11.821056365966797,1.2599369287490845,2.0278985500335693,2.8768560886383057,1.3012651205062866,-0.13031433522701263,-2.7635819911956787
395,23833,23834,0.022868728265166283,-0.03008614294230938,0.9628631472587585,31.97418212890625,29.828983306884766,-12.219013214111328,1.2359381914138794,2.0548973083496094,2.897855043411255,0.8323790431022644,0.3677874505519867,-2.808881998062134
396,23843,23844,0.1466834545135498,0.0674065351486206,0.9576738476753235,19.69498634338379,45.383445739746094,-13.702238082885742,1.247937560081482,2.0458977222442627,2.891855239868164,0.45955419540405273,0.47291603684425354,-2.913630723953247
397,23853,23854,0.059646639972925186,0.01253334991633892,0.9662161469459534,5.655285835266113,43.90902328491211,-13.873290061950684,1.2404379844665527,2.059396982192993,2.926353693008423,-0.15480589866638184,0.5902048945426941,-3.0011634826660156
398,23863,23864,0.024420613422989845,-0.07653502374887466,0.9625083804130554,-3.9494316577911377,28.210622787475586,-12.206801414489746,1.2524373531341553,2.0563971996307373,2.9293534755706787,-0.4647316336631775,0.6409744024276733,-3.152009963989258
399,23873,23874,-0.02767113782465458,-0.09908679872751236,0.9768727421760559,-9.016860008239746,4.77346134185791,-11.038372993469238,1.231438398361206,2.059396982192993,2.899354934692383,-0.6140429973602295,0.5508612394332886,-3.2727560997009277
400,23883,23884,0.006953335367143154,-0.05835503339767456,0.9680009484291077,-12.088499069213867,-13.16374397277832,-11.141253471374512,1.2374380826950073,2.0533971786499023,2.920353889465332,-0.6042178869247437,0.389445424079895,-3.373063564300537
401,23893,23894,0.009395959787070751,-0.06829459220170975,0.9333515167236328,-9.512386322021484,-18.99968719482422,-10.119985580444336,1.2404379844665527,2.062396764755249,2.9383530616760254,-0.2179647982120514,0.20003484189510345,-3.5257577896118164
402,23903,23904,0.11065682768821716,0.004667937755584717,0.9929443001747131,-4.383202075958252,-21.08204460144043,-10.028647422790527,1.2389379739761353,2.0728962421417236,2.942852735519409,0.08528541773557663,0.14843100309371948,-3.6511478424072266
403,23913,23914,0.03782249614596367,0.06801105290651321,1.024339199066162,-1.4456290006637573,-22.689851760864258,-9.205618858337402,1.231438398361206,2.0773961544036865,2.971351385116577,0.27758368849754333,0.11209352314472198,-3.742798328399658
404,23923,23924,-0.02082757279276848,-0.05766414478421211,0.9919318556785583,-6.186659336090088,-11.230729103088379,-7.804677486419678,1.2524373531341553,2.065396785736084,2.950352430343628,0.42395710945129395,0.16596616804599762,-3.8266353607177734
405,23933,23934,-0.05274595320224762,-0.0735500380396843,0.9643011689186096,-15.953803062438965,6.960379600524902,-4.789068222045898,1.246437668800354,2.0503973960876465,2.9383530616760254,0.47763359546661377,0.09244491159915924,-3.8990468978881836
406,23943,23944,0.0846470519900322,0.0420667789876461,0.9941039085388184,-24.434612274169922,20.993366241455078,-2.2685606479644775,1.2494374513626099,2.059396982192993,2.917354106903076,0.19993165135383606,-0.14881668984889984,-3.909538984298706
407,23953,23954,0.08673754334449768,0.00222037429921329,1.030053973197937,-23.914657592773438,30.891748428344727,0.41777607798576355,1.2389379739761353,2.0548973083496094,2.9338531494140625,0.001419371459633112,-0.4714132249355316,-3.9255101680755615
408,23963,23964,-0.03316684439778328,-0.024768497794866562,0.9769313931465149,-15.450871467590332,34.83983612060547,2.3545989990234375,1.244937777519226,2.0578970909118652,2.92185378074646,-0.20752789080142975,-0.6002330780029297,-3.9389729499816895
409,23973,23974,0.01356104388833046,-0.021122295409440994,1.0054351091384888,-3.377963066101074,32.097660064697266,4.509465217590332,1.2434377670288086,2.059396982192993,2.9353532791137695,-0.5880701541900635,-0.7149405479431152,-3.9031319618225098
410,23983,23984,0.036052558571100235,-0.020669985562562943,1.0582352876663208,7.537508964538574,23.294918060302734,6.696171283721924,1.2434377670288086,2.062396764755249,2.9293534755706787,-0.8904446959495544,-0.7064628601074219,-3.8484091758728027
411,23993,23994,0.1057569608092308,-0.03301053121685982,1.0796881914138794,17.469526290893555,10.91638469696045,7.997687816619873,1.2269386053085327,2.036898136138916,2.9038548469543457,-1.0995573997497559,-0.5263717174530029,-3.7702975273132324
412,24003,24004,0.02129565365612507,0.022205442190170288,1.061665654182434,28.291940689086914,-4.573439121246338,5.89334774017334,1.2359381914138794,2.0428977012634277,2.9068546295166016,-1.1528452634811401,-0.1745435744524002,-3.693657159805298
413,24013,24014,0.007051263935863972,-0.016699813306331635,0.9598091840744019,30.75406837463379,-14.667981147766113,4.684915065765381,1.2284384965896606,2.0263986587524414,2.890355348587036,-0.8342856764793396,0.2359260618686676,-3.6792638301849365
414,24023,24024,0.04645750671625137,-0.003273528767749667,1.0106565952301025,16.47933006286621,-7.025096893310547,6.086133003234863,1.247937560081482,2.030898332595825,2.897855043411255,-0.6536442637443542,0.5282324552536011,-3.6379878520965576
415,24033,24034,0.11884063482284546,0.047704990953207016,1.019089937210083,-6.0458269119262695,2.5778350830078125,6.999908924102783,1.2419378757476807,2.00689959526062,2.870856523513794,-0.619253933429718,0.5285900235176086,-3.57698130607605
416,24043,24044,0.0794210433959961,0.0662647932767868,1.0764272212982178,-25.530113220214844,13.95402717590332,7.634481430053711,1.244937777519226,1.9919003248214722,2.8528573513031006,-0.8160980343818665,0.25559017062187195,-3.4902095794677734
417,24053,24054,0.006621357519179583,-0.025454115122556686,1.0503935813903809,-33.32280349731445,22.898561477661133,9.870824813842773,1.2359381914138794,2.009899377822876,2.8588569164276123,-1.0661804676055908,-0.13180553913116455,-3.405076742172241
418,24063,24064,-0.016905006021261215,-0.06141545996069908,1.0199710130691528,-36.112709045410156,23.049468994140625,13.709789276123047,1.244937777519226,2.00689959526062,2.87385630607605,-1.2766939401626587,-0.5383720397949219,-3.30357027053833
419,24073,24074,0.08489161729812622,0.014598454348742962,1.0070513486862183,-36.564430236816406,12.6477632522583,19.062179565429688,1.2359381914138794,2.0188989639282227,2.867856502532959,-1.343949794769287,-0.9206559658050537,-3.1605989933013916
420,24083,24084,0.05582975223660469,-0.0017521370900794864,1.0036343336105347,-27.697093963623047,-3.4531471729278564,23.991466522216797,1.2389379739761353,2.015899181365967,2.8588569164276123,-1.4311697483062744,-1.1755199432373047,-2.9337055683135986
421,24093,24094,0.03693316876888275,0.0016825348138809204,1.008604884147644,-11.77681827545166,-16.700428009033203,28.361583709716797,1.2509374618530273,1.9949002265930176,2.8618569374084473,-1.3368028402328491,-1.2482773065567017,-2.648803234100342
422,24103,24104,0.04272586107254028,-0.00532820587977767,0.9903814792633057,15.558526039123535,-32.23857879638672,34.19831085205078,1.247937560081482,1.9889005422592163,2.8258585929870605,-0.9884147644042969,-1.1903156042099,-2.3374507427215576
423,24113,24114,0.05306608974933624,-0.02831244096159935,0.947643518447876,39.77096176147461,-39.02017593383789,40.9008903503418,1.244937777519226,1.9889005422592163,2.8498575687408447,-0.597317636013031,-0.8085576891899109,-1.9461570978164673
424,24123,24124,5.96639847572078e-06,-0.0364966057240963,0.9993728399276733,54.25630187988281,-34.74410629272461,47.15336990356445,1.246437668800354,1.9934003353118896,2.845357656478882,-0.08252178132534027,-0.29622161388397217,-1.5195425748825073
425,24133,24134,0.009265830740332603,-0.05815165862441063,0.9318826198577881,59.37319564819336,-20.866283416748047,49.59941482543945,1.2494374513626099,2.0023999214172363,2.863356828689575,-0.0502849742770195,0.2676819860935211,-0.9865381717681885
426,24143,24144,-0.026895353570580482,-0.14503905177116394,0.9285712242126465,53.70783996582031,-1.032474160194397,49.24516296386719,1.2509374618530273,2.0009000301361084,2.8798558712005615,0.1145210713148117,0.8477119207382202,-0.4914555549621582
427,24153,24154,0.0031075328588485718,-0.05486241355538368,0.9496132731437683,45.87449645996094,23.65430450439453,45.95077896118164,1.244937777519226,2.0038998126983643,2.87385630607605,-0.007911625318229198,1.3266217708587646,-0.007523532956838608
428,24163,24164,0.08690133690834045,0.0030078869313001633,0.9153978228569031,34.125999450683594,41.10356903076172,42.36277770996094,1.2539372444152832,2.009899377822876,2.8828558921813965,-0.4914597272872925,1.659854769706726,0.4641493260860443
429,24173,24174,0.09400410205125809,-0.059134822338819504,0.8354856967926025,24.33521842956543,50.09889602661133,38.002315521240234,1.2404379844665527,2.011399507522583,2.863356828689575,-0.789111852645874,1.9622483253479004,0.8676801919937134
430,24183,24184,0.061499036848545074,-0.06285877525806427,0.9205406308174133,7.807518005371094,45.04868698120117,33.521697998046875,1.2389379739761353,2.015899181365967,2.867856502532959,-1.3222293853759766,2.1629276275634766,1.2525869607925415
431,24193,24194,0.008266771212220192,-0.1193641722202301,0.922320544719696,-15.084692001342773,20.443037033081055,30.505226135253906,1.2404379844665527,1.999400019645691,2.8573570251464844,-1.675450086593628,2.111309766769409,1.5837812423706055
432,24203,24204,-0.0009996858425438404,-0.025006990879774094,0.9330366253852844,-36.835323333740234,-17.231611251831055,28.30603790283203,1.231438398361206,2.008399486541748,2.8603570461273193,-1.573395013809204,1.7268340587615967,1.8544459342956543
433,24213,24214,0.054460957646369934,0.13033273816108704,0.9859683513641357,-43.9838752746582,-44.293270111083984,26.609758377075195,1.2494374513626099,2.014399290084839,2.8753561973571777,-1.1552222967147827,1.2984341382980347,2.1223227977752686
434,24223,24224,0.08895008265972137,0.09664855897426605,1.0176284313201904,-38.12819290161133,-51.53061294555664,22.94059944152832,1.2344383001327515,2.0233988761901855,2.8813557624816895,-0.6127007007598877,0.8189664483070374,2.3572168350219727
435,24233,24234,0.07825802266597748,-0.008836607448756695,0.956800103187561,-23.454360961914062,-39.06124496459961,20.687196731567383,1.244937777519226,2.0428977012634277,2.888855457305908,-0.12378551065921783,0.47555413842201233,2.5692803859710693
436,24243,24244,0.0823475793004036,-0.017995262518525124,0.8967288136482239,1.661421775817871,-6.701415061950684,17.255786895751953,1.244937777519226,2.030898332595825,2.891855239868164,0.2646985650062561,0.573418378829956,2.8102548122406006
437,24253,24254,0.032396987080574036,0.034689873456954956,0.9369718432426453,26.220619201660156,30.074275970458984,13.08853816986084,1.2494374513626099,2.0533971786499023,2.917354106903076,-0.06179329752922058,0.7154422402381897,2.9527363777160645
438,24263,24264,0.0358550101518631,-0.011767847463488579,0.9128625392913818,38.968772888183594,58.423439025878906,9.97732925415039,1.2404379844665527,2.0713963508605957,2.926353693008423,-0.5925710201263428,1.147538423538208,3.0859339237213135
439,24273,24274,-0.026535743847489357,-0.04582211375236511,0.9225648045539856,34.600704193115234,75.18822479248047,7.013248443603516,1.2359381914138794,2.0758962631225586,2.9578521251678467,-1.36199951171875,1.4758062362670898,3.170285940170288
440,24283,24284,0.046824946999549866,-0.0266973115503788,0.9494417905807495,15.196139335632324,77.38455200195312,6.5175604820251465,1.2359381914138794,2.084895610809326,2.9668517112731934,-2.131195306777954,1.941560983657837,3.292903423309326
441,24293,24294,0.13486690819263458,-0.05863649398088455,1.0131826400756836,-7.6921539306640625,57.32729721069336,4.986835479736328,1.2194390296936035,2.095395088195801,2.980350971221924,-2.744511127471924,1.823723316192627,3.355512857437134
442,24303,24304,0.07088539749383926,-0.01518242247402668,0.9915802478790283,-23.87779426574707,25.337905883789062,0.31841588020324707,1.2194390296936035,2.095395088195801,2.977351188659668,-3.386023998260498,1.5786774158477783,3.358593702316284
443,24313,24314,0.03682641685009003,0.012504021637141705,0.9943662881851196,-37.18977737426758,-8.230403900146484,-5.9204888343811035,1.232938289642334,2.114894151687622,3.002849817276001,-3.334240436553955,1.3180168867111206,3.368255853652954
444,24323,24324,-0.01812175288796425,0.033466458320617676,0.9436050653457642,-46.35209274291992,-36.9466552734375,-12.029792785644531,1.231438398361206,2.1103944778442383,3.0073494911193848,-3.107982873916626,0.8395050764083862,3.2636477947235107
445,24333,24334,-0.010771953500807285,-0.01630902849137783,1.018730640411377,-52.664432525634766,-57.011634826660156,-16.705774307250977,1.232938289642334,2.1328933238983154,3.0118494033813477,-2.399477958679199,0.3695639669895172,3.1664881706237793
446,24343,24344,0.0332883782684803,-0.14449194073677063,1.070515751838684,-43.57986068725586,-76.80049133300781,-20.9720516204834,1.2359381914138794,2.147892475128174,3.032848358154297,-1.727015495300293,-0.21059300005435944,2.956359386444092
447,24353,24354,-0.03067014366388321,-0.11084513366222382,1.111424446105957,-24.650455474853516,-83.13561248779297,-23.27879524230957,1.244937777519226,2.1538922786712646,3.032848358154297,-0.9139284491539001,-0.49802693724632263,2.7620763778686523
448,24363,24364,0.011663679964840412,-0.027746152132749557,1.0991002321243286,-3.7711362838745117,-69.35566711425781,-23.418621063232422,1.2584370374679565,2.149392604827881,3.0373480319976807,-0.052086904644966125,-0.6094728708267212,2.557466983795166
449,24373,24374,0.005824425257742405,-0.03102392517030239,1.120943307876587,16.393695831298828,-49.81184387207031,-21.609548568725586,1.2584370374679565,2.1283936500549316,3.0223488807678223,0.7664416432380676,-0.5250641107559204,2.367093563079834
450,24383,24384,-0.02770453505218029,-0.03411582484841347,1.1310285329818726,27.206449508666992,-22.853620529174805,-19.795719146728516,1.2569371461868286,2.120893955230713,2.999850034713745,1.0050631761550903,-0.21101035177707672,2.1710267066955566
451,24393,24394,0.005768585484474897,-0.004793889354914427,1.124912977218628,18.27847671508789,13.744946479797363,-19.534549713134766,1.2524373531341553,2.092395305633545,2.944352626800537,0.9653186798095703,0.09795433282852173,1.9843636751174927
452,24403,24404,0.017364511266350746,-0.06060958653688431,1.05193030834198,2.141313076019287,43.39723587036133,-20.55868148803711,1.2509374618530273,2.1028947830200195,2.9488525390625,0.5680725574493408,0.20801129937171936,1.7774180173873901
453,24413,24414,0.03648333251476288,-0.013435425236821175,1.0784562826156616,-14.16813850402832,59.21147918701172,-20.758853912353516,1.247937560081482,2.1028947830200195,2.9548521041870117,-0.2362271249294281,0.11398722231388092,1.5536147356033325
454,24423,24424,0.005877011921256781,-0.03447380289435387,1.047446846961975,-27.752763748168945,59.931331634521484,-21.21442985534668,1.2389379739761353,2.1058945655822754,2.9638516902923584,-0.7059820294380188,-0.15981480479240417,1.3368852138519287
455,24433,24434,0.028974249958992004,-0.010439659468829632,1.051324725151062,-35.48740005493164,47.01271438598633,-20.360891342163086,1.2359381914138794,2.1028947830200195,2.9608519077301025,-1.336956262588501,-0.5550525784492493,1.1099933385849
456,24443,24444,-0.007783499546349049,-0.01384802907705307,1.0433276891708374,-34.885963439941406,23.0311222076416,-19.00985336303711,1.232938289642334,2.084895610809326,2.945852756500244,-1.544685959815979,-0.9577659964561462,0.9028853178024292
457,24453,24454,0.019251178950071335,-0.017670663073658943,1.0348647832870483,-29.45195770263672,0.10091163963079453,-18.82168197631836,1.2269386053085327,2.0818958282470703,2.92185378074646,-1.7958333492279053,-1.2502307891845703,0.7171053290367126
458,24463,24464,0.008720812387764454,0.002972349990159273,1.0413650274276733,-18.52745819091797,-19.130847930908203,-19.3832950592041,1.2299385070800781,2.0698964595794678,2.918853998184204,-1.5969510078430176,-1.498738408088684,0.5248525142669678
459,24473,24474,0.028605828061699867,0.022336941212415695,1.0291101932525635,-4.311997413635254,-35.720001220703125,-18.81648063659668,1.2179391384124756,2.063896656036377,2.92185378074646,-1.1722875833511353,-1.6252713203430176,0.3343137204647064
460,24483,24484,-0.00661131925880909,-0.02025962434709072,1.0067470073699951,12.07725715637207,-39.48928451538086,-15.753097534179688,1.2194390296936035,2.06839656829834,2.9293534755706787,-0.5341689586639404,-1.4315290451049805,0.17904788255691528
461,24493,24494,0.032414406538009644,-0.0029459334909915924,0.9927157163619995,22.0238037109375,-30.710996627807617,-11.553494453430176,1.216439127922058,2.062396764755249,2.9293534755706787,-0.13660715520381927,-1.2091649770736694,0.050914160907268524
462,24503,24504,-0.057690538465976715,-0.08772478997707367,1.0120548009872437,22.89516830444336,-20.041015625,-7.14211368560791,1.2194390296936035,2.062396764755249,2.917354106903076,-0.10877840220928192,-0.8047274947166443,0.01453319750726223
463,24513,24514,0.020823458209633827,-0.09125515073537827,0.9442451000213623,16.485477447509766,-3.1478092670440674,-3.511746406555176,1.2344383001327515,2.0473976135253906,2.9053547382354736,0.12198691815137863,-0.5680403113365173,-0.0508277490735054
464,24523,24524,0.03939749300479889,0.07149794697761536,0.9999790191650391,4.916131019592285,4.719244956970215,-1.5010178089141846,1.2224388122558594,2.0563971996307373,2.899354934692383,0.0574512854218483,-0.610692024230957,-0.08767044544219971
465,24533,24534,0.1513756662607193,0.0517900288105011,0.9740258455276489,-5.198333740234375,7.096377849578857,0.2598780393600464,1.2524373531341553,2.0473976135253906,2.8873555660247803,-0.1096220314502716,-0.6180782318115234,-0.08036766201257706
466,24543,24544,0.20449839532375336,0.0957215204834938,0.9921169877052307,-9.888140678405762,2.2557144165039062,1.8377561569213867,1.2524373531341553,2.0443978309631348,2.9083545207977295,-0.1353827565908432,-0.7650815844535828,-0.0805167704820633
467,24553,24554,0.021201450377702713,-0.010278264060616493,0.9668510556221008,-7.790191650390625,-3.5401968955993652,2.446068286895752,1.2359381914138794,2.03389835357666,2.8828558921813965,-0.14789718389511108,-0.944498598575592,-0.06336430460214615
468,24563,24564,0.1790723204612732,0.029294805601239204,0.9850557446479797,-4.557774066925049,-5.823112964630127,2.46504807472229,1.2434377670288086,2.035398244857788,2.8813557624816895,-0.1482774317264557,-0.9393130540847778,-0.026495222002267838
469,24573,24574,0.05189864709973335,-0.13415808975696564,0.9692297577857971,2.160111665725708,-12.721541404724121,0.8008558750152588,1.2494374513626099,2.0233988761901855,2.866356611251831,0.008061078377068043,-0.9389305710792542,-0.014972200617194176
470,24583,24584,0.015570085495710373,-0.012920976616442204,1.0144768953323364,8.870063781738281,-10.88582992553711,-1.7861970663070679,1.247937560081482,2.036898136138916,2.8858556747436523,0.21589094400405884,-0.8970534205436707,-0.03384944796562195
471,24593,24594,-0.01592634618282318,-0.03333621472120285,0.9940662980079651,10.909995079040527,-8.01063346862793,-3.978618621826172,1.2554372549057007,2.0473976135253906,2.9053547382354736,0.3228195905685425,-0.7608366012573242,-0.0619649812579155
472,24603,24604,0.02254236862063408,-0.032628800719976425,0.9783902168273926,8.077459335327148,-5.40342378616333,-4.232950687408447,1.2389379739761353,2.0458977222442627,2.897855043411255,0.45142045617103577,-0.614464282989502,-0.11224409192800522
473,24613,24614,0.039125099778175354,-0.004132779315114021,0.9904367923736572,2.681164026260376,-2.3862574100494385,-3.8686881065368652,1.247937560081482,2.0488975048065186,2.897855043411255,0.51995450258255,-0.5369855761528015,-0.1572168618440628
474,24623,24624,0.08469315618276596,-0.035152848809957504,0.9593482613563538,-1.258597493171692,2.769219160079956,-3.9298903942108154,1.2434377670288086,2.0473976135253906,2.9113543033599854,0.44509807229042053,-0.5382630825042725,-0.18293491005897522
475,24633,24634,0.029629644006490707,-0.033812884241342545,0.9801369309425354,-3.4553489685058594,3.5447216033935547,-2.9861788749694824,1.246437668800354,2.0533971786499023,2.9143543243408203,0.4614635109901428,-0.5984119176864624,-0.22728843986988068
476,24643,24644,0.04194983094930649,0.08933617174625397,1.029312252998352,-2.990671157836914,4.305979251861572,-3.096423625946045,1.2419378757476807,2.0488975048065186,2.924853801727295,0.18309497833251953,-0.6809720993041992,-0.20916521549224854
477,24653,24654,0.0010707740439102054,-0.0002343110681977123,1.0095657110214233,2.0746266841888428,5.612245559692383,-3.393848419189453,1.247937560081482,2.060896873474121,2.9128541946411133,0.10740184038877487,-0.7204098701477051,-0.23707109689712524
478,24663,24664,0.06850973516702652,-0.039979323744773865,1.0713211297988892,7.552151203155518,3.3456990718841553,-2.964318037033081,1.2494374513626099,2.0713963508605957,2.9143543243408203,0.03595658019185066,-0.6064673066139221,-0.27078744769096375
479,24673,24674,0.01169824693351984,-0.043438274413347244,1.0317587852478027,11.608926773071289,-1.533477544784546,-2.358301877975464,1.2584370374679565,2.059396982192993,2.923353672027588,0.09329478442668915,-0.5525507926940918,-0.3091941475868225
480,24683,24684,0.007827576249837875,-0.012400253675878048,1.0351157188415527,12.471736907958984,-6.0050811767578125,-1.279162883758545,1.2419378757476807,2.0698964595794678,2.9308533668518066,0.15441295504570007,-0.37519538402557373,-0.3374521732330322
481,24693,24694,0.01938776858150959,-0.015947293490171432,1.028427004814148,10.226907730102539,-8.299203872680664,-0.6571595668792725,1.244937777519226,2.060896873474121,2.9338531494140625,0.27390652894973755,-0.20742738246917725,-0.36050114035606384
482,24703,24704,-0.001844913698732853,-0.04136495292186737,1.0118825435638428,7.565635681152344,-7.842369556427002,-0.029824834316968918,1.2419378757476807,2.0758962631225586,2.945852756500244,0.4157204031944275,-0.14787429571151733,-0.3723355829715729
