,timestamp_start,timestamp_end,acc.x,acc.y,acc.z,gyro.x,gyro.y,gyro.z,mag.x,mag.y,mag.z,stabilizer.pitch,stabilizer.roll,stabilizer.yaw
0,141518,141519,0.09801051765680313,-0.05343170464038849,0.9205516576766968,-51.22108459472656,-24.406217575073242,-23.111906051635742,1.283935785293579,2.0188989639282227,2.87385630607605,0.8213295340538025,1.6313347816467285,-0.8872213959693909
1,141528,141529,0.1645662486553192,-0.1112709492444992,0.8930122256278992,-48.79299545288086,-27.44015884399414,-23.148643493652344,1.298935055732727,2.060896873474121,2.9368531703948975,1.147019624710083,1.0770564079284668,-1.104628086090088
2,141538,141539,0.19291850924491882,0.0035407585091888905,0.9935798645019531,-42.47001266479492,-22.50632095336914,-21.13265609741211,1.2779361009597778,2.0818958282470703,2.9308533668518066,1.3500561714172363,0.587177038192749,-1.3430321216583252
3,141548,141549,0.19985589385032654,0.05500154569745064,0.9990610480308533,-35.866172790527344,-15.428032875061035,-18.577434539794922,1.2884355783462524,2.0803959369659424,2.9413528442382812,1.688232183456421,0.19188320636749268,-1.5497992038726807
4,141558,141559,0.08934742957353592,0.010733501054346561,0.9804622530937195,-25.473073959350586,-7.956495761871338,-14.055108070373535,1.2809358835220337,2.093895196914673,2.951852321624756,1.7534960508346558,-0.013854116201400757,-1.7563362121582031
5,141568,141569,0.03292892500758171,0.03727473318576813,1.0150014162063599,-7.270333290100098,4.2719855308532715,-11.53248119354248,1.2809358835220337,2.087895631790161,2.951852321624756,1.8196521997451782,-0.3802783787250519,-1.881890058517456
6,141578,141579,0.050382718443870544,0.018435878679156303,1.0279632806777954,7.156665802001953,9.024879455566406,-10.505768775939941,1.2824358940124512,2.0773961544036865,2.9383530616760254,1.7243452072143555,-0.4630235731601715,-1.9944136142730713
7,141588,141589,-0.006464559584856033,0.014420300722122192,1.0825992822647095,20.086885452270508,15.283842086791992,-9.173190116882324,1.2674366235733032,2.0833957195281982,2.9413528442382812,1.6170967817306519,-0.3158893883228302,-2.1093969345092773
8,141598,141599,0.04043586552143097,-0.03757601976394653,1.1379660367965698,22.63480567932129,19.890987396240234,-7.977325916290283,1.2809358835220337,2.0998950004577637,2.9578521251678467,1.4011597633361816,-0.06411859393119812,-2.20225191116333
9,141608,141609,0.1710783839225769,-0.004021195229142904,1.1292632818222046,21.774648666381836,22.203264236450195,-5.3701324462890625,1.2719364166259766,2.096895217895508,2.945852756500244,1.334924578666687,0.0015959709417074919,-2.2744948863983154
10,141618,141619,0.13856928050518036,0.026400571689009666,1.1067503690719604,17.974361419677734,27.224082946777344,-1.9212405681610107,1.2734363079071045,2.0833957195281982,2.950352430343628,1.002944827079773,0.19325405359268188,-2.305842638015747
11,141628,141629,0.14441834390163422,-0.02222238853573799,1.115048885345459,15.382089614868164,20.559038162231445,0.5365200042724609,1.2779361009597778,2.0758962631225586,2.9398529529571533,0.8357725143432617,0.3252129554748535,-2.3351457118988037
12,141638,141639,0.07832425087690353,-0.10875338315963745,1.059097409248352,12.158591270446777,4.906870365142822,1.9982578754425049,1.2689365148544312,2.0548973083496094,2.924853801727295,0.7413684725761414,0.5698060989379883,-2.360133171081543
13,141648,141649,-0.008445559069514275,-0.09875233471393585,1.020633339881897,1.2628504037857056,-4.994568347930908,2.911381721496582,1.2809358835220337,2.0518972873687744,2.9038548469543457,0.6545891761779785,0.586225152015686,-2.3210256099700928
14,141658,141659,0.012778538279235363,-0.05061025172472,1.0284115076065063,-6.66859245300293,-9.664159774780273,1.707875370979309,1.2779361009597778,2.0518972873687744,2.9098544120788574,0.8429175615310669,0.5164825320243835,-2.3134918212890625
15,141668,141669,0.005781334824860096,-0.026655977591872215,1.012304663658142,-11.085508346557617,-17.70458984375,-0.7490009665489197,1.2749361991882324,2.036898136138916,2.891855239868164,0.8996195197105408,0.4007880985736847,-2.2851626873016357
16,141678,141679,0.046689581125974655,0.013784574344754219,1.0335139036178589,-14.517148971557617,-22.935049057006836,-2.3425357341766357,1.2719364166259766,2.0458977222442627,2.897855043411255,1.1557217836380005,0.21819594502449036,-2.303899049758911
17,141688,141689,0.05651155486702919,0.05085396766662598,1.021986722946167,-14.736129760742188,-20.676700592041016,-3.58862566947937,1.2884355783462524,2.0413978099823,2.899354934692383,1.3161288499832153,0.0004765910853166133,-2.307645559310913
18,141698,141699,0.03622652590274811,0.07538049668073654,0.9928116202354431,-16.03988265991211,-15.958596229553223,-3.7230606079101562,1.27643620967865,2.0503973960876465,2.896355152130127,1.5877522230148315,-0.21720802783966064,-2.3509950637817383
19,141708,141709,0.02218247391283512,0.010750795714557171,1.0060875415802002,-13.963456153869629,-1.2668267488479614,-1.0094881057739258,1.2884355783462524,2.038398027420044,2.893355369567871,1.7450993061065674,-0.37552332878112793,-2.3861467838287354
20,141718,141719,-0.03633720427751541,-0.023731309920549393,1.0524348020553589,-7.0616607666015625,22.336502075195312,3.0648539066314697,1.2779361009597778,2.036898136138916,2.8828558921813965,1.6929138898849487,-0.5452859997749329,-2.3765971660614014
21,141728,141729,-0.055417004972696304,-0.03062022291123867,1.0435532331466675,-4.181707382202148,40.4014892578125,6.609466552734375,1.2824358940124512,2.035398244857788,2.8753561973571777,1.5492256879806519,-0.6086599826812744,-2.3689064979553223
22,141738,141739,-0.06172874569892883,-0.1233106255531311,1.0242239236831665,-8.01923656463623,47.13127899169922,11.964109420776367,1.2659367322921753,2.0578970909118652,2.888855457305908,0.8651805520057678,-0.6580236554145813,-2.227774143218994
23,141748,141749,-0.029057346284389496,-0.1351976841688156,1.0728720426559448,-1.3577803373336792,40.349388122558594,17.774106979370117,1.2569371461868286,2.0548973083496094,2.888855457305908,0.6878719329833984,-0.813187301158905,-2.1919960975646973
24,141758,141759,0.018136434257030487,-0.11957866698503494,1.0864771604537964,16.106632232666016,26.022371292114258,23.213674545288086,1.2794359922409058,2.0533971786499023,2.890355348587036,0.1474975198507309,-0.7395423054695129,-1.9871453046798706
25,141768,141769,0.01767616532742977,-0.1875530332326889,1.092678427696228,38.238094329833984,23.10236167907715,23.493946075439453,1.2674366235733032,2.0413978099823,2.872356414794922,-0.05729345232248306,-0.7133638858795166,-1.7756229639053345
26,141778,141779,0.016367701813578606,-0.16886644065380096,1.1193366050720215,54.98983383178711,19.96206283569336,21.646617889404297,1.261436939239502,2.035398244857788,2.8873555660247803,-0.2935584485530853,-0.07232971489429474,-1.553033709526062
27,141788,141789,-0.008642933331429958,-0.15687057375907898,1.1162015199661255,53.504150390625,9.126615524291992,17.42626190185547,1.2659367322921753,2.039897918701172,2.8828558921813965,-0.30585405230522156,0.1669192761182785,-1.3970060348510742
28,141798,141799,0.014424258843064308,-0.1272498071193695,1.074337363243103,32.2775764465332,-2.400761604309082,13.67246150970459,1.2659367322921753,2.030898332595825,2.897855043411255,-0.49661779403686523,0.6716320514678955,-1.189831256866455
29,141808,141809,0.09037258476018906,-0.05522022768855095,1.0279724597930908,6.253766059875488,-5.2959675788879395,11.501996994018555,1.2644367218017578,2.011399507522583,2.869356393814087,-0.38882210850715637,0.8426567316055298,-1.088179111480713
30,141818,141819,0.10198332369327545,-0.045193832367658615,1.0356159210205078,-18.10188865661621,-11.130228996276855,11.893477439880371,1.2719364166259766,1.9949002265930176,2.8528573513031006,-0.360587477684021,0.878219723701477,-0.9690487384796143
31,141828,141829,0.1297871619462967,-0.002908259630203247,1.0812947750091553,-25.50686264038086,-7.49659538269043,12.185585021972656,1.2584370374679565,2.014399290084839,2.8753561973571777,-0.2728272080421448,0.6512662172317505,-0.8539467453956604
32,141838,141839,0.13097302615642548,0.008124877698719501,1.0930296182632446,-27.653444290161133,0.705798327922821,12.076191902160645,1.2779361009597778,2.00689959526062,2.8828558921813965,-0.04779951274394989,0.4476315677165985,-0.7681693434715271
33,141848,141849,0.08528521656990051,0.0037468408700078726,1.0720511674880981,-21.47483253479004,6.359549522399902,11.380033493041992,1.270436406135559,2.011399507522583,2.866356611251831,-0.08752372860908508,0.22714439034461975,-0.6336777210235596
34,141858,141859,0.026615913957357407,-0.017159173265099525,1.0354984998703003,-9.438592910766602,11.621490478515625,6.825100421905518,1.2689365148544312,2.00689959526062,2.8528573513031006,-0.2810254693031311,-0.02298027276992798,-0.48899054527282715
35,141868,141869,0.03607727959752083,-0.05661819875240326,1.022523283958435,0.6316571831703186,19.325963973999023,4.08499002456665,1.2719364166259766,2.00689959526062,2.819859027862549,-0.3620094358921051,-0.09916459023952484,-0.4184263050556183
36,141878,141879,0.09627991914749146,-0.0651807114481926,1.0329328775405884,18.286989212036133,18.901588439941406,0.9723711609840393,1.2644367218017578,1.999400019645691,2.8273584842681885,-0.5294650793075562,0.02465778775513172,-0.36353063583374023
37,141888,141889,0.12249778211116791,-0.09837763011455536,0.9452897310256958,29.04461669921875,25.297393798828125,-2.1808550357818604,1.270436406135559,1.9964001178741455,2.8243587017059326,-0.5782625675201416,-0.07751216739416122,-0.42282506823539734
38,141898,141899,0.14603926241397858,0.0109748849645257,0.9330705404281616,29.815914154052734,30.905929565429688,-2.9625930786132812,1.2584370374679565,2.005399703979492,2.8303585052490234,-0.8721876740455627,0.38421234488487244,-0.3986988365650177
39,141908,141909,0.08212339878082275,0.005015999544411898,0.9769749641418457,28.83837127685547,31.879915237426758,-2.257878541946411,1.261436939239502,2.005399703979492,2.8303585052490234,-1.3053696155548096,0.442089706659317,-0.4355260133743286
40,141918,141919,0.0712113007903099,0.03449331969022751,0.9668596982955933,27.53631019592285,28.012571334838867,2.1059024333953857,1.2599369287490845,2.0009000301361084,2.837857961654663,-1.263616681098938,0.8363485336303711,-0.5196026563644409
41,141928,141929,0.04961198568344116,-0.005672784522175789,0.9445797801017761,34.40424346923828,17.750225067138672,9.624418258666992,1.2419378757476807,1.9949002265930176,2.8228588104248047,-1.6432123184204102,1.0334583520889282,-0.49699974060058594
42,141938,141939,0.12812350690364838,-0.02473146840929985,0.9991657733917236,43.16683578491211,6.27083158493042,13.742863655090332,1.2494374513626099,1.9904004335403442,2.8303585052490234,-1.8582755327224731,1.4780727624893188,-0.37414780259132385
43,141948,141949,0.1445084512233734,-0.10378823429346085,0.9164707660675049,45.91625213623047,-9.148421287536621,14.564309120178223,1.2419378757476807,1.9889005422592163,2.8318583965301514,-1.930168628692627,1.7691951990127563,-0.27553239464759827
44,141958,141959,0.13918961584568024,-0.12892989814281464,0.8490136861801147,38.475162506103516,-23.566957473754883,13.466876029968262,1.246437668800354,1.9934003353118896,2.845357656478882,-1.8183578252792358,2.2957816123962402,-0.11975643783807755
45,141968,141969,0.013247517868876457,-0.09746156632900238,0.858153760433197,25.965803146362305,-34.95492172241211,12.050512313842773,1.2629368305206299,1.9769011735916138,2.840857982635498,-1.5429376363754272,2.6189327239990234,-0.02390100620687008
46,141978,141979,-0.010525397956371307,-0.12494249641895294,0.8230013847351074,17.293949127197266,-35.448970794677734,9.059113502502441,1.261436939239502,1.969401478767395,2.842357873916626,-1.1262344121932983,2.960566520690918,0.09290957450866699
47,141988,141989,-0.014137590304017067,-0.04750235006213188,0.8663502931594849,11.654829978942871,-27.471906661987305,3.2265217304229736,1.2599369287490845,1.9919003248214722,2.8318583965301514,-0.723759651184082,2.949455738067627,0.10191884636878967
48,141998,141999,0.07889774441719055,0.021874701604247093,0.8969919681549072,9.496237754821777,-16.330970764160156,-5.111869812011719,1.2659367322921753,1.9739012718200684,2.8228588104248047,-0.4531421661376953,3.1389710903167725,0.14738227427005768
49,142008,142009,0.18375875055789948,0.07353579252958298,0.9352726936340332,7.251847267150879,-6.579761981964111,-13.329315185546875,1.2644367218017578,1.999400019645691,2.836358070373535,-0.41926097869873047,3.3531110286712646,0.13284264504909515
50,142018,142019,0.08851560950279236,0.009715704247355461,0.936747133731842,-2.0536372661590576,0.4098171293735504,-18.822649002075195,1.27643620967865,1.9934003353118896,2.8483574390411377,-0.2672524154186249,3.4212262630462646,0.005894842091947794
51,142028,142029,0.09824361652135849,-0.05726972594857216,0.8528333902359009,-13.877134323120117,-0.03921404480934143,-21.627086639404297,1.2719364166259766,1.9889005422592163,2.840857982635498,-0.3423314690589905,3.3385009765625,-0.2008572220802307
52,142038,142039,0.012648808769881725,-0.04192301258444786,0.8414037823677063,-22.803462982177734,1.5296162366867065,-21.804378509521484,1.2644367218017578,1.9904004335403442,2.8603570461273193,-0.35285812616348267,3.14841890335083,-0.4327737092971802
53,142048,142049,-0.03706899285316467,-0.009772670455276966,0.850042998790741,-25.361696243286133,5.728214740753174,-20.721088409423828,1.2689365148544312,2.00689959526062,2.864856719970703,-0.32975465059280396,2.963696241378784,-0.6339863538742065
54,142058,142059,-0.062496718019247055,0.03529714420437813,0.8735517859458923,-23.956079483032227,12.876832008361816,-19.22862434387207,1.2599369287490845,1.9919003248214722,2.8468575477600098,-0.3147277235984802,2.6694703102111816,-0.838434100151062
55,142068,142069,-0.09280934184789658,0.04358181729912758,0.9505017995834351,-20.913753509521484,19.140287399291992,-16.361909866333008,1.2779361009597778,2.0009000301361084,2.8618569374084473,-0.5500776767730713,2.403348207473755,-1.0490700006484985
56,142078,142079,0.014476009644567966,-0.06141568347811699,0.9283191561698914,-18.987707138061523,24.523012161254883,-12.251535415649414,1.2554372549057007,2.011399507522583,2.866356611251831,-0.8786857724189758,2.2478888034820557,-1.2137562036514282
57,142088,142089,0.030518393963575363,-0.08529605716466904,0.9368039965629578,-17.160646438598633,26.973140716552734,-7.152395248413086,1.247937560081482,2.00689959526062,2.8468575477600098,-1.1349653005599976,2.1131155490875244,-1.3174800872802734
58,142098,142099,0.02565544657409191,-0.11076311022043228,0.9127532243728638,-9.570780754089355,21.322656631469727,-4.072286605834961,1.2524373531341553,1.9964001178741455,2.866356611251831,-1.2716740369796753,1.942373514175415,-1.3603956699371338
59,142108,142109,0.06092843785881996,-0.13820408284664154,0.8295795321464539,2.404094696044922,8.22254467010498,-3.051056146621704,1.2524373531341553,1.9964001178741455,2.8543572425842285,-1.4414029121398926,1.906760334968567,-1.3692175149917603
60,142118,142119,0.13794174790382385,-0.033661969006061554,0.9158152341842651,11.926170349121094,-1.983779788017273,-3.0202343463897705,1.2524373531341553,2.008399486541748,2.8603570461273193,-1.5471657514572144,1.9819436073303223,-1.380588173866272
61,142128,142129,0.20762373507022858,0.008577280677855015,0.95357346534729,12.985701560974121,-6.171952724456787,-2.859029769897461,1.247937560081482,1.9949002265930176,2.8618569374084473,-1.5650933980941772,2.1755995750427246,-1.3895103931427002
62,142138,142139,0.20915523171424866,0.04733875021338463,0.9320602416992188,7.157870769500732,-8.238024711608887,-3.4501256942749023,1.2539372444152832,2.00689959526062,2.843857765197754,-1.5056140422821045,2.2317609786987305,-1.4418751001358032
63,142148,142149,0.02659568190574646,0.012349494732916355,0.8937048316001892,-4.441424369812012,-4.981203556060791,-5.913236141204834,1.261436939239502,1.999400019645691,2.869356393814087,-1.354617953300476,2.3254077434539795,-1.464206337928772
64,142158,142159,0.03793507441878319,-0.0006835957756265998,0.9406559467315674,-17.71721076965332,10.194096565246582,-7.060000896453857,1.2434377670288086,1.999400019645691,2.863356828689575,-1.1817039251327515,2.2162771224975586,-1.526676058769226
65,142168,142169,-0.009250554256141186,0.03353457152843475,1.0231291055679321,-39.579280853271484,22.47236442565918,-6.958953380584717,1.261436939239502,2.011399507522583,2.869356393814087,-1.1021000146865845,1.945755958557129,-1.5958772897720337
66,142178,142179,0.017176968976855278,0.04845953732728958,1.0474740266799927,-64.505859375,27.58132553100586,-4.9739813804626465,1.2584370374679565,2.0263986587524414,2.8783559799194336,-1.2113924026489258,1.7221325635910034,-1.595292568206787
67,142188,142189,0.02693990431725979,-0.019978975877165794,1.0042362213134766,-80.37704467773438,20.93077850341797,-0.6433942317962646,1.261436939239502,2.035398244857788,2.9083545207977295,-1.7275959253311157,0.9094492197036743,-1.738397240638733
68,142198,142199,0.04975394532084465,-0.025911014527082443,0.9563193321228027,-86.2630386352539,7.415915012359619,6.011498928070068,1.2629368305206299,2.0458977222442627,2.9068546295166016,-1.956188678741455,0.15821291506290436,-1.7382179498672485
69,142208,142209,0.0285644568502903,-0.0399981327354908,0.9713101983070374,-71.11695861816406,-9.801135063171387,12.222821235656738,1.247937560081482,2.0488975048065186,2.9038548469543457,-1.815605640411377,-0.7133135795593262,-1.6622958183288574
70,142218,142219,0.05252920463681221,0.044417690485715866,1.0004689693450928,-32.500144958496094,-19.462392807006836,16.222702026367188,1.2569371461868286,2.0488975048065186,2.9068546295166016,-1.7145779132843018,-1.204820156097412,-1.4670350551605225
71,142228,142229,0.002938956720754504,0.07188278436660767,1.0104024410247803,11.329883575439453,-24.100048065185547,18.570846557617188,1.261436939239502,2.0533971786499023,2.896355152130127,-1.5388169288635254,-1.49673593044281,-1.2813711166381836
72,142238,142239,0.017341701313853264,0.06706133484840393,1.0181331634521484,44.32210159301758,-23.69725799560547,20.881423950195312,1.270436406135559,2.0503973960876465,2.896355152130127,-1.4363617897033691,-1.3190929889678955,-1.0585283041000366
73,142248,142249,0.04485463351011276,0.01015109196305275,1.0069680213928223,65.7451171875,-8.003336906433105,20.736623764038086,1.2539372444152832,2.0428977012634277,2.918853998184204,-1.2389273643493652,-0.9115877151489258,-0.8511757850646973
74,142258,142259,0.06770450621843338,-0.03186594694852829,0.9888680577278137,67.89678192138672,5.0692315101623535,19.675748825073242,1.2554372549057007,2.0473976135253906,2.9113543033599854,-1.2031463384628296,-0.3354918956756592,-0.661061704158783
75,142268,142269,0.12188932299613953,0.010159741155803204,0.9890462160110474,46.727134704589844,18.203956604003906,21.442928314208984,1.2539372444152832,2.063896656036377,2.918853998184204,-1.248142123222351,0.48947203159332275,-0.4186229407787323
76,142278,142279,0.12308893352746964,0.0622849315404892,1.0111303329467773,18.45816421508789,20.15437889099121,25.42703628540039,1.2584370374679565,2.038398027420044,2.899354934692383,-1.3759897947311401,0.7383272647857666,-0.2902440130710602
77,142288,142289,0.08966392278671265,0.05551368370652199,1.0283681154251099,-2.6627743244171143,13.989291191101074,30.33929443359375,1.2554372549057007,2.035398244857788,2.9053547382354736,-1.5894885063171387,0.8502326011657715,-0.06930158287286758
78,142298,142299,0.03603139519691467,0.00659159617498517,1.0434762239456177,-10.418604850769043,8.44786548614502,33.29096984863281,1.261436939239502,2.038398027420044,2.896355152130127,-1.70964777469635,0.8663446307182312,0.2314060479402542
79,142308,142309,-0.03288915753364563,0.040333885699510574,1.0385388135910034,-7.485194683074951,-0.056785698980093,31.915525436401367,1.2539372444152832,2.030898332595825,2.9068546295166016,-1.8678581714630127,0.7169597744941711,0.5495049357414246
80,142318,142319,-0.03413896635174751,0.07492788881063461,0.993969738483429,0.11343616247177124,-2.2398245334625244,27.42528533935547,1.2569371461868286,2.0278985500335693,2.8768560886383057,-1.7651654481887817,0.6242595911026001,0.8500860929489136
81,142328,142329,0.04792836308479309,0.08811120688915253,0.9915436506271362,11.829888343811035,1.5289888381958008,21.537046432495117,1.2689365148544312,2.015899181365967,2.870856523513794,-1.7885537147521973,0.6700998544692993,1.146437168121338
82,142338,142339,0.07791595160961151,0.018496260046958923,1.0206220149993896,23.07465171813965,9.474021911621094,14.464781761169434,1.2539372444152832,2.0038998126983643,2.87385630607605,-1.8757193088531494,0.829214870929718,1.3864988088607788
83,142348,142349,0.08366092294454575,-0.11113347113132477,0.9994176030158997,24.73162269592285,19.285676956176758,7.368716239929199,1.2419378757476807,2.0218989849090576,2.867856502532959,-1.9469736814498901,1.208767056465149,1.5878018140792847
84,142358,142359,0.07856377959251404,-0.13141952455043793,0.9632754325866699,19.06617546081543,27.6436767578125,0.5329259634017944,1.2524373531341553,2.0263986587524414,2.869356393814087,-1.9593788385391235,1.4471206665039062,1.6498498916625977
85,142368,142369,0.06432974338531494,-0.06693608313798904,0.9283842444419861,4.1536054611206055,30.38949966430664,-2.450314998626709,1.247937560081482,2.012899398803711,2.864856719970703,-2.448044538497925,1.6352028846740723,1.6870782375335693
86,142378,142379,0.10098312050104141,0.03076421469449997,1.0134025812149048,-15.901703834533691,21.330671310424805,-2.146636962890625,1.2389379739761353,2.0188989639282227,2.867856502532959,-2.651719570159912,1.5997334718704224,1.640068531036377
87,142388,142389,0.07111025601625443,-0.022113054990768433,1.003751516342163,-18.648916244506836,3.376258134841919,-1.45772123336792,1.2419378757476807,2.012899398803711,2.870856523513794,-2.8840572834014893,1.370031714439392,1.5975338220596313
88,142398,142399,0.07377316802740097,0.0457434318959713,1.0595760345458984,-6.674919128417969,-15.081890106201172,-0.7366218566894531,1.2554372549057007,2.0023999214172363,2.863356828689575,-2.8310065269470215,1.163939356803894,1.5702375173568726
89,142408,142409,0.061590734869241714,-0.020134253427386284,0.9962846636772156,10.222223281860352,-32.55656814575195,1.0955305099487305,1.2419378757476807,1.9979000091552734,2.8498575687408447,-2.5362589359283447,1.111434817314148,1.5584710836410522
90,142418,142419,0.03771871328353882,-0.09723721444606781,0.9494489431381226,29.276451110839844,-42.69437789916992,-0.5408064723014832,1.2434377670288086,2.0023999214172363,2.8513574600219727,-2.0802927017211914,1.3276642560958862,1.6012791395187378
91,142428,142429,-0.02165204845368862,-0.12572579085826874,0.939471960067749,39.10551452636719,-40.36164855957031,-3.6025593280792236,1.246437668800354,2.011399507522583,2.869356393814087,-1.7193595170974731,1.7395275831222534,1.6372551918029785
92,142438,142439,-0.03206982463598251,-0.1071128398180008,0.9133864045143127,27.23548126220703,-25.74298667907715,-7.749946594238281,1.2374380826950073,2.032398223876953,2.8873555660247803,-1.3663380146026611,2.0229783058166504,1.554998517036438
93,142448,142449,0.017523624002933502,-0.006585757713764906,0.9645921587944031,-3.1154370307922363,-1.310834527015686,-10.725132942199707,1.2494374513626099,2.014399290084839,2.8753561973571777,-1.12993586063385,2.1997382640838623,1.439985990524292
94,142458,142459,0.15087738633155823,0.03855161368846893,0.987695038318634,-42.424869537353516,19.95517349243164,-13.408696174621582,1.2539372444152832,2.012899398803711,2.8558571338653564,-1.2494300603866577,2.2002804279327393,1.3454101085662842
95,142468,142469,0.18687774240970612,-0.0362018384039402,1.0235151052474976,-76.02428436279297,35.29268264770508,-14.683638572692871,1.2569371461868286,1.9979000091552734,2.8468575477600098,-1.4741709232330322,1.649726152420044,1.1729291677474976
96,142478,142479,0.08876542747020721,-0.0564410425722599,1.058058738708496,-89.73919677734375,51.37432098388672,-10.564111709594727,1.2344383001327515,2.005399703979492,2.8603570461273193,-1.6957851648330688,1.0259774923324585,1.0817923545837402
97,142488,142489,0.0026663749013096094,-0.11227710545063019,1.0718090534210205,-77.2451400756836,61.56098175048828,-6.205462455749512,1.246437668800354,2.0413978099823,2.8603570461273193,-2.36448073387146,-0.01878168247640133,0.9242522120475769
98,142498,142499,-0.008800389245152473,-0.15080714225769043,0.9711647629737854,-44.44601058959961,61.5576286315918,-3.1206705570220947,1.2434377670288086,2.0263986587524414,2.8573570251464844,-3.2492380142211914,-0.928192138671875,0.807404100894928
99,142508,142509,-0.02593742124736309,-0.13713803887367249,1.019165277481079,-9.046695709228516,38.09088897705078,1.1745318174362183,1.231438398361206,2.032398223876953,2.863356828689575,-3.4000096321105957,-1.2011703252792358,0.8238751292228699
100,142518,142519,0.020435770973563194,-0.03002168796956539,1.0738998651504517,20.873458862304688,4.29449987411499,6.947305679321289,1.2359381914138794,2.0038998126983643,2.8558571338653564,-3.8984155654907227,-1.2145131826400757,0.866550624370575
101,142528,142529,0.013518610037863255,-0.027133267372846603,1.0287493467330933,40.45595169067383,-24.143138885498047,10.699854850769043,1.2389379739761353,2.00689959526062,2.8558571338653564,-3.8711564540863037,-0.9600282907485962,0.9471513628959656
102,142538,142539,0.022951792925596237,-0.027907175943255424,1.034271478652954,47.79792022705078,-50.68888473510742,14.314453125,1.2284384965896606,2.008399486541748,2.8513574600219727,-3.415609121322632,-0.29332295060157776,1.1406166553497314
103,142548,142549,0.049738820642232895,-0.02802756428718567,1.0440090894699097,45.9992790222168,-82.99406433105469,15.575058937072754,1.244937777519226,2.015899181365967,2.867856502532959,-3.0465736389160156,0.08027920126914978,1.25287663936615
104,142558,142559,0.07032527029514313,-0.07190629094839096,0.9748936891555786,40.72813415527344,-111.46939849853516,15.6232271194458,1.270436406135559,2.0293984413146973,2.8873555660247803,-1.7107881307601929,0.5624316930770874,1.3429558277130127
105,142568,142569,0.05470443516969681,-0.13137087225914001,0.9864526391029358,27.601268768310547,-126.32571411132812,16.879669189453125,1.2659367322921753,2.036898136138916,2.9068546295166016,-0.9274035692214966,0.9287934899330139,1.5123084783554077
106,142578,142579,0.024376071989536285,-0.07936901599168777,0.9742246866226196,13.942952156066895,-114.25945281982422,14.885082244873047,1.2719364166259766,2.039897918701172,2.9098544120788574,0.3948250412940979,1.149852991104126,1.625349521636963
107,142588,142589,0.006783077027648687,-0.045932598412036896,0.9785259366035461,-2.6020989418029785,-78.7257080078125,11.678056716918945,1.2959351539611816,2.039897918701172,2.888855457305908,1.0785090923309326,1.2752271890640259,1.8012017011642456
108,142598,142599,0.005380307324230671,-0.0556151457130909,0.9685184955596924,-17.01141929626465,-33.29201889038086,7.471901893615723,1.2869356870651245,2.0038998126983643,2.8498575687408447,1.9509881734848022,1.1448678970336914,1.8644176721572876
109,142608,142609,0.039112284779548645,-0.04291224852204323,0.9630793929100037,-26.59213638305664,11.366333961486816,4.495007038116455,1.2809358835220337,2.009899377822876,2.8228588104248047,2.2859294414520264,1.0148425102233887,1.942594051361084
110,142618,142619,0.03827253356575966,-0.03797359764575958,0.9753218293190002,-28.38038444519043,56.5423583984375,2.196554183959961,1.2629368305206299,2.009899377822876,2.8228588104248047,1.93791663646698,0.6854579448699951,2.0010411739349365
111,142628,142629,0.03465608134865761,-0.048210833221673965,0.9620945453643799,-27.28838539123535,79.00141143798828,-0.3772048056125641,1.247937560081482,2.0248987674713135,2.8588569164276123,1.3930795192718506,0.5458104610443115,2.041317939758301
112,142638,142639,0.04794327914714813,-0.06721224635839462,0.9456210136413574,-23.669288635253906,78.39617156982422,-2.3920135498046875,1.2734363079071045,2.0413978099823,2.8783559799194336,0.4214251637458801,0.21480511128902435,2.057826280593872
113,142648,142649,0.035941626876592636,-0.04038504138588905,0.9643397927284241,-18.132827758789062,59.15410614013672,-4.117469787597656,1.2674366235733032,2.0473976135253906,2.866356611251831,0.019529391080141068,0.08748853206634521,2.0071475505828857
114,142658,142659,0.1384752094745636,0.0008051272598095238,0.9876949191093445,-9.15781021118164,33.41880798339844,-6.395953178405762,1.2494374513626099,2.035398244857788,2.863356828689575,-0.7533928155899048,-0.07590155303478241,1.9839190244674683
115,142668,142669,0.09781035780906677,-0.013311529532074928,0.9638553857803345,0.06230167672038078,-4.725955963134766,-9.311758995056152,1.2434377670288086,2.005399703979492,2.83935809135437,-0.9617490768432617,-0.08175750821828842,1.9104959964752197
116,142678,142679,0.07587599754333496,-0.051732078194618225,0.8878639340400696,4.365416049957275,-35.59929275512695,-11.54425048828125,1.247937560081482,2.0009000301361084,2.816859006881714,-0.7746054530143738,-0.1197851151227951,1.800193190574646
117,142688,142689,0.05251609906554222,-0.045112643390893936,0.9307907223701477,10.027082443237305,-52.673892974853516,-13.430902481079102,1.2569371461868286,2.0009000301361084,2.8228588104248047,-0.2496703416109085,0.05617908388376236,1.6683995723724365
118,142698,142699,0.06078649312257767,-0.01797330752015114,0.9622588157653809,13.200226783752441,-47.93612289428711,-18.31907081604004,1.2584370374679565,1.999400019645691,2.842357873916626,0.24043092131614685,0.17081831395626068,1.5384069681167603
119,142708,142709,0.024566370993852615,-0.004204421769827604,0.9697333574295044,1.69892156124115,-33.68223190307617,-21.0863094329834,1.261436939239502,2.008399486541748,2.836358070373535,0.6860285997390747,0.3510202169418335,1.3610036373138428
120,142718,142719,0.026264231652021408,0.003041523275896907,0.9440096616744995,-19.807178497314453,-13.16872787475586,-25.078659057617188,1.2509374618530273,2.012899398803711,2.816859006881714,1.1412131786346436,0.3008078634738922,1.1343445777893066
121,142728,142729,0.06670908629894257,-0.04952526092529297,0.883681058883667,-37.42320251464844,6.6484150886535645,-27.31239891052246,1.2629368305206299,1.9889005422592163,2.8318583965301514,1.2951043844223022,0.0855587050318718,0.8869789838790894
122,142738,142739,0.05474129691720009,-0.033220864832401276,0.9428375959396362,-59.50981903076172,31.714683532714844,-24.72361946105957,1.2509374618530273,2.0038998126983643,2.8318583965301514,1.0910553932189941,-0.3142496943473816,0.6391057968139648
123,142748,142749,0.06454560160636902,-0.012918726541101933,0.9836691617965698,-74.48329162597656,50.702972412109375,-22.25780487060547,1.2674366235733032,2.0263986587524414,2.845357656478882,0.8648726940155029,-0.9019509553909302,0.3794037997722626
124,142758,142759,0.04629801958799362,-0.021441610530018806,1.0027964115142822,-70.56909942626953,58.09665298461914,-18.977317810058594,1.2659367322921753,2.0488975048065186,2.864856719970703,0.0396670401096344,-1.666215181350708,0.19856026768684387
125,142768,142769,0.07207921892404556,0.004652937408536673,1.0647969245910645,-53.8945426940918,64.57559967041016,-16.370119094848633,1.2644367218017578,2.0293984413146973,2.8573570251464844,-0.47286245226860046,-2.0475013256073,-0.060945119708776474
126,142778,142779,0.058528099209070206,-0.0031188607681542635,1.0504339933395386,-18.74767303466797,54.869789123535156,-14.304923057556152,1.246437668800354,2.0413978099823,2.8483574390411377,-1.1866326332092285,-2.8739962577819824,-0.20408359169960022
127,142788,142789,0.056588057428598404,-0.049690086394548416,1.0901801586151123,23.71937370300293,35.40656661987305,-14.517902374267578,1.2569371461868286,2.0488975048065186,2.8828558921813965,-1.2980551719665527,-2.9821419715881348,-0.48322048783302307
128,142798,142799,0.06414613872766495,-0.1039813831448555,1.0912917852401733,68.52857208251953,0.29397520422935486,-10.988935470581055,1.2419378757476807,2.0428977012634277,2.8828558921813965,-1.6999056339263916,-2.564664840698242,-0.643251359462738
129,142808,142809,0.07104496657848358,-0.014647325500845909,1.0849401950836182,99.49867248535156,-41.921451568603516,-5.1050262451171875,1.2404379844665527,2.0503973960876465,2.917354106903076,-1.5457141399383545,-2.020805597305298,-0.792892575263977
130,142818,142819,0.043641529977321625,-0.04364938661456108,1.0144973993301392,106.2042007446289,-64.6158676147461,0.19827648997306824,1.246437668800354,2.06839656829834,2.9383530616760254,-1.0761383771896362,-0.7836365699768066,-0.871742308139801
131,142828,142829,0.05725553631782532,-0.14132104814052582,0.9874826073646545,87.124755859375,-74.20359802246094,4.903284072875977,1.246437668800354,2.0443978309631348,2.9323532581329346,-0.44061198830604553,0.055418893694877625,-0.8586596250534058
132,142838,142839,0.036063309758901596,-0.07271293550729752,0.9646564722061157,36.26667404174805,-74.24612426757812,7.817110061645508,1.2644367218017578,2.032398223876953,2.899354934692383,0.34307774901390076,0.9700561761856079,-0.835671067237854
133,142848,142849,0.06431365758180618,-0.04038507863879204,0.9176285266876221,-19.179170608520508,-60.985084533691406,8.165063858032227,1.2749361991882324,2.0188989639282227,2.888855457305908,1.0832775831222534,1.1727973222732544,-0.7604317665100098
134,142858,142859,0.07516343891620636,-0.016025062650442123,0.8893645405769348,-61.28956985473633,-32.856605529785156,5.832715034484863,1.2569371461868286,2.0218989849090576,2.870856523513794,1.5456719398498535,0.745558500289917,-0.6276959776878357
135,142868,142869,0.0921332910656929,0.05621518939733505,0.9683427810668945,-89.64110565185547,-6.009554386138916,2.907130718231201,1.270436406135559,2.035398244857788,2.8783559799194336,1.719695806503296,0.308887779712677,-0.5553370118141174
136,142878,142879,0.14645060896873474,0.08558573573827744,1.0023924112319946,-95.30814361572266,15.651766777038574,0.863861083984375,1.2824358940124512,2.0473976135253906,2.9023547172546387,1.7578892707824707,-0.7945393323898315,-0.4856780767440796
137,142888,142889,0.11530306190252304,0.008346296846866608,0.9524624943733215,-81.81391906738281,35.87918472290039,0.22299247980117798,1.2689365148544312,2.0428977012634277,2.8768560886383057,1.6633883714675903,-1.4760173559188843,-0.5382118225097656
138,142898,142899,0.10916326940059662,0.045108724385499954,0.9719719290733337,-55.517669677734375,38.76608657836914,-1.1966900825500488,1.270436406135559,2.0563971996307373,2.8783559799194336,1.2418880462646484,-2.240609645843506,-0.5359067916870117
139,142908,142909,0.07655371725559235,-0.0666549950838089,1.0054452419281006,-18.41853141784668,32.5528678894043,-3.020927667617798,1.2674366235733032,2.0563971996307373,2.8513574600219727,0.9267979264259338,-2.6871159076690674,-0.5953908562660217
140,142918,142919,0.04014715924859047,-0.06673882901668549,1.0396236181259155,17.982072830200195,20.71210289001465,-5.822339057922363,1.2554372549057007,2.0203988552093506,2.83935809135437,0.5784397721290588,-2.91391921043396,-0.6246479153633118
141,142928,142929,0.0233626551926136,-0.01755957119166851,1.0121593475341797,50.71200942993164,0.6313518285751343,-8.633334159851074,1.2509374618530273,2.0188989639282227,2.840857982635498,0.6094215512275696,-2.5455472469329834,-0.804674506187439
142,142938,142939,0.09602949023246765,-0.0749010443687439,0.9132556319236755,70.48556518554688,-16.301687240600586,-8.520548820495605,1.2494374513626099,2.0173990726470947,2.845357656478882,0.5150631666183472,-1.8468296527862549,-0.9016609191894531
143,142948,142949,0.08350557088851929,-0.10797247290611267,0.9064778089523315,76.3843002319336,-30.13326072692871,-8.292819023132324,1.2584370374679565,2.0263986587524414,2.869356393814087,0.7671510577201843,-1.2965096235275269,-0.9755296111106873
144,142958,142959,0.09248653799295425,-0.07491420209407806,0.9130551815032959,65.94882202148438,-37.589637756347656,-7.0037922859191895,1.2644367218017578,2.0263986587524414,2.8783559799194336,1.1438745260238647,-0.5604630708694458,-1.0716060400009155
145,142968,142969,0.12771864235401154,0.012243404984474182,0.9452192783355713,39.13834762573242,-36.484596252441406,-5.053187847137451,1.2599369287490845,2.012899398803711,2.8588569164276123,1.6114256381988525,0.08963224291801453,-1.1690168380737305
146,142978,142979,0.09467139095067978,0.02148483134806156,0.9663839936256409,7.581563949584961,-30.704662322998047,-3.4897866249084473,1.2599369287490845,2.012899398803711,2.8528573513031006,2.0399017333984375,0.29745081067085266,-1.1877117156982422
147,142988,142989,0.06029324606060982,0.03122912533581257,0.9135277271270752,-21.079221725463867,-18.71662712097168,-3.80706787109375,1.2794359922409058,2.0023999214172363,2.8483574390411377,2.4732558727264404,0.29531288146972656,-1.236952543258667
148,142998,142999,0.05786670371890068,-0.026088347658514977,0.9027578234672546,-39.359886169433594,-0.852302610874176,-5.2095746994018555,1.2779361009597778,2.0009000301361084,2.843857765197754,2.531055212020874,-0.0031214645132422447,-1.20802903175354
149,143008,143009,0.0682852491736412,-0.035834282636642456,0.9050787091255188,-43.35872268676758,18.9620361328125,-5.202996253967285,1.2719364166259766,2.015899181365967,2.8588569164276123,2.4392852783203125,-0.5434029698371887,-1.1784409284591675
150,143018,143019,0.044785261154174805,0.022104226052761078,0.9887920618057251,-36.712242126464844,32.377925872802734,-4.818645477294922,1.2569371461868286,2.0188989639282227,2.867856502532959,2.4055421352386475,-0.7526711821556091,-1.347997784614563
151,143028,143029,0.07492470741271973,-0.026928553357720375,1.102341651916504,-19.566856384277344,40.81843948364258,-2.165698766708374,1.2644367218017578,2.032398223876953,2.8753561973571777,1.9393134117126465,-1.172692060470581,-1.3407433032989502
152,143038,143039,0.09429719299077988,-0.10057084262371063,1.0732190608978271,1.963390827178955,41.75492858886719,-0.7809070944786072,1.2689365148544312,2.0458977222442627,2.8858556747436523,1.65463387966156,-1.2261632680892944,-1.453014612197876
153,143048,143049,0.00631337147206068,-0.06923097372055054,1.0427415370941162,18.751558303833008,35.790870666503906,0.8290231823921204,1.2569371461868286,2.0518972873687744,2.897855043411255,1.0864084959030151,-1.1667537689208984,-1.4463119506835938
154,143058,143059,-0.03286769241094589,-0.02771265245974064,1.0119150876998901,26.182126998901367,25.483177185058594,2.4402997493743896,1.2584370374679565,2.038398027420044,2.899354934692383,1.0561678409576416,-0.9358628392219543,-1.5456621646881104
155,143068,143069,-0.04329194128513336,-0.08025997877120972,0.984919011592865,26.054561614990234,14.355607032775879,4.8906450271606445,1.2509374618530273,2.0458977222442627,2.891855239868164,0.6736345887184143,-0.6139891147613525,-1.5161373615264893
156,143078,143079,0.0008991700015030801,-0.15184339880943298,0.9512691497802734,20.489778518676758,6.950223922729492,7.2659783363342285,1.2659367322921753,2.0248987674713135,2.8768560886383057,0.3971712589263916,-0.2529778778553009,-1.473750114440918
157,143088,143089,0.01030004397034645,-0.10708332061767578,0.986325740814209,6.444062232971191,0.9812926054000854,8.107268333435059,1.2734363079071045,2.032398223876953,2.869356393814087,0.5443730354309082,-0.23542740941047668,-1.3940305709838867
158,143098,143099,0.06136896833777428,-0.053022194653749466,0.9937818646430969,-11.272561073303223,-4.347620010375977,7.919739723205566,1.270436406135559,2.011399507522583,2.8573570251464844,0.5685275197029114,-0.3004777133464813,-1.278702735900879
159,143108,143109,0.02935652621090412,-0.11303707212209702,1.0051618814468384,-24.023141860961914,-4.958820343017578,7.4844746589660645,1.2584370374679565,2.0203988552093506,2.8603570461273193,0.6492697596549988,-0.48330217599868774,-1.1845715045928955
160,143118,143119,0.03993258625268936,-0.17263351380825043,0.9753249287605286,-29.20301628112793,-0.9135937690734863,7.0127339363098145,1.27643620967865,2.032398223876953,2.8753561973571777,0.8485090732574463,-0.7759451866149902,-1.1259196996688843
161,143128,143129,0.004125453531742096,-0.10758189111948013,0.9781651496887207,-25.359134674072266,7.257357120513916,7.211291313171387,1.2629368305206299,2.0428977012634277,2.8798558712005615,0.8082165718078613,-0.9074583649635315,-1.095447301864624
162,143138,143139,-0.04030732065439224,-0.10066873580217361,1.0007998943328857,-14.551143646240234,16.510480880737305,7.719177722930908,1.285435676574707,2.0533971786499023,2.872356414794922,0.8413742184638977,-1.1012423038482666,-1.0644326210021973
163,143148,143149,0.0029121937695890665,-0.05330296978354454,1.011616826057434,-0.17950862646102905,27.281965255737305,7.216225624084473,1.2689365148544312,2.0278985500335693,2.87385630607605,0.4916289448738098,-1.3117389678955078,-0.938086748123169
164,143158,143159,-0.026128685101866722,-0.09181531518697739,1.01072359085083,12.24012279510498,33.31980895996094,6.0634002685546875,1.261436939239502,2.032398223876953,2.872356414794922,0.422760546207428,-1.22239089012146,-0.9412057995796204
165,143168,143169,-0.035902176052331924,-0.13708926737308502,1.003048300743103,19.727783203125,33.48786163330078,6.703821659088135,1.244937777519226,2.036898136138916,2.8618569374084473,-0.011548751033842564,-0.8929457664489746,-0.9205958843231201
166,143178,143179,-0.03952505439519882,-0.1627468764781952,1.003844141960144,21.84304428100586,30.742311477661133,7.834761619567871,1.247937560081482,2.0218989849090576,2.8618569374084473,-0.29314976930618286,-0.6774094700813293,-0.8760742545127869
167,143188,143189,0.0223210658878088,-0.07937750220298767,1.0079551935195923,14.419723510742188,24.741445541381836,9.599226951599121,1.2419378757476807,2.015899181365967,2.864856719970703,-0.5251448750495911,-0.3879173696041107,-0.8333458304405212
168,143198,143199,-0.004692588001489639,-0.11417312175035477,0.9969627261161804,3.516493082046509,20.130203247070312,11.395140647888184,1.2404379844665527,2.011399507522583,2.845357656478882,-0.6011096835136414,-0.37280574440956116,-0.7505399584770203
169,143208,143209,-0.07269617170095444,-0.09119289368391037,1.0251991748809814,-10.070721626281738,14.463250160217285,13.817363739013672,1.2584370374679565,2.0233988761901855,2.8573570251464844,-0.7309805750846863,-0.47872674465179443,-0.6275709867477417
170,143218,143219,0.00613059476017952,-0.10032698512077332,1.0247516632080078,-19.310245513916016,13.751595497131348,15.970358848571777,1.2569371461868286,2.015899181365967,2.8558571338653564,-1.0063730478286743,-0.43341168761253357,-0.48827606439590454
171,143228,143229,0.010987017303705215,-0.022355208173394203,1.014113187789917,-23.31793212890625,13.825148582458496,18.790626525878906,1.2539372444152832,2.009899377822876,2.8558571338653564,-1.2003494501113892,-0.7998260259628296,-0.29915884137153625
172,143238,143239,-0.023400167003273964,0.0810617133975029,0.9994723796844482,-17.880250930786133,13.990650177001953,20.770219802856445,1.231438398361206,2.0233988761901855,2.8513574600219727,-1.2645529508590698,-1.0298075675964355,-0.12744683027267456
173,143248,143249,-0.011052842251956463,0.1224447712302208,0.9991013407707214,-4.679268836975098,12.61847972869873,21.18025016784668,1.232938289642334,2.009899377822876,2.8348581790924072,-1.2649205923080444,-1.0669949054718018,0.04387904331088066
174,143258,143259,0.0236820001155138,0.138472318649292,1.0190669298171997,10.899348258972168,10.152545928955078,20.686420440673828,1.2284384965896606,2.0173990726470947,2.842357873916626,-1.2466492652893066,-1.027334451675415,0.22201396524906158
175,143268,143269,0.04474484547972679,0.13707144558429718,1.047737717628479,26.444604873657227,7.463076114654541,19.393829345703125,1.2374380826950073,2.011399507522583,2.8273584842681885,-1.5356074571609497,-0.8031013607978821,0.45474591851234436
176,143278,143279,0.058664239943027496,0.1104883998632431,1.0456870794296265,37.7777099609375,6.445901393890381,16.46451187133789,1.232938289642334,2.0248987674713135,2.8588569164276123,-1.4899797439575195,-0.6201273798942566,0.6208685040473938
177,143288,143289,0.05955682694911957,0.04112926125526428,1.0171152353286743,39.57782745361328,6.251558303833008,15.446333885192871,1.2419378757476807,2.015899181365967,2.8468575477600098,-1.4998699426651,-0.07768770307302475,0.7807531356811523
178,143298,143299,0.08600976318120956,-0.018010763451457024,0.9813560843467712,29.673534393310547,7.496046543121338,14.913961410522461,1.2419378757476807,1.9949002265930176,2.8528573513031006,-1.436545968055725,0.23694971203804016,0.9087430834770203
179,143308,143309,0.02303028479218483,-0.1317848265171051,0.9034655094146729,12.139911651611328,7.3750691413879395,13.90736198425293,1.2344383001327515,1.999400019645691,2.8483574390411377,-1.4689193964004517,0.554807722568512,1.052765130996704
180,143318,143319,-0.07670672237873077,-0.1316453516483307,0.9173977971076965,-4.700497627258301,7.056973934173584,12.53754997253418,1.2299385070800781,2.0009000301361084,2.8348581790924072,-1.6578879356384277,0.5853092670440674,1.1965481042861938
181,143328,143329,-0.10654991865158081,-0.13739623129367828,0.877707302570343,-20.86557388305664,8.213760375976562,11.630751609802246,1.231438398361206,1.984400749206543,2.818359136581421,-1.8450026512145996,0.5604671239852905,1.335597038269043
182,143338,143339,-0.07116930186748505,-0.04940236732363701,0.8808759450912476,-32.3521728515625,11.037321090698242,11.356505393981934,1.2434377670288086,2.005399703979492,2.815359115600586,-1.4825340509414673,0.36214324831962585,1.415573000907898
183,143348,143349,-0.01425150502473116,0.036201417446136475,0.9102338552474976,-35.21373748779297,12.348811149597168,9.878491401672363,1.2404379844665527,2.0173990726470947,2.845357656478882,-1.8060050010681152,0.07595816999673843,1.5471761226654053
184,143358,143359,0.0037981849163770676,0.0555739589035511,0.9249114394187927,-31.388328552246094,15.475687026977539,8.70035171508789,1.2404379844665527,2.0203988552093506,2.866356611251831,-1.7923779487609863,-0.2310129702091217,1.6450731754302979
185,143368,143369,0.02588709257543087,0.05775674805045128,0.9558544754981995,-20.62773895263672,19.15460968017578,7.114091396331787,1.2434377670288086,2.0173990726470947,2.8483574390411377,-2.1209206581115723,-0.7344260811805725,1.7020982503890991
186,143378,143379,0.03947622701525688,0.027890484780073166,0.9890921711921692,-5.858994960784912,22.763111114501953,5.97797155380249,1.2389379739761353,2.03389835357666,2.891855239868164,-2.351116418838501,-0.676878809928894,1.8229001760482788
187,143388,143389,0.013390165753662586,-0.0319339856505394,0.9893234968185425,10.84373664855957,16.520944595336914,4.096772193908691,1.2419378757476807,2.039897918701172,2.888855457305908,-2.3789479732513428,-0.8777028918266296,1.8325116634368896
188,143398,143399,0.07591544836759567,-0.08960043638944626,0.972756564617157,21.498859405517578,14.298115730285645,2.536142110824585,1.2404379844665527,2.038398027420044,2.9053547382354736,-2.7614808082580566,-0.693204939365387,1.9039738178253174
189,143408,143409,0.08547811210155487,-0.18908032774925232,0.9319965839385986,24.72382164001465,4.420292377471924,0.9956393241882324,1.2359381914138794,2.0458977222442627,2.897855043411255,-2.679497003555298,-0.4255804121494293,1.9281593561172485
190,143418,143419,0.07040920853614807,-0.1790887862443924,0.9869452118873596,17.165346145629883,-2.6732308864593506,1.1829153299331665,1.244937777519226,2.0548973083496094,2.9038548469543457,-2.738480567932129,-0.23120960593223572,1.9275740385055542
191,143428,143429,0.04623289406299591,-0.1401861011981964,0.9945378303527832,2.464742660522461,-6.981476783752441,1.81815505027771,1.2344383001327515,2.0413978099823,2.9113543033599854,-2.5608208179473877,-0.18194063007831573,1.8951923847198486
192,143438,143439,-0.010638037696480751,-0.07576591521501541,0.9727749228477478,-14.342846870422363,-6.957696437835693,2.909255266189575,1.2359381914138794,2.0458977222442627,2.9128541946411133,-2.5567517280578613,-0.23492829501628876,1.8966891765594482
193,143448,143449,-0.003832609159871936,-0.006476994603872299,0.9589553475379944,-26.27397918701172,-3.016228675842285,3.829162120819092,1.2284384965896606,2.065396785736084,2.9143543243408203,-2.3509068489074707,-0.31845319271087646,1.941388487815857
194,143458,143459,0.041075218468904495,0.04125729203224182,0.9590169191360474,-31.046293258666992,2.082991123199463,3.8804633617401123,1.2434377670288086,2.062396764755249,2.9113543033599854,-2.426543712615967,-0.7138444781303406,1.937734842300415
195,143468,143469,0.037378180772066116,0.04590415582060814,0.9593812823295593,-28.948505401611328,8.152363777160645,4.366524696350098,1.2374380826950073,2.06839656829834,2.9143543243408203,-2.3069608211517334,-1.000412940979004,1.9766459465026855
196,143478,143479,0.03877495229244232,0.03877842798829079,0.9603883028030396,-20.74664878845215,15.8408842086792,4.273869037628174,1.2299385070800781,2.0698964595794678,2.9158542156219482,-2.5292327404022217,-1.4361335039138794,1.9664918184280396
197,143488,143489,0.041553791612386703,0.06653891503810883,0.9923732280731201,-7.574218273162842,29.448545455932617,4.67392110824585,1.2344383001327515,2.065396785736084,2.926353693008423,-2.404036045074463,-1.4181716442108154,2.063140869140625
198,143498,143499,0.07469914108514786,0.07712340354919434,1.0072252750396729,1.523983120918274,38.910335540771484,4.231385231018066,1.2209389209747314,2.0758962631225586,2.942852735519409,-2.8985776901245117,-1.3831590414047241,2.163849115371704
199,143508,143509,0.12385755032300949,0.07021832466125488,1.026345133781433,5.5859761238098145,52.82705307006836,2.7883529663085938,1.2224388122558594,2.0713963508605957,2.9353532791137695,-3.215851068496704,-1.3503421545028687,2.194690704345703
200,143518,143519,0.12419181317090988,0.029360558837652206,1.0373730659484863,0.8371803164482117,62.33503341674805,0.24817921221256256,1.2254387140274048,2.0743961334228516,2.953352212905884,-4.097878456115723,-1.2874974012374878,2.2444629669189453
201,143528,143529,0.1033884808421135,0.04741271585226059,1.0745903253555298,-11.199718475341797,66.45687103271484,-2.9202914237976074,1.216439127922058,2.0833957195281982,2.953352212905884,-4.373113632202148,-1.3410805463790894,2.1693131923675537
202,143538,143539,0.08403301984071732,0.04741973057389259,1.0959688425064087,-22.000001907348633,53.99888229370117,-0.8778135180473328,1.216439127922058,2.0983951091766357,2.953352212905884,-5.370879173278809,-1.4985672235488892,2.141286849975586
203,143548,143549,0.1115134134888649,0.06715163588523865,1.147301435470581,-31.811538696289062,21.44546890258789,9.552592277526855,1.208939552307129,2.0788960456848145,2.942852735519409,-5.379795551300049,-1.9164338111877441,1.9602748155593872
204,143558,143559,0.11512178927659988,-0.007986227050423622,1.1583856344223022,-17.317005157470703,-15.890382766723633,17.960681915283203,1.2134393453598022,2.0803959369659424,2.9353532791137695,-5.5083818435668945,-2.1335971355438232,2.0794055461883545
205,143568,143569,0.11335261166095734,-0.028879951685667038,1.130660891532898,5.34192419052124,-48.3004035949707,22.604692459106445,1.2209389209747314,2.0488975048065186,2.927853584289551,-5.333064556121826,-2.285487413406372,2.261895179748535
206,143578,143579,0.10537776350975037,-0.050599418580532074,1.0479137897491455,20.27165412902832,-62.64157485961914,25.374614715576172,1.2239388227462769,2.066896677017212,2.9398529529571533,-4.781958103179932,-2.025710105895996,2.614288806915283
207,143588,143589,0.05741295590996742,-0.010707765817642212,1.0326652526855469,28.573762893676758,-55.776737213134766,27.027620315551758,1.2224388122558594,2.0563971996307373,2.920353889465332,-4.37605619430542,-1.9221572875976562,2.848339557647705
208,143598,143599,0.015182394534349442,-0.0157172791659832,1.0402926206588745,36.65176773071289,-34.074951171875,26.028953552246094,1.2374380826950073,2.0443978309631348,2.896355152130127,-3.868971586227417,-1.4451504945755005,3.2481069564819336
209,143608,143609,-0.009399408474564552,-0.011062094010412693,1.0472538471221924,34.33415985107422,-12.287220001220703,25.432254791259766,1.2269386053085327,2.0428977012634277,2.888855457305908,-3.841198682785034,-0.8368732929229736,3.721553325653076
210,143618,143619,-0.029607269912958145,0.0060930014587938786,1.0138133764266968,29.570510864257812,10.727560043334961,25.746856689453125,1.2299385070800781,2.0518972873687744,2.894855260848999,-3.585378646850586,-0.4201492667198181,3.9852371215820312
211,143628,143629,-0.02479875460267067,0.014632469043135643,0.9788545370101929,19.370609283447266,21.590747833251953,26.373231887817383,1.2224388122558594,2.038398027420044,2.890355348587036,-3.9313812255859375,-0.25673848390579224,4.184950351715088
212,143638,143639,-0.0028417829889804125,-0.04027337208390236,0.9765753746032715,4.507513999938965,17.046049118041992,26.387466430664062,1.2149392366409302,2.0428977012634277,2.8858556747436523,-4.153414249420166,-0.26483938097953796,4.300966262817383
213,143648,143649,0.04396602138876915,0.009343924932181835,1.0283446311950684,-13.03256893157959,6.159230709075928,28.120859146118164,1.2209389209747314,2.0278985500335693,2.8768560886383057,-4.325193405151367,-0.15047667920589447,4.593729496002197
214,143658,143659,0.08832418918609619,-0.009435699321329594,1.0806578397750854,-20.10613250732422,1.180012822151184,28.837671279907227,1.2374380826950073,2.0263986587524414,2.890355348587036,-4.537917613983154,-0.08489406108856201,5.003356456756592
215,143668,143669,0.07579423487186432,-0.05650787055492401,1.0408841371536255,-14.099467277526855,-2.8709073066711426,25.124095916748047,1.2239388227462769,2.0428977012634277,2.8858556747436523,-4.529419422149658,-0.3672654330730438,5.21177864074707
216,143678,143679,0.04033704102039337,-0.055758483707904816,1.0259579420089722,-10.470053672790527,-9.56096076965332,21.42816162109375,1.2404379844665527,2.059396982192993,2.899354934692383,-4.457024574279785,-0.49019986391067505,5.462502479553223
217,143688,143689,0.021111013367772102,-0.04854564741253853,1.0374376773834229,-3.5029826164245605,-23.25493812561035,16.877235412597656,1.2404379844665527,2.0533971786499023,2.893355369567871,-4.453776836395264,-0.6187102198600769,5.6573166847229
218,143698,143699,0.0332673043012619,-0.07686592638492584,1.0348690748214722,2.402893304824829,-42.269287109375,12.534189224243164,1.244937777519226,2.03389835357666,2.894855260848999,-4.198748588562012,-0.7068345546722412,5.786706924438477
219,143708,143709,0.02430238574743271,-0.07060056179761887,1.0300406217575073,11.84965705871582,-56.3879508972168,9.974051475524902,1.2284384965896606,2.0503973960876465,2.8783559799194336,-3.794534921646118,-0.5407089591026306,6.010220050811768
220,143718,143719,0.018730366602540016,-0.06015589088201523,1.0249948501586914,21.2336483001709,-62.98368453979492,7.27121114730835,1.2344383001327515,2.035398244857788,2.890355348587036,-3.235438346862793,-0.5865105390548706,6.0024237632751465
221,143728,143729,0.007864778861403465,-0.06823065876960754,1.012782096862793,29.965717315673828,-62.710391998291016,7.025082588195801,1.2194390296936035,2.038398027420044,2.893355369567871,-2.5950841903686523,-0.32883432507514954,6.111541748046875
222,143738,143739,0.002415939001366496,-0.053608767688274384,1.0097049474716187,37.687068939208984,-55.028507232666016,6.141392230987549,1.2389379739761353,2.0458977222442627,2.8828558921813965,-1.7768901586532593,-0.002442473778501153,6.191526412963867
223,143748,143749,0.0046264128759503365,-0.05180894955992699,0.997130811214447,35.38307571411133,-41.775047302246094,5.655043125152588,1.2344383001327515,2.0563971996307373,2.896355152130127,-1.5299479961395264,0.4029436409473419,6.282519340515137
224,143758,143759,0.005133243277668953,-0.05894874408841133,0.9895680546760559,26.520771026611328,-26.24466323852539,3.7171905040740967,1.2554372549057007,2.038398027420044,2.8843557834625244,-1.0596327781677246,0.8195649981498718,6.3655900955200195
225,143768,143769,0.008708737790584564,-0.05629711225628853,0.9772482514381409,14.593208312988281,-14.95792293548584,0.9421387910842896,1.244937777519226,2.03389835357666,2.8768560886383057,-0.9642669558525085,1.0007835626602173,6.357121467590332
226,143778,143779,0.0006492341053672135,-0.04920753091573715,0.9780256152153015,0.859354555606842,-6.354083061218262,-1.429433822631836,1.247937560081482,2.03389835357666,2.87385630607605,-0.8261229395866394,1.136179804801941,6.358675479888916
227,143788,143789,0.025396263226866722,-0.06336373090744019,0.9533085823059082,-14.121171951293945,-3.7421202659606934,-3.6838161945343018,1.2434377670288086,2.0203988552093506,2.863356828689575,-0.7334762215614319,1.1085772514343262,6.328266620635986
228,143798,143799,0.006069812923669815,-0.03437250107526779,0.9745087623596191,-24.31342124938965,-5.363142013549805,-5.0935773849487305,1.2404379844665527,2.0263986587524414,2.863356828689575,-0.6752697825431824,0.9969906806945801,6.302264213562012
229,143808,143809,0.02359776385128498,-0.04050184786319733,0.9763155579566956,-29.667531967163086,-10.101677894592285,-6.4578094482421875,1.2419378757476807,2.030898332595825,2.870856523513794,-0.5843595862388611,0.6631986498832703,6.224697113037109
230,143818,143819,0.022825976833701134,-0.03308800980448723,0.9784021973609924,-28.012401580810547,-16.534957885742188,-7.458951950073242,1.2509374618530273,2.0278985500335693,2.8588569164276123,-0.6140658855438232,0.4839780032634735,6.176324367523193
231,143828,143829,0.027672385796904564,0.021781262010335922,1.0182946920394897,-20.1983642578125,-19.318368911743164,-9.098097801208496,1.2434377670288086,2.0533971786499023,2.869356393814087,-0.3966130316257477,0.06421346962451935,6.07553243637085
232,143838,143839,0.03095054067671299,-0.020860973745584488,1.0029999017715454,-7.459073543548584,-23.490976333618164,-9.910443305969238,1.2389379739761353,2.036898136138916,2.8768560886383057,-0.0572362095117569,-0.05811401456594467,6.020954132080078
233,143848,143849,-0.0048648095689713955,-0.019146880134940147,0.9975594282150269,5.59128999710083,-22.93707847595215,-10.731047630310059,1.2404379844665527,2.0233988761901855,2.866356611251831,0.10102314502000809,0.01542406901717186,5.938629150390625
234,143858,143859,0.006693949922919273,-0.03151671960949898,0.9845753908157349,15.269256591796875,-18.340240478515625,-11.40526294708252,1.2584370374679565,2.035398244857788,2.8813557624816895,0.24057993292808533,0.21518860757350922,5.838009834289551
235,143868,143869,0.0026398394256830215,-0.012825602665543556,0.9884712100028992,13.035110473632812,-13.276426315307617,-11.819463729858398,1.2494374513626099,2.0473976135253906,2.866356611251831,0.45398569107055664,0.4470750093460083,5.733832359313965
236,143878,143879,-0.047655198723077774,-0.04856697842478752,0.9969781637191772,-1.7501168251037598,-8.607507705688477,-11.763983726501465,1.2509374618530273,2.03389835357666,2.8858556747436523,0.5743110775947571,0.44779571890830994,5.609614849090576
237,143888,143889,-0.02239391580224037,-0.05306756868958473,0.9632126688957214,-20.600801467895508,-4.6402387619018555,-10.361930847167969,1.2569371461868286,2.0428977012634277,2.870856523513794,0.6801574230194092,0.32381847500801086,5.499078273773193
238,143898,143899,0.06632747501134872,-0.02835843898355961,0.9853643774986267,-32.60087966918945,-6.292619228363037,-8.728181838989258,1.2569371461868286,2.0458977222442627,2.894855260848999,0.7628276348114014,0.07561047375202179,5.403808116912842
239,143908,143909,0.10625625401735306,-0.02703305147588253,0.999426007270813,-36.106895446777344,-8.57126235961914,-7.360363006591797,1.2599369287490845,2.0518972873687744,2.8858556747436523,0.9565768241882324,-0.2578423321247101,5.335124969482422
240,143918,143919,0.053883422166109085,-0.03747826814651489,0.9912411570549011,-27.337385177612305,-5.619626045227051,-6.702351093292236,1.2569371461868286,2.0518972873687744,2.891855239868164,0.8730772137641907,-0.6780450940132141,5.244277477264404
241,143928,143929,0.005454010330140591,-0.014498255215585232,1.0166794061660767,4.914392471313477,8.40970230102539,-6.060239791870117,1.2509374618530273,2.0518972873687744,2.8768560886383057,0.9830151796340942,-0.8656356334686279,5.172064304351807
242,143938,143939,-0.013545753434300423,-0.10370130836963654,1.0130901336669922,44.87588882446289,23.145263671875,-7.166186809539795,1.2629368305206299,2.0548973083496094,2.8768560886383057,0.860317051410675,-0.6368098258972168,5.068181037902832
243,143948,143949,0.00553861353546381,-0.07127384096384048,0.9941866993904114,73.60041046142578,28.537460327148438,-7.684769630432129,1.2419378757476807,2.0458977222442627,2.888855457305908,0.5301580429077148,0.07368455082178116,4.930192947387695
244,143958,143959,0.018750471994280815,-0.045021045953035355,0.9571395516395569,79.135986328125,19.382125854492188,-7.228607654571533,1.2494374513626099,2.0473976135253906,2.920353889465332,0.38068562746047974,0.6200056672096252,4.906247615814209
245,143968,143969,0.017384501174092293,-0.03320405259728432,0.9526203870773315,71.67166137695312,2.1917872428894043,-6.9584760665893555,1.2434377670288086,2.0563971996307373,2.923353672027588,0.32651486992836,1.6479194164276123,4.792059898376465
246,143978,143979,0.020456910133361816,-0.05418718233704567,0.9109618067741394,54.396385192871094,-7.750864028930664,-6.018172264099121,1.244937777519226,2.0458977222442627,2.9038548469543457,0.3752720355987549,2.0990540981292725,4.802263259887695
247,143988,143989,0.0038688683416694403,-0.079186350107193,0.9061604142189026,21.728015899658203,-6.407012462615967,-5.492472171783447,1.2494374513626099,2.0473976135253906,2.917354106903076,0.6100142002105713,2.730971574783325,4.740680694580078
248,143998,143999,0.021387886255979538,-0.07086753845214844,0.9237330555915833,-15.661293983459473,3.0820302963256836,-7.00960636138916,1.2524373531341553,2.011399507522583,2.866356611251831,0.7088367342948914,2.8734564781188965,4.712716102600098
249,144008,144009,0.025381065905094147,-0.09474888443946838,0.9248653054237366,-49.466129302978516,11.324490547180176,-9.062492370605469,1.2719364166259766,2.0278985500335693,2.8798558712005615,0.5660852193832397,2.535855531692505,4.677158832550049
250,144018,144019,-0.0031175664626061916,-0.09653313457965851,0.9572274684906006,-79.38997650146484,14.029008865356445,-11.456997871398926,1.2494374513626099,2.0293984413146973,2.8873555660247803,0.38557785749435425,1.896142601966858,4.621688365936279
251,144028,144029,-0.002877315506339073,-0.09585864096879959,1.0263545513153076,-92.19376373291016,4.631328105926514,-12.506412506103516,1.2509374618530273,2.063896656036377,2.9158542156219482,0.29546988010406494,1.044840931892395,4.547572135925293
252,144038,144039,0.05866997316479683,-0.045087773352861404,1.0536247491836548,-88.27559661865234,-14.656583786010742,-12.695318222045898,1.2419378757476807,2.087895631790161,2.9368531703948975,0.33546915650367737,0.2516331076622009,4.407426834106445
253,144048,144049,0.0713823065161705,-0.029497023671865463,1.0535329580307007,-63.30964279174805,-32.74650955200195,-14.245823860168457,1.2599369287490845,2.084895610809326,2.9338531494140625,0.5360829830169678,-0.7529875040054321,4.33803129196167
254,144058,144059,0.02348262630403042,-0.026066068559885025,1.0615015029907227,-29.247209548950195,-44.69733428955078,-14.56802749633789,1.2569371461868286,2.066896677017212,2.9158542156219482,0.8555725812911987,-1.3208844661712646,4.180867671966553
255,144068,144069,0.02912529744207859,0.05712774395942688,1.0625383853912354,1.7888572216033936,-47.77906036376953,-12.688525199890137,1.2569371461868286,2.0758962631225586,2.9128541946411133,1.6181552410125732,-1.557708978652954,4.099902153015137
256,144078,144079,0.01449630782008171,-0.013612275943160057,1.0429387092590332,24.39866828918457,-38.07485580444336,-10.012483596801758,1.2584370374679565,2.059396982192993,2.917354106903076,1.8800349235534668,-1.1609675884246826,3.804651975631714
257,144088,144089,-0.01596207544207573,-0.036242250353097916,1.0243488550186157,35.25237274169922,-20.215057373046875,-5.476315021514893,1.261436939239502,2.0773961544036865,2.9053547382354736,2.239105701446533,-0.9615548253059387,3.726541519165039
258,144098,144099,-0.0698537826538086,-0.04181511700153351,1.0474750995635986,32.734825134277344,2.074970245361328,-3.8226146697998047,1.247937560081482,2.0518972873687744,2.897855043411255,2.406782865524292,-0.6977718472480774,3.7045505046844482
259,144108,144109,-0.07410454750061035,-0.07575053721666336,1.0379663705825806,23.023618698120117,22.38360595703125,-3.429797649383545,1.2659367322921753,2.0428977012634277,2.8768560886383057,2.2775585651397705,-0.29330435395240784,3.618557929992676
260,144118,144119,0.011693563312292099,-0.09184113144874573,0.9978975057601929,12.592591285705566,33.34915542602539,-2.9771182537078857,1.2659367322921753,2.03389835357666,2.8768560886383057,1.9980552196502686,-0.1179138571023941,3.6059350967407227
261,144128,144129,0.04235345497727394,0.004542180802673101,1.0366573333740234,-0.4175496995449066,29.163728713989258,-4.208372116088867,1.261436939239502,2.0443978309631348,2.8603570461273193,1.619801640510559,-0.04289853572845459,3.5964324474334717
262,144138,144139,0.08920274674892426,0.03626511991024017,1.0714982748031616,-13.966753005981445,18.467056274414062,-5.8896260261535645,1.2509374618530273,2.030898332595825,2.8498575687408447,1.2069766521453857,-0.11668003350496292,3.577815294265747
263,144148,144149,0.11777368187904358,-0.01720120944082737,1.0666955709457397,-21.49556541442871,5.010238170623779,-8.60986614227295,1.246437668800354,2.032398223876953,2.863356828689575,1.3522448539733887,-0.30798792839050293,3.5749802589416504
264,144158,144159,0.07338186353445053,-0.07716196030378342,1.0567569732666016,-22.382122039794922,-7.046424865722656,-11.936859130859375,1.2509374618530273,2.036898136138916,2.8558571338653564,1.3486336469650269,-0.5925170183181763,3.5297555923461914
265,144168,144169,0.013748806901276112,-0.06634066253900528,1.0111980438232422,-18.863500595092773,-14.284103393554688,-14.424296379089355,1.2644367218017578,2.0203988552093506,2.8543572425842285,1.4395331144332886,-0.8766200542449951,3.446061849594116
266,144178,144179,0.01629907824099064,-0.07252390682697296,1.0211735963821411,-13.55712890625,-9.02772331237793,-15.026511192321777,1.2584370374679565,2.014399290084839,2.8603570461273193,1.5179059505462646,-1.0224183797836304,3.2823920249938965
267,144188,144189,0.0035811890847980976,-0.05200281739234924,1.0131956338882446,-5.238845348358154,-2.306417942047119,-13.547569274902344,1.2584370374679565,2.0203988552093506,2.8483574390411377,1.5797187089920044,-1.1453317403793335,3.1310577392578125
268,144198,144199,0.014452303759753704,-0.06243404746055603,0.9934492111206055,3.734671115875244,5.756152153015137,-12.221616744995117,1.2599369287490845,2.0188989639282227,2.840857982635498,1.587438941001892,-1.195654273033142,2.997007369995117
269,144208,144209,0.005548993591219187,-0.052978433668613434,0.9928973317146301,10.4572114944458,15.928878784179688,-10.121222496032715,1.261436939239502,2.014399290084839,2.8333582878112793,1.6445027589797974,-1.0365774631500244,2.8171064853668213
270,144218,144219,-0.018999267369508743,-0.023535823449492455,0.9976963400840759,15.815488815307617,23.78154754638672,-8.170658111572266,1.247937560081482,2.009899377822876,2.837857961654663,1.3875900506973267,-0.9157786965370178,2.7090821266174316
271,144228,144229,-0.0331806018948555,-0.0006625758833251894,0.9895755648612976,19.640195846557617,30.795791625976562,-7.304991245269775,1.2584370374679565,2.011399507522583,2.83935809135437,1.140345811843872,-0.6432868242263794,2.568300485610962
272,144238,144239,-0.02782810479402542,0.008566511794924736,0.965792715549469,17.67640495300293,30.02322006225586,-7.1878743171691895,1.2539372444152832,2.0248987674713135,2.8528573513031006,0.7265001535415649,-0.6870595812797546,2.61483097076416
273,144248,144249,-0.025372620671987534,0.02210553176701069,0.9607874751091003,13.534797668457031,20.802658081054688,-8.273086547851562,1.2494374513626099,2.0173990726470947,2.8513574600219727,0.5271415710449219,-0.40721216797828674,2.488259792327881
274,144258,144259,-0.008699560537934303,-6.801775452913716e-05,0.929003894329071,14.293325424194336,10.55030632019043,-8.78271770477295,1.2509374618530273,2.009899377822876,2.8528573513031006,0.48830193281173706,-0.24528278410434723,2.3914809226989746
275,144268,144269,-0.05804179981350899,-0.0965612381696701,0.91563880443573,13.597962379455566,-2.075336456298828,-10.50294017791748,1.261436939239502,2.014399290084839,2.83935809135437,0.2706872224807739,-0.1541128307580948,2.3295366764068604
276,144278,144279,-0.009935498237609863,-0.05328869819641113,0.9892198443412781,-1.4564019441604614,3.7507951259613037,-12.428217887878418,1.2509374618530273,2.012899398803711,2.8558571338653564,0.34575605392456055,-0.11006490141153336,2.2593815326690674
277,144288,144289,0.06030600517988205,-0.009787707589566708,0.9945756793022156,-24.4680118560791,6.143171310424805,-11.681755065917969,1.2629368305206299,2.009899377822876,2.8498575687408447,0.28360047936439514,-0.19862407445907593,2.1671149730682373
278,144298,144299,0.041120175272226334,-0.017753982916474342,0.9832921028137207,-38.78358840942383,5.338284969329834,-9.160409927368164,1.2509374618530273,2.03389835357666,2.864856719970703,0.23980054259300232,-0.4173034429550171,2.0420706272125244
279,144308,144309,0.03306759148836136,-0.00747325224801898,0.9727984070777893,-43.33954620361328,-4.7262372970581055,-6.344033241271973,1.2419378757476807,2.0458977222442627,2.8828558921813965,0.22994422912597656,-0.841418445110321,1.96553373336792
280,144318,144319,0.01043747365474701,-0.03975355997681618,1.012340784072876,-36.125125885009766,-13.6351957321167,-5.875051975250244,1.2524373531341553,2.059396982192993,2.8873555660247803,0.3075036108493805,-1.4368525743484497,1.9628376960754395
281,144328,144329,-0.01626593805849552,-0.08958444744348526,1.0350394248962402,-11.32174015045166,-19.643508911132812,-7.1623215675354,1.2524373531341553,2.0503973960876465,2.8783559799194336,0.5378984212875366,-1.7050387859344482,1.8752801418304443
282,144338,144339,0.004308822099119425,-0.06557165086269379,1.042992115020752,21.270641326904297,-22.498647689819336,-7.154860496520996,1.2569371461868286,2.036898136138916,2.870856523513794,0.7938987612724304,-1.748347282409668,1.785133957862854
283,144348,144349,0.011499366723001003,-0.02792849764227867,1.0116325616836548,40.610740661621094,-16.611042022705078,-4.6414008140563965,1.2419378757476807,2.039897918701172,2.8828558921813965,1.1408275365829468,-1.3831435441970825,1.658305048942566
284,144358,144359,0.03867247700691223,-0.05625401809811592,0.9507219195365906,51.20383834838867,8.64999008178711,-2.324047803878784,1.2539372444152832,2.039897918701172,2.8798558712005615,1.0877259969711304,-0.9537816643714905,1.6241976022720337
285,144368,144369,0.02334030717611313,-0.056823231279850006,0.9496736526489258,53.33349609375,35.55570983886719,-2.3024182319641113,1.2404379844665527,2.0563971996307373,2.893355369567871,0.9787431359291077,-0.4512360394001007,1.6042324304580688
286,144378,144379,0.05016478896141052,-0.05186595022678375,0.9489768743515015,45.31488800048828,54.581748962402344,-3.1121718883514404,1.2494374513626099,2.038398027420044,2.8843557834625244,0.4561370313167572,0.057638928294181824,1.6021281480789185
287,144388,144389,0.07090186327695847,-0.06356509774923325,0.9460503458976746,32.129173278808594,57.55809020996094,-2.94184947013855,1.2299385070800781,2.039897918701172,2.9008548259735107,0.05808888003230095,0.3414915204048157,1.6175143718719482
288,144398,144399,0.08325161039829254,-0.07301418483257294,0.9980596303939819,18.65997314453125,44.67898178100586,-3.5643088817596436,1.2344383001327515,2.0413978099823,2.8843557834625244,-0.7381841540336609,0.7716391682624817,1.5761226415634155
289,144408,144409,0.0958276018500328,-0.05557632818818092,1.0195504426956177,7.90777063369751,22.565202713012695,-5.158199310302734,1.2419378757476807,2.0278985500335693,2.8768560886383057,-0.9963915944099426,0.7073010206222534,1.6044942140579224
290,144418,144419,0.06398649513721466,0.017459169030189514,1.013767123222351,-2.085088014602661,-1.5288398265838623,-7.018167018890381,1.2419378757476807,2.0218989849090576,2.8768560886383057,-0.9856245517730713,0.7048437595367432,1.569369912147522
291,144428,144429,0.0873313769698143,0.017139092087745667,1.0065199136734009,-11.180462837219238,-18.16075897216797,-8.58371353149414,1.2509374618530273,2.0188989639282227,2.870856523513794,-0.9218310117721558,0.6869111061096191,1.4989813566207886
292,144438,144439,0.07780200988054276,-0.016435937955975533,1.0023863315582275,-19.713459014892578,-24.211151123046875,-10.425097465515137,1.2299385070800781,2.0218989849090576,2.8798558712005615,-0.6227357983589172,0.5213188529014587,1.4223194122314453
293,144448,144449,0.05001138523221016,-0.0822623148560524,0.9998046159744263,-27.38489532470703,-20.838130950927734,-10.66047477722168,1.246437668800354,2.0263986587524414,2.8873555660247803,-0.5335134267807007,0.2888447642326355,1.318040370941162
294,144458,144459,0.02309251017868519,-0.0968417078256607,1.0265885591506958,-33.127220153808594,-7.6003193855285645,-9.515819549560547,1.2584370374679565,2.0293984413146973,2.8843557834625244,-0.24123515188694,-0.13692054152488708,1.2353060245513916
295,144468,144469,0.018038149923086166,-0.07752679288387299,1.0617011785507202,-30.99042320251465,15.977568626403809,-5.744469165802002,1.2419378757476807,2.036898136138916,2.8828558921813965,-0.1987633854150772,-0.3393089771270752,1.1215124130249023
296,144478,144479,0.044818807393312454,-0.0358172208070755,1.0624464750289917,-14.455167770385742,37.66567611694336,-1.7675299644470215,1.2599369287490845,2.0428977012634277,2.8858556747436523,-0.4015752673149109,-0.7444140911102295,1.0722060203552246
297,144488,144489,0.08940935134887695,0.013466770760715008,1.0648595094680786,12.036184310913086,49.132205963134766,-0.8009645342826843,1.2359381914138794,2.0428977012634277,2.8858556747436523,-0.559207022190094,-0.6804617047309875,1.0327060222625732
298,144498,144499,0.12847274541854858,0.008570851758122444,1.0486363172531128,30.93267250061035,63.97414779663086,-1.1786426305770874,1.2434377670288086,2.0413978099823,2.893355369567871,-1.4331766366958618,-0.44177940487861633,0.9994595050811768
299,144508,144509,0.0701310858130455,-0.04551780968904495,1.0186487436294556,53.399253845214844,75.43414306640625,-2.975120782852173,1.232938289642334,2.0518972873687744,2.891855239868164,-1.8200799226760864,-0.10245731472969055,0.9865092635154724
300,144518,144519,0.047729913145303726,-0.0452776700258255,1.03756582736969,64.0111083984375,75.91934204101562,-5.143762588500977,1.2524373531341553,2.062396764755249,2.926353693008423,-2.6660940647125244,0.6147467494010925,0.9548000693321228
301,144528,144529,0.0009687533602118492,-0.04308011755347252,0.9823023676872253,62.432334899902344,62.180450439453125,-6.391902446746826,1.2254387140274048,2.0413978099823,2.920353889465332,-3.282885789871216,0.8393738865852356,0.9040343761444092
302,144538,144539,0.03722180053591728,-0.05171915143728256,1.011957049369812,43.23434829711914,23.319599151611328,-5.360147953033447,1.2134393453598022,2.032398223876953,2.9113543033599854,-4.06736946105957,1.6356942653656006,0.8646974563598633
303,144548,144549,0.06715437769889832,-0.042578618973493576,1.0479928255081177,13.909036636352539,-23.631519317626953,-1.268699288368225,1.2104394435882568,1.999400019645691,2.866356611251831,-4.091702938079834,1.9881813526153564,0.8202902674674988
304,144558,144559,0.061775192618370056,-0.03708995506167412,1.0252470970153809,-29.359100341796875,-66.72586059570312,4.4746413230896,1.2284384965896606,2.005399703979492,2.866356611251831,-3.8005692958831787,2.035865068435669,0.7883244752883911
305,144568,144569,0.05511665344238281,-0.09655884653329849,0.9822251796722412,-60.569618225097656,-95.16535949707031,10.064665794372559,1.2284384965896606,2.0233988761901855,2.899354934692383,-3.0766518115997314,1.6291340589523315,0.7888886332511902
306,144578,144579,-0.003042648546397686,-0.17064698040485382,0.9535695910453796,-68.7342758178711,-110.2952880859375,13.333303451538086,1.2524373531341553,2.038398027420044,2.9083545207977295,-2.146397829055786,0.7886455655097961,0.7978106141090393
307,144588,144589,0.060587722808122635,-0.13285084068775177,0.9675607681274414,-55.29114532470703,-104.16295623779297,15.74889087677002,1.2494374513626099,2.038398027420044,2.9143543243408203,-1.0933606624603271,0.19367316365242004,0.9399606585502625
308,144598,144599,0.026071084663271904,-0.04717526212334633,1.0035494565963745,-32.35255813598633,-81.50094604492188,18.440135955810547,1.2509374618530273,2.030898332595825,2.9008548259735107,-0.2903970777988434,-0.42231297492980957,1.0447633266448975
309,144608,144609,-0.015380891971290112,-0.059266798198223114,0.9918668866157532,1.0174839496612549,-38.458065032958984,20.343856811523438,1.2629368305206299,2.036898136138916,2.8798558712005615,0.2014039307832718,-0.6077921986579895,1.2206743955612183
310,144618,144619,-0.053865980356931686,-0.0654883161187172,0.9662760496139526,36.06990051269531,5.069756507873535,21.44186782836914,1.2584370374679565,2.0203988552093506,2.863356828689575,0.5864159464836121,-0.4015360474586487,1.467301368713379
311,144628,144629,-0.02633003704249859,-0.055316705256700516,0.9609105587005615,71.62920379638672,43.94048309326172,19.392959594726562,1.2239388227462769,2.039897918701172,2.9098544120788574,0.365709513425827,-0.11687597632408142,1.6448372602462769
312,144638,144639,0.0058809444308280945,-0.03692159056663513,0.9620624780654907,90.27593231201172,65.94390106201172,16.970001220703125,1.2419378757476807,2.0518972873687744,2.9158542156219482,-0.18774713575839996,0.820387065410614,1.8608356714248657
313,144648,144649,0.002241818467155099,-0.019565371796488762,0.9334926009178162,96.19544982910156,70.37114715576172,17.497264862060547,1.2359381914138794,2.0278985500335693,2.9008548259735107,-0.5845153331756592,1.5814814567565918,2.0503551959991455
314,144658,144659,0.03666744381189346,0.05090562626719475,0.9592469334602356,85.37284088134766,64.35704040527344,19.909353256225586,1.2239388227462769,2.03389835357666,2.9038548469543457,-1.5156030654907227,2.7213380336761475,2.2484335899353027
315,144668,144669,0.09051450341939926,0.019380072131752968,0.9369862675666809,66.5864028930664,48.01311492919922,20.770841598510742,1.2269386053085327,2.012899398803711,2.9038548469543457,-2.0712811946868896,3.4375953674316406,2.4668455123901367
316,144678,144679,0.034329239279031754,-0.05419262871146202,0.924325704574585,29.65489387512207,21.51119041442871,21.57806968688965,1.232938289642334,2.0218989849090576,2.894855260848999,-2.623713970184326,4.131994247436523,2.6945278644561768
317,144688,144689,0.028881818056106567,-0.08738824725151062,0.9086015820503235,-6.590547561645508,-9.824783325195312,18.067426681518555,1.2269386053085327,2.015899181365967,2.897855043411255,-2.721860647201538,4.365485668182373,2.931986093521118
318,144698,144699,0.039171040058135986,-0.05124285817146301,0.9287251234054565,-23.676042556762695,-38.861297607421875,11.193628311157227,1.2404379844665527,2.0293984413146973,2.893355369567871,-2.4750912189483643,4.237097263336182,3.129169225692749
319,144708,144709,0.035433314740657806,-0.019019434228539467,0.9240223169326782,-30.793426513671875,-64.29757690429688,4.824742317199707,1.2389379739761353,2.0188989639282227,2.9098544120788574,-2.3194081783294678,3.9160139560699463,3.1132469177246094
320,144718,144719,0.0569738894701004,-0.02759578451514244,0.957687258720398,-29.406494140625,-81.57052612304688,-0.3427009880542755,1.2584370374679565,2.035398244857788,2.9023547172546387,-1.1869714260101318,3.74406361579895,3.3367676734924316
321,144728,144729,0.04549149051308632,0.011746549978852272,0.9750823378562927,-34.207550048828125,-97.02411651611328,-6.849013805389404,1.2659367322921753,2.036898136138916,2.9338531494140625,-0.3215321898460388,3.4008169174194336,3.286682605743408
322,144738,144739,-0.021627334877848625,0.015099930576980114,0.9981115460395813,-42.338623046875,-98.2114028930664,-10.938421249389648,1.2689365148544312,2.039897918701172,2.92185378074646,0.4500788152217865,3.103294610977173,3.091601610183716
323,144748,144749,-0.026283949613571167,-0.052720874547958374,1.0082327127456665,-49.78947067260742,-80.42740631103516,-12.897750854492188,1.2644367218017578,2.0443978309631348,2.9353532791137695,1.5936520099639893,2.6077849864959717,3.001573324203491
324,144758,144759,-0.023616453632712364,-0.03951427713036537,1.0245132446289062,-56.722286224365234,-44.555084228515625,-15.113567352294922,1.2734363079071045,2.0503973960876465,2.9083545207977295,2.0678305625915527,2.134129524230957,2.690699338912964
325,144768,144769,-0.043721456080675125,-0.09342314302921295,1.0530623197555542,-58.46311569213867,-10.912949562072754,-14.797904968261719,1.2554372549057007,2.065396785736084,2.9023547172546387,2.6349337100982666,1.5605446100234985,2.578599691390991
326,144778,144779,-0.010718012228608131,-0.06982823461294174,1.051334261894226,-53.043739318847656,24.12295913696289,-14.455455780029297,1.2629368305206299,2.0698964595794678,2.9008548259735107,2.4174699783325195,0.9907618761062622,2.2754721641540527
327,144788,144789,-0.03564469888806343,-0.08196929842233658,1.04934561252594,-40.85612106323242,43.15990447998047,-12.685169219970703,1.2689365148544312,2.0788960456848145,2.9158542156219482,2.0199801921844482,0.4615500569343567,2.0539193153381348
328,144798,144799,-0.06465090811252594,-0.07738250494003296,1.0822306871414185,-25.29453468322754,52.91300964355469,-11.687996864318848,1.2509374618530273,2.0728962421417236,2.9128541946411133,1.6260570287704468,0.2853414714336395,1.923548936843872
329,144808,144809,-0.009877226315438747,-0.030526673421263695,1.070813775062561,-7.315959930419922,45.79794692993164,-10.652987480163574,1.247937560081482,2.0518972873687744,2.9008548259735107,0.9330028295516968,0.0008187196799553931,1.741641879081726
330,144818,144819,0.017189079895615578,-0.04128239303827286,1.0349763631820679,4.0220794677734375,26.90925407409668,-9.49773120880127,1.2524373531341553,2.0563971996307373,2.9053547382354736,0.9585772752761841,0.04296530410647392,1.7957321405410767
331,144828,144829,0.0195033960044384,-0.01898995228111744,1.034458875656128,12.494264602661133,1.7351890802383423,-7.6135993003845215,1.261436939239502,2.0413978099823,2.8843557834625244,0.644298255443573,0.05015319585800171,1.691821813583374
332,144838,144839,0.022018756717443466,-0.05062303692102432,1.0078154802322388,16.271764755249023,-19.893156051635742,-4.50408411026001,1.2554372549057007,2.035398244857788,2.8753561973571777,0.661223828792572,0.24946951866149902,1.6171629428863525
333,144848,144849,0.008963019587099552,-0.011098949238657951,1.020005226135254,13.470343589782715,-34.2581672668457,-0.8598266839981079,1.2584370374679565,2.0203988552093506,2.866356611251831,0.928871750831604,0.5478036403656006,1.5705736875534058
334,144858,144859,0.052085991948843,-0.03251386806368828,0.9951449036598206,8.87147045135498,-41.288063049316406,2.9178621768951416,1.2584370374679565,2.0233988761901855,2.893355369567871,1.4019885063171387,0.5020874738693237,1.624914288520813
335,144868,144869,0.09615757316350937,0.02430841140449047,0.996905505657196,-1.666539192199707,-36.21841812133789,4.777373313903809,1.2629368305206299,2.0278985500335693,2.8798558712005615,1.8518189191818237,0.6410169005393982,1.6504088640213013
336,144878,144879,0.08790239691734314,0.05487951636314392,1.0240373611450195,-16.269739151000977,-16.103498458862305,6.309345245361328,1.270436406135559,2.011399507522583,2.866356611251831,1.943475604057312,0.5168455839157104,1.6584802865982056
337,144888,144889,0.02497786283493042,0.047164443880319595,1.0402721166610718,-30.633953094482422,14.36633014678955,7.79844331741333,1.2644367218017578,2.0203988552093506,2.8603570461273193,2.0471973419189453,0.31685110926628113,1.7162957191467285
338,144898,144899,0.04359491169452667,0.0436837263405323,1.0358834266662598,-42.13448715209961,61.737552642822266,10.794596672058105,1.2584370374679565,2.032398223876953,2.866356611251831,1.7048249244689941,0.0791500061750412,1.7380940914154053
339,144908,144909,0.10103441029787064,-0.019087113440036774,1.0314282178878784,-38.58994674682617,87.46630859375,13.192242622375488,1.244937777519226,2.0578970909118652,2.9098544120788574,0.8702199459075928,-0.40922069549560547,1.8165459632873535
340,144918,144919,0.04259873181581497,-0.015770502388477325,1.0315234661102295,-32.44309616088867,98.33611297607422,13.874670028686523,1.244937777519226,2.0728962421417236,2.9158542156219482,0.505474865436554,-0.7653795480728149,2.0090391635894775
341,144928,144929,0.049568310379981995,-0.07433728128671646,1.0100972652435303,-18.816396713256836,87.1139144897461,13.044282913208008,1.2389379739761353,2.0698964595794678,2.9128541946411133,-0.7571657299995422,-0.9693565368652344,2.0646300315856934
342,144938,144939,0.0763968825340271,-0.011902187019586563,1.0522730350494385,-13.29833698272705,57.409366607666016,11.063532829284668,1.2254387140274048,2.0743961334228516,2.9023547172546387,-1.4066810607910156,-1.2194995880126953,2.2132322788238525
343,144948,144949,0.07741790264844894,-0.004511428065598011,1.0703166723251343,-12.039252281188965,15.836297988891602,9.329168319702148,1.231438398361206,2.0503973960876465,2.9023547172546387,-2.0342636108398438,-1.2495067119598389,2.287872314453125
344,144958,144959,0.04143620654940605,-0.01098256278783083,1.0386992692947388,-13.05101490020752,-31.388023376464844,10.500569343566895,1.2434377670288086,2.032398223876953,2.8603570461273193,-2.087939500808716,-1.4772356748580933,2.397038459777832
345,144968,144969,0.07177019864320755,0.012050235643982887,1.0396004915237427,-10.917562484741211,-77.53414916992188,14.632294654846191,1.2359381914138794,2.0248987674713135,2.87385630607605,-1.4970879554748535,-1.5663009881973267,2.510087013244629
346,144978,144979,0.09194941818714142,0.05347805842757225,1.0462229251861572,3.386279582977295,-115.72455596923828,20.476608276367188,1.247937560081482,2.0458977222442627,2.897855043411255,-0.7753542065620422,-1.7137387990951538,2.6847410202026367
347,144988,144989,0.12009461969137192,0.013438177295029163,1.0236698389053345,25.55511474609375,-132.5771484375,26.7099552154541,1.246437668800354,2.0473976135253906,2.9053547382354736,0.6089444756507874,-1.5865354537963867,2.8972179889678955
348,144998,144999,0.11588514596223831,-0.0075341989286243916,1.0040308237075806,65.68373107910156,-128.23460388183594,37.35493087768555,1.2689365148544312,2.0578970909118652,2.927853584289551,1.559177279472351,-1.3195576667785645,3.236642599105835
349,145008,145009,0.051928963512182236,-0.01238116156309843,1.0129776000976562,106.35009002685547,-95.38291931152344,43.50276184082031,1.2644367218017578,2.086395740509033,2.950352430343628,3.0452308654785156,-0.48088425397872925,3.574144124984741
350,145018,145019,0.03566594049334526,-0.0406775027513504,1.0078678131103516,120.78182983398438,-47.29695510864258,47.23979187011719,1.244937777519226,2.063896656036377,2.9608519077301025,3.803403377532959,0.3970852494239807,4.058402061462402
351,145028,145029,0.05224526673555374,-0.0832323208451271,0.9636003375053406,110.74764251708984,7.741296768188477,46.904632568359375,1.2584370374679565,2.0803959369659424,2.950352430343628,4.120217323303223,1.6384892463684082,4.522062301635742
352,145038,145039,0.05913775786757469,-0.08570729941129684,0.9316807985305786,78.20320892333984,55.020320892333984,43.62841033935547,1.2629368305206299,2.030898332595825,2.891855239868164,4.064273834228516,2.413029909133911,5.078909873962402
353,145048,145049,0.04159240797162056,-0.048894114792346954,0.9500467777252197,35.541107177734375,82.08995819091797,41.70118713378906,1.27643620967865,2.008399486541748,2.8483574390411377,3.334972858428955,3.143557071685791,5.56951379776001
354,145058,145059,0.04356582462787628,-0.06398606300354004,0.9427322745323181,-11.406169891357422,94.84905242919922,41.53096008300781,1.2749361991882324,2.0188989639282227,2.843857765197754,2.498082160949707,3.453056812286377,6.0447163581848145
355,145068,145069,0.0598156563937664,-0.07064078748226166,0.938449501991272,-59.09485626220703,86.33158111572266,41.42378234863281,1.2494374513626099,2.035398244857788,2.8783559799194336,1.6052803993225098,3.0660359859466553,6.614542484283447
356,145078,145079,0.04109223559498787,-0.07631153613328934,0.9579906463623047,-98.67237854003906,64.0290756225586,37.90327835083008,1.244937777519226,2.03389835357666,2.9038548469543457,0.7424055337905884,2.5721142292022705,7.029036045074463
357,145088,145089,0.028696656227111816,-0.042311906814575195,0.9825887680053711,-111.64849853515625,38.72911071777344,30.678010940551758,1.2554372549057007,2.0473976135253906,2.9113543033599854,0.18348582088947296,1.3259044885635376,7.534901142120361
358,145098,145099,0.02811693400144577,-0.03348361700773239,1.000272512435913,-98.34173583984375,13.434065818786621,20.61031150817871,1.2434377670288086,2.0443978309631348,2.9143543243408203,-0.2006455659866333,0.4793265759944916,7.760425567626953
359,145108,145109,0.027321569621562958,-0.0294332355260849,0.9959203004837036,-65.9990005493164,-11.757173538208008,9.373459815979004,1.261436939239502,2.0503973960876465,2.8873555660247803,-0.3072546422481537,-0.6683098077774048,8.021700859069824
360,145118,145119,0.013147039338946342,-0.034300122410058975,0.9807145595550537,-20.254045486450195,-28.755388259887695,-1.4808878898620605,1.2524373531341553,2.032398223876953,2.8603570461273193,-0.3228110373020172,-1.1607424020767212,8.05892562866211
361,145128,145129,0.0034473538398742676,-0.044654108583927155,0.9594916701316833,22.409196853637695,-36.44934844970703,-8.96390151977539,1.2509374618530273,2.0218989849090576,2.8348581790924072,0.19187037646770477,-1.1990914344787598,8.021465301513672
362,145138,145139,0.007025933358818293,-0.02895653434097767,0.9558042883872986,57.41416931152344,-37.749412536621094,-12.349126815795898,1.2629368305206299,2.0248987674713135,2.8588569164276123,0.3828841745853424,-1.015490174293518,7.9447126388549805
363,145148,145149,0.002415174152702093,-0.035592999309301376,0.9424152970314026,74.43968200683594,-26.195444107055664,-11.849723815917969,1.2554372549057007,2.035398244857788,2.8813557624816895,0.9077830910682678,-0.45227721333503723,7.826518535614014
364,145158,145159,0.010039610788226128,-0.046423736959695816,0.9301442503929138,67.93534088134766,-9.079819679260254,-10.683503150939941,1.2419378757476807,2.03389835357666,2.894855260848999,0.9977207779884338,0.36830323934555054,7.693701267242432
365,145168,145169,0.020791616290807724,-0.05851427838206291,0.906198263168335,40.84299850463867,8.442628860473633,-12.00560474395752,1.2509374618530273,2.030898332595825,2.87385630607605,1.0314302444458008,1.0754657983779907,7.579216957092285
366,145178,145179,-0.01584339141845703,-0.03113335557281971,0.9093045592308044,10.653990745544434,16.902835845947266,-13.309139251708984,1.247937560081482,2.012899398803711,2.8468575477600098,0.8743187785148621,1.5183825492858887,7.457613468170166
367,145188,145189,-0.010899237357079983,-0.014170271344482899,0.9071759581565857,-27.188142776489258,13.131759643554688,-14.851128578186035,1.2524373531341553,2.005399703979492,2.8513574600219727,0.6333509087562561,1.4939906597137451,7.356479644775391
368,145198,145199,0.02292443998157978,-0.0264829620718956,0.9288640022277832,-51.16110610961914,2.655918598175049,-16.378984451293945,1.244937777519226,2.0218989849090576,2.8618569374084473,0.5561877489089966,0.9384938478469849,7.280938625335693
369,145208,145209,0.01871754415333271,-0.03216128796339035,0.9356644749641418,-61.4277458190918,-5.847115993499756,-18.560291290283203,1.2419378757476807,2.03389835357666,2.8828558921813965,0.5602765679359436,0.700631856918335,7.062341690063477
370,145218,145219,0.020404992625117302,-0.02887011133134365,0.9517256021499634,-59.63264083862305,-13.40903377532959,-20.93437957763672,1.2674366235733032,2.0413978099823,2.863356828689575,0.7115091681480408,-0.23511724174022675,6.951358795166016
371,145228,145229,0.026118015870451927,-0.0033407779410481453,0.9741888642311096,-45.45133972167969,-10.96053409576416,-23.8587589263916,1.247937560081482,2.036898136138916,2.8528573513031006,0.9400656819343567,-0.4453067183494568,6.666787624359131
372,145238,145239,0.03577837347984314,-0.030087819322943687,0.9673617482185364,-16.033540725708008,-4.080206394195557,-24.652700424194336,1.247937560081482,2.036898136138916,2.8528573513031006,1.1082104444503784,-0.804114043712616,6.415737152099609
373,145248,145249,0.0035679249558597803,-0.015310870483517647,0.992142379283905,9.183338165283203,5.123598098754883,-24.533031463623047,1.2359381914138794,2.030898332595825,2.8558571338653564,1.0069609880447388,-0.9319424629211426,6.166674613952637
374,145258,145259,0.0030914987437427044,-0.045607827603816986,0.9794543981552124,21.46468734741211,11.794759750366211,-24.814743041992188,1.2539372444152832,2.030898332595825,2.8768560886383057,0.9812017679214478,-0.7601388096809387,5.904018878936768
375,145268,145269,0.004380710888653994,-0.02598029375076294,0.9931018352508545,22.100435256958008,16.639118194580078,-24.106313705444336,1.2404379844665527,2.035398244857788,2.8813557624816895,0.7879208922386169,-0.573957622051239,5.668279647827148
376,145278,145279,0.04343858361244202,-0.033095840364694595,0.9904511570930481,11.932451248168945,15.827169418334961,-23.706392288208008,1.2404379844665527,2.0413978099823,2.8783559799194336,0.6100979447364807,-0.35391363501548767,5.4285078048706055
377,145288,145289,0.01627102680504322,-0.003332747146487236,1.003291130065918,-3.3144657611846924,13.09980297088623,-22.87850570678711,1.2419378757476807,2.030898332595825,2.870856523513794,0.586842954158783,-0.3151961863040924,5.198009967803955
378,145298,145299,0.03693006932735443,-0.030214333906769753,0.9934664964675903,-21.623249053955078,5.734642028808594,-21.442352294921875,1.2419378757476807,2.0248987674713135,2.8618569374084473,0.4743601977825165,-0.4623737335205078,4.992029666900635
379,145308,145309,0.039471015334129333,-0.03221920132637024,0.9866847395896912,-31.842037200927734,-4.287866115570068,-20.21875762939453,1.247937560081482,2.030898332595825,2.864856719970703,0.4240625500679016,-0.7315636873245239,4.789788246154785
380,145318,145319,0.009660565294325352,-0.0008593606180511415,0.9917647838592529,-32.086063385009766,-17.91240882873535,-20.221094131469727,1.2374380826950073,2.032398223876953,2.8603570461273193,0.552978515625,-1.0572112798690796,4.583329677581787
381,145328,145329,0.005200439132750034,-0.025517314672470093,0.9630187153816223,-23.33682632446289,-29.254863739013672,-20.297914505004883,1.2524373531341553,2.0233988761901855,2.8753561973571777,0.8779640197753906,-1.3523378372192383,4.365198135375977
382,145338,145339,0.02134944684803486,-0.04039447009563446,0.9509093761444092,-6.300828456878662,-37.41070556640625,-19.910280227661133,1.246437668800354,2.0293984413146973,2.869356393814087,1.0125732421875,-1.8153382539749146,4.232271194458008
383,145348,145349,0.03793732821941376,-0.03396796062588692,0.9453226327896118,8.710193634033203,-36.852176666259766,-18.88676643371582,1.2674366235733032,2.0413978099823,2.8753561973571777,1.338634729385376,-1.3495078086853027,3.9626920223236084
384,145358,145359,0.04060088470578194,-0.03515975549817085,0.9492276310920715,18.619234085083008,-24.739994049072266,-16.14407730102539,1.2584370374679565,2.0563971996307373,2.8873555660247803,1.876266360282898,-1.1795307397842407,3.7402079105377197
385,145368,145369,0.029998084530234337,-0.03018704429268837,0.9680671095848083,18.34765625,-2.9400763511657715,-14.224322319030762,1.2539372444152832,2.0578970909118652,2.891855239868164,1.8613314628601074,-1.0398164987564087,3.6432530879974365
386,145378,145379,0.07209961116313934,-0.0062062377110123634,0.9705078601837158,12.739361763000488,21.87919807434082,-14.142231941223145,1.2584370374679565,2.06839656829834,2.9023547172546387,1.8512084484100342,-0.8531444668769836,3.5077478885650635
387,145388,145389,0.10958706587553024,0.06926721334457397,0.9951504468917847,4.462817668914795,40.34759521484375,-15.059858322143555,1.2539372444152832,2.060896873474121,2.894855260848999,1.5438706874847412,-0.8442574739456177,3.408634662628174
388,145398,145399,0.10811009258031845,0.12271025031805038,1.0355507135391235,-1.026208758354187,52.93947219848633,-15.647979736328125,1.2554372549057007,2.06839656829834,2.9113543033599854,0.969546914100647,-0.8069685101509094,3.291811943054199
389,145408,145409,0.13872471451759338,0.12101051211357117,1.061959147453308,-2.5806033611297607,55.27688217163086,-18.51980209350586,1.246437668800354,2.0833957195281982,2.920353889465332,0.5291375517845154,-0.8394060730934143,3.1138103008270264
390,145418,145419,0.15545837581157684,0.05159400403499603,1.0589451789855957,-5.216640472412109,44.324214935302734,-21.84020233154297,1.246437668800354,2.0773961544036865,2.9083545207977295,-0.10448950529098511,-0.89411860704422,2.944951295852661
391,145428,145429,0.11698668450117111,0.012985141016542912,1.075520396232605,-10.048131942749023,33.06179428100586,-26.023164749145508,1.244937777519226,2.0728962421417236,2.918853998184204,-0.19969037175178528,-1.011489748954773,2.6532788276672363
392,145438,145439,0.04825327917933464,0.04461710900068283,1.0389889478683472,-17.041505813598633,21.331127166748047,-30.07506561279297,1.2539372444152832,2.063896656036377,2.9098544120788574,-0.7074437141418457,-0.9984052777290344,2.41119122505188
393,145448,145449,0.03670565411448479,0.13108637928962708,1.0674329996109009,-28.61524200439453,13.470388412475586,-30.696908950805664,1.2374380826950073,2.059396982192993,2.9083545207977295,-0.7484585642814636,-1.1156233549118042,2.063019275665283
394,145458,145459,0.0726114809513092,0.0644991472363472,1.089678168296814,-36.0169563293457,19.3028507232666,-25.962116241455078,1.232938289642334,2.066896677017212,2.9158542156219482,-1.072932481765747,-1.6338857412338257,1.821149468421936
395,145468,145469,0.0908016487956047,-0.004841451067477465,1.1249438524246216,-24.897424697875977,21.2620849609375,-18.93282699584961,1.244937777519226,2.066896677017212,2.9008548259735107,-1.1737943887710571,-2.119260787963867,1.546656608581543
396,145478,145479,0.06275252997875214,-0.045556481927633286,1.1113072633743286,-3.5953056812286377,12.500155448913574,-11.820866584777832,1.2434377670288086,2.059396982192993,2.893355369567871,-1.1753551959991455,-2.0709831714630127,1.2912832498550415
397,145488,145489,-0.03806588798761368,-0.11627329140901566,1.0486302375793457,12.37065315246582,-1.7998876571655273,-2.9404895305633545,1.2299385070800781,2.039897918701172,2.8828558921813965,-1.3066339492797852,-2.0746171474456787,1.1776621341705322
398,145498,145499,-0.01162466686218977,-0.1779244989156723,0.9950328469276428,18.869159698486328,-8.902576446533203,6.164388179779053,1.2299385070800781,2.030898332595825,2.870856523513794,-1.2215304374694824,-1.855053424835205,1.1367504596710205
399,145508,145509,0.040357720106840134,-0.1833943873643875,0.9882985949516296,15.184358596801758,-4.067210674285889,14.374273300170898,1.231438398361206,2.0263986587524414,2.8783559799194336,-1.1774674654006958,-1.7928173542022705,1.2095872163772583
400,145518,145519,0.09891907870769501,-0.13099801540374756,0.9601114392280579,4.122503280639648,-3.9912197589874268,20.204992294311523,1.2419378757476807,2.0218989849090576,2.8588569164276123,-1.1808722019195557,-1.7393032312393188,1.3618171215057373
401,145528,145529,0.08853183686733246,-0.05750814825296402,0.9801254272460938,-2.507756471633911,-4.356792449951172,27.16645050048828,1.232938289642334,2.039897918701172,2.87385630607605,-1.1177650690078735,-1.6874703168869019,1.5583044290542603
402,145538,145539,0.07303766906261444,-0.04940355196595192,0.9592180848121643,-4.48413610458374,-7.349036693572998,30.6511173248291,1.2374380826950073,2.0473976135253906,2.8843557834625244,-1.1876922845840454,-1.7875862121582031,1.8511312007904053
403,145548,145549,0.07743289321660995,-0.09033837169408798,0.941724419593811,-4.74247407913208,-16.919921875,35.39925003051758,1.2239388227462769,2.039897918701172,2.894855260848999,-1.1020429134368896,-1.8285115957260132,2.1559109687805176
404,145558,145559,0.025761524215340614,-0.07542672008275986,0.9820433855056763,-4.000655174255371,-31.27610206604004,39.97761535644531,1.2359381914138794,2.060896873474121,2.891855239868164,-0.9113864302635193,-1.8747327327728271,2.4998645782470703
405,145568,145569,0.01702655293047428,-0.053965870290994644,0.9969485998153687,4.023940086364746,-37.15390396118164,44.97744369506836,1.2359381914138794,2.0488975048065186,2.894855260848999,-1.0056511163711548,-2.019033908843994,3.0239450931549072
406,145578,145579,0.07234526425600052,-0.011686007492244244,0.9992354512214661,16.66500473022461,-32.166812896728516,45.38515090942383,1.2434377670288086,2.0533971786499023,2.9023547172546387,-0.5367544293403625,-1.934011697769165,3.446329355239868
407,145588,145589,0.07681992650032043,-0.032573409378528595,1.0080646276474,41.98770523071289,-22.59050178527832,43.4526252746582,1.244937777519226,2.060896873474121,2.9128541946411133,-0.4551630914211273,-1.7329394817352295,3.9913556575775146
408,145598,145599,0.05156329646706581,-0.047727715224027634,1.0659360885620117,64.88766479492188,-12.661429405212402,39.8991584777832,1.2359381914138794,2.066896677017212,2.9128541946411133,-0.0812041312456131,-1.3451008796691895,4.368235111236572
409,145608,145609,0.0650300607085228,-0.05142321065068245,1.0301101207733154,84.1996078491211,-4.383041858673096,37.10892868041992,1.232938289642334,2.0578970909118652,2.9068546295166016,-0.16166163980960846,-0.5217713117599487,4.870631694793701
410,145618,145619,0.038145001977682114,-0.07743705809116364,0.9966782331466675,89.8131103515625,2.010584831237793,32.432456970214844,1.2584370374679565,2.0473976135253906,2.890355348587036,-0.07329237461090088,0.2059873342514038,5.204118728637695
411,145628,145629,0.030974917113780975,-0.04368889704346657,0.9727796316146851,80.0847396850586,11.979090690612793,27.085861206054688,1.247937560081482,2.0428977012634277,2.888855457305908,-0.24443869292736053,1.2431975603103638,5.596155166625977
412,145638,145639,0.059351708739995956,0.008558343164622784,1.0094175338745117,54.848751068115234,17.778676986694336,20.598478317260742,1.247937560081482,2.0278985500335693,2.8858556747436523,-0.531470537185669,1.763485312461853,5.873278617858887
413,145648,145649,0.10327049344778061,-0.03404001146554947,1.0527256727218628,18.366161346435547,12.968385696411133,14.924729347229004,1.247937560081482,2.0248987674713135,2.8858556747436523,-0.8551055192947388,2.3895020484924316,6.134450912475586
414,145658,145659,0.08179137110710144,-0.05176896974444389,1.0562613010406494,-19.194581985473633,-15.349187850952148,7.246490001678467,1.2539372444152832,2.0218989849090576,2.894855260848999,-0.9240518808364868,2.4988696575164795,6.265056610107422
415,145668,145669,0.04667840152978897,-0.021794695407152176,1.047097086906433,-47.054039001464844,-44.36029815673828,-0.912878692150116,1.2509374618530273,2.03389835357666,2.894855260848999,-0.687687873840332,2.1238248348236084,6.286020755767822
416,145678,145679,0.05776005610823631,-0.044103775173425674,1.0527997016906738,-60.485572814941406,-65.38763427734375,-7.115314960479736,1.2569371461868286,2.039897918701172,2.8798558712005615,-0.1511441171169281,1.5735502243041992,6.242638111114502
417,145688,145689,0.04100808873772621,-0.030548734590411186,1.0474116802215576,-59.478187561035156,-84.83328247070312,-11.433892250061035,1.2644367218017578,2.0413978099823,2.8873555660247803,0.5920584201812744,0.9818279147148132,6.157607555389404
418,145698,145699,0.009291675873100758,0.010080785490572453,1.0212913751602173,-38.72350311279297,-85.68946838378906,-14.891679763793945,1.2719364166259766,2.039897918701172,2.8858556747436523,1.4774569272994995,0.5091262459754944,6.050931453704834
419,145708,145709,0.02018975093960762,0.012313117273151875,0.9922105073928833,-10.148250579833984,-71.67090606689453,-19.42269515991211,1.2599369287490845,2.039897918701172,2.8858556747436523,2.320852518081665,0.1851867139339447,5.9049177169799805
420,145718,145719,0.04158231243491173,0.02658059075474739,1.0205073356628418,15.341329574584961,-38.07798385620117,-23.60862922668457,1.2689365148544312,2.0188989639282227,2.8618569374084473,2.6318535804748535,0.25144699215888977,5.70301628112793
421,145728,145729,0.0795874074101448,-0.002434446243569255,1.0241875648498535,24.771774291992188,-3.369121551513672,-25.794845581054688,1.2509374618530273,2.0248987674713135,2.864856719970703,3.1469593048095703,0.5591912865638733,5.471768856048584
422,145738,145739,0.08732589334249496,-0.11774753034114838,0.998542845249176,26.22195053100586,29.466400146484375,-27.995820999145508,1.2794359922409058,2.014399290084839,2.8543572425842285,2.9591617584228516,0.7817764282226562,5.2073187828063965
423,145748,145749,0.026714209467172623,-0.1366782933473587,0.9801700711250305,21.61729621887207,51.4876708984375,-30.663663864135742,1.2659367322921753,2.03389835357666,2.8558571338653564,2.527181386947632,1.069504976272583,4.923381805419922
424,145758,145759,-0.00987760815769434,-0.13493132591247559,0.9507380723953247,15.62718677520752,61.041664123535156,-31.506784439086914,1.2584370374679565,2.005399703979492,2.8543572425842285,2.0733039379119873,1.2799783945083618,4.636800765991211
425,145768,145769,0.022424902766942978,-0.08685940504074097,0.9107754826545715,12.050098419189453,55.45339584350586,-31.09477424621582,1.2629368305206299,2.036898136138916,2.8588569164276123,1.3101887702941895,1.4690821170806885,4.320527076721191
426,145778,145779,0.005710915196686983,-0.04916960000991821,0.9042633175849915,15.054997444152832,35.793739318847656,-28.688385009765625,1.247937560081482,2.009899377822876,2.8468575477600098,0.9167174100875854,1.5507110357284546,4.053722381591797
427,145788,145789,-0.016755493357777596,-0.06519860029220581,0.8778530955314636,26.053630828857422,7.098690986633301,-26.253137588500977,1.2584370374679565,1.9874006509780884,2.8333582878112793,0.8126372694969177,1.7122896909713745,3.811943769454956
428,145798,145799,-0.03132033348083496,-0.06013459339737892,0.8670848608016968,35.62200164794922,-22.466646194458008,-21.65772247314453,1.2494374513626099,1.9904004335403442,2.845357656478882,0.8780108690261841,1.9135981798171997,3.5863771438598633
429,145808,145809,0.0095354113727808,-0.03742166608572006,0.9262508749961853,33.444664001464844,-39.347537994384766,-16.653966903686523,1.2389379739761353,2.0188989639282227,2.864856719970703,1.134468674659729,2.427737236022949,3.345585584640503
430,145818,145819,-0.012896520085632801,-0.08782452344894409,0.8966854810714722,15.297415733337402,-51.922454833984375,-12.051451683044434,1.2599369287490845,2.00689959526062,2.891855239868164,1.6580857038497925,2.622056007385254,3.2134909629821777
431,145828,145829,0.022308073937892914,-0.05570857599377632,0.9030513763427734,-9.899245262145996,-51.952232360839844,-9.058547973632812,1.270436406135559,2.011399507522583,2.8843557834625244,1.958802580833435,2.7313435077667236,3.030867099761963
432,145838,145839,0.03771910443902016,0.014467941597104073,0.9337419867515564,-34.366729736328125,-47.28614044189453,-6.989275932312012,1.2644367218017578,2.011399507522583,2.866356611251831,2.4721498489379883,2.626344680786133,2.9195454120635986
433,145848,145849,0.0452558659017086,-0.0022342922165989876,0.9592915773391724,-61.564353942871094,-31.15243911743164,-5.625243663787842,1.2824358940124512,2.014399290084839,2.8753561973571777,3.068546772003174,2.028766632080078,2.9310479164123535
434,145858,145859,0.016473805531859398,-0.04785013571381569,0.9881696701049805,-76.26885986328125,-16.9793758392334,-3.7329812049865723,1.2719364166259766,2.039897918701172,2.897855043411255,2.992126703262329,1.6394716501235962,2.683159828186035
435,145868,145869,0.004188901279121637,-0.06158024072647095,1.00227952003479,-75.83108520507812,-1.2719054222106934,0.6640085577964783,1.2869356870651245,2.0548973083496094,2.9098544120788574,3.31807017326355,0.7504853010177612,2.7378718852996826
436,145878,145879,-0.003839853685349226,0.015115157701075077,1.002874493598938,-57.302635192871094,9.80051326751709,2.0070016384124756,1.2734363079071045,2.0473976135253906,2.899354934692383,3.2702291011810303,0.16475199162960052,2.6641249656677246
437,145888,145889,0.01366428192704916,-0.07020354270935059,1.0206544399261475,-29.920129776000977,18.419002532958984,2.5935449600219727,1.2749361991882324,2.0518972873687744,2.8798558712005615,3.114053726196289,-0.5269737243652344,2.7066071033477783
438,145898,145899,0.030212940648198128,-0.14285190403461456,1.047669768333435,2.4729812145233154,16.53006935119629,1.8273309469223022,1.2779361009597778,2.0548973083496094,2.891855239868164,2.8657562732696533,-0.6463145017623901,2.6419055461883545
439,145908,145909,0.02960234321653843,-0.09708967059850693,1.0805115699768066,29.601776123046875,8.90377426147461,0.8872701525688171,1.2659367322921753,2.0548973083496094,2.897855043411255,2.953223466873169,-0.4905252158641815,2.666609287261963
440,145918,145919,0.004226326011121273,-0.04877232387661934,1.039612054824829,49.9871711730957,-1.7953630685806274,0.6948727369308472,1.2569371461868286,2.0548973083496094,2.92185378074646,2.8686883449554443,0.0015574489952996373,2.592909336090088
441,145928,145929,0.01676451787352562,-0.047053974121809006,0.9767489433288574,55.61967086791992,-9.165124893188477,2.0837595462799072,1.27643620967865,2.059396982192993,2.926353693008423,2.932267189025879,0.38847947120666504,2.6539883613586426
442,145938,145939,0.01100146770477295,-0.02711515873670578,0.9841053485870361,46.77452087402344,-14.421236038208008,1.504987120628357,1.2809358835220337,2.0458977222442627,2.918853998184204,3.104163408279419,0.8958320617675781,2.7075207233428955
443,145948,145949,-0.008035221137106419,-0.03883886709809303,0.9794227480888367,25.944351196289062,-14.14004135131836,0.21078447997570038,1.270436406135559,2.0413978099823,2.9053547382354736,3.3379311561584473,1.4325165748596191,2.7062323093414307
444,145958,145959,0.029884040355682373,-0.04516305401921272,0.980333149433136,-2.97261118888855,-5.132367134094238,-1.289309024810791,1.2824358940124512,2.035398244857788,2.893355369567871,3.2451584339141846,1.7368947267532349,2.6456034183502197
445,145968,145969,-0.004783846437931061,-0.05263235792517662,0.9701499342918396,-29.114225387573242,10.080816268920898,-3.832930564880371,1.2809358835220337,2.039897918701172,2.8798558712005615,3.4880080223083496,1.571947693824768,2.744474411010742
446,145978,145979,0.0022202639374881983,-0.049604035913944244,0.9766355752944946,-47.02035903930664,26.300254821777344,-7.49191951751709,1.2809358835220337,2.0428977012634277,2.87385630607605,3.3945610523223877,1.1636970043182373,2.777764320373535
447,145988,145989,0.016366608440876007,-0.03977262228727341,0.9969261288642883,-55.6683349609375,41.56734085083008,-10.109016418457031,1.2779361009597778,2.0518972873687744,2.888855457305908,3.0296549797058105,0.5034372806549072,2.7916293144226074
448,145998,145999,0.028441311791539192,-0.008682229556143284,1.0345488786697388,-54.59776306152344,51.048118591308594,-11.966435432434082,1.2674366235733032,2.059396982192993,2.899354934692383,2.6551506519317627,0.31217139959335327,2.5163590908050537
449,146008,146009,0.022546758875250816,-0.017428159713745117,1.030547022819519,-43.292232513427734,54.69003677368164,-12.795243263244629,1.2569371461868286,2.0518972873687744,2.9008548259735107,1.9969584941864014,-0.4116280674934387,2.4626591205596924
450,146018,146019,0.027256548404693604,-0.025610726326704025,1.0530576705932617,-29.472448348999023,52.542762756347656,-14.58644962310791,1.2524373531341553,2.062396764755249,2.890355348587036,1.5884969234466553,-0.7231471538543701,2.2931175231933594
451,146028,146029,0.004527585115283728,-0.002964901039376855,1.0643750429153442,-13.357284545898438,42.53936767578125,-15.18796443939209,1.2599369287490845,2.066896677017212,2.9008548259735107,0.814681887626648,-1.1484578847885132,2.1619584560394287
452,146038,146039,0.004796842113137245,-0.05246586725115776,1.0266402959823608,4.492737293243408,25.921546936035156,-15.417749404907227,1.2509374618530273,2.063896656036377,2.888855457305908,0.7482971549034119,-1.1573859453201294,1.994910478591919
453,146048,146049,0.03802371770143509,0.03480552136898041,1.0603420734405518,17.182710647583008,4.739795684814453,-14.278996467590332,1.2359381914138794,2.063896656036377,2.9038548469543457,0.4447211027145386,-1.0526214838027954,1.8054368495941162
454,146058,146059,0.05228211358189583,0.0008599463617429137,1.0310397148132324,33.50926208496094,-16.618337631225586,-13.47518253326416,1.2599369287490845,2.0428977012634277,2.891855239868164,0.42779454588890076,-0.7830528020858765,1.6312700510025024
455,146068,146069,0.021243350580334663,-0.024786312133073807,1.022086262702942,37.95668411254883,-28.258859634399414,-12.29808235168457,1.244937777519226,2.0518972873687744,2.9068546295166016,0.8465685248374939,-0.4596133232116699,1.5112711191177368
456,146078,146079,0.031421370804309845,-0.04295526444911957,1.0021265745162964,34.060768127441406,-28.18691062927246,-11.77299976348877,1.2404379844665527,2.0503973960876465,2.917354106903076,1.1787993907928467,0.050979480147361755,1.3513485193252563
457,146088,146089,0.027620861306786537,-0.04694453999400139,1.0151515007019043,17.26799964904785,-13.16465950012207,-11.08165168762207,1.2434377670288086,2.032398223876953,2.899354934692383,1.375855803489685,0.1600419580936432,1.297566533088684
458,146098,146099,0.013876239769160748,0.008043546229600906,1.015774130821228,-3.3665051460266113,3.8846094608306885,-12.228222846984863,1.2629368305206299,2.0248987674713135,2.87385630607605,1.4717931747436523,0.35116174817085266,1.18316650390625
459,146108,146109,0.04078330472111702,0.04354317858815193,0.99461430311203,-25.903629302978516,26.250341415405273,-13.755857467651367,1.2494374513626099,2.0173990726470947,2.836358070373535,1.3131741285324097,0.17944836616516113,1.0962339639663696
460,146118,146119,0.07525251805782318,0.04082871600985527,0.9985504150390625,-41.7509651184082,45.36543273925781,-15.180753707885742,1.2554372549057007,2.038398027420044,2.866356611251831,1.0280781984329224,-0.18026745319366455,0.9855055212974548
461,146128,146129,0.049735844135284424,-0.018287889659404755,1.0105900764465332,-48.2528076171875,54.778076171875,-16.715633392333984,1.2419378757476807,2.0278985500335693,2.870856523513794,0.5690646767616272,-0.45716187357902527,0.8022603988647461
462,146138,146139,0.06646565347909927,0.010032804682850838,1.0424182415008545,-45.184539794921875,60.6723518371582,-17.61688804626465,1.247937560081482,2.03389835357666,2.8798558712005615,0.03330663591623306,-1.0275063514709473,0.6495133638381958
463,146148,146149,0.12873610854148865,0.07946909964084625,1.0748974084854126,-29.515010833740234,61.103824615478516,-21.729686737060547,1.246437668800354,2.0413978099823,2.872356414794922,-0.5295863151550293,-1.3512710332870483,0.4378052055835724
464,146158,146159,0.11411308497190475,0.032421600073575974,1.042216420173645,-11.288558006286621,52.8204460144043,-24.804344177246094,1.2374380826950073,2.0413978099823,2.8813557624816895,-1.182490348815918,-1.7042782306671143,0.21524101495742798
465,146168,146169,0.16312508285045624,0.12222518771886826,1.0943078994750977,5.432879447937012,50.849632263183594,-25.280012130737305,1.232938289642334,2.03389835357666,2.8588569164276123,-1.6577379703521729,-1.6736392974853516,-0.05859502777457237
466,146178,146179,0.08578815311193466,0.13030073046684265,1.0513925552368164,11.029825210571289,56.10478210449219,-23.37757682800293,1.2224388122558594,2.0413978099823,2.872356414794922,-2.2709996700286865,-1.6511964797973633,-0.3141827881336212
467,146188,146189,0.07375863939523697,0.06869309395551682,1.0274066925048828,7.600062847137451,58.4373664855957,-19.17921257019043,1.216439127922058,2.0233988761901855,2.863356828689575,-2.465301036834717,-1.6498218774795532,-0.6070738434791565
468,146198,146199,0.11353572458028793,-0.013950562104582787,1.0766130685806274,5.981533527374268,48.123748779296875,-14.375176429748535,1.2224388122558594,2.0173990726470947,2.8753561973571777,-3.3355023860931396,-1.53786301612854,-0.7663347125053406
469,146208,146209,0.09592712670564651,-0.057363808155059814,1.1134556531906128,7.025659084320068,32.92695236206055,-7.609543800354004,1.2269386053085327,2.00689959526062,2.8468575477600098,-3.386779546737671,-1.5225051641464233,-0.9938122034072876
470,146218,146219,0.11667902767658234,-0.10220866650342941,1.081321358680725,7.07048225402832,7.599084377288818,1.226123571395874,1.2374380826950073,2.011399507522583,2.866356611251831,-3.8054234981536865,-1.4107553958892822,-1.046732783317566
471,146228,146229,0.06824860721826553,-0.09630559384822845,1.0407601594924927,11.20872688293457,-9.196948051452637,10.747576713562012,1.2209389209747314,1.982900857925415,2.8228588104248047,-3.837477445602417,-1.4169280529022217,-1.07060968875885
472,146238,146239,0.03224297985434532,-0.03443226218223572,1.0705997943878174,16.948501586914062,-29.0134334564209,18.207599639892578,1.2299385070800781,1.985900640487671,2.8348581790924072,-3.6425013542175293,-1.1905275583267212,-0.9382844567298889
473,146248,146249,0.0236897524446249,0.0009628790430724621,1.070257544517517,26.951904296875,-47.09859085083008,20.390377044677734,1.2179391384124756,1.982900857925415,2.8228588104248047,-3.416025400161743,-1.1354693174362183,-0.7957223653793335
474,146258,146259,0.06727802753448486,0.013497600331902504,1.0253419876098633,32.27997589111328,-63.492069244384766,19.682647705078125,1.2224388122558594,1.9814008474349976,2.836358070373535,-2.9019408226013184,-0.7242597937583923,-0.5282834768295288
475,146268,146269,0.08645526319742203,-0.02113165520131588,0.9946815967559814,37.05392074584961,-60.492942810058594,18.561067581176758,1.2374380826950073,1.9904004335403442,2.8543572425842285,-2.356135129928589,-0.3708611726760864,-0.2999391555786133
476,146278,146279,0.07448118180036545,-0.02955527976155281,0.9585583209991455,24.744544982910156,-42.63557815551758,19.646291732788086,1.247937560081482,1.970901370048523,2.813859224319458,-1.760751485824585,-0.15602830052375793,-0.19181130826473236
477,146288,146289,0.07526963949203491,-0.015053404495120049,0.9218230247497559,-3.247943162918091,-18.32030487060547,19.88130760192871,1.2404379844665527,1.9724013805389404,2.8213589191436768,-1.5503835678100586,0.08760233223438263,0.04419313743710518
478,146298,146299,0.07807542383670807,0.008014599792659283,0.8983859419822693,-22.63542938232422,-7.810079574584961,18.881149291992188,1.2434377670288086,1.9904004335403442,2.836358070373535,-1.2923777103424072,-0.08121801912784576,0.14613117277622223
479,146308,146309,0.07305339723825455,0.009022991172969341,0.8847113847732544,-34.54996109008789,12.815319061279297,18.843730926513672,1.232938289642334,2.0038998126983643,2.8288586139678955,-1.3377076387405396,-0.3393671214580536,0.3344132602214813
