,timestamp_start,timestamp_end,acc.x,acc.y,acc.z,gyro.x,gyro.y,gyro.z,mag.x,mag.y,mag.z,stabilizer.pitch,stabilizer.roll,stabilizer.yaw
0,50891,50892,-0.05856958031654358,-0.00429273396730423,0.8696628212928772,-26.055091857910156,0.9099001288414001,-28.789024353027344,-0.7694615125656128,1.315434217453003,0.2654867172241211,-3.2855873107910156,0.3239865303039551,4.849379539489746
1,50901,50902,-0.05516980215907097,0.019385283812880516,0.9056495428085327,-24.95698356628418,-8.084280967712402,-23.760581970214844,-0.7619618773460388,1.3229337930679321,0.2639867961406708,-3.248929262161255,0.4329472780227661,4.734453201293945
2,50911,50912,-0.017666712403297424,0.06031201407313347,0.958800196647644,-21.799413681030273,-22.786916732788086,-20.841814041137695,-0.7634618282318115,1.3184340000152588,0.25048747658729553,-3.048463821411133,0.023307885974645615,4.4455156326293945
3,50921,50922,-0.015627041459083557,0.0698029175400734,0.8926399946212769,-22.399614334106445,-45.08383560180664,-20.427001953125,-0.7484625577926636,1.3364331722259521,0.2744862735271454,-2.3851115703582764,-0.1214698776602745,4.30642032623291
4,50931,50932,-0.0665825605392456,0.08124636858701706,0.9709862470626831,-19.019332885742188,-54.64723587036133,-24.117919921875,-0.7574620842933655,1.3364331722259521,0.2834858298301697,-2.1817214488983154,-0.3981330096721649,4.038002014160156
5,50941,50942,-0.13780242204666138,0.007599517237395048,1.0916811227798462,-3.68203067779541,-52.8958625793457,-27.020496368408203,-0.7619618773460388,1.3259336948394775,0.2759861946105957,-1.325849175453186,-0.6591026782989502,3.767514228820801
6,50951,50952,-0.1914331018924713,0.04083184897899628,1.1268105506896973,17.57816505432129,-29.94862174987793,-23.256563186645508,-0.7469626665115356,1.3259336948394775,0.26998651027679443,-0.6704057455062866,0.08696894347667694,3.776155710220337
7,50961,50962,-0.13266675174236298,-0.05438591539859772,1.17123281955719,30.765823364257812,-5.980464458465576,-15.099467277526855,-0.7634618282318115,1.3244338035583496,0.2744862735271454,-0.998400092124939,0.20630426704883575,3.4914557933807373
8,50971,50972,-0.09668707847595215,0.03128298744559288,1.0077323913574219,13.14199447631836,18.050376892089844,-8.849588394165039,-0.7529623508453369,1.3229337930679321,0.2639867961406708,-1.0016900300979614,0.5806182026863098,3.4095191955566406
9,50981,50982,-0.11167193204164505,0.1037234216928482,1.0571017265319824,-25.960433959960938,34.3944091796875,-5.965490341186523,-0.7514623999595642,1.3214339017868042,0.2654867172241211,-1.3027536869049072,0.5260865688323975,3.333087205886841
10,50991,50992,-0.0829993262887001,-0.038435861468315125,1.1246075630187988,-57.65847396850586,19.804229736328125,-8.327116012573242,-0.7634618282318115,1.3304334878921509,0.2564871609210968,-1.8389265537261963,-0.2183746099472046,3.1636528968811035
11,51001,51002,-0.07397009432315826,-0.1178136020898819,1.045961618423462,-73.16185760498047,-15.98241901397705,-10.757328033447266,-0.736463189125061,1.3334332704544067,0.2594870328903198,-1.8182708024978638,-0.9832272529602051,3.0510201454162598
12,51011,51012,-0.03354031220078468,0.07525196671485901,1.0290848016738892,-59.337913513183594,-47.03707504272461,-11.678632736206055,-0.7454627156257629,1.3214339017868042,0.28048595786094666,-1.2725021839141846,-1.4272600412368774,3.025609254837036
13,51021,51022,-0.09720202535390854,0.06951992958784103,1.1109095811843872,-15.667954444885254,-64.57371520996094,-9.154240608215332,-0.7394630312919617,1.3244338035583496,0.2744862735271454,-0.9188826084136963,-1.8360323905944824,2.9133055210113525
14,51031,51032,-0.09635511040687561,0.0716760978102684,1.147970199584961,15.641067504882812,-78.31439971923828,-5.75654411315918,-0.737963080406189,1.3109344244003296,0.2759861946105957,-0.02394001930952072,-1.7232807874679565,2.8966941833496094
15,51041,51042,-0.16730999946594238,0.0988118052482605,1.103102445602417,43.74494934082031,-81.28009796142578,-5.856286525726318,-0.7409629225730896,1.3229337930679321,0.28498575091362,0.6579346060752869,-1.224809169769287,2.8870060443878174
16,51051,51052,-0.19046606123447418,0.05383571609854698,1.141366720199585,65.63873291015625,-55.070560455322266,-4.8224687576293945,-0.7199639678001404,1.3169341087341309,0.29098543524742126,1.1935958862304688,-0.794596791267395,2.8249144554138184
17,51061,51062,-0.1893458515405655,0.033845674246549606,1.1108603477478027,61.429168701171875,-13.131976127624512,-2.5605225563049316,-0.7319633960723877,1.298935055732727,0.2669866383075714,1.6515837907791138,0.44446423649787903,2.8275387287139893
18,51071,51072,-0.10815596580505371,-0.12429843097925186,1.0007737874984741,39.35806655883789,21.789104461669922,-5.984131336212158,-0.7394630312919617,1.315434217453003,0.28048595786094666,1.381568193435669,0.41421130299568176,2.778374671936035
19,51081,51082,-0.11861380934715271,-0.01710641011595726,0.9805445671081543,18.351160049438477,32.95931625366211,-8.969882011413574,-0.7274636030197144,1.2944352626800537,0.2654867172241211,1.0050450563430786,0.7253355383872986,2.705479383468628
20,51091,51092,-0.13466981053352356,0.006192232947796583,1.0488686561584473,-0.8212049603462219,30.15683937072754,-12.89333724975586,-0.7244637608528137,1.2794359922409058,0.2744862735271454,0.5589464902877808,0.8276480436325073,2.5981333255767822
21,51101,51102,-0.09259355813264847,-0.10628725588321686,0.8841671347618103,-14.93880844116211,24.514211654663086,-15.709368705749512,-0.722963809967041,1.2899354696273804,0.2669866383075714,0.202392116189003,0.6450747847557068,2.464977502822876
22,51111,51112,-0.04652433097362518,-0.020923808217048645,0.796258807182312,-24.1207275390625,12.622305870056152,-19.45563507080078,-0.7289635539054871,1.2809358835220337,0.28798559308052063,0.21073263883590698,0.5170994997024536,2.296281337738037
23,51121,51122,-0.1203661561012268,0.021951859816908836,0.7741527557373047,-36.762413024902344,15.6130952835083,-20.61043357849121,-0.7334632873535156,1.2644367218017578,0.2594870328903198,0.10959146171808243,0.09581450372934341,2.1151583194732666
24,51131,51132,-0.15454316139221191,0.03348195180296898,0.783461332321167,-56.28909683227539,11.420278549194336,-23.156280517578125,-0.7439627647399902,1.2869356870651245,0.2759861946105957,-0.10422710329294205,-0.24673326313495636,1.8781235218048096
25,51141,51142,-0.08910047262907028,0.08038646727800369,0.8230494260787964,-70.32745361328125,-0.12892113626003265,-27.795005798339844,-0.737963080406189,1.313934326171875,0.2669866383075714,0.3327808380126953,-0.7790262699127197,1.6539759635925293
26,51151,51152,-0.07930555939674377,0.16652022302150726,0.8994382619857788,-76.23582458496094,-11.999626159667969,-33.32257843017578,-0.7469626665115356,1.3229337930679321,0.26998651027679443,0.11418978869915009,-1.5911064147949219,1.3399922847747803
27,51161,51162,-0.04801641404628754,0.09039582312107086,0.840544581413269,-67.55563354492188,-18.521129608154297,-35.7900276184082,-0.7244637608528137,1.3334332704544067,0.29848507046699524,0.1707962155342102,-2.0457053184509277,0.9381110668182373
28,51171,51172,-0.015017319470643997,0.043759800493717194,0.8618653416633606,-38.871028900146484,-5.570118427276611,-35.02808380126953,-0.7319633960723877,1.33793306350708,0.2759861946105957,0.3581136167049408,-2.7082765102386475,0.6083348393440247
29,51181,51182,-0.0022847068030387163,0.0946112796664238,0.9306122064590454,-5.241013050079346,14.584781646728516,-36.392642974853516,-0.7454627156257629,1.3334332704544067,0.28048595786094666,0.20049935579299927,-2.956599473953247,0.25277894735336304
30,51191,51192,-0.14426106214523315,-0.029932161793112755,0.8904513120651245,27.359567642211914,26.07549476623535,-38.37239074707031,-0.7574620842933655,1.3364331722259521,0.28048595786094666,-0.04008551687002182,-2.8019778728485107,-0.14731034636497498
31,51201,51202,-0.1044585257768631,0.027031751349568367,0.9044434428215027,60.73369216918945,40.17228698730469,-37.98305130004883,-0.7574620842933655,1.3454327583312988,0.28048595786094666,-0.48432841897010803,-2.1684725284576416,-0.5753648281097412
32,51211,51212,-0.05738919600844383,0.01894254796206951,0.9304634928703308,72.95845031738281,23.784160614013672,-37.960567474365234,-0.7514623999595642,1.3304334878921509,0.28048595786094666,-0.8249307870864868,-1.3776499032974243,-0.9940780401229858
33,51221,51222,-0.06692034751176834,0.02560678869485855,0.9847867488861084,79.64799499511719,-13.103193283081055,-32.51203536987305,-0.7559621930122375,1.33793306350708,0.26998651027679443,-0.9948024749755859,-0.6376053690910339,-1.3432903289794922
34,51231,51232,-0.15092776715755463,-0.0017509229946881533,1.0098539590835571,77.95510864257812,-47.64537811279297,-24.115219116210938,-0.7349632382392883,1.3109344244003296,0.28198590874671936,-0.5218891501426697,0.08981772512197495,-1.641717553138733
35,51241,51242,-0.11761132627725601,0.009116137400269508,0.9789742231369019,68.65299987792969,-60.77537155151367,-11.622135162353516,-0.730463445186615,1.3214339017868042,0.277486115694046,0.39721882343292236,0.878440797328949,-1.8824149370193481
36,51251,51252,-0.0584314800798893,0.11109339445829391,0.8948438763618469,34.79194641113281,-50.07244110107422,5.98301887512207,-0.7424628734588623,1.3124343156814575,0.28048595786094666,0.4695691764354706,1.3635753393173218,-1.8710981607437134
37,51261,51262,-0.09174440801143646,0.05814153328537941,0.957845151424408,-17.943233489990234,-31.90035057067871,18.952781677246094,-0.722963809967041,1.313934326171875,0.26998651027679443,1.0289320945739746,1.2813433408737183,-1.7317079305648804
38,51271,51272,-0.07670385390520096,0.06196840852499008,0.9128400087356567,-57.1771125793457,-12.745696067810059,24.90178108215332,-0.7289635539054871,1.3289334774017334,0.27298635244369507,1.1411969661712646,0.894709050655365,-1.5033845901489258
39,51281,51282,-0.16665337979793549,-0.02332916483283043,1.060034990310669,-68.91463470458984,8.699396133422852,25.555805206298828,-0.7319633960723877,1.3349332809448242,0.27298635244369507,1.1648675203323364,-0.07925627380609512,-1.1868624687194824
40,51291,51292,-0.07901196926832199,0.10190904140472412,0.9842522740364075,-56.08114242553711,27.114431381225586,28.157400131225586,-0.722963809967041,1.3349332809448242,0.27898603677749634,0.8826711773872375,-0.43915659189224243,-0.9797902703285217
41,51301,51302,-0.1188889816403389,0.07585171610116959,0.9909090399742126,-41.4761848449707,36.42020034790039,31.269927978515625,-0.730463445186615,1.3484325408935547,0.2834858298301697,0.43644511699676514,-0.9400631189346313,-0.6890259981155396
42,51311,51312,-0.09281232953071594,0.07370518893003464,0.9650537967681885,-16.118759155273438,18.345232009887695,31.582021713256836,-0.7289635539054871,1.33793306350708,0.28498575091362,0.027846863493323326,-1.1558758020401,-0.400103360414505
43,51321,51322,-0.10899370908737183,0.04204292595386505,0.927818238735199,7.6869964599609375,-13.95217227935791,32.48450469970703,-0.7319633960723877,1.3259336948394775,0.27298635244369507,0.06439977884292603,-1.323072075843811,-0.05739011988043785
44,51331,51332,-0.09746052324771881,0.06129808351397514,0.9030194878578186,22.691913604736328,-28.63300323486328,32.70878601074219,-0.7319633960723877,1.3169341087341309,0.27298635244369507,0.5049598217010498,-1.1295843124389648,0.27730995416641235
45,51341,51342,-0.060579150915145874,0.07578807324171066,0.9090043306350708,26.427654266357422,-42.803199768066406,29.8271427154541,-0.7244637608528137,1.3124343156814575,0.277486115694046,0.763221025466919,-0.7770186066627502,0.5831072926521301
46,51351,51352,-0.019468367099761963,0.10736626386642456,0.9857567548751831,26.782249450683594,-53.82897186279297,25.561298370361328,-0.7079645991325378,1.3109344244003296,0.28198590874671936,1.249405026435852,-0.5383380055427551,0.8798792958259583
47,51361,51362,-0.025641024112701416,0.04025348648428917,1.0268751382827759,15.98806095123291,-52.2376594543457,20.316679000854492,-0.7184640765190125,1.3064346313476562,0.2864856719970703,1.624902606010437,-0.27528735995292664,1.1172126531600952
48,51371,51372,-0.1111464574933052,0.03660602495074272,0.9521014094352722,2.461620807647705,-31.396621704101562,14.17540454864502,-0.7214639186859131,1.3034348487854004,0.2834858298301697,2.3695459365844727,-0.20247922837734222,1.3123422861099243
49,51381,51382,-0.05730825290083885,0.14242573082447052,0.9533224701881409,-1.6625053882598877,5.0120062828063965,11.369115829467773,-0.7124643921852112,1.3184340000152588,0.2744862735271454,2.2355902194976807,-0.22845838963985443,1.4573241472244263
50,51391,51392,-0.09866207093000412,0.02908209338784218,0.9727069735527039,-3.8427040576934814,28.230533599853516,8.886842727661133,-0.737963080406189,1.3259336948394775,0.28198590874671936,2.1154842376708984,-0.2516641914844513,1.5592228174209595
51,51401,51402,-0.12272363901138306,0.06482057273387909,0.9756670594215393,7.005792140960693,46.13646697998047,8.570058822631836,-0.7169641256332397,1.3169341087341309,0.2759861946105957,1.6643195152282715,-0.3031426966190338,1.6605095863342285
52,51411,51412,-0.07336290180683136,0.07472141832113266,0.9097663760185242,9.608636856079102,55.107383728027344,7.2859649658203125,-0.7334632873535156,1.3244338035583496,0.2834858298301697,1.1783570051193237,-0.2009720355272293,1.7365630865097046
53,51421,51422,-0.07744965702295303,-0.011290134862065315,0.921513557434082,5.576493263244629,53.263423919677734,3.5439350605010986,-0.737963080406189,1.3169341087341309,0.26998651027679443,0.4528640806674957,-0.046222127974033356,1.7668434381484985
54,51431,51432,-0.07413464039564133,-0.06103987991809845,0.929106593132019,1.5212990045547485,27.818702697753906,-2.2539448738098145,-0.7529623508453369,1.3229337930679321,0.26998651027679443,0.0008947009337134659,-0.04172409698367119,1.7912131547927856
55,51441,51442,-0.06476663798093796,-0.034887537360191345,0.9273121356964111,0.2863389551639557,-12.1554594039917,-7.591457366943359,-0.736463189125061,1.315434217453003,0.27148643136024475,-0.05464298650622368,-0.13392291963100433,1.780767560005188
56,51451,51452,-0.11865738779306412,0.017530037090182304,0.9183630347251892,3.2062289714813232,-46.16659927368164,-8.651626586914062,-0.7244637608528137,1.3184340000152588,0.2864856719970703,0.23788422346115112,-0.08953317254781723,1.6924432516098022
57,51461,51462,-0.0760810449719429,-0.033642422407865524,0.9697246551513672,9.305864334106445,-61.72555923461914,-7.719627857208252,-0.7334632873535156,1.3094345331192017,0.2834858298301697,1.12679123878479,-0.03423512727022171,1.6144235134124756
58,51471,51472,-0.044657859951257706,0.02130376733839512,1.042986512184143,7.1004862785339355,-53.73390197753906,-4.215836524963379,-0.7184640765190125,1.3124343156814575,0.28048595786094666,1.4920521974563599,0.15590374171733856,1.5121574401855469
59,51481,51482,-0.025712929666042328,-0.030662594363093376,0.9503911733627319,-9.459114074707031,-34.78886413574219,0.5784050822257996,-0.7184640765190125,1.315434217453003,0.28048595786094666,2.0655786991119385,0.16511328518390656,1.491119146347046
60,51491,51492,-0.07339858263731003,-0.06618091464042664,1.0099014043807983,-41.52634811401367,-24.20186424255371,2.3568708896636963,-0.7154642343521118,1.3244338035583496,0.2864856719970703,2.2295942306518555,-0.20461253821849823,1.5441207885742188
61,51501,51502,-0.09477655589580536,0.01795859821140766,1.0037002563476562,-61.829437255859375,-13.869402885437012,1.4551501274108887,-0.7154642343521118,1.3244338035583496,0.2864856719970703,2.343182325363159,-0.6272324919700623,1.5401647090911865
62,51511,51512,-0.09108568727970123,0.01409705076366663,1.0025075674057007,-62.185791015625,15.57213306427002,-0.4219461977481842,-0.7154642343521118,1.3244338035583496,0.2864856719970703,2.440326690673828,-1.56497323513031,1.6550838947296143
63,51521,51522,-0.06101607903838158,0.025447307154536247,1.0389485359191895,-49.593727111816406,41.66558074951172,0.4071793556213379,-0.7154642343521118,1.3244338035583496,0.2864856719970703,2.1987314224243164,-1.8365051746368408,1.533293604850769
64,51531,51532,-0.08697175234556198,0.08643928915262222,1.0353355407714844,-31.638595581054688,58.38236999511719,2.7514147758483887,-0.722963809967041,1.33793306350708,0.2759861946105957,1.4748140573501587,-2.5336148738861084,1.615923285484314
65,51541,51542,-0.09016392379999161,0.03333112969994545,1.034227967262268,-1.818192481994629,55.41085433959961,4.116601467132568,-0.7424628734588623,1.3454327583312988,0.2864856719970703,1.0245723724365234,-2.312633752822876,1.4593712091445923
66,51551,51552,-0.028332354500889778,-0.0008041285327635705,1.1147674322128296,31.469274520874023,32.4021110534668,5.006523609161377,-0.7334632873535156,1.3334332704544067,0.28048595786094666,0.37413889169692993,-2.2945072650909424,1.5171195268630981
67,51561,51562,-0.0759962797164917,-0.006716636475175619,1.1115624904632568,50.795204162597656,13.196227073669434,3.9501919746398926,-0.7334632873535156,1.3274335861206055,0.277486115694046,0.19061985611915588,-1.9325374364852905,1.5565345287322998
68,51571,51572,-0.13745681941509247,0.027245908975601196,1.008590579032898,52.96379089355469,4.998255252838135,7.8173699378967285,-0.7259637117385864,1.3349332809448242,0.28198590874671936,0.08487328886985779,-1.183763027191162,1.5324455499649048
69,51581,51582,-0.07491917163133621,0.03489679470658302,0.9035784006118774,41.4362907409668,-6.756556510925293,11.426274299621582,-0.7289635539054871,1.3319333791732788,0.27898603677749634,0.3528817594051361,-0.8253808617591858,1.6486480236053467
70,51591,51592,-0.02295663394033909,0.021662726998329163,0.8879464864730835,13.948770523071289,-19.098388671875,13.448728561401367,-0.730463445186615,1.3094345331192017,0.2834858298301697,0.3260117769241333,-0.47986727952957153,1.7774231433868408
71,51601,51602,-0.06281594187021255,0.10238069295883179,0.9749587178230286,-13.243237495422363,-29.834491729736328,13.741190910339355,-0.7274636030197144,1.3124343156814575,0.26848655939102173,0.5658243894577026,-0.41627514362335205,1.911097764968872
72,51611,51612,-0.0814511626958847,0.09565604478120804,0.9911475777626038,-43.50057601928711,-38.77104949951172,9.720261573791504,-0.7139642834663391,1.3049347400665283,0.2759861946105957,0.737352192401886,-0.806072473526001,2.0964808464050293
73,51621,51622,-0.061629798263311386,0.026983166113495827,0.9678005576133728,-62.0539665222168,-37.94511032104492,0.7958172559738159,-0.7244637608528137,1.315434217453003,0.28048595786094666,1.3832509517669678,-1.5271662473678589,2.2034549713134766
74,51631,51632,-0.05396605655550957,-0.00746678002178669,1.011561393737793,-57.45663070678711,-28.861364364624023,-8.41452693939209,-0.7109644412994385,1.3199340105056763,0.28498575091362,1.6225786209106445,-1.9988831281661987,2.15527606010437
75,51641,51642,-0.1432829052209854,0.11952812969684601,1.0021069049835205,-37.76664352416992,-16.527202606201172,-14.470658302307129,-0.722963809967041,1.3169341087341309,0.2969851493835449,2.0026731491088867,-2.7684037685394287,2.1260790824890137
76,51651,51652,-0.1479252725839615,0.10212387889623642,0.9815127849578857,-1.5878697633743286,-1.1017687320709229,-18.82977294921875,-0.7109644412994385,1.3289334774017334,0.27898603677749634,2.110628366470337,-2.7457480430603027,1.8950763940811157
77,51661,51662,-0.08312205970287323,0.0495760552585125,0.974668562412262,43.677818298339844,15.402301788330078,-20.04252815246582,-0.7169641256332397,1.3349332809448242,0.2759861946105957,1.984309196472168,-2.278740644454956,1.6264057159423828
78,51671,51672,-0.04602430388331413,0.13630303740501404,0.9066256880760193,73.58651733398438,20.8154296875,-19.87554931640625,-0.7349632382392883,1.3259336948394775,0.2759861946105957,1.7527014017105103,-1.6208059787750244,1.4156103134155273
79,51681,51682,0.01732054352760315,0.043930988758802414,0.9470990896224976,84.06111907958984,26.785615921020508,-21.15949058532715,-0.7349632382392883,1.3349332809448242,0.29098543524742126,1.514241337776184,-0.7696189880371094,1.1912624835968018
80,51691,51692,-0.027960164472460747,-0.036308031529188156,0.9335583448410034,73.94720458984375,34.25860595703125,-21.282014846801758,-0.7424628734588623,1.3244338035583496,0.2744862735271454,1.0847080945968628,0.17137153446674347,0.9517753720283508
81,51701,51702,-0.06480427086353302,-0.06193391606211662,1.0016422271728516,45.98118591308594,23.668432235717773,-23.472850799560547,-0.7334632873535156,1.3184340000152588,0.28048595786094666,0.6400145292282104,0.6075364947319031,0.8042635321617126
82,51711,51712,-0.0801902487874031,-0.13871866464614868,0.9958670139312744,14.029332160949707,-1.3720500469207764,-27.533935546875,-0.7319633960723877,1.3229337930679321,0.2939853072166443,0.4760410487651825,0.8921873569488525,0.5585795640945435
83,51721,51722,-0.040320754051208496,-0.043535079807043076,0.9595469832420349,-5.399692058563232,-25.953781127929688,-30.781293869018555,-0.7244637608528137,1.3124343156814575,0.26848655939102173,0.7518792748451233,0.9643571376800537,0.24061858654022217
84,51731,51732,-0.06229064613580704,-0.02652514912188053,1.0095157623291016,-16.349367141723633,-40.7475700378418,-29.193239212036133,-0.7319633960723877,1.3199340105056763,0.28198590874671936,1.2325160503387451,0.8440084457397461,-0.07466815412044525
85,51741,51742,-0.13305705785751343,-0.0766819417476654,1.10680091381073,-25.421951293945312,-35.22241973876953,-25.90098762512207,-0.7259637117385864,1.3319333791732788,0.2759861946105957,1.4917397499084473,0.6097016334533691,-0.35601234436035156
86,51751,51752,-0.015468855388462543,-0.06676547974348068,0.9526191353797913,-31.246448516845703,-13.90318489074707,-18.28575897216797,-0.730463445186615,1.3214339017868042,0.277486115694046,1.635257601737976,0.26877596974372864,-0.5716921091079712
87,51761,51762,-0.06816165894269943,0.004318407271057367,0.9697430729866028,-34.70684051513672,12.36617660522461,-6.650473594665527,-0.7259637117385864,1.3319333791732788,0.27898603677749634,1.651718258857727,0.019479867070913315,-0.7220089435577393
88,51771,51772,-0.10163427144289017,-0.09397688508033752,0.976538360118866,-55.02443313598633,35.255126953125,0.8680504560470581,-0.7274636030197144,1.3364331722259521,0.28048595786094666,1.204444169998169,-0.283346027135849,-0.7951396107673645
89,51781,51782,-0.0483643002808094,-0.08395352214574814,0.9083069562911987,-75.63716125488281,43.659095764160156,5.9517083168029785,-0.7409629225730896,1.3499324321746826,0.27298635244369507,0.633991003036499,-1.2419673204421997,-0.6957244277000427
90,51791,51792,-0.006674105767160654,0.03932248055934906,0.974993109703064,-73.15951538085938,34.60017776489258,6.4414591789245605,-0.736463189125061,1.354432225227356,0.277486115694046,0.1357092410326004,-1.875040888786316,-0.677555501461029
91,51801,51802,-0.00510779581964016,0.08279936015605927,0.9425010681152344,-53.929317474365234,15.611772537231445,5.755061149597168,-0.722963809967041,1.352932333946228,0.28498575091362,-0.06500691175460815,-2.679961919784546,-0.585334062576294
92,51811,51812,0.02117130160331726,0.09873615950345993,1.034207820892334,-18.199098587036133,-10.691041946411133,5.551524639129639,-0.736463189125061,1.369431495666504,0.2954852283000946,-0.2955394983291626,-2.785857677459717,-0.5928102731704712
93,51821,51822,0.017147280275821686,-0.12486216425895691,1.1091316938400269,22.1412353515625,-40.35833740234375,5.857046604156494,-0.7439627647399902,1.352932333946228,0.28198590874671936,0.085002101957798,-2.8706958293914795,-0.522684633731842
94,51831,51832,-0.007698812987655401,-0.12459030747413635,1.0629750490188599,58.03242111206055,-66.46488189697266,6.596374988555908,-0.7289635539054871,1.3469326496124268,0.2759861946105957,0.6198781728744507,-2.276834726333618,-0.4766492545604706
95,51841,51842,-0.06125909835100174,-0.03918645903468132,1.044768214225769,72.67499542236328,-94.06243133544922,6.144047737121582,-0.7409629225730896,1.3469326496124268,0.28198590874671936,1.4940955638885498,-1.4431730508804321,-0.414272665977478
96,51851,51852,-0.05662903934717178,0.027158813551068306,1.049194574356079,74.1947250366211,-100.65531158447266,3.2933664321899414,-0.7139642834663391,1.3409329652786255,0.2969851493835449,2.5576391220092773,-0.9154248237609863,-0.3169669210910797
97,51861,51862,-0.05084099620580673,0.026010561734437943,0.9631425142288208,67.7681655883789,-85.0388412475586,1.026642918586731,-0.7169641256332397,1.3349332809448242,0.2939853072166443,3.306615114212036,-0.030070466920733452,-0.2911815643310547
98,51871,51872,-0.1829201728105545,-0.11361470818519592,1.0569781064987183,46.66149139404297,-57.098724365234375,-3.4792561531066895,-0.722963809967041,1.3109344244003296,0.28498575091362,4.292881488800049,0.5430724620819092,-0.330498605966568
99,51881,51882,-0.12552408874034882,0.006460936274379492,0.9686945676803589,20.220539093017578,-23.886777877807617,-6.260639190673828,-0.7004649639129639,1.3274335861206055,0.28948551416397095,4.642261028289795,0.6911032795906067,-0.3215380012989044
100,51891,51892,-0.045417893677949905,0.03098759986460209,1.0390766859054565,-7.807717800140381,7.704931259155273,-10.769454002380371,-0.7049647569656372,1.3289334774017334,0.2939853072166443,4.571974754333496,0.7086054682731628,-0.3730226457118988
101,51901,51902,-0.028984632343053818,0.044309452176094055,0.9790663123130798,-35.86995315551758,42.44054412841797,-13.118664741516113,-0.7049647569656372,1.3349332809448242,0.2939853072166443,4.273499011993408,0.45063722133636475,-0.47210147976875305
102,51911,51912,-0.12466104328632355,-0.12130014598369598,1.0031722784042358,-47.146549224853516,59.357723236083984,-14.243254661560059,-0.7154642343521118,1.3484325408935547,0.3014849126338959,3.556514263153076,-0.10276016592979431,-0.562969982624054
103,51921,51922,-0.06031324714422226,-0.01832977868616581,1.0071120262145996,-52.927276611328125,59.7765998840332,-15.588147163391113,-0.7169641256332397,1.3589320182800293,0.29098543524742126,2.8451385498046875,-0.5617837905883789,-0.728066086769104
104,51931,51932,-0.03370467573404312,0.050096068531274796,0.8606101870536804,-40.62712478637695,39.458255767822266,-16.727025985717773,-0.7169641256332397,1.3439327478408813,0.28498575091362,2.182469606399536,-1.1988474130630493,-0.8318683505058289
105,51941,51942,-0.08720903098583221,0.16166579723358154,1.084853172302246,-8.426815032958984,3.6242949962615967,-15.000571250915527,-0.730463445186615,1.3424328565597534,0.28048595786094666,1.8806873559951782,-1.0110481977462769,-1.1756306886672974
106,51951,51952,-0.134987935423851,0.004378219600766897,1.0729717016220093,29.977048873901367,-27.515962600708008,-8.585320472717285,-0.7274636030197144,1.3334332704544067,0.2864856719970703,2.151458740234375,-0.920731246471405,-1.2982062101364136
107,51961,51962,-0.06446531414985657,0.028854314237833023,1.0734357833862305,46.64173889160156,-37.773380279541016,-3.1026523113250732,-0.7259637117385864,1.3349332809448242,0.29098543524742126,2.5141077041625977,-0.2837144434452057,-1.4438908100128174
108,51971,51972,0.0034359486307948828,-0.09263259172439575,0.9326526522636414,33.93988800048828,-33.7431755065918,-1.5241413116455078,-0.7019649147987366,1.3259336948394775,0.2969851493835449,2.9903361797332764,0.09569976478815079,-1.4476099014282227
109,51981,51982,-0.04552290216088295,-0.04024804010987282,0.9066057205200195,7.806541919708252,-23.1884765625,-2.9336533546447754,-0.7169641256332397,1.3409329652786255,0.2939853072166443,3.5129504203796387,0.3921915888786316,-1.4938832521438599
110,51991,51992,-0.08917566388845444,-0.04771577939391136,1.0715006589889526,-21.674829483032227,-15.567157745361328,-3.5497589111328125,-0.7124643921852112,1.3214339017868042,0.2834858298301697,3.1815757751464844,-0.024331584572792053,-1.3863415718078613
111,52001,52002,0.04196878522634506,0.06716767698526382,0.8162451982498169,-61.44860076904297,-3.537201404571533,-6.063034534454346,-0.7199639678001404,1.3319333791732788,0.28498575091362,3.345663070678711,-0.44942012429237366,-1.3937734365463257
112,52011,52012,-0.022281071171164513,0.021284325048327446,0.9485455751419067,-93.23062896728516,-5.930758953094482,-10.743501663208008,-0.7034648060798645,1.3454327583312988,0.28948551416397095,3.4725584983825684,-1.0694506168365479,-1.5215365886688232
113,52021,52022,-0.0951414629817009,-0.1160329133272171,1.1607544422149658,-86.0342788696289,-21.461231231689453,-13.657838821411133,-0.7034648060798645,1.3634318113327026,0.2924853563308716,3.4868788719177246,-2.2134313583374023,-1.5655852556228638
114,52031,52032,0.029568444937467575,-0.0016845646314322948,1.0694864988327026,-47.4420280456543,-24.819616317749023,-12.853801727294922,-0.7199639678001404,1.3469326496124268,0.3029848337173462,3.6162595748901367,-2.8125717639923096,-1.7546756267547607
115,52041,52042,-0.07134441286325455,-0.002505458192899823,1.0096973180770874,-12.378612518310547,-4.278454303741455,-10.947632789611816,-0.7049647569656372,1.352932333946228,0.28798559308052063,4.02916145324707,-3.1670775413513184,-1.8535224199295044
116,52051,52052,-0.08192214369773865,0.00329841417260468,1.0850605964660645,22.188560485839844,27.23023796081543,-10.160967826843262,-0.7109644412994385,1.3469326496124268,0.28498575091362,3.986137866973877,-3.0711371898651123,-2.009875535964966
117,52061,52062,-0.1578293889760971,0.0515563078224659,1.0250111818313599,53.65143585205078,41.96903610229492,-8.022889137268066,-0.7154642343521118,1.3634318113327026,0.3014849126338959,3.5196235179901123,-2.620547294616699,-2.1660966873168945
118,52071,52072,-0.02623577229678631,-0.018480002880096436,1.1327954530715942,76.7957992553711,52.79315948486328,-5.094697952270508,-0.7274636030197144,1.3574321269989014,0.2924853563308716,2.834567070007324,-1.9287089109420776,-2.284212112426758
119,52081,52082,0.01119579840451479,-0.097016341984272,0.9751121997833252,86.76302337646484,56.003849029541016,-2.868889331817627,-0.7319633960723877,1.3619319200515747,0.28798559308052063,2.2980995178222656,-1.1932690143585205,-2.3129067420959473
120,52091,52092,-0.05158686265349388,0.02098601870238781,0.9054763317108154,79.0400390625,58.25707244873047,1.1896324157714844,-0.730463445186615,1.3484325408935547,0.29848507046699524,1.5450642108917236,-0.2815669775009155,-2.337559700012207
121,52101,52102,-0.16048425436019897,-0.08695441484451294,0.9614256024360657,59.88054275512695,46.8123779296875,3.0295655727386475,-0.7424628734588623,1.3334332704544067,0.29848507046699524,1.0780607461929321,0.4211927056312561,-2.320143461227417
122,52111,52112,-0.08126325905323029,-0.15843228995800018,0.9888079166412354,42.586585998535156,17.923593521118164,2.9600093364715576,-0.7469626665115356,1.3199340105056763,0.2759861946105957,0.5687547922134399,0.9448565244674683,-2.2751476764678955
123,52121,52122,-0.053957484662532806,-0.049883466213941574,1.0282632112503052,31.5679931640625,-21.14096450805664,7.220559597015381,-0.7289635539054871,1.3259336948394775,0.28198590874671936,0.6414625644683838,1.2991917133331299,-2.23123836517334
124,52131,52132,-0.06566240638494492,-0.05717093497514725,1.0428822040557861,17.65923500061035,-47.33371353149414,13.891337394714355,-0.7154642343521118,1.3184340000152588,0.2924853563308716,1.1535545587539673,1.677013874053955,-2.190548896789551
125,52141,52142,-0.09942539781332016,-0.04888247698545456,1.0902283191680908,1.0777745246887207,-62.63799285888672,17.42032814025879,-0.7034648060798645,1.3124343156814575,0.2864856719970703,1.80857253074646,1.5817548036575317,-1.9876303672790527
126,52151,52152,-0.0696597769856453,-0.039843033999204636,1.0137211084365845,-28.84328269958496,-51.87131118774414,19.5617733001709,-0.7094644904136658,1.3124343156814575,0.2864856719970703,2.498009443283081,1.6021133661270142,-1.8553471565246582
127,52161,52162,-0.09995950013399124,0.013337110169231892,1.0189859867095947,-62.52477264404297,-40.19940185546875,19.970441818237305,-0.7064646482467651,1.3244338035583496,0.28948551416397095,2.9704232215881348,0.9301713109016418,-1.5891581773757935
128,52171,52172,-0.11291920393705368,-0.04749416932463646,0.9574302434921265,-84.3100357055664,-23.638803482055664,19.09254264831543,-0.6989650130271912,1.33793306350708,0.28198590874671936,3.165546417236328,0.18696081638336182,-1.4032080173492432
129,52181,52182,-0.0844452977180481,0.010465824045240879,0.9847772717475891,-88.48890686035156,6.141499042510986,18.662220001220703,-0.7064646482467651,1.3304334878921509,0.28948551416397095,3.375969886779785,-0.9511163830757141,-1.1267391443252563
130,52191,52192,-0.09251564741134644,0.06490439921617508,0.9697263240814209,-67.2290267944336,39.477989196777344,22.501693725585938,-0.7019649147987366,1.3349332809448242,0.28798559308052063,3.0101637840270996,-1.3629995584487915,-1.0784872770309448
131,52201,52202,-0.06257174164056778,0.043171558529138565,0.9988623261451721,-34.835731506347656,62.08603286743164,24.45052146911621,-0.7259637117385864,1.3439327478408813,0.29098543524742126,2.40495228767395,-1.9585458040237427,-0.8629317879676819
132,52211,52212,-0.0314711257815361,0.16055984795093536,0.9911970496177673,-1.1406792402267456,64.78610229492188,23.627094268798828,-0.7154642343521118,1.3514324426651,0.29848507046699524,1.6787077188491821,-2.2752315998077393,-0.612241268157959
133,52221,52222,-0.026433221995830536,0.04520171880722046,0.982420027256012,28.60394859313965,49.10883331298828,21.37350845336914,-0.7244637608528137,1.3574321269989014,0.28948551416397095,1.084478735923767,-1.846429467201233,-0.5077100396156311
134,52231,52232,0.0028962346259504557,-0.06101701036095619,1.0346553325653076,56.02159881591797,22.875391006469727,21.583459854125977,-0.7274636030197144,1.3484325408935547,0.28048595786094666,0.8734018206596375,-1.4756993055343628,-0.2968505620956421
135,52241,52242,-0.04320318624377251,0.0014535818481817842,1.014357566833496,69.170654296875,4.826201915740967,23.574861526489258,-0.7244637608528137,1.3514324426651,0.29848507046699524,0.6282104849815369,-0.8436337113380432,-0.08308876305818558
136,52251,52252,-0.0880008190870285,0.012317482382059097,0.9638500213623047,65.08441162109375,-5.036378383636475,23.472213745117188,-0.7244637608528137,1.339432954788208,0.28048595786094666,0.7661636471748352,-0.07985982298851013,0.1359734833240509
137,52261,52262,-0.047251634299755096,-0.066093310713768,1.0000022649765015,45.02887725830078,-12.580778121948242,20.843612670898438,-0.722963809967041,1.3199340105056763,0.2939853072166443,0.6251501441001892,0.38007816672325134,0.38644111156463623
138,52271,52272,-0.06370462477207184,-0.07844763249158859,1.0458722114562988,16.913291931152344,-11.909477233886719,16.257274627685547,-0.722963809967041,1.3199340105056763,0.2939853072166443,0.8603278994560242,0.8198039531707764,0.5587750673294067
139,52281,52282,-0.05563976988196373,-0.10814226418733597,0.9037244319915771,-12.064812660217285,-9.055073738098145,8.266817092895508,-0.7199639678001404,1.3259336948394775,0.28498575091362,1.075679063796997,0.7742612957954407,0.7117409706115723
140,52291,52292,-0.03321640193462372,0.0279717817902565,1.0143821239471436,-38.364810943603516,-9.523541450500488,-1.3513587713241577,-0.7199639678001404,1.3259336948394775,0.28498575091362,1.1204887628555298,0.44055116176605225,0.7797069549560547
141,52301,52302,-0.05629453435540199,0.08002873510122299,0.9763705730438232,-45.71632766723633,-7.4612250328063965,-5.9586920738220215,-0.7124643921852112,1.3304334878921509,0.2864856719970703,1.1561199426651,0.1291918158531189,0.7359101176261902
142,52311,52312,-0.04355893284082413,0.020009107887744904,0.9844698309898376,-38.10443115234375,-3.329648733139038,-6.376670837402344,-0.7124643921852112,1.3304334878921509,0.2864856719970703,1.1976114511489868,-0.596149206161499,0.7069726586341858
143,52321,52322,-0.0639997273683548,-0.08004920184612274,1.055651307106018,-30.81939125061035,-14.022285461425781,-5.719448089599609,-0.7184640765190125,1.3304334878921509,0.277486115694046,1.2895331382751465,-0.6942226886749268,0.6204743385314941
144,52331,52332,-0.030660908669233322,-0.031000277027487755,1.0365976095199585,-22.349105834960938,-37.13835525512695,-5.486630439758301,-0.7154642343521118,1.3184340000152588,0.2744862735271454,1.5700980424880981,-0.86822110414505,0.5644142031669617
145,52341,52342,-0.025537773966789246,0.033377423882484436,1.0721945762634277,-28.852163314819336,-51.9759635925293,-6.097239017486572,-0.7214639186859131,1.3334332704544067,0.2834858298301697,2.10162615776062,-1.2338513135910034,0.5414217710494995
146,52351,52352,0.007843103259801865,-0.02024448849260807,1.1004431247711182,-41.966487884521484,-61.319705963134766,-9.471290588378906,-0.7199639678001404,1.3259336948394775,0.28498575091362,2.6674859523773193,-1.6413894891738892,0.49184152483940125
147,52361,52362,-0.04561835899949074,0.03972893953323364,0.9593262076377869,-40.43434524536133,-53.38870620727539,-12.368204116821289,-0.7079645991325378,1.3289334774017334,0.28498575091362,3.2407150268554688,-2.030069589614868,0.40745609998703003
148,52371,52372,-0.07790852338075638,0.04449122026562691,1.066643238067627,-25.377994537353516,-29.909326553344727,-14.227673530578613,-0.7019649147987366,1.33793306350708,0.28798559308052063,3.7331950664520264,-2.0690815448760986,0.24965085089206696
149,52381,52382,-0.15484638512134552,0.04711136221885681,1.1151217222213745,5.097772121429443,11.222585678100586,-13.201279640197754,-0.6959651708602905,1.3199340105056763,0.2939853072166443,3.939180374145508,-2.2712748050689697,0.12480133026838303
150,52391,52392,-0.1743122637271881,0.013383924961090088,1.1234086751937866,31.615686416625977,61.235862731933594,-9.957130432128906,-0.7019649147987366,1.3319333791732788,0.27898603677749634,3.5126705169677734,-2.0559942722320557,-0.021763863041996956
151,52401,52402,-0.16803893446922302,-0.09545549005270004,1.117336392402649,46.245079040527344,99.73226165771484,-7.98642635345459,-0.7154642343521118,1.3364331722259521,0.2864856719970703,2.3937408924102783,-1.4866173267364502,-0.1762416958808899
152,52411,52412,-0.010206611827015877,-0.02627178467810154,0.9109185338020325,42.178287506103516,121.15056610107422,-7.752691268920898,-0.7244637608528137,1.3574321269989014,0.2864856719970703,1.2774522304534912,-1.0133626461029053,-0.27483007311820984
153,52421,52422,-0.048079121857881546,-0.012350765988230705,0.9281989336013794,34.72125244140625,118.25580596923828,-7.957696914672852,-0.7214639186859131,1.354432225227356,0.28948551416397095,0.09085367619991302,-0.5403046011924744,-0.387500524520874
154,52431,52432,-0.007766211871057749,-0.01534521859139204,0.920954704284668,27.35333824157715,88.03390502929688,-7.8994364738464355,-0.7319633960723877,1.3499324321746826,0.28798559308052063,-1.3772236108779907,-0.17303277552127838,-0.4617175757884979
155,52441,52442,0.04957016929984093,0.0005401898524723947,0.9261836409568787,20.04694175720215,42.23796463012695,-10.158499717712402,-0.7424628734588623,1.3514324426651,0.2864856719970703,-2.2924516201019287,0.005910806357860565,-0.5342651009559631
156,52451,52452,0.07597672194242477,0.014514731243252754,0.8997437953948975,7.881444454193115,-2.5832784175872803,-12.126053810119629,-0.7319633960723877,1.3259336948394775,0.2939853072166443,-1.8852676153182983,0.25195378065109253,-0.6771714091300964
157,52461,52462,0.03263583406805992,0.009751738049089909,0.8724622130393982,-12.913920402526855,-46.94456481933594,-10.804595947265625,-0.7334632873535156,1.3094345331192017,0.277486115694046,-1.615729808807373,0.2622230648994446,-0.7986944913864136
158,52471,52472,0.0155366575345397,-0.002684569451957941,0.8687154054641724,-48.307193756103516,-86.08418273925781,-10.819533348083496,-0.7319633960723877,1.3229337930679321,0.26998651027679443,-0.6781810522079468,-0.12842196226119995,-0.9131968021392822
159,52481,52482,0.008967556059360504,-0.014987163245677948,0.8641065955162048,-90.35523986816406,-119.16002655029297,-14.015533447265625,-0.730463445186615,1.3214339017868042,0.277486115694046,0.22698718309402466,-0.9125784039497375,-1.0313271284103394
160,52491,52492,-0.044369686394929886,0.020671524107456207,0.9167125225067139,-114.2284927368164,-131.33966064453125,-17.516672134399414,-0.7124643921852112,1.3274335861206055,0.2864856719970703,1.7560076713562012,-2.1282618045806885,-1.1643788814544678
161,52501,52502,0.015251372940838337,-0.00836683064699173,0.9312172532081604,-116.78594207763672,-118.78152465820312,-20.884492874145508,-0.7109644412994385,1.33793306350708,0.28198590874671936,3.125570774078369,-3.245359182357788,-1.2852349281311035
162,52511,52512,-0.031418509781360626,0.10863559693098068,0.9059346914291382,-98.1792221069336,-82.644775390625,-23.053813934326172,-0.7064646482467651,1.354432225227356,0.2954852283000946,4.0559868812561035,-4.135670185089111,-1.4179223775863647
163,52521,52522,-0.07954087108373642,0.05319403484463692,0.9071798324584961,-64.98021697998047,-33.93269729614258,-21.545684814453125,-0.7019649147987366,1.352932333946228,0.27898603677749634,5.087486267089844,-5.021961688995361,-1.601544737815857
164,52531,52532,-0.05256202444434166,0.049254585057497025,0.9936057329177856,-18.514469146728516,19.108684539794922,-15.242535591125488,-0.6794660091400146,1.3634318113327026,0.2864856719970703,5.227700710296631,-5.464128017425537,-1.78093683719635
165,52541,52542,-0.053504228591918945,0.026995236054062843,0.9628073573112488,28.683565139770508,69.01451873779297,-8.607488632202148,-0.6929653286933899,1.367931604385376,0.29098543524742126,4.4434309005737305,-5.413978099822998,-1.9040758609771729
166,52551,52552,-0.04603265970945358,0.07660362869501114,0.9709488749504089,72.48588562011719,107.18177795410156,-4.608503818511963,-0.7049647569656372,1.3709313869476318,0.3029848337173462,3.589289426803589,-4.878379821777344,-2.0582847595214844
167,52561,52562,-0.03191737085580826,-0.0004149053420405835,0.9996205568313599,112.19963073730469,133.3815155029297,-2.6779592037200928,-0.7184640765190125,1.3784310817718506,0.2834858298301697,1.869901180267334,-3.689823865890503,-2.1064693927764893
168,52571,52572,0.04202275723218918,-0.09208964556455612,0.8633939623832703,126.88961791992188,136.20713806152344,-3.212334156036377,-0.7424628734588623,1.3934303522109985,0.28048595786094666,0.5778476595878601,-2.6194519996643066,-2.205294609069824
169,52581,52582,0.0421280600130558,-0.07164404541254044,0.8321558237075806,120.52175903320312,126.13729858398438,-5.201173782348633,-0.7514623999595642,1.3754311800003052,0.2834858298301697,-1.1831008195877075,-1.1853877305984497,-2.1763627529144287
170,52591,52592,-0.02263655886054039,-0.035435039550065994,0.9101031422615051,98.6943359375,102.89314270019531,-6.407628536224365,-0.736463189125061,1.3664315938949585,0.27148643136024475,-2.1872119903564453,-0.3864378035068512,-2.27522873878479
171,52601,52602,-0.010544111020863056,0.02480425499379635,0.9883780479431152,65.4216537475586,67.79329681396484,-7.263186454772949,-0.7454627156257629,1.3484325408935547,0.2744862735271454,-3.0629892349243164,0.32382386922836304,-2.3474626541137695
172,52611,52612,0.0078069972805678844,-0.04831453040242195,0.9262382984161377,26.290868759155273,21.174823760986328,-7.759817600250244,-0.7559621930122375,1.3439327478408813,0.27898603677749634,-3.705817222595215,0.866958498954773,-2.3813793659210205
173,52621,52622,-0.00524922925978899,0.04980277270078659,0.9653339385986328,-12.159900665283203,-26.66046142578125,-8.932618141174316,-0.7484625577926636,1.3454327583312988,0.28048595786094666,-3.742177724838257,0.8502539396286011,-2.4796223640441895
174,52631,52632,-0.010295689105987549,-0.03420662507414818,0.9447398781776428,-37.05019760131836,-67.91236114501953,-10.538533210754395,-0.7439627647399902,1.3439327478408813,0.26998651027679443,-3.0761570930480957,0.5342657566070557,-2.650627613067627
175,52641,52642,0.010192224755883217,-0.009931426495313644,1.0171492099761963,-46.599159240722656,-92.19950866699219,-11.20048713684082,-0.7484625577926636,1.3484325408935547,0.28048595786094666,-2.2083675861358643,0.05691516771912575,-2.7914490699768066
176,52651,52652,-0.019210416823625565,0.020221924409270287,1.0655537843704224,-36.43779373168945,-103.2497329711914,-10.28635025024414,-0.7319633960723877,1.3499324321746826,0.26998651027679443,-0.9296455979347229,-0.43040168285369873,-2.9503257274627686
177,52661,52662,0.039301108568906784,-0.017374329268932343,1.0146995782852173,-15.695347785949707,-95.63624572753906,-8.073678970336914,-0.7319633960723877,1.3409329652786255,0.27298635244369507,-0.2120111882686615,-0.6949480772018433,-2.9950764179229736
178,52671,52672,-0.01736123114824295,0.011221268214285374,1.0599279403686523,16.0301456451416,-68.69538879394531,-5.947248935699463,-0.7214639186859131,1.3484325408935547,0.2864856719970703,0.8094056248664856,-0.7410287261009216,-3.070906162261963
179,52681,52682,-0.048562191426754,-0.023929445073008537,1.0359513759613037,45.41530227661133,-29.775556564331055,-1.606965184211731,-0.7169641256332397,1.3589320182800293,0.29098543524742126,0.8778448700904846,-0.39637690782546997,-3.053896188735962
180,52691,52692,0.01700572669506073,0.0013262543361634016,0.9319014549255371,60.74068832397461,6.706496238708496,2.0407087802886963,-0.730463445186615,1.3484325408935547,0.29848507046699524,0.997789204120636,0.1218901053071022,-3.0527031421661377
181,52701,52702,-0.04471767321228981,-0.03157903626561165,1.0768264532089233,55.055809020996094,46.45317840576172,4.28525447845459,-0.7409629225730896,1.3439327478408813,0.2969851493835449,0.7512490749359131,0.8033477067947388,-2.9994726181030273
182,52711,52712,-0.04437512904405594,-0.0975383073091507,1.0199137926101685,35.8650016784668,76.71805572509766,4.242300987243652,-0.737963080406189,1.3259336948394775,0.2759861946105957,-0.004986998159438372,1.2322248220443726,-2.9512205123901367
183,52721,52722,0.04287554696202278,0.024235934019088745,0.8870033025741577,14.85357666015625,82.47908020019531,3.0753326416015625,-0.7559621930122375,1.3589320182800293,0.29098543524742126,-0.8192180395126343,1.3330843448638916,-2.9394025802612305
184,52731,52732,0.011440197937190533,0.05101313441991806,1.0224394798278809,2.902024984359741,65.81266021728516,3.041468381881714,-0.736463189125061,1.3424328565597534,0.28948551416397095,-2.065962314605713,1.4746118783950806,-2.8796138763427734
185,52741,52742,-0.05341807380318642,-0.015004867687821388,1.0063055753707886,6.39589262008667,23.38994598388672,2.165818691253662,-0.7424628734588623,1.3484325408935547,0.28048595786094666,-2.077662229537964,1.5879757404327393,-2.7985315322875977
186,52751,52752,-0.0007104502292349935,-0.0012414016528055072,0.9584553241729736,-0.01310366578400135,-18.35054588317871,2.460911512374878,-0.7424628734588623,1.3424328565597534,0.277486115694046,-1.8767151832580566,1.6591194868087769,-2.7539384365081787
187,52761,52762,-0.0146916713565588,-0.03158269077539444,0.9050220251083374,-22.9167423248291,-42.611907958984375,3.5938286781311035,-0.730463445186615,1.3244338035583496,0.28048595786094666,-1.5416374206542969,1.5064531564712524,-2.749971389770508
188,52771,52772,-0.029160941019654274,0.02409467287361622,0.9960407018661499,-39.68553161621094,-49.76542282104492,2.6099164485931396,-0.7259637117385864,1.3259336948394775,0.27298635244369507,-1.179758906364441,1.0790742635726929,-2.7858712673187256
189,52781,52782,-0.053350649774074554,-0.030208202078938484,0.9237749576568604,-45.530517578125,-50.4344596862793,1.5285735130310059,-0.737963080406189,1.3349332809448242,0.28498575091362,-0.5254596471786499,0.7996910214424133,-2.7005271911621094
190,52791,52792,-0.014057071879506111,0.06989533454179764,1.0320473909378052,-40.19490051269531,-41.90934753417969,1.7090650796890259,-0.737963080406189,1.3349332809448242,0.28498575091362,0.08875542134046555,0.3202502429485321,-2.680331230163574
191,52801,52802,-0.06052081286907196,-0.06566312909126282,0.9851050972938538,-22.17392921447754,-16.22440528869629,3.865863800048828,-0.737963080406189,1.3349332809448242,0.28498575091362,0.20136700570583344,-0.012533851899206638,-2.698002815246582
192,52811,52812,-0.041993647813797,0.00963622983545065,0.9949413537979126,-0.37215328216552734,12.946918487548828,8.714476585388184,-0.737963080406189,1.3349332809448242,0.28498575091362,0.12449569255113602,-0.14396807551383972,-2.664719581604004
193,52821,52822,-0.002883332781493664,-0.028524378314614296,0.9771278500556946,17.77455711364746,38.37038040161133,10.795841217041016,-0.737963080406189,1.33793306350708,0.2939853072166443,-0.24481387436389923,-0.03315247967839241,-2.579045534133911
194,52831,52832,-0.032181646674871445,0.03977920114994049,0.9694362282752991,35.93136978149414,49.42759323120117,10.46930980682373,-0.730463445186615,1.3454327583312988,0.2954852283000946,-0.8027223944664001,0.3833025097846985,-2.4386634826660156
195,52841,52842,-0.09056084603071213,-0.020880334079265594,0.9656594395637512,47.116580963134766,42.548858642578125,8.05431079864502,-0.737963080406189,1.3469326496124268,0.28498575091362,-1.3948994874954224,0.8461632132530212,-2.3377413749694824
196,52851,52852,-0.03771653398871422,0.05053554102778435,1.0716246366500854,58.489349365234375,16.079145431518555,4.494200706481934,-0.7439627647399902,1.3499324321746826,0.2669866383075714,-1.7594642639160156,1.412579894065857,-2.2473206520080566
197,52861,52862,-0.0498800165951252,0.07055588066577911,1.011408805847168,59.19668197631836,-22.404356002807617,2.993879795074463,-0.7409629225730896,1.3409329652786255,0.27898603677749634,-1.705390214920044,1.990209698677063,-2.198835849761963
198,52871,52872,-0.07720260322093964,0.03327804431319237,0.9653766751289368,46.526885986328125,-57.20155334472656,4.451315879821777,-0.7469626665115356,1.3349332809448242,0.2759861946105957,-1.306349754333496,2.4926559925079346,-2.1868114471435547
199,52881,52882,-0.057639095932245255,0.047763366252183914,1.0775527954101562,27.103748321533203,-78.6683578491211,8.416322708129883,-0.7394630312919617,1.3244338035583496,0.2864856719970703,-0.4508382976055145,2.8988842964172363,-2.1144864559173584
200,52891,52892,-0.0852607935667038,-0.059655286371707916,1.0537909269332886,6.2230987548828125,-84.06924438476562,11.523666381835938,-0.730463445186615,1.3214339017868042,0.277486115694046,0.15420646965503693,3.1054632663726807,-2.1150267124176025
201,52901,52902,-0.10347519814968109,-0.009238584898412228,1.0025830268859863,-15.381381034851074,-66.01386260986328,17.11204719543457,-0.7244637608528137,1.3124343156814575,0.28948551416397095,1.1379526853561401,3.0438899993896484,-1.9961730241775513
202,52911,52912,-0.17326153814792633,-0.05115814879536629,1.1538548469543457,-38.391937255859375,-29.38262939453125,18.261009216308594,-0.7289635539054871,1.3199340105056763,0.27898603677749634,1.331003189086914,2.6892917156219482,-1.9917593002319336
203,52921,52922,-0.043585795909166336,0.09626258909702301,1.0353341102600098,-72.3293685913086,-11.84121322631836,17.489904403686523,-0.722963809967041,1.3229337930679321,0.28498575091362,1.8633792400360107,2.07372784614563,-1.7435158491134644
204,52931,52932,-0.09303426742553711,-0.006252286024391651,0.9786622524261475,-99.30096435546875,-10.533960342407227,12.941317558288574,-0.7094644904136658,1.3334332704544067,0.2834858298301697,1.6253254413604736,1.1533002853393555,-1.7380086183547974
205,52941,52942,-0.12281960248947144,-0.0016099566128104925,1.0660431385040283,-99.17770385742188,-15.58674144744873,10.15613079071045,-0.7139642834663391,1.3349332809448242,0.29098543524742126,1.699805736541748,-0.3244544565677643,-1.7392640113830566
206,52951,52952,-0.09157884865999222,0.022589892148971558,1.1509126424789429,-77.58586120605469,-22.82590675354004,6.344308376312256,-0.7139642834663391,1.3439327478408813,0.28798559308052063,2.0624821186065674,-0.6191100478172302,-1.4535833597183228
207,52961,52962,-0.0778847336769104,-0.05397894233465195,1.1008756160736084,-41.07701873779297,-17.42400550842285,3.1580421924591064,-0.7214639186859131,1.3364331722259521,0.29848507046699524,2.4465725421905518,-1.1682919263839722,-1.3254460096359253
208,52971,52972,-0.01895184814929962,0.03199651837348938,1.0409280061721802,-5.750787258148193,-0.9914824366569519,1.955788254737854,-0.6959651708602905,1.3319333791732788,0.28498575091362,2.566469430923462,-1.4098308086395264,-1.2930376529693604
209,52981,52982,-0.06955192983150482,-0.005191379226744175,0.9576354026794434,14.79925537109375,10.134632110595703,0.00455322815105319,-0.6929653286933899,1.3349332809448242,0.28498575091362,2.495180606842041,-1.176108956336975,-1.2753175497055054
210,52991,52992,-0.12538941204547882,-0.003574101021513343,1.0194261074066162,30.19436264038086,18.3193302154541,-2.7642385959625244,-0.7094644904136658,1.3214339017868042,0.28048595786094666,2.266446352005005,-1.072566270828247,-1.3184661865234375
211,53001,53002,-0.08197128027677536,-0.05053407698869705,1.0628817081451416,42.009002685546875,26.002464294433594,-5.564316749572754,-0.7109644412994385,1.3199340105056763,0.28798559308052063,2.0115604400634766,-0.6102994084358215,-1.371090054512024
212,53011,53012,0.0033458536490797997,0.031891096383333206,1.0119943618774414,45.293636322021484,31.10038948059082,-8.717683792114258,-0.7214639186859131,1.3274335861206055,0.2954852283000946,1.6092463731765747,-0.11342792958021164,-1.4653804302215576
213,53021,53022,-0.0488615557551384,-0.0022741786669939756,0.9417701959609985,42.910728454589844,19.743860244750977,-9.253190994262695,-0.7064646482467651,1.339432954788208,0.2954852283000946,1.293379306793213,0.17586007714271545,-1.5596927404403687
214,53031,53032,0.008828644640743732,-0.12098358571529388,0.9473443031311035,43.50583267211914,2.89458966255188,-8.928488731384277,-0.7109644412994385,1.3259336948394775,0.29098543524742126,1.1079943180084229,0.6475121378898621,-1.661520004272461
215,53041,53042,0.00442584278061986,-0.08273088186979294,0.9369043707847595,46.848045349121094,-11.811966896057129,-4.593954563140869,-0.7109644412994385,1.3109344244003296,0.2969851493835449,1.1955218315124512,1.0765297412872314,-1.7284660339355469
216,53051,53052,-0.025060463696718216,0.011735881678760052,1.0366160869598389,47.611793518066406,-21.89885139465332,1.7661086320877075,-0.7139642834663391,1.3079345226287842,0.2969851493835449,1.5045400857925415,1.41848886013031,-1.7237815856933594
217,53061,53062,-0.06980482488870621,0.015745937824249268,1.0688600540161133,46.600860595703125,-26.425336837768555,9.977702140808105,-0.7034648060798645,1.3034348487854004,0.2954852283000946,1.8187516927719116,2.0483365058898926,-1.6819056272506714
218,53071,53072,-0.05374754220247269,0.022868258878588676,1.1143697500228882,25.15258026123047,-11.62873649597168,17.56169319152832,-0.7079645991325378,1.301934838294983,0.29998499155044556,2.0300636291503906,2.2960124015808105,-1.5569816827774048
219,53081,53082,-0.01070531364530325,0.12274201959371567,0.9508883357048035,-8.669413566589355,9.666234970092773,24.47955322265625,-0.7049647569656372,1.2929353713989258,0.28798559308052063,2.0502917766571045,2.344221353530884,-1.3593209981918335
220,53091,53092,-0.06719278544187546,0.03324403241276741,0.8861424922943115,-50.68962097167969,29.30704116821289,29.613807678222656,-0.7214639186859131,1.300434947013855,0.2864856719970703,1.6889681816101074,1.961187481880188,-1.1152541637420654
221,53101,53102,-0.10926316678524017,0.03522405028343201,1.0101714134216309,-73.00538635253906,43.920997619628906,31.108753204345703,-0.7109644412994385,1.3289334774017334,0.28198590874671936,1.1317181587219238,1.0814369916915894,-0.8243640065193176
222,53111,53112,-0.0475827232003212,0.03016655519604683,1.0528199672698975,-66.18489837646484,46.50996398925781,31.130701065063477,-0.7064646482467651,1.3334332704544067,0.2834858298301697,0.746586263179779,0.5324005484580994,-0.5084620118141174
223,53121,53122,-0.03614109754562378,-0.06767673790454865,1.0258132219314575,-40.46006774902344,36.685176849365234,29.126039505004883,-0.7244637608528137,1.3514324426651,0.28948551416397095,0.2925146818161011,-0.007230791263282299,-0.2091515064239502
224,53131,53132,-0.02505503222346306,-0.02139766328036785,0.9799859523773193,-8.501280784606934,11.339198112487793,25.452444076538086,-0.722963809967041,1.352932333946228,0.28498575091362,0.004202643875032663,-0.30530259013175964,0.07246536016464233
225,53141,53142,-0.10232707858085632,0.10480356216430664,0.8933779001235962,20.282136917114258,-16.01625633239746,25.39512062072754,-0.7274636030197144,1.3214339017868042,0.28948551416397095,-0.05473681911826134,-0.23531141877174377,0.3108930289745331
226,53151,53152,-0.04679468274116516,0.15419690310955048,1.0039424896240234,32.807098388671875,-38.88309097290039,26.528636932373047,-0.7199639678001404,1.3289334774017334,0.28198590874671936,0.29780498147010803,0.17935314774513245,0.5881353616714478
227,53161,53162,-0.031295809894800186,-0.03065566159784794,0.9629085659980774,26.22168731689453,-58.759544372558594,24.757566452026367,-0.7139642834663391,1.313934326171875,0.27898603677749634,1.007203459739685,0.6228375434875488,0.8884326219558716
228,53171,53172,-0.032815832644701004,-0.06416724622249603,0.9574401378631592,9.678865432739258,-60.96236038208008,25.441070556640625,-0.6959651708602905,1.3109344244003296,0.28798559308052063,1.4731701612472534,0.7336028218269348,1.1074687242507935
229,53181,53182,-0.047067560255527496,0.024285033345222473,0.9068531394004822,-9.459362030029297,-58.82509994506836,25.91377830505371,-0.7079645991325378,1.3169341087341309,0.2939853072166443,2.004912853240967,0.7968719601631165,1.343581199645996
230,53191,53192,-0.05902795493602753,0.021357685327529907,0.9919643402099609,-26.27554702758789,-52.59963607788086,22.395357131958008,-0.6929653286933899,1.3109344244003296,0.2969851493835449,2.7763078212738037,0.5953270196914673,1.625375509262085
231,53201,53202,-0.012358583509922028,-0.02267632819712162,0.9926542043685913,-34.62140655517578,-35.480369567871094,15.458240509033203,-0.6884655356407166,1.3094345331192017,0.27148643136024475,3.043557643890381,0.16704072058200836,1.798527479171753
232,53211,53212,-0.053229931741952896,0.07842613756656647,0.9109249711036682,-35.162532806396484,-12.358597755432129,9.161317825317383,-0.6959651708602905,1.3169341087341309,0.28798559308052063,3.279370069503784,-0.0031959034968167543,1.9013296365737915
233,53221,53222,-0.08400283008813858,0.019575949758291245,0.9982894659042358,-28.56925392150879,15.965144157409668,3.600390672683716,-0.6884655356407166,1.3214339017868042,0.2954852283000946,3.382314920425415,-0.5776242613792419,2.0265893936157227
234,53231,53232,-0.09198541939258575,0.11622299998998642,0.902402400970459,-17.02019691467285,28.7381591796875,-2.2578978538513184,-0.6989650130271912,1.3409329652786255,0.2759861946105957,3.0712413787841797,-0.7729019522666931,2.0196287631988525
235,53241,53242,0.007329257670789957,-0.008679917082190514,1.1001877784729004,-7.979238510131836,29.088394165039062,-9.503665924072266,-0.7094644904136658,1.3274335861206055,0.29848507046699524,2.6303422451019287,-0.8233115077018738,1.9236507415771484
236,53251,53252,0.012048767879605293,0.11720813810825348,1.005339503288269,10.93994140625,23.8533935546875,-13.515576362609863,-0.7004649639129639,1.3214339017868042,0.2924853563308716,2.28999400138855,-0.7299230694770813,1.7828196287155151
237,53261,53262,-0.02216886356472969,-0.0853848084807396,0.9808772206306458,20.444612503051758,19.193004608154297,-12.403258323669434,-0.7214639186859131,1.339432954788208,0.2924853563308716,2.1164722442626953,-0.5816695690155029,1.648048996925354
238,53271,53272,-0.06939897686243057,-0.07080504298210144,0.9276084899902344,18.729522705078125,7.8532304763793945,-8.737277030944824,-0.7169641256332397,1.3259336948394775,0.2969851493835449,2.096033811569214,-0.3224836587905884,1.537819504737854
239,53281,53282,-0.0730089545249939,0.015127576887607574,0.9607450366020203,15.377328872680664,-12.997658729553223,-8.441720008850098,-0.7109644412994385,1.3439327478408813,0.2939853072166443,2.094278573989868,-0.1293569654226303,1.4456069469451904
240,53291,53292,-0.04975344240665436,0.014485604129731655,0.9620090126991272,10.615912437438965,-29.841386795043945,-6.510275840759277,-0.7079645991325378,1.3319333791732788,0.28798559308052063,2.342782974243164,-0.055090565234422684,1.3889087438583374
241,53301,53302,-0.09568939357995987,0.02797575667500496,0.9021223187446594,2.0806844234466553,-28.337167739868164,-3.5168917179107666,-0.7109644412994385,1.3349332809448242,0.2969851493835449,2.7361013889312744,0.0010572037426754832,1.3445876836776733
242,53311,53312,-0.0852275863289833,-0.011336213909089565,0.894767701625824,-21.068546295166016,-5.616421699523926,-0.8100396990776062,-0.7184640765190125,1.3424328565597534,0.29848507046699524,3.038893938064575,-0.06003023684024811,1.3303916454315186
243,53321,53322,-0.14188596606254578,-0.1465597003698349,1.0074923038482666,-61.069610595703125,11.143588066101074,-3.3939669132232666,-0.7019649147987366,1.3439327478408813,0.2969851493835449,3.0726959705352783,-0.3382847011089325,1.297706961631775
244,53331,53332,-0.03219689801335335,0.1001737117767334,0.8997128009796143,-78.42491149902344,6.026555061340332,-6.616982936859131,-0.7079645991325378,1.367931604385376,0.2969851493835449,2.8965697288513184,-1.2691614627838135,1.3278148174285889
245,53341,53342,-0.044944245368242264,0.01924128644168377,0.9075813293457031,-67.54762268066406,2.9834163188934326,-14.694304466247559,-0.7124643921852112,1.369431495666504,0.3044847846031189,2.840085029602051,-2.0272531509399414,1.230324625968933
246,53351,53352,-0.029085349291563034,0.06526403874158859,1.0843654870986938,-37.045928955078125,21.216941833496094,-21.796001434326172,-0.7079645991325378,1.3799309730529785,0.3029848337173462,2.6454555988311768,-2.70674991607666,1.0805996656417847
247,53361,53362,-0.0442013181746006,-0.031416021287441254,1.2105185985565186,4.089480876922607,45.66011428833008,-24.591386795043945,-0.7019649147987366,1.376931071281433,0.3149842321872711,2.3939261436462402,-2.9361934661865234,0.8331154584884644
248,53371,53372,-0.13555733859539032,0.08548153936862946,1.0151945352554321,58.55805206298828,65.65740203857422,-27.62116050720215,-0.7139642834663391,1.3649317026138306,0.2969851493835449,1.6769613027572632,-2.493137836456299,0.49089953303337097
249,53381,53382,-0.009095455519855022,0.02969854511320591,0.9986650347709656,103.35548400878906,75.54983520507812,-28.633960723876953,-0.7319633960723877,1.3889305591583252,0.3029848337173462,1.2192158699035645,-1.541439414024353,0.1059219092130661
250,53391,53392,-0.026127612218260765,0.0465909019112587,1.0644233226776123,132.8628387451172,80.0364990234375,-26.547100067138672,-0.736463189125061,1.3814308643341064,0.2954852283000946,0.5055809020996094,-0.5272291302680969,-0.1552819162607193
251,53401,53402,-0.01967104896903038,-0.013180705718696117,1.0232791900634766,149.74366760253906,60.26085662841797,-22.50497817993164,-0.7529623508453369,1.3709313869476318,0.3059847056865692,-0.5236265659332275,1.1857678890228271,-0.44921180605888367
252,53411,53412,-0.047107044607400894,0.03835882246494293,1.1059616804122925,145.66310119628906,33.16753387451172,-18.08551025390625,-0.7334632873535156,1.3724313974380493,0.30748462677001953,-0.9973770380020142,2.3409810066223145,-0.5682181119918823
253,53421,53422,-0.04068179428577423,-0.11421620845794678,0.9507319927215576,111.78230285644531,17.56106948852539,-14.626947402954102,-0.7604619860649109,1.3664315938949585,0.2954852283000946,-1.3746482133865356,4.077828407287598,-0.7804160118103027
254,53431,53432,-0.032273367047309875,-0.03300727903842926,1.0389348268508911,59.75019454956055,4.9620280265808105,-11.759883880615234,-0.7424628734588623,1.339432954788208,0.2924853563308716,-1.4426305294036865,4.54985237121582,-0.8456918597221375
255,53441,53442,-0.036793310195207596,-0.07376468181610107,1.0424494743347168,5.1880927085876465,-7.079020023345947,-10.865925788879395,-0.7514623999595642,1.3184340000152588,0.2864856719970703,-1.3937824964523315,5.044093132019043,-0.9685686826705933
256,53451,53452,-0.06818269938230515,-0.07256269454956055,1.0017427206039429,-52.008872985839844,-13.529823303222656,-9.578810691833496,-0.737963080406189,1.3199340105056763,0.27898603677749634,-1.2625107765197754,4.70343017578125,-1.0712865591049194
257,53461,53462,-0.052201900631189346,-0.00639573996886611,1.0475242137908936,-94.08490753173828,-21.31158447265625,-7.937989711761475,-0.7469626665115356,1.3289334774017334,0.2759861946105957,-1.0749874114990234,3.6726186275482178,-1.171826958656311
258,53471,53472,-0.044346265494823456,-0.07920213788747787,1.2016932964324951,-112.9682846069336,-28.070043563842773,-6.800875663757324,-0.7334632873535156,1.3424328565597534,0.28048595786094666,-0.7029712200164795,2.859276294708252,-1.2264033555984497
259,53481,53482,0.023630591109395027,-0.03634160757064819,1.0379087924957275,-103.41971588134766,-40.4112663269043,-4.4229021072387695,-0.7439627647399902,1.3499324321746826,0.29098543524742126,-0.4580783545970917,1.8902274370193481,-1.3119615316390991
260,53491,53492,-0.03838130831718445,0.0156474057585001,1.0719155073165894,-75.14871978759766,-52.92303466796875,1.355112075805664,-0.7184640765190125,1.3424328565597534,0.2834858298301697,0.18845398724079132,0.7306381464004517,-1.3110527992248535
261,53501,53502,-0.09501181542873383,0.00834697112441063,1.1023393869400024,-38.98160934448242,-53.148502349853516,8.660614013671875,-0.7214639186859131,1.3274335861206055,0.2954852283000946,0.6974500417709351,0.40110909938812256,-1.258182406425476
262,53511,53512,-0.06594743579626083,0.06722753494977951,1.1303620338439941,-18.482820510864258,-58.32313919067383,14.919938087463379,-0.7214639186859131,1.3274335861206055,0.31048446893692017,1.5703753232955933,-0.12927228212356567,-1.0775272846221924
263,53521,53522,-0.10375187546014786,-0.023446781560778618,1.0112708806991577,-16.369516372680664,-55.898475646972656,16.73028564453125,-0.7019649147987366,1.3499324321746826,0.3029848337173462,1.8510607481002808,-0.134603813290596,-0.9856657385826111
264,53531,53532,-0.04667414352297783,0.03007590025663376,1.0586695671081543,-15.245097160339355,-32.70207977294922,15.97380256652832,-0.6974651217460632,1.3364331722259521,0.2924853563308716,2.354712963104248,-0.2977987229824066,-0.8142932653427124
265,53541,53542,-0.05656348168849945,0.031252291053533554,1.088984727859497,-1.2919073104858398,0.9881730079650879,15.615463256835938,-0.6989650130271912,1.33793306350708,0.28198590874671936,2.5398526191711426,-0.4609840214252472,-0.6597559452056885
266,53551,53552,-0.06498891860246658,-0.0032520240638405085,1.0565569400787354,24.501544952392578,22.054706573486328,15.913512229919434,-0.6944652795791626,1.3484325408935547,0.31048446893692017,2.3591835498809814,-0.3011290431022644,-0.5203582048416138
267,53561,53562,-0.10023421794176102,0.038376081734895706,1.0593637228012085,48.50486373901367,28.791955947875977,19.907758712768555,-0.7244637608528137,1.3214339017868042,0.3014849126338959,2.0022025108337402,0.05858197435736656,-0.36843234300613403
268,53571,53572,-0.11426199972629547,0.01613624580204487,1.0395647287368774,50.902286529541016,31.150617599487305,24.544342041015625,-0.7199639678001404,1.3259336948394775,0.28798559308052063,1.7915489673614502,0.6388125419616699,-0.13846264779567719
269,53581,53582,-0.07368379831314087,-0.014076147228479385,1.0078165531158447,42.34197998046875,29.441518783569336,28.091903686523438,-0.7184640765190125,1.3304334878921509,0.2954852283000946,1.2569292783737183,1.110826849937439,0.09962155669927597
270,53591,53592,-0.11543908715248108,0.05952071398496628,1.1141064167022705,25.740447998046875,27.89544677734375,30.102506637573242,-0.7139642834663391,1.3289334774017334,0.2939853072166443,1.0649747848510742,1.4819523096084595,0.4064027667045593
271,53601,53602,-0.11253722757101059,-0.002367772161960602,0.9779525399208069,1.97856605052948,29.2157039642334,31.71931266784668,-0.7154642343521118,1.3184340000152588,0.2864856719970703,0.6939899921417236,1.6679195165634155,0.7109889984130859
272,53611,53612,-0.030013546347618103,0.008821554481983185,0.9246838688850403,-30.99235725402832,36.489105224609375,27.21367835998535,-0.7214639186859131,1.3124343156814575,0.2834858298301697,0.3845866322517395,1.500309705734253,1.0304367542266846
273,53621,53622,-0.05862075835466385,-0.009809853509068489,0.8849590420722961,-72.10990905761719,33.91664123535156,19.766986846923828,-0.7139642834663391,1.3199340105056763,0.28798559308052063,-0.15149079263210297,0.901313841342926,1.2664997577667236
274,53631,53632,0.011722949333488941,-0.004560219123959541,0.8715848922729492,-107.38383483886719,20.197725296020508,12.659432411193848,-0.7319633960723877,1.3349332809448242,0.28798559308052063,-0.2146862894296646,-0.018630437552928925,1.475738763809204
275,53641,53642,-0.0217598807066679,0.018162569031119347,0.9258126020431519,-115.27603149414062,14.601754188537598,6.316153526306152,-0.7184640765190125,1.3454327583312988,0.28048595786094666,-0.444318950176239,-1.4958503246307373,1.5660103559494019
276,53651,53652,-0.030925855040550232,-0.019673869013786316,0.9331347942352295,-96.20295715332031,9.292222023010254,-0.3373508155345917,-0.7289635539054871,1.33793306350708,0.28198590874671936,-0.336483359336853,-2.3131978511810303,1.649836540222168
277,53661,53662,0.05213506147265434,-0.14471197128295898,1.1204897165298462,-65.83413696289062,-11.867781639099121,-8.341527938842773,-0.7094644904136658,1.3424328565597534,0.2864856719970703,-0.43671584129333496,-2.9241106510162354,1.6223180294036865
278,53671,53672,0.014041525311768055,-0.04991840198636055,1.0172680616378784,-22.76173210144043,-27.241872787475586,-15.14810848236084,-0.7034648060798645,1.3424328565597534,0.28948551416397095,-0.17746572196483612,-3.558267831802368,1.5249062776565552
279,53681,53682,-0.0970284715294838,-0.054521895945072174,0.9921077489852905,30.408313751220703,-30.45311737060547,-20.718509674072266,-0.7214639186859131,1.3424328565597534,0.28948551416397095,0.27751806378364563,-3.4483160972595215,1.3914433717727661
280,53691,53692,-0.1252981424331665,0.1643831431865692,0.8317221403121948,85.53447723388672,-23.59879493713379,-21.64560317993164,-0.7079645991325378,1.3469326496124268,0.29098543524742126,0.6240334510803223,-2.7646546363830566,1.2087270021438599
281,53701,53702,-0.09917891770601273,0.0034189471043646336,0.962441623210907,109.0114517211914,-15.927472114562988,-23.58985137939453,-0.7154642343521118,1.3454327583312988,0.2864856719970703,0.8163034319877625,-1.905713438987732,0.9899237155914307
282,53711,53712,-0.04590455815196037,-0.02120254747569561,0.9675809144973755,97.50484466552734,15.882640838623047,-25.591758728027344,-0.7274636030197144,1.3364331722259521,0.28048595786094666,0.8209453821182251,-0.5231419205665588,0.7828657627105713
283,53721,53722,-0.05303143337368965,-0.02931028977036476,0.9040259122848511,63.21611785888672,49.837791442871094,-27.965192794799805,-0.7259637117385864,1.3409329652786255,0.29098543524742126,0.36764296889305115,0.035080574452877045,0.5208394527435303
284,53731,53732,-0.06260412186384201,0.012281481176614761,0.9819415211677551,33.217166900634766,63.50850296020508,-30.331750869750977,-0.7334632873535156,1.3244338035583496,0.2924853563308716,-0.41429683566093445,0.6097128391265869,0.2799147367477417
285,53741,53742,-0.10279630124568939,-0.15428979694843292,1.0397019386291504,11.02131462097168,52.773521423339844,-33.25433349609375,-0.7439627647399902,1.3409329652786255,0.3059847056865692,-1.030678391456604,0.7311142683029175,-0.0460861437022686
286,53751,53752,-0.03559991344809532,-0.09109258651733398,0.9682871103286743,-2.450704574584961,21.451379776000977,-31.658872604370117,-0.7394630312919617,1.3304334878921509,0.28048595786094666,-1.1924346685409546,0.7585589289665222,-0.41543424129486084
287,53761,53762,-0.04819134622812271,0.02113295905292034,1.0532728433609009,-12.22166919708252,-1.0369294881820679,-29.45435333251953,-0.737963080406189,1.3319333791732788,0.28198590874671936,-1.4601359367370605,0.6417323350906372,-0.7136231660842896
288,53771,53772,-0.16039636731147766,-0.17609566450119019,1.0330519676208496,-14.074995994567871,-9.875259399414062,-26.80755043029785,-0.7349632382392883,1.33793306350708,0.28198590874671936,-1.3969862461090088,0.4664098620414734,-1.0131475925445557
289,53781,53782,-0.05021699145436287,-0.10981607437133789,0.9892858862876892,-6.333840370178223,-9.393024444580078,-20.59258460998535,-0.7514623999595642,1.3364331722259521,0.2924853563308716,-1.1210415363311768,0.3250272572040558,-1.2880456447601318
290,53791,53792,-0.11881720274686813,-0.036318372935056686,0.9062530994415283,-4.034429550170898,-28.053491592407227,-14.941934585571289,-0.7394630312919617,1.3334332704544067,0.2744862735271454,-0.9203937649726868,0.3735218644142151,-1.4588592052459717
291,53801,53802,-0.20148953795433044,-0.09401319921016693,1.1273772716522217,-13.352323532104492,-51.44502639770508,-10.974135398864746,-0.722963809967041,1.3259336948394775,0.28798559308052063,-0.4170994758605957,0.3185218870639801,-1.6100200414657593
292,53811,53812,-0.11978797614574432,-0.04869573935866356,0.9688001871109009,-21.602739334106445,-77.23358154296875,-3.953357696533203,-0.7274636030197144,1.3214339017868042,0.2744862735271454,0.2278035581111908,0.18374252319335938,-1.697038173675537
293,53821,53822,-0.1514204740524292,0.061424028128385544,1.2032885551452637,-30.112613677978516,-88.4627685546875,1.1938928365707397,-0.7124643921852112,1.3304334878921509,0.277486115694046,1.1530604362487793,-0.015923134982585907,-1.7192529439926147
294,53831,53832,-0.1679057478904724,0.029173212125897408,1.1373027563095093,-48.37399673461914,-62.868961334228516,3.327799081802368,-0.7139642834663391,1.3289334774017334,0.27898603677749634,2.1712563037872314,-0.19204507768154144,-1.667129635810852
295,53841,53842,-0.17863820493221283,-0.003560498356819153,1.2298123836517334,-63.29872512817383,-35.317283630371094,4.7128167152404785,-0.6989650130271912,1.3259336948394775,0.29098543524742126,2.447143793106079,-0.6785974502563477,-1.6102596521377563
296,53851,53852,-0.23672887682914734,-0.0006776644731871784,1.2171496152877808,-64.38430786132812,7.270041465759277,10.603851318359375,-0.7064646482467651,1.3364331722259521,0.28948551416397095,2.7671897411346436,-1.6229934692382812,-1.5814192295074463
297,53861,53862,-0.08754561841487885,0.045821528881788254,1.1341253519058228,-53.54733657836914,51.70888137817383,10.526651382446289,-0.7184640765190125,1.354432225227356,0.2954852283000946,2.479006052017212,-2.246955394744873,-1.4767351150512695
298,53871,53872,-0.1333203911781311,0.12003793567419052,1.0753639936447144,-22.272977828979492,88.56485748291016,14.046634674072266,-0.7184640765190125,1.354432225227356,0.2834858298301697,1.598932147026062,-2.6139326095581055,-1.3641159534454346
299,53881,53882,-0.14333561062812805,0.11572185158729553,0.9567285180091858,29.11680793762207,105.49054718017578,17.797107696533203,-0.7259637117385864,1.3709313869476318,0.27898603677749634,0.7563355565071106,-2.440718412399292,-1.2590545415878296
300,53891,53892,-0.2194509208202362,0.06409310549497604,1.0358471870422363,70.60807037353516,96.43973541259766,20.876150131225586,-0.737963080406189,1.3589320182800293,0.28498575091362,-0.5753182768821716,-1.8651264905929565,-1.0619478225708008
301,53901,53902,-0.2151925414800644,0.049184832721948624,0.9230924248695374,81.04487609863281,87.42037200927734,24.13083267211914,-0.7484625577926636,1.3574321269989014,0.2834858298301697,-1.3711481094360352,-1.076223611831665,-0.8877745866775513
302,53911,53912,-0.13410750031471252,0.04983139783143997,0.8184938430786133,58.581947326660156,68.61759948730469,21.41200065612793,-0.736463189125061,1.3364331722259521,0.2864856719970703,-2.5210442543029785,-0.22155152261257172,-0.5897058248519897
303,53921,53922,-0.06934948265552521,0.060638293623924255,0.7937415242195129,17.280935287475586,27.299596786499023,13.055357933044434,-0.7454627156257629,1.3274335861206055,0.2744862735271454,-2.6723196506500244,0.08521018177270889,-0.5040917992591858
304,53931,53932,-0.041771501302719116,0.09233614802360535,0.8057094216346741,-19.765878677368164,-13.46699047088623,4.540210723876953,-0.7454627156257629,1.3214339017868042,0.27148643136024475,-2.8238346576690674,0.0039795502088963985,-0.412943035364151
305,53941,53942,-0.04951826483011246,0.04967457428574562,0.8462400436401367,-42.96657943725586,-37.235687255859375,-3.697479724884033,-0.7349632382392883,1.3289334774017334,0.27898603677749634,-2.4074792861938477,-0.48668962717056274,-0.47352978587150574
306,53951,53952,-0.026072662323713303,0.07200095057487488,0.8495257496833801,-47.463069915771484,-52.53650665283203,-9.73104190826416,-0.7349632382392883,1.3349332809448242,0.28198590874671936,-1.988040804862976,-0.9656372666358948,-0.528505265712738
307,53961,53962,-0.08105544745922089,0.010859682224690914,0.8740921020507812,-42.47541427612305,-60.49830627441406,-12.676905632019043,-0.7409629225730896,1.352932333946228,0.28498575091362,-1.14271080493927,-1.5222212076187134,-0.6948642134666443
308,53971,53972,-0.044870246201753616,0.0375174917280674,0.9318099617958069,-33.4102897644043,-55.05221176147461,-14.339336395263672,-0.7289635539054871,1.3409329652786255,0.27898603677749634,-0.47191429138183594,-1.7550314664840698,-0.7805813550949097
309,53981,53982,-0.12067785114049911,0.05649273097515106,0.9574863314628601,-22.188997268676758,-38.750396728515625,-15.623140335083008,-0.736463189125061,1.3574321269989014,0.2834858298301697,0.1405719369649887,-2.105022668838501,-0.9443665742874146
310,53991,53992,-0.04832988604903221,0.013022370636463165,0.9615339636802673,-1.9244166612625122,-21.185529708862305,-14.448821067810059,-0.7274636030197144,1.3514324426651,0.277486115694046,0.38254469633102417,-2.174018144607544,-1.047032356262207
311,54001,54002,-0.04012598097324371,0.08056101948022842,0.8185157775878906,27.539064407348633,7.22550106048584,-11.562713623046875,-0.7259637117385864,1.3409329652786255,0.28498575091362,0.5113354921340942,-2.078713893890381,-1.1727498769760132
312,54011,54012,-0.08548550307750702,0.040698908269405365,0.9565796852111816,50.88239288330078,38.33850860595703,-7.657554626464844,-0.736463189125061,1.3514324426651,0.2954852283000946,0.15910276770591736,-1.5114165544509888,-1.1926376819610596
313,54021,54022,-0.06701924651861191,0.016327613964676857,1.0425007343292236,66.63556671142578,68.30512237548828,-1.9501146078109741,-0.7559621930122375,1.367931604385376,0.2939853072166443,-0.3564331531524658,-1.0309252738952637,-1.2763111591339111
314,54031,54032,-0.016688615083694458,0.029729781672358513,0.9566017985343933,76.09503173828125,80.5603256225586,0.8731446266174316,-0.7454627156257629,1.3664315938949585,0.2924853563308716,-1.2197524309158325,-0.316239595413208,-1.2626157999038696
315,54041,54042,-0.0337865874171257,-0.07359983772039413,0.8704567551612854,67.94003295898438,74.17567443847656,1.9306237697601318,-0.7619618773460388,1.3739312887191772,0.28798559308052063,-2.226461887359619,0.320552259683609,-1.2217856645584106
316,54051,54052,-0.0393553227186203,0.03385927900671959,1.0158255100250244,44.792720794677734,57.50278091430664,2.633894443511963,-0.7694615125656128,1.354432225227356,0.2864856719970703,-3.0347254276275635,1.0394678115844727,-1.134734869003296
317,54061,54062,-0.046589817851781845,0.00023343827342614532,0.9153727293014526,21.43739128112793,37.53309631347656,4.1771111488342285,-0.7574620842933655,1.3664315938949585,0.2834858298301697,-3.1921753883361816,1.3502602577209473,-1.1903274059295654
318,54071,54072,-0.0504409521818161,-0.011256322264671326,1.0415818691253662,-6.4958696365356445,30.190122604370117,4.859243869781494,-0.7574620842933655,1.3664315938949585,0.2834858298301697,-3.8878910541534424,1.4692829847335815,-1.0736101865768433
319,54081,54082,0.004697142168879509,0.0482034832239151,0.8369394540786743,-21.531230926513672,9.985380172729492,5.399177551269531,-0.7574620842933655,1.3664315938949585,0.2834858298301697,-4.300332546234131,1.2711856365203857,-1.0241625308990479
320,54091,54092,-0.07212352752685547,0.10589609295129776,1.0076987743377686,-34.03965377807617,-8.997222900390625,4.207642555236816,-0.7574620842933655,1.3664315938949585,0.2834858298301697,-4.092738151550293,0.8227609395980835,-1.0806503295898438
321,54101,54102,-0.06959027051925659,-0.011068318970501423,0.9959734082221985,-33.15485763549805,-31.685230255126953,4.476506233215332,-0.7649617195129395,1.3409329652786255,0.28198590874671936,-3.7842659950256348,0.547627866268158,-1.0221961736679077
322,54111,54112,0.004505575634539127,0.015685569494962692,1.0493645668029785,-29.23056411743164,-48.12039566040039,5.319983005523682,-0.7529623508453369,1.3439327478408813,0.27898603677749634,-3.251661539077759,0.24454949796199799,-0.9782424569129944
323,54121,54122,-0.04706646874547005,-0.02561444230377674,1.0212916135787964,-18.897188186645508,-54.86292266845703,5.594936847686768,-0.7529623508453369,1.3499324321746826,0.2939853072166443,-2.657294511795044,-0.09759597480297089,-0.9770816564559937
324,54131,54132,-0.027656065300107002,-0.012692087329924107,1.0336031913757324,-5.53831148147583,-48.41441345214844,6.483504295349121,-0.7514623999595642,1.354432225227356,0.2834858298301697,-2.2307958602905273,-0.13218626379966736,-0.850997805595398
325,54141,54142,-0.0343075655400753,0.010375581681728363,1.0759092569351196,13.787267684936523,-29.64531898498535,6.780728816986084,-0.7454627156257629,1.3634318113327026,0.29848507046699524,-1.846199870109558,-0.05362388864159584,-0.7488296627998352
326,54151,54152,-0.05359093099832535,0.01653875969350338,1.092414140701294,32.386783599853516,-14.89565658569336,7.521249294281006,-0.7439627647399902,1.33793306350708,0.28198590874671936,-1.454398274421692,0.2019701898097992,-0.6564695239067078
327,54161,54162,-0.02566683106124401,-0.04580032080411911,1.0016738176345825,31.840408325195312,10.217677116394043,7.242812633514404,-0.736463189125061,1.3454327583312988,0.2834858298301697,-1.5066372156143188,0.45332837104797363,-0.6231432557106018
328,54171,54172,-0.0176065806299448,-0.059380874037742615,1.1358542442321777,25.504459381103516,29.18918800354004,4.5112714767456055,-0.7454627156257629,1.354432225227356,0.2834858298301697,-1.7916630506515503,0.9304505586624146,-0.4592927396297455
329,54181,54182,-0.047173745930194855,-0.08590855449438095,1.047215461730957,21.84555435180664,40.16583251953125,5.235736846923828,-0.7289635539054871,1.3499324321746826,0.28198590874671936,-2.367068290710449,1.1675671339035034,-0.41219955682754517
330,54191,54192,-0.05386272072792053,0.042488936334848404,1.1404023170471191,13.0626859664917,32.43514633178711,8.400992393493652,-0.7514623999595642,1.3484325408935547,0.28048595786094666,-2.6990857124328613,1.180422067642212,-0.4374363422393799
331,54201,54202,-0.0593283511698246,-0.0470765195786953,1.0383158922195435,-4.728964805603027,21.403465270996094,12.431320190429688,-0.7484625577926636,1.3514324426651,0.277486115694046,-3.0713343620300293,1.3037718534469604,-0.310463547706604
332,54211,54212,0.021789614111185074,-0.01616038754582405,1.050181269645691,-23.40717887878418,12.464207649230957,13.657454490661621,-0.7649617195129395,1.352932333946228,0.28798559308052063,-3.279529333114624,1.1110625267028809,-0.22332763671875
333,54221,54222,-0.09806837886571884,0.009809172712266445,1.0704089403152466,-33.61402893066406,-6.300634860992432,15.801369667053223,-0.7484625577926636,1.3484325408935547,0.26848655939102173,-3.2765543460845947,0.8873128890991211,-0.0532078742980957
334,54231,54232,-0.035478465259075165,0.0435393862426281,1.0900083780288696,-36.94905090332031,-32.828948974609375,20.331180572509766,-0.7469626665115356,1.3499324321746826,0.27898603677749634,-2.998530387878418,0.44795137643814087,0.074834443628788
335,54241,54242,-0.05549032241106033,-0.03435123339295387,1.0255464315414429,-50.718265533447266,-63.05549240112305,21.0485897064209,-0.7484625577926636,1.3334332704544067,0.28048595786094666,-2.354527711868286,0.1265721321105957,0.35779091715812683
336,54251,54252,0.0009873295202851295,-0.057448793202638626,1.0424546003341675,-61.08353805541992,-79.27265930175781,15.805081367492676,-0.7409629225730896,1.3319333791732788,0.26998651027679443,-1.4961578845977783,-0.6212586164474487,0.4556470811367035
337,54261,54262,-0.06971210986375809,-0.024340232834219933,1.0263015031814575,-55.861305236816406,-78.46907043457031,12.402843475341797,-0.730463445186615,1.339432954788208,0.2744862735271454,-0.629952073097229,-1.1751667261123657,0.6461622714996338
338,54271,54272,-0.07235509902238846,-0.020882120355963707,1.047022819519043,-44.03245544433594,-84.24132537841797,10.70022201538086,-0.7274636030197144,1.3214339017868042,0.277486115694046,0.3111141622066498,-1.6852160692214966,0.8077735900878906
339,54281,54282,-0.09413260221481323,-0.03942104056477547,1.0403788089752197,-18.899993896484375,-74.88645935058594,8.583171844482422,-0.7094644904136658,1.339432954788208,0.2834858298301697,0.8043890595436096,-1.8696529865264893,0.991252601146698
340,54291,54292,-0.11681133508682251,0.04238241910934448,1.0861278772354126,15.377241134643555,-49.798851013183594,9.748459815979004,-0.7154642343521118,1.3304334878921509,0.28948551416397095,1.362225890159607,-1.926562786102295,1.099155068397522
341,54301,54302,-0.10613960772752762,-0.018553951755166054,1.0580081939697266,22.7158145904541,-13.80578327178955,4.652927875518799,-0.7094644904136658,1.339432954788208,0.28948551416397095,1.780478596687317,-1.616757869720459,1.238361120223999
342,54311,54312,-0.08263503015041351,-0.23444193601608276,1.1921666860580444,7.608973026275635,25.69354820251465,-3.232266664505005,-0.7094644904136658,1.3364331722259521,0.3014849126338959,1.6220201253890991,-1.4593368768692017,1.2491395473480225
343,54321,54322,-0.07941810041666031,-0.026804527267813683,1.086083173751831,-2.813180446624756,61.81658172607422,-8.673270225524902,-0.7109644412994385,1.3259336948394775,0.28798559308052063,1.1281589269638062,-1.4190517663955688,1.1949543952941895
344,54331,54332,-0.07271688431501389,0.0025004700291901827,0.9741042256355286,-19.741445541381836,96.39207458496094,-12.681535720825195,-0.722963809967041,1.3439327478408813,0.2969851493835449,0.2190518081188202,-1.370870590209961,1.107778787612915
345,54341,54342,-0.0646141991019249,-0.06541076302528381,0.9029097557067871,-26.996854782104492,101.57498168945312,-14.555146217346191,-0.730463445186615,1.3484325408935547,0.28948551416397095,-0.9265296459197998,-1.8460177183151245,0.9118262529373169
346,54351,54352,-0.014974853955209255,0.003954553045332432,0.992424488067627,-13.802127838134766,77.7597427368164,-13.645379066467285,-0.7394630312919617,1.3604319095611572,0.2834858298301697,-1.5934349298477173,-1.9713207483291626,0.7338787317276001
347,54361,54362,-0.047300927340984344,0.009669128805398941,0.9844351410865784,16.7314453125,43.69255065917969,-10.926302909851074,-0.7349632382392883,1.3319333791732788,0.2969851493835449,-2.346860885620117,-2.068997859954834,0.5825667381286621
348,54371,54372,-0.036840617656707764,-0.06979051977396011,1.0143343210220337,58.497657775878906,3.7947497367858887,-6.937549591064453,-0.730463445186615,1.3364331722259521,0.2864856719970703,-2.6265907287597656,-1.4731998443603516,0.5222845077514648
349,54381,54382,-0.018412744626402855,-0.17521747946739197,1.028681755065918,101.54781341552734,-41.68653106689453,-0.2856733798980713,-0.7454627156257629,1.3184340000152588,0.2654867172241211,-2.4098076820373535,-0.8760802149772644,0.43248507380485535
350,54391,54392,-0.049569737166166306,-0.04839347302913666,1.0474423170089722,129.17886352539062,-74.30719757080078,12.048506736755371,-0.7349632382392883,1.3169341087341309,0.28798559308052063,-1.6387603282928467,0.569547712802887,0.5058537125587463
351,54401,54402,-0.06552931666374207,0.016048429533839226,1.0283212661743164,131.95648193359375,-75.92137908935547,24.90580177307129,-0.7274636030197144,1.3094345331192017,0.2864856719970703,-0.9124163389205933,1.6491482257843018,0.6081422567367554
352,54411,54412,-0.015226335264742374,0.0002681732294149697,0.9539374113082886,107.13739776611328,-57.974918365478516,38.179073333740234,-0.7199639678001404,1.298935055732727,0.27898603677749634,0.0007408990641124547,3.1379480361938477,0.8873133063316345
353,54421,54422,0.014921140857040882,0.18968795239925385,0.8929537534713745,58.402034759521484,-45.32233810424805,50.562416076660156,-0.7319633960723877,1.2929353713989258,0.29098543524742126,0.5080131888389587,3.9264168739318848,1.2595521211624146
354,54431,54432,-0.04843505471944809,0.038696493953466415,0.9356711506843567,-7.418956756591797,-26.276439666748047,57.54047393798828,-0.7199639678001404,1.2869356870651245,0.29098543524742126,1.1137889623641968,4.358601093292236,1.761512279510498
355,54441,54442,-0.04243588075041771,0.0476481169462204,0.8511868119239807,-74.52111053466797,-19.119935989379883,62.36814498901367,-0.7169641256332397,1.2929353713989258,0.28198590874671936,1.2567144632339478,3.8686578273773193,2.312443256378174
356,54451,54452,0.033041924238204956,0.12525151669979095,0.7900127172470093,-143.0523223876953,-31.78449249267578,63.3223876953125,-0.6974651217460632,1.2824358940124512,0.28948551416397095,1.6053850650787354,2.264808177947998,2.8762481212615967
357,54461,54462,-0.06932496279478073,0.04523037374019623,0.8968794345855713,-187.1337432861328,-43.97324752807617,62.66794204711914,-0.7034648060798645,1.2884355783462524,0.277486115694046,2.0174691677093506,0.7857856750488281,3.5114145278930664
358,54471,54472,-0.11835503578186035,0.04542970284819603,0.8015204071998596,-211.3167724609375,-51.954715728759766,59.46712112426758,-0.6974651217460632,1.285435676574707,0.28048595786094666,2.495382785797119,-0.9337611794471741,4.140316486358643
359,54481,54482,-0.08445863425731659,0.10443531721830368,0.8127334713935852,-223.5082550048828,-57.4441032409668,53.13818359375,-0.6854656934738159,1.3064346313476562,0.2834858298301697,3.2119529247283936,-3.7240967750549316,4.806562900543213
360,54491,54492,-0.046876076608896255,0.03874693810939789,0.8417011499404907,-218.40089416503906,-49.708736419677734,46.50758361816406,-0.683965802192688,1.301934838294983,0.28798559308052063,3.378476142883301,-5.849818229675293,5.28023624420166
361,54501,54502,-0.0059859370812773705,-0.036776017397642136,0.9978631138801575,-184.62136840820312,-30.746883392333984,41.26068115234375,-0.6854656934738159,1.3214339017868042,0.277486115694046,3.905473470687866,-8.345691680908203,5.860363960266113
362,54511,54512,-0.06158485263586044,0.15505075454711914,0.8465451002120972,-135.4034881591797,-11.54440689086914,38.79032516479492,-0.6974651217460632,1.3364331722259521,0.277486115694046,4.046553134918213,-9.634961128234863,6.204716682434082
363,54521,54522,-0.012198093347251415,0.052540868520736694,1.0609759092330933,-78.9221420288086,14.105571746826172,38.299659729003906,-0.6929653286933899,1.3439327478408813,0.28498575091362,3.951911687850952,-10.92178726196289,6.613691329956055
364,54531,54532,-0.048105593770742416,-0.02631755731999874,0.9277098178863525,-8.583560943603516,45.26676559448242,38.181297302246094,-0.6854656934738159,1.3664315938949585,0.2954852283000946,3.3392300605773926,-11.185799598693848,6.9012451171875
365,54541,54542,-0.07455949485301971,0.16873614490032196,0.8306554555892944,51.3133659362793,71.15484619140625,35.978172302246094,-0.6959651708602905,1.391930341720581,0.29098543524742126,2.4235823154449463,-10.945611953735352,7.22140645980835
366,54551,54552,-0.020155100151896477,0.041987095028162,0.9504116177558899,102.88806915283203,97.41065979003906,30.72144889831543,-0.6959651708602905,1.3949302434921265,0.2939853072166443,1.4525648355484009,-10.04047679901123,7.383034706115723
367,54561,54562,-0.012082889676094055,-0.004766229074448347,0.9929933547973633,148.52906799316406,118.45352172851562,25.936063766479492,-0.7199639678001404,1.391930341720581,0.2969851493835449,0.5777901411056519,-8.972330093383789,7.414533615112305
368,54571,54572,0.023210085928440094,0.030393604189157486,0.8678890466690063,176.5181121826172,109.08141326904297,18.99421501159668,-0.7154642343521118,1.3814308643341064,0.28948551416397095,-1.0600265264511108,-6.986048698425293,7.661134243011475
369,54581,54582,0.026821088045835495,0.04340557008981705,0.9244338274002075,182.73031616210938,84.01744079589844,7.606350898742676,-0.7439627647399902,1.3589320182800293,0.2969851493835449,-1.9313900470733643,-5.434090614318848,7.649954795837402
370,54591,54592,-0.011086776852607727,-0.01642478071153164,0.9711577892303467,176.2628173828125,39.8498649597168,-2.820894956588745,-0.730463445186615,1.3454327583312988,0.2954852283000946,-2.769298791885376,-3.086608648300171,7.583612442016602
371,54601,54602,-0.0509830117225647,-0.11779170483350754,0.9159864783287048,159.78746032714844,-4.552203178405762,-9.28232192993164,-0.7349632382392883,1.352932333946228,0.2939853072166443,-2.810866117477417,-1.9210176467895508,7.492597579956055
372,54611,54612,-0.1120312511920929,-0.06682734191417694,0.8445784449577332,115.38127136230469,-40.931663513183594,-12.875256538391113,-0.7469626665115356,1.3349332809448242,0.26998651027679443,-2.53161358833313,-0.11071304231882095,7.206130027770996
373,54621,54622,-0.04181211441755295,-0.029673922806978226,0.8458631038665771,62.64080047607422,-77.26250457763672,-18.080263137817383,-0.7334632873535156,1.3184340000152588,0.28048595786094666,-1.8466802835464478,0.4434870183467865,6.979147911071777
374,54631,54632,-0.01059435959905386,-0.04108747839927673,0.8560944199562073,23.2664852142334,-86.80966186523438,-16.423974990844727,-0.722963809967041,1.3199340105056763,0.28798559308052063,-0.6795924305915833,0.8637770414352417,6.520002365112305
375,54641,54642,-0.04251547157764435,0.07460522651672363,0.8830400705337524,-9.061213493347168,-74.11031341552734,-12.574127197265625,-0.7169641256332397,1.313934326171875,0.2759861946105957,0.06925437599420547,0.8147765398025513,6.439358234405518
376,54651,54652,-0.05100465193390846,0.10788184404373169,0.8518355488777161,-46.727622985839844,-41.21348571777344,-12.349532127380371,-0.7064646482467651,1.3094345331192017,0.2864856719970703,0.5430610179901123,0.5373609662055969,6.411942958831787
377,54661,54662,-0.08638016879558563,0.07065749913454056,0.9627932906150818,-65.75393676757812,-20.07524299621582,-12.057687759399414,-0.7124643921852112,1.3304334878921509,0.28048595786094666,1.031543493270874,-0.1310611516237259,6.19988489151001
378,54671,54672,-0.11292707920074463,0.050899069756269455,0.9112504720687866,-61.324642181396484,-13.895783424377441,-10.784659385681152,-0.7154642343521118,1.354432225227356,0.2924853563308716,1.1735293865203857,-0.6057420969009399,6.087057590484619
379,54681,54682,-0.08401334285736084,0.005926529411226511,1.1497067213058472,-48.81986999511719,-15.39982795715332,-13.13875961303711,-0.7184640765190125,1.3484325408935547,0.2864856719970703,1.2265487909317017,-1.2724409103393555,6.0338239669799805
380,54691,54692,-0.12503907084465027,0.2009679526090622,1.082586646080017,3.573777675628662,6.201165676116943,-10.041250228881836,-0.7139642834663391,1.3409329652786255,0.29098543524742126,1.324591875076294,-1.304743766784668,5.8745317459106445
381,54701,54702,-0.142235666513443,0.09452261030673981,1.0570151805877686,55.73121643066406,46.524085998535156,-6.800190448760986,-0.7184640765190125,1.3514324426651,0.2954852283000946,1.0072323083877563,-0.9494482278823853,5.807221412658691
382,54711,54712,-0.08906561881303787,0.19518643617630005,0.9480874538421631,95.15658569335938,69.7751693725586,-4.212944984436035,-0.7244637608528137,1.339432954788208,0.3044847846031189,0.2634392976760864,-0.25787946581840515,5.814788818359375
383,54721,54722,-0.05968965217471123,0.08013325184583664,0.9535513520240784,102.73914337158203,82.49529266357422,-5.266980171203613,-0.7244637608528137,1.3514324426651,0.2954852283000946,-0.5850216150283813,1.0047398805618286,5.7700934410095215
384,54731,54732,-0.05481523275375366,0.07684092223644257,0.947624921798706,89.18297576904297,69.37360382080078,-5.869970321655273,-0.7409629225730896,1.3409329652786255,0.2939853072166443,-1.4572782516479492,1.8219071626663208,5.772190570831299
385,54741,54742,0.0013625894207507372,0.09732044488191605,1.0122313499450684,48.832115173339844,37.2301025390625,-10.768636703491211,-0.7409629225730896,1.33793306350708,0.27898603677749634,-2.1880061626434326,2.354140281677246,5.775445938110352
386,54751,54752,0.05544578284025192,0.07627418637275696,1.000898838043213,7.718140602111816,-3.198303461074829,-20.189485549926758,-0.737963080406189,1.3259336948394775,0.29098543524742126,-2.386331081390381,2.6917977333068848,5.636137008666992
387,54761,54762,0.08632592856884003,-0.0073634968139231205,0.9942735433578491,-23.576824188232422,-40.06009292602539,-29.622880935668945,-0.7394630312919617,1.3184340000152588,0.28048595786094666,-2.2106616497039795,2.5537452697753906,5.395341873168945
388,54771,54772,-0.018569031730294228,0.028950056061148643,1.0697523355484009,-27.6671085357666,-73.86772918701172,-39.85666275024414,-0.7334632873535156,1.3424328565597534,0.2834858298301697,-1.3779960870742798,2.231281280517578,5.007320880889893
389,54781,54782,-0.025534750893712044,-0.04530187323689461,1.029024362564087,-11.450879096984863,-92.36538696289062,-45.441646575927734,-0.7349632382392883,1.3199340105056763,0.27898603677749634,-0.5227637887001038,1.997536301612854,4.553269863128662
390,54791,54792,-0.04584980756044388,0.035549502819776535,1.1041303873062134,9.14686393737793,-92.57561492919922,-48.75845718383789,-0.7274636030197144,1.3214339017868042,0.277486115694046,0.6722368597984314,2.127810001373291,4.067653656005859
391,54801,54802,-0.07210934907197952,0.0077542648650705814,1.076684594154358,33.014095306396484,-75.06610870361328,-49.7762451171875,-0.722963809967041,1.3259336948394775,0.28498575091362,1.3089730739593506,2.2631094455718994,3.5225305557250977
392,54811,54812,-0.07425784319639206,0.010471222922205925,1.0476891994476318,50.27490997314453,-55.63118362426758,-50.28934097290039,-0.7094644904136658,1.3244338035583496,0.28948551416397095,2.3135786056518555,2.9712276458740234,3.035848617553711
393,54821,54822,-0.06825471669435501,-0.02677992172539234,1.000687837600708,63.150691986083984,-34.727664947509766,-49.83244323730469,-0.7079645991325378,1.3349332809448242,0.2969851493835449,2.668501377105713,3.502190113067627,2.4844324588775635
394,54831,54832,-0.17349424958229065,-0.03979134559631348,1.0341200828552246,66.70172119140625,-7.214474678039551,-47.769779205322266,-0.7154642343521118,1.3124343156814575,0.2954852283000946,2.721858024597168,3.9939124584198,1.9444365501403809
395,54841,54842,-0.12473215162754059,0.02444865182042122,1.1482489109039307,56.076175689697266,21.792068481445312,-44.562522888183594,-0.7139642834663391,1.3169341087341309,0.2969851493835449,2.5765762329101562,4.974679470062256,1.4313546419143677
396,54851,54852,-0.0655376985669136,0.029127847403287888,1.0552796125411987,32.05424118041992,41.726863861083984,-38.084571838378906,-0.7139642834663391,1.3199340105056763,0.28798559308052063,2.0598456859588623,5.228219509124756,1.003136157989502
397,54861,54862,-0.13302506506443024,-0.08827769011259079,1.1556282043457031,-5.264646530151367,43.79963684082031,-30.35333824157715,-0.722963809967041,1.3199340105056763,0.2939853072166443,1.4214166402816772,5.522098541259766,0.6100425720214844
398,54871,54872,-0.10922418534755707,-0.16696079075336456,1.1688424348831177,-39.90256118774414,26.116960525512695,-22.585187911987305,-0.7199639678001404,1.3109344244003296,0.2939853072166443,1.0824942588806152,5.339118480682373,0.4088687598705292
399,54881,54882,-0.10669324547052383,-0.04102814942598343,1.183660864830017,-73.97756958007812,20.45628547668457,-20.911516189575195,-0.7244637608528137,1.3214339017868042,0.2834858298301697,0.8234308362007141,4.646548271179199,0.2510872781276703
400,54891,54892,-0.08357822149991989,-0.03426409140229225,1.11989164352417,-93.94197845458984,9.653426170349121,-24.372909545898438,-0.7244637608528137,1.339432954788208,0.2834858298301697,0.734014093875885,3.8262102603912354,0.0863003134727478
401,54901,54902,-0.12970298528671265,-0.040068551898002625,1.1198081970214844,-95.09700775146484,25.919879913330078,-26.320281982421875,-0.7244637608528137,1.3364331722259521,0.2864856719970703,0.5227653980255127,2.6805226802825928,-0.17025163769721985
402,54911,54912,-0.018239295110106468,0.01372719556093216,1.0839893817901611,-67.22209167480469,31.95730972290039,-24.847654342651367,-0.7139642834663391,1.3259336948394775,0.2939853072166443,0.20336391031742096,1.9877830743789673,-0.45989474654197693
403,54921,54922,-0.0005981185240671039,0.02667800709605217,1.0050063133239746,-17.891029357910156,15.923583984375,-21.478816986083984,-0.7289635539054871,1.33793306350708,0.28798559308052063,-0.021569615229964256,1.760332465171814,-0.6948626041412354
404,54931,54932,-0.010091975331306458,0.03564531356096268,0.9599345326423645,38.81537628173828,-9.526652336120605,-12.667146682739258,-0.7169641256332397,1.3259336948394775,0.28798559308052063,-0.1520659178495407,1.7541149854660034,-0.9072592854499817
405,54941,54942,-0.10660289973020554,0.02501351572573185,1.0614248514175415,69.93264770507812,-22.136463165283203,-3.7211878299713135,-0.7214639186859131,1.3304334878921509,0.2924853563308716,0.13220825791358948,2.497492551803589,-0.9513483047485352
406,54951,54952,-0.13556131720542908,-0.08210264891386032,1.0672130584716797,76.90523529052734,-27.656091690063477,5.554744243621826,-0.7199639678001404,1.3289334774017334,0.28498575091362,0.5747641324996948,3.3919222354888916,-0.8628345131874084
407,54961,54962,-0.028720835223793983,0.12482418119907379,1.0237934589385986,62.736473083496094,-32.27452850341797,12.04773998260498,-0.7199639678001404,1.3229337930679321,0.28798559308052063,0.8531694412231445,3.9802587032318115,-0.8060779571533203
408,54971,54972,-0.04894142597913742,0.029175985604524612,1.0095070600509644,22.939001083374023,-24.230010986328125,13.99789810180664,-0.7199639678001404,1.3169341087341309,0.2939853072166443,1.306280255317688,4.472275733947754,-0.6154763102531433
409,54981,54982,-0.031611427664756775,0.040189627557992935,0.9433130025863647,-27.467884063720703,-4.305840492248535,14.04778003692627,-0.7124643921852112,1.3034348487854004,0.2834858298301697,1.5339447259902954,4.447358131408691,-0.45597487688064575
410,54991,54992,-0.04791644960641861,0.007965080440044403,1.0432157516479492,-73.88504028320312,19.231903076171875,9.682012557983398,-0.7289635539054871,1.3199340105056763,0.26998651027679443,1.4985707998275757,3.7635741233825684,-0.3137137293815613
411,55001,55002,-0.0649019330739975,-0.06513570249080658,1.066313624382019,-97.0735092163086,45.387657165527344,11.7311372756958,-0.7139642834663391,1.3349332809448242,0.29098543524742126,1.0310837030410767,2.918588161468506,-0.3332612216472626
412,55011,55012,-0.012707854621112347,0.097882941365242,0.8767078518867493,-98.76715850830078,65.97054290771484,12.880934715270996,-0.7274636030197144,1.339432954788208,0.2864856719970703,0.36786097288131714,1.9196667671203613,-0.2837546765804291
413,55021,55022,-0.015385288745164871,0.1275092214345932,0.9232960343360901,-101.42899322509766,73.37153625488281,8.329977989196777,-0.7409629225730896,1.3499324321746826,0.29098543524742126,-0.5039505958557129,0.9310815334320068,-0.27695661783218384
414,55031,55032,-0.045222241431474686,-0.010911348275840282,1.0134857892990112,-88.14358520507812,58.77436447143555,2.8360049724578857,-0.7349632382392883,1.3619319200515747,0.28498575091362,-1.2792059183120728,0.12334419041872025,-0.27332204580307007
415,55041,55042,-0.018819749355316162,0.004394110757857561,1.0657521486282349,-47.8903923034668,30.763309478759766,-2.6832797527313232,-0.7514623999595642,1.3574321269989014,0.2834858298301697,-1.805721402168274,-0.8376420736312866,-0.2633289694786072
416,55051,55052,0.06621045619249344,0.06643378734588623,1.0429331064224243,0.7706364989280701,-2.062838077545166,-7.640495777130127,-0.7319633960723877,1.3619319200515747,0.28798559308052063,-1.8812166452407837,-0.9867381453514099,-0.23868843913078308
417,55061,55062,0.0036245742812752724,-0.02599693275988102,1.017541766166687,45.93891906738281,-30.64044189453125,-12.189449310302734,-0.7334632873535156,1.3514324426651,0.28948551416397095,-1.5888655185699463,-0.6463853716850281,-0.23355676233768463
418,55071,55072,-0.03020639903843403,-0.05117171257734299,0.9092022776603699,85.01242065429688,-48.39542770385742,-10.293730735778809,-0.7454627156257629,1.3484325408935547,0.28048595786094666,-1.1237021684646606,0.25558313727378845,-0.2879818379878998
419,55081,55082,-0.039788272231817245,0.12703078985214233,0.876552164554596,100.62088012695312,-57.50464630126953,-10.532529830932617,-0.7334632873535156,1.3364331722259521,0.2834858298301697,-0.4872176945209503,1.2972731590270996,-0.33825454115867615
420,55091,55092,-0.09620042145252228,0.022660978138446808,1.1437982320785522,93.16407012939453,-64.82685852050781,-10.306328773498535,-0.7319633960723877,1.3289334774017334,0.28198590874671936,0.1789918690919876,2.0290491580963135,-0.4527954161167145
421,55101,55102,-0.049853891134262085,-0.02863747999072075,1.0616213083267212,71.5111312866211,-80.28238677978516,-5.885785102844238,-0.7289635539054871,1.3199340105056763,0.29098543524742126,0.7678793668746948,2.695754289627075,-0.6320087909698486
422,55111,55112,-0.12931440770626068,-0.1690683364868164,1.1714611053466797,15.857975959777832,-79.69432067871094,-4.2563018798828125,-0.7079645991325378,1.3229337930679321,0.28798559308052063,2.0183022022247314,3.3621010780334473,-0.5526810884475708
423,55121,55122,-0.11123787611722946,-0.04980273172259331,1.0415740013122559,-26.906312942504883,-54.044921875,5.341498374938965,-0.7169641256332397,1.313934326171875,0.29098543524742126,2.305075168609619,3.1370270252227783,-0.7895744442939758
424,55131,55132,-0.089047871530056,0.11896075308322906,1.0634502172470093,-55.376487731933594,-7.625064373016357,18.248428344726562,-0.7049647569656372,1.3289334774017334,0.28198590874671936,2.8754212856292725,2.651914596557617,-0.644649863243103
425,55141,55142,-0.03790027275681496,0.006112446077167988,1.1071710586547852,-94.57008361816406,26.29311752319336,29.24324607849121,-0.7079645991325378,1.3499324321746826,0.2939853072166443,2.814626932144165,2.0596771240234375,-0.4467571973800659
426,55151,55152,-0.11844442784786224,-0.08145502954721451,0.9883308410644531,-129.1497344970703,66.70795440673828,37.735355377197266,-0.7169641256332397,1.3559322357177734,0.29098543524742126,2.151853322982788,0.5747729539871216,-0.20205077528953552
427,55161,55162,-0.054755400866270065,0.1543027013540268,0.7968196272850037,-137.83917236328125,93.46238708496094,42.58467483520508,-0.7259637117385864,1.376931071281433,0.2939853072166443,1.3706467151641846,-0.46597933769226074,0.1627688854932785
428,55171,55172,-0.04136800020933151,0.11745178699493408,0.8864103555679321,-147.48121643066406,95.89592742919922,38.427181243896484,-0.7319633960723877,1.3799309730529785,0.28498575091362,0.05344533547759056,-2.240630626678467,0.4516395628452301
429,55181,55182,-0.05373891815543175,0.04046202078461647,0.9272139072418213,-135.66696166992188,63.70195007324219,30.79571533203125,-0.736463189125061,1.3844307661056519,0.2924853563308716,-0.6813187003135681,-3.1883249282836914,0.7753263711929321
430,55191,55192,0.028015878051519394,-0.041287701576948166,1.1326713562011719,-102.68047332763672,20.825586318969727,20.35683822631836,-0.7184640765190125,1.3784310817718506,0.2924853563308716,-1.0185177326202393,-4.131977558135986,1.0492713451385498
431,55201,55202,-0.021176431328058243,0.039551638066768646,1.0387204885482788,-41.94882583618164,-18.163131713867188,10.502487182617188,-0.722963809967041,1.3649317026138306,0.28498575091362,-1.087605595588684,-5.312900543212891,1.246761679649353
432,55211,55212,-0.02921312302350998,0.07067233324050903,1.0414893627166748,33.37556457519531,-60.15164566040039,8.419900894165039,-0.730463445186615,1.3844307661056519,0.2924853563308716,-0.5626700520515442,-5.1592206954956055,1.3807358741760254
433,55221,55222,-0.11046971380710602,0.05779469385743141,1.1825251579284668,109.75607299804688,-76.59815979003906,15.18428897857666,-0.7244637608528137,1.3604319095611572,0.2924853563308716,0.2775997221469879,-4.303073883056641,1.543724536895752
434,55231,55232,-0.1301829069852829,0.09744901210069656,0.9847921133041382,165.76284790039062,-66.46263122558594,21.118492126464844,-0.7094644904136658,1.3574321269989014,0.3044847846031189,1.0424320697784424,-3.051682710647583,1.7666407823562622
435,55241,55242,-0.12285549193620682,-0.023954520002007484,1.2629952430725098,173.2176971435547,-41.374088287353516,20.20395278930664,-0.7349632382392883,1.3469326496124268,0.3029848337173462,1.5947890281677246,-1.0139281749725342,1.9956618547439575
436,55251,55252,-0.08745051175355911,-0.048195838928222656,1.0512146949768066,174.08790588378906,-11.199572563171387,18.367799758911133,-0.7319633960723877,1.3319333791732788,0.29098543524742126,1.7876200675964355,0.3886577785015106,2.230691909790039
437,55261,55262,-0.05058936029672623,0.016557058319449425,1.0961424112319946,140.56851196289062,17.79652976989746,16.5343074798584,-0.7109644412994385,1.3199340105056763,0.28198590874671936,1.8068963289260864,2.337096691131592,2.3968679904937744
438,55271,55272,-0.13464583456516266,-0.12306051701307297,1.12353515625,93.78040313720703,61.75605773925781,16.055728912353516,-0.7094644904136658,1.3214339017868042,0.2954852283000946,1.252114176750183,2.966024160385132,2.6704773902893066
439,55281,55282,0.010246656835079193,0.006930812727659941,0.9515568017959595,42.835365295410156,77.09274291992188,16.161151885986328,-0.7139642834663391,1.2869356870651245,0.29098543524742126,0.5526502728462219,3.5168464183807373,2.891631603240967
440,55291,55292,-0.07612764090299606,0.02530200034379959,0.9528648257255554,-6.928657054901123,84.228759765625,14.04324722290039,-0.7109644412994385,1.2899354696273804,0.2759861946105957,-0.43501096963882446,3.8140594959259033,3.1180667877197266
441,55301,55302,-0.08544152975082397,-0.012662127614021301,0.9999694228172302,-46.374568939208984,71.58799743652344,12.382102012634277,-0.737963080406189,1.2959351539611816,0.27298635244369507,-0.980748176574707,3.4572296142578125,3.2941153049468994
442,55311,55312,0.004066639579832554,0.006348239723592997,0.9889634847640991,-77.63483428955078,55.091148376464844,12.233880043029785,-0.7259637117385864,1.2929353713989258,0.28198590874671936,-1.8352030515670776,2.642188310623169,3.4682462215423584
443,55321,55322,0.04692687466740608,0.011854599229991436,0.9741497039794922,-109.43852233886719,39.717437744140625,10.933497428894043,-0.7289635539054871,1.301934838294983,0.27898603677749634,-2.215416193008423,1.9839651584625244,3.6098756790161133
444,55331,55332,0.023678753525018692,0.0046691009774804115,0.9323150515556335,-123.89677429199219,21.652061462402344,8.625895500183105,-0.7349632382392883,1.3169341087341309,0.28198590874671936,-2.762573719024658,0.5531558990478516,3.6906678676605225
445,55341,55342,-0.05182391405105591,0.0733719915151596,0.8774101138114929,-123.31745910644531,7.4604268074035645,5.691689968109131,-0.730463445186615,1.3124343156814575,0.277486115694046,-2.626430034637451,-0.45569244027137756,3.8249783515930176
446,55351,55352,-0.06341364979743958,0.078151635825634,0.9444506764411926,-117.1632080078125,-11.136168479919434,2.903622627258301,-0.730463445186615,1.3334332704544067,0.28048595786094666,-2.68776798248291,-1.977770209312439,3.8263235092163086
447,55361,55362,-0.027171360328793526,0.01697387360036373,0.947765588760376,-97.29459381103516,-43.48037338256836,0.9897667765617371,-0.7184640765190125,1.339432954788208,0.2834858298301697,-2.35550856590271,-2.6897671222686768,3.940335512161255
448,55371,55372,-0.08216739445924759,0.10243773460388184,0.9076864123344421,-68.7437973022461,-65.29652404785156,0.013505592942237854,-0.7169641256332397,1.3229337930679321,0.28498575091362,-1.6167738437652588,-3.3771023750305176,4.029564380645752
449,55381,55382,-0.10903217643499374,-0.028642544522881508,0.9454625248908997,-29.731966018676758,-70.4038314819336,-2.515414237976074,-0.7169641256332397,1.3229337930679321,0.28498575091362,-0.9691959023475647,-3.925384283065796,4.066411018371582
450,55391,55392,-0.11756240576505661,-0.009943293407559395,1.0025622844696045,7.818496227264404,-60.76015853881836,-6.74319314956665,-0.7169641256332397,1.3229337930679321,0.28498575091362,-0.2217811793088913,-4.271310329437256,4.03547477722168
451,55401,55402,-0.05077514797449112,-0.004633889067918062,0.9521703720092773,36.187679290771484,-35.45608139038086,-9.625483512878418,-0.7169641256332397,1.3229337930679321,0.28498575091362,0.47685950994491577,-3.830676794052124,4.0396575927734375
452,55411,55412,-0.028789443895220757,-0.03356790170073509,0.9117162227630615,59.12340545654297,0.38019415736198425,-10.370129585266113,-0.7154642343521118,1.3604319095611572,0.2924853563308716,0.6113525629043579,-3.376256227493286,3.9743804931640625
453,55421,55422,-0.02666337601840496,0.006584505550563335,1.0143132209777832,65.9302749633789,27.3490047454834,-12.953254699707031,-0.7214639186859131,1.3574321269989014,0.28948551416397095,0.6263253688812256,-2.538614273071289,3.8735055923461914
454,55431,55432,-0.053018394857645035,0.003473458345979452,0.9663735032081604,55.59625244140625,62.875606536865234,-17.07473373413086,-0.722963809967041,1.3559322357177734,0.2939853072166443,-0.22869504988193512,-2.118206739425659,3.8008856773376465
455,55441,55442,-0.04682489484548569,-0.005016567651182413,0.8742192387580872,34.607017517089844,84.3278579711914,-21.34050178527832,-0.7319633960723877,1.3619319200515747,0.29098543524742126,-1.1765570640563965,-1.5239672660827637,3.690868854522705
456,55451,55452,-0.02150295302271843,-0.04109557345509529,0.8500180244445801,15.44883918762207,94.59457397460938,-21.9084529876709,-0.736463189125061,1.3604319095611572,0.277486115694046,-1.9750758409500122,-1.4208307266235352,3.3882555961608887
457,55461,55462,-0.017362387850880623,-0.1015934869647026,0.9085469245910645,-14.539264678955078,77.13883972167969,-22.065622329711914,-0.7469626665115356,1.3559322357177734,0.2969851493835449,-2.6833643913269043,-1.3312054872512817,3.0836095809936523
458,55471,55472,0.006551747675985098,-0.09713753312826157,0.918358564376831,-53.478145599365234,25.928855895996094,-24.54400634765625,-0.7619618773460388,1.3649317026138306,0.29998499155044556,-3.3874659538269043,-1.8588279485702515,2.8317227363586426
459,55481,55482,-0.05094221979379654,-0.10741057246923447,0.9893872737884521,-70.14266204833984,-23.980268478393555,-32.76453399658203,-0.7544622421264648,1.3634318113327026,0.2834858298301697,-3.457976818084717,-2.394857406616211,2.5790224075317383
460,55491,55492,-0.11299141496419907,-0.01907316967844963,1.040669560432434,-61.28317642211914,-69.67317962646484,-40.82130432128906,-0.7454627156257629,1.3514324426651,0.28948551416397095,-2.8564116954803467,-3.420719861984253,2.074873208999634
461,55501,55502,-0.12902069091796875,0.10456572473049164,1.033218502998352,-36.008941650390625,-93.1390609741211,-46.92585754394531,-0.7544622421264648,1.3814308643341064,0.2834858298301697,-2.129323720932007,-3.7663991451263428,1.7903164625167847
462,55511,55512,-0.12710973620414734,0.0817868560552597,1.0924785137176514,2.1793906688690186,-99.64729309082031,-49.87800598144531,-0.736463189125061,1.3724313974380493,0.28948551416397095,-0.9415383338928223,-3.918593406677246,1.3321317434310913
463,55521,55522,-0.10906494408845901,-0.052659161388874054,1.1608588695526123,51.67430114746094,-87.58016967773438,-48.14109420776367,-0.737963080406189,1.382930874824524,0.29098543524742126,-0.11546450108289719,-3.6650125980377197,0.9949911832809448
464,55531,55532,-0.0530642531812191,0.007722470443695784,1.0902001857757568,92.35792541503906,-66.01590728759766,-40.32558822631836,-0.722963809967041,1.352932333946228,0.28798559308052063,1.1688872575759888,-2.599717617034912,0.5049943327903748
465,55541,55542,0.009294850751757622,0.036869216710329056,1.1008938550949097,110.48099517822266,-51.476261138916016,-33.07300567626953,-0.7244637608528137,1.3604319095611572,0.28948551416397095,1.3917611837387085,-1.6502913236618042,0.33851927518844604
466,55551,55552,-0.07553676515817642,-0.1155119389295578,1.0660266876220703,105.10780334472656,-14.593280792236328,-21.480178833007812,-0.722963809967041,1.3589320182800293,0.28798559308052063,1.7706201076507568,-0.6265385746955872,0.042899683117866516
467,55561,55562,-0.0736241415143013,-0.10764393210411072,1.060083031654358,78.43506622314453,10.508764266967773,-11.390730857849121,-0.7439627647399902,1.352932333946228,0.29098543524742126,1.8333338499069214,0.2541102468967438,-0.17376106977462769
468,55571,55572,-0.12105853110551834,0.01768302544951439,0.8906773924827576,29.08567237854004,40.500972747802734,-4.33284330368042,-0.7214639186859131,1.3274335861206055,0.28948551416397095,1.4587171077728271,0.7000503540039062,-0.2161462903022766
469,55581,55582,-0.1240682378411293,-0.003718859050422907,0.9180771112442017,-32.39756774902344,67.38583374023438,-0.2144457995891571,-0.7289635539054871,1.3439327478408813,0.27898603677749634,0.726466953754425,0.6886507272720337,-0.14150379598140717
470,55591,55592,-0.01857142522931099,0.15574407577514648,0.9415556788444519,-73.03295135498047,73.13929748535156,7.6042304039001465,-0.7394630312919617,1.3454327583312988,0.28948551416397095,0.14881634712219238,0.10784526914358139,-0.18235580623149872
471,55601,55602,-0.04037012532353401,0.10649947077035904,0.8945677280426025,-103.25601959228516,71.33135223388672,11.991085052490234,-0.7319633960723877,1.3589320182800293,0.29998499155044556,-0.6176869869232178,-0.9211432933807373,-0.0993543416261673
472,55611,55612,-0.07706703990697861,0.07736524939537048,1.052856683731079,-113.0992660522461,50.64835739135742,13.422394752502441,-0.7259637117385864,1.3709313869476318,0.28198590874671936,-1.3636715412139893,-1.8755638599395752,0.06363353878259659
473,55621,55622,-0.07492663711309433,-0.08000623434782028,1.040793538093567,-94.02835845947266,27.780786514282227,14.043581008911133,-0.7244637608528137,1.3724313974380493,0.2834858298301697,-1.815610408782959,-3.2775168418884277,0.16741394996643066
474,55631,55632,-0.03801483288407326,-0.037131085991859436,1.0473783016204834,-48.84282684326172,3.762993574142456,10.339646339416504,-0.7394630312919617,1.3724313974380493,0.2834858298301697,-1.9707417488098145,-3.9122443199157715,0.29432374238967896
475,55641,55642,-0.05453764647245407,0.13567808270454407,1.0317615270614624,0.10289257764816284,-22.240922927856445,2.479367971420288,-0.7244637608528137,1.3634318113327026,0.3014849126338959,-1.8612501621246338,-4.119500160217285,0.3718450963497162
476,55651,55652,-0.10211461037397385,0.05169501528143883,0.9667812585830688,39.87586212158203,-36.015113830566406,-5.024943828582764,-0.7289635539054871,1.3649317026138306,0.2969851493835449,-1.4511642456054688,-3.7786171436309814,0.3714267313480377
477,55661,55662,-0.03449983522295952,0.06909748911857605,0.9164424538612366,80.905029296875,-37.617095947265625,-11.228997230529785,-0.7454627156257629,1.3514324426651,0.2864856719970703,-1.0510512590408325,-3.433784246444702,0.2704237103462219
478,55671,55672,0.04166080057621002,0.062096621841192245,0.9824190139770508,109.45177459716797,-38.19940948486328,-16.154830932617188,-0.730463445186615,1.3604319095611572,0.28948551416397095,-0.5541778802871704,-2.2807459831237793,0.14800012111663818
479,55681,55682,-0.02637840434908867,-0.01124658714979887,1.0174518823623657,130.92877197265625,-36.77365493774414,-15.49472427368164,-0.7409629225730896,1.352932333946228,0.2939853072166443,-0.19847287237644196,-1.1106274127960205,0.011409511789679527
480,55691,55692,-0.05544186756014824,-0.05729911848902702,1.0449674129486084,130.01904296875,-24.36545753479004,-11.218027114868164,-0.737963080406189,1.33793306350708,0.3029848337173462,0.23577286303043365,0.437472939491272,-0.13691692054271698
