,timestamp_start,timestamp_end,acc.x,acc.y,acc.z,gyro.x,gyro.y,gyro.z,mag.x,mag.y,mag.z,stabilizer.pitch,stabilizer.roll,stabilizer.yaw
0,18341,18342,-0.12144884467124939,-0.20098504424095154,1.1349064111709595,-31.242294311523438,-2.692300319671631,6.7195563316345215,0.66896653175354,2.5918703079223633,3.9028048515319824,1.449852466583252,-0.7493538856506348,-1.2127573490142822
1,18351,18352,-0.1243794858455658,-0.14569023251533508,1.1143373250961304,-26.578346252441406,27.333995819091797,8.590340614318848,0.6629668474197388,2.594870090484619,3.8968050479888916,1.3723866939544678,-0.9736326336860657,-1.137280821800232
2,18361,18362,-0.17258507013320923,-0.33523645997047424,0.9139275550842285,-23.894935607910156,41.94345474243164,4.787511348724365,0.6554672122001648,2.6413679122924805,3.9223039150238037,1.0203357934951782,-1.411630392074585,-1.0476096868515015
3,18371,18372,-0.1507806032896042,-0.3526481091976166,1.0242960453033447,-14.383484840393066,41.82324981689453,2.20062518119812,0.6509674191474915,2.654867172241211,3.917804002761841,0.8287439942359924,-1.5077332258224487,-1.021963357925415
4,18381,18382,0.03196178004145622,-0.05645070597529411,1.0072559118270874,-0.6503872275352478,27.176259994506836,1.4157811403274536,0.6464676856994629,2.6173691749572754,3.910304307937622,0.45855748653411865,-1.547037124633789,-1.0244176387786865
5,18391,18392,0.1488761603832245,0.08356539905071259,1.1362017393112183,9.276697158813477,4.611184120178223,-0.12267453223466873,0.6389680504798889,2.630868434906006,3.911804437637329,0.24942438304424286,-1.655828833580017,-1.0224277973175049
6,18401,18402,0.13193048536777496,-0.013433031737804413,0.885997474193573,3.1762242317199707,-19.83421516418457,-4.4320597648620605,0.6509674191474915,2.603869676589966,3.911804437637329,0.20683139562606812,-1.5441545248031616,-1.0292333364486694
7,18411,18412,-0.09417281299829483,-0.3094751834869385,0.8857975602149963,-0.22378724813461304,-52.12612533569336,-8.365364074707031,0.6584670543670654,2.596370220184326,3.916304111480713,0.47731396555900574,-1.285116195678711,-1.084789752960205
8,18421,18422,-0.0759454220533371,-0.20550574362277985,0.9978040456771851,14.331215858459473,-72.16287994384766,-13.2637357711792,0.66896653175354,2.60086989402771,3.908804416656494,0.7982937097549438,-1.2843470573425293,-1.1400028467178345
9,18431,18432,0.018431423231959343,-0.08185183256864548,1.0253647565841675,32.602813720703125,-71.40254974365234,-12.525527000427246,0.6704664826393127,2.602369785308838,3.9043047428131104,1.8035352230072021,-1.1301753520965576,-1.2823350429534912
10,18441,18442,-0.03769783675670624,-0.1005668044090271,1.0881717205047607,44.58647155761719,-56.091224670410156,-11.816072463989258,0.676466166973114,2.578371047973633,3.9013049602508545,2.4223885536193848,-0.7078728079795837,-1.3984925746917725
11,18451,18452,-0.024248851463198662,-0.16913151741027832,1.0061639547348022,45.46260452270508,-35.10842514038086,-13.708970069885254,0.6779661178588867,2.570871353149414,3.8998048305511475,2.9013404846191406,-0.36763617396354675,-1.4846231937408447
12,18461,18462,-0.17129145562648773,-0.2633293867111206,0.9656180739402771,35.892513275146484,-5.248664379119873,-14.639497756958008,0.6884655356407166,2.5813708305358887,3.9043047428131104,3.3824963569641113,0.2258618324995041,-1.6444790363311768
13,18471,18472,-0.13105615973472595,-0.2984800636768341,0.8951490521430969,20.781343460083008,32.19435119628906,-12.817286491394043,0.6749662160873413,2.570871353149414,3.8998048305511475,3.349583387374878,0.6840682625770569,-1.7905935049057007
14,18481,18482,0.10872426629066467,-0.04212627932429314,0.9283817410469055,-5.262366771697998,58.11451721191406,-12.426196098327637,0.6614668965339661,2.572371244430542,3.910304307937622,3.209104537963867,0.8746440410614014,-1.9020861387252808
15,18491,18492,-0.01749643310904503,-0.06919439882040024,0.864776074886322,-36.561275482177734,76.38402557373047,-11.180858612060547,0.6599670052528381,2.5888705253601074,3.9028048515319824,2.5861406326293945,0.7882994413375854,-1.9903738498687744
16,18501,18502,-0.12051121890544891,-0.2007979303598404,0.9608751535415649,-75.3536148071289,88.36343383789062,-8.728055953979492,0.6479675769805908,2.6098694801330566,3.9028048515319824,1.7829846143722534,0.42988765239715576,-2.0825912952423096
17,18511,18512,-0.016831690445542336,-0.13283367455005646,1.0098130702972412,-104.73322296142578,79.64836883544922,-10.324774742126465,0.6419678926467896,2.6608669757843018,3.9268035888671875,0.4609431326389313,-0.5771045088768005,-2.096604108810425
18,18521,18522,0.03581066057085991,-0.11873943358659744,1.0122342109680176,-104.74217224121094,73.4461898803711,-10.151896476745605,0.6479675769805908,2.651867389678955,3.9208037853240967,0.16797707974910736,-0.7960208654403687,-2.393989324569702
19,18531,18532,0.06528761982917786,-0.04678206518292427,0.9674412608146667,-97.50145721435547,63.593963623046875,-7.236700057983398,0.6569671630859375,2.6158690452575684,3.908804416656494,-0.7515465021133423,-2.1874752044677734,-2.4411699771881104
20,18541,18542,0.040272306650877,-0.04333677142858505,0.978418231010437,-72.09160614013672,43.881858825683594,-6.244742393493652,0.6569671630859375,2.6158690452575684,3.908804416656494,-1.2755573987960815,-2.842054605484009,-2.6101911067962646
21,18551,18552,0.028512679040431976,-0.08179081976413727,1.034290075302124,-21.95742416381836,8.612550735473633,-5.512660980224609,0.6569671630859375,2.6158690452575684,3.908804416656494,-1.7882589101791382,-3.7901952266693115,-2.681597948074341
22,18561,18562,0.030521200969815254,-0.08239682763814926,1.0341856479644775,35.24174880981445,-30.80295181274414,-5.514474391937256,0.6569671630859375,2.6158690452575684,3.908804416656494,-1.8022725582122803,-3.9748830795288086,-2.767835855484009
23,18571,18572,-0.023220866918563843,-0.20315827429294586,1.0099767446517944,75.42861938476562,-57.890724182128906,-6.95659065246582,0.6479675769805908,2.606869697570801,3.8968050479888916,-1.5869066715240479,-3.54006028175354,-2.8142426013946533
24,18581,18582,0.04355897381901741,-0.17966212332248688,1.0167949199676514,86.0471420288086,-65.90582275390625,-9.086626052856445,0.6569671630859375,2.6158690452575684,3.8968050479888916,-0.7624804377555847,-2.6887786388397217,-2.894857406616211
25,18591,18592,0.014182732440531254,-0.08795438706874847,0.9746360182762146,68.2085189819336,-53.196510314941406,-6.2769670486450195,0.6524673700332642,2.5843708515167236,3.886305570602417,-0.2673109471797943,-2.1359477043151855,-2.927201271057129
26,18601,18602,-0.006045124027878046,-0.10262680053710938,1.123140811920166,49.422935485839844,-35.924739837646484,-1.8286125659942627,0.6389680504798889,2.567871570587158,3.8938052654266357,0.3365600109100342,-1.1895157098770142,-2.98805570602417
27,18611,18612,0.04865619167685509,0.0034816714469343424,1.0243618488311768,30.064088821411133,-25.820051193237305,-0.33152279257774353,0.6734663248062134,2.5543723106384277,3.886305570602417,0.8076158761978149,-0.6858649849891663,-3.023474931716919
28,18621,18622,0.0037411011289805174,-0.02521849051117897,0.8638843894004822,7.631898403167725,-4.195693016052246,-0.3131408095359802,0.6614668965339661,2.5573720932006836,3.883305788040161,1.0886354446411133,-0.3429352045059204,-3.024688959121704
29,18631,18632,0.023572618141770363,-0.006234701257199049,0.9207475781440735,-18.652379989624023,24.645177841186523,-0.5620099902153015,0.6674666404724121,2.542372941970825,3.889305353164673,0.9725605249404907,-0.3019554615020752,-2.99495005607605
30,18641,18642,-0.00710440194234252,-0.11752167344093323,0.904320240020752,-47.61317825317383,35.629364013671875,-1.4797015190124512,0.676466166973114,2.5063745975494385,3.886305570602417,0.7540978193283081,-0.6048970222473145,-2.9901301860809326
31,18651,18652,0.06494633853435516,-0.06731276214122772,1.005624532699585,-72.68352508544922,28.90720558166504,-3.2786381244659424,0.6614668965339661,2.5393729209899902,3.892305374145508,0.3500007092952728,-1.0902626514434814,-3.0010783672332764
32,18661,18662,0.015442228876054287,-0.05105350539088249,0.9162640571594238,-89.81409454345703,18.799514770507812,-4.616683006286621,0.66896653175354,2.5558722019195557,3.8938052654266357,0.24035874009132385,-1.5564888715744019,-3.0638749599456787
33,18671,18672,0.05813038721680641,-0.03625611588358879,0.8883221745491028,-101.8180923461914,13.022894859313965,-6.995447635650635,0.6629668474197388,2.576871156692505,3.8968050479888916,-0.05035780742764473,-2.666457176208496,-3.0986907482147217
34,18681,18682,0.028595520183444023,-0.032029055058956146,0.8811777830123901,-97.46821594238281,6.906551837921143,-9.109244346618652,0.6659666895866394,2.573871374130249,3.884805679321289,-0.16893532872200012,-3.8830652236938477,-3.1649768352508545
35,18691,18692,0.012879731133580208,-0.019070349633693695,0.957899272441864,-78.13352966308594,6.443318843841553,-11.243448257446289,0.6794660091400146,2.6083695888519287,3.913304328918457,-0.29640883207321167,-4.541938304901123,-3.2551252841949463
36,18701,18702,0.05395001918077469,0.028368176892399788,0.9139857292175293,-48.528221130371094,11.641666412353516,-13.507121086120605,0.6644667387008667,2.599370002746582,3.9013049602508545,-0.3944978713989258,-5.471348762512207,-3.35762882232666
37,18711,18712,-0.05905202776193619,-0.036181844770908356,0.9304930567741394,-13.22696590423584,14.201098442077637,-17.18345069885254,0.6659666895866394,2.576871156692505,3.8758060932159424,-0.4007847309112549,-5.735550880432129,-3.511207342147827
38,18721,18722,-0.07174564152956009,-0.13121138513088226,0.8915786147117615,27.7128849029541,17.844573974609375,-20.369922637939453,0.6599670052528381,2.5648717880249023,3.8758060932159424,-0.6136179566383362,-6.032116413116455,-3.6669862270355225
39,18731,18732,0.09060478955507278,0.021995779126882553,0.9154874682426453,63.76441192626953,14.176213264465332,-23.507732391357422,0.6569671630859375,2.5558722019195557,3.8788058757781982,-0.8799976110458374,-5.683427333831787,-3.84273624420166
40,18741,18742,0.09003247320652008,-0.03053457848727703,0.7556211352348328,87.49278259277344,-7.456229209899902,-24.282285690307617,0.6644667387008667,2.578371047973633,3.889305353164673,-0.9189736247062683,-5.055154800415039,-4.117227077484131
41,18751,18752,0.04458407312631607,-0.07533039897680283,1.0223504304885864,101.28482055664062,-27.877058029174805,-16.54863739013672,0.6464676856994629,2.5843708515167236,3.889305353164673,-0.7148497700691223,-4.152431011199951,-4.4147162437438965
42,18761,18762,0.015851179137825966,-0.09828820824623108,0.9489895701408386,104.66488647460938,-34.3226432800293,-6.867620468139648,0.6599670052528381,2.5918703079223633,3.8998048305511475,-0.4642590284347534,-3.5557937622070312,-4.602983474731445
43,18771,18772,0.01710793375968933,-0.07739203423261642,0.9505455493927002,94.16043853759766,-21.7343807220459,0.47837963700294495,0.6554672122001648,2.5513722896575928,3.886305570602417,-0.11742304265499115,-2.1830241680145264,-4.647550106048584
44,18781,18782,-0.06942781805992126,-0.1995314210653305,0.8363720178604126,69.60645294189453,-3.946716070175171,2.5625874996185303,0.6419678926467896,2.5558722019195557,3.8968050479888916,0.1044737845659256,-1.5849533081054688,-4.66355562210083
45,18791,18792,-0.05845850333571434,-0.025237364694476128,0.8901503682136536,25.914899826049805,17.2984676361084,8.074243545532227,0.6704664826393127,2.548372507095337,3.9013049602508545,0.11370759457349777,-0.5955842733383179,-4.599063873291016
46,18801,18802,-0.014239193871617317,-0.06276885420084,0.940376877784729,-20.462451934814453,35.06018829345703,16.217376708984375,0.6614668965339661,2.5363731384277344,3.886305570602417,-0.16961528360843658,-0.4016363024711609,-4.48876953125
47,18811,18812,0.0011604041792452335,-0.0940154492855072,0.9029483795166016,-65.51793670654297,35.123836517333984,22.751131057739258,0.676466166973114,2.5333733558654785,3.886305570602417,-0.5599499940872192,-0.808982253074646,-4.344538688659668
48,18821,18822,-0.0004133980837650597,-0.06638108193874359,0.9692281484603882,-99.02652740478516,26.417129516601562,24.451234817504883,0.6734663248062134,2.572371244430542,3.8953051567077637,-0.9015828967094421,-1.5864392518997192,-4.159790992736816
49,18831,18832,-0.061765510588884354,-0.08779475092887878,0.932069718837738,-121.65060424804688,27.370859146118164,21.326120376586914,0.6569671630859375,2.594870090484619,3.911804437637329,-1.2595627307891846,-2.171992540359497,-3.8836631774902344
50,18841,18842,0.051210466772317886,-0.04754837602376938,0.9228265285491943,-120.47949981689453,37.55101013183594,21.783008575439453,0.6464676856994629,2.653367280960083,3.913304328918457,-1.688749074935913,-3.762136697769165,-3.6829121112823486
51,18851,18852,-0.033463004976511,-0.04538896307349205,0.8346808552742004,-96.29046630859375,35.16758346557617,22.974210739135742,0.6479675769805908,2.651867389678955,3.911804437637329,-1.9126960039138794,-4.563381671905518,-3.4781763553619385
52,18861,18862,-0.028455037623643875,-0.04865475371479988,1.0675263404846191,-32.85542678833008,17.65113067626953,21.63930892944336,0.6449677348136902,2.6608669757843018,3.911804437637329,-2.2626171112060547,-5.693089962005615,-3.311985969543457
53,18871,18872,0.042667292058467865,-0.07006552815437317,1.0664507150650024,31.270238876342773,-1.6037733554840088,19.616945266723633,0.6524673700332642,2.6203689575195312,3.8983049392700195,-2.5564064979553223,-6.12910795211792,-3.0941991806030273
54,18881,18882,0.05262944474816322,-0.06460871547460556,1.0430705547332764,86.73845672607422,-33.043983459472656,19.041362762451172,0.6329683661460876,2.5858707427978516,3.884805679321289,-2.4336488246917725,-5.721059322357178,-2.906154155731201
55,18891,18892,-0.03196585178375244,-0.17830954492092133,0.9667996168136597,127.95894622802734,-65.60275268554688,16.648534774780273,0.6404679417610168,2.596370220184326,3.9013049602508545,-2.1816370487213135,-4.903385162353516,-2.6761860847473145
56,18901,18902,-0.16173192858695984,-0.23836463689804077,0.8258748054504395,160.81744384765625,-81.13801574707031,14.753332138061523,0.6404679417610168,2.6143691539764404,3.8983049392700195,-1.7100244760513306,-4.0737833976745605,-2.510026693344116
57,18911,18912,-0.01451968401670456,-0.15872503817081451,1.0666266679763794,197.2017364501953,-83.80442810058594,12.714838027954102,0.6539672613143921,2.597870111465454,3.89080548286438,-0.6807019114494324,-2.1639046669006348,-2.3436858654022217
58,18921,18922,-0.010746222920715809,-0.17709290981292725,1.0772631168365479,211.4485321044922,-71.15914154052734,10.50252628326416,0.6449677348136902,2.5858707427978516,3.9028048515319824,0.34658685326576233,0.28139472007751465,-2.1522936820983887
59,18931,18932,-0.024985428899526596,-0.25593504309654236,0.9673420786857605,205.620361328125,-49.795684814453125,8.828217506408691,0.6509674191474915,2.5588719844818115,3.9028048515319824,0.8861144185066223,1.7431628704071045,-2.109745502471924
60,18941,18942,0.0003090934769716114,-0.18608048558235168,1.0266287326812744,186.3083038330078,-28.328210830688477,8.954940795898438,0.6524673700332642,2.5663716793060303,3.9043047428131104,1.4344598054885864,4.066902160644531,-2.0046510696411133
61,18951,18952,-0.012450888752937317,-0.16624969244003296,1.0032941102981567,143.7784881591797,-8.631422996520996,5.987802982330322,0.6539672613143921,2.546872615814209,3.908804416656494,1.6836591958999634,5.582067489624023,-1.9729219675064087
62,18961,18962,-0.028723839670419693,-0.09725502878427505,0.9379153251647949,92.6270751953125,14.419672966003418,5.160733699798584,0.6494675278663635,2.5303733348846436,3.907304525375366,1.8043071031570435,7.308284282684326,-1.9009888172149658
63,18971,18972,0.017896384000778198,-0.14756998419761658,0.8963915109634399,32.531124114990234,27.071197509765625,5.007307529449463,0.6494675278663635,2.5303733348846436,3.907304525375366,1.6175179481506348,8.392580032348633,-1.8321733474731445
64,18981,18982,-0.01820567063987255,-0.2005997747182846,0.8589456677436829,-20.542037963867188,25.574844360351562,5.337343215942383,0.6554672122001648,2.5363731384277344,3.913304328918457,1.2968344688415527,8.658856391906738,-1.7605891227722168
65,18991,18992,0.029156535863876343,-0.26938682794570923,0.9067745208740234,-74.50938415527344,19.257444381713867,7.590625762939453,0.6704664826393127,2.518373966217041,3.907304525375366,0.935006320476532,8.386714935302734,-1.7032986879348755
66,19001,19002,0.030522720888257027,-0.13249167799949646,0.9638623595237732,-110.17221069335938,14.41840934753418,10.163897514343262,0.6554672122001648,2.5273735523223877,3.9043047428131104,0.8107458353042603,7.764646530151367,-1.5756347179412842
67,19011,19012,-0.010729629546403885,-0.040120068937540054,0.9225086569786072,-131.24815368652344,12.463629722595215,11.876493453979492,0.6569671630859375,2.5858707427978516,3.911804437637329,0.6216392517089844,6.58168888092041,-1.481825351715088
68,19021,19022,0.008720343001186848,-0.07620678842067719,0.9639246463775635,-141.32725524902344,18.159008026123047,14.075679779052734,0.6509674191474915,2.621868848800659,3.9238038063049316,0.4536522924900055,5.723038673400879,-1.384283423423767
69,19031,19032,0.03024107776582241,-0.1289469599723816,0.9355027079582214,-141.92422485351562,24.531335830688477,12.057622909545898,0.6524673700332642,2.6443676948547363,3.910304307937622,0.3672031760215759,4.034436225891113,-1.1909048557281494
70,19041,19042,0.05148324370384216,-0.06506086885929108,1.0138157606124878,-125.57957458496094,24.776369094848633,11.181727409362793,0.6539672613143921,2.648867607116699,3.9268035888671875,0.0570795014500618,2.4396657943725586,-1.0954443216323853
71,19051,19052,0.02752266451716423,-0.078342966735363,1.003804326057434,-88.83183288574219,13.370635986328125,10.937512397766113,0.6449677348136902,2.6158690452575684,3.911804437637329,-0.3134109675884247,1.5818896293640137,-1.0408735275268555
72,19061,19062,-0.005877701565623283,-0.10135437548160553,0.9800716638565063,-50.16549301147461,-0.048525065183639526,6.44301700592041,0.6584670543670654,2.602369785308838,3.8983049392700195,-0.46528157591819763,0.47960081696510315,-0.9262826442718506
73,19071,19072,-0.024704527109861374,-0.14406949281692505,0.9165633916854858,-19.57872772216797,-12.474343299865723,3.4202041625976562,0.6464676856994629,2.6143691539764404,3.9013049602508545,-0.39958006143569946,0.26168060302734375,-0.8088166117668152
74,19081,19082,-0.02387126162648201,-0.18475604057312012,1.0276609659194946,-1.5154242515563965,-29.917713165283203,4.865911483764648,0.6494675278663635,2.6083695888519287,3.913304328918457,-0.16041700541973114,-0.05506543815135956,-0.6830717921257019
75,19091,19092,0.042217932641506195,-0.07284218072891235,1.0457018613815308,8.790427207946777,-38.93649673461914,5.32222843170166,0.6479675769805908,2.594870090484619,3.911804437637329,0.18801473081111908,-0.07069568336009979,-0.5870234370231628
76,19101,19102,0.025553468614816666,-0.02466476336121559,1.0180493593215942,-2.3941099643707275,-34.86099624633789,13.222500801086426,0.6614668965339661,2.5903704166412354,3.916304111480713,0.3573078513145447,-0.008782828226685524,-0.642438530921936
77,19111,19112,-0.0177279245108366,-0.10518507659435272,0.8874287009239197,-22.68036651611328,-22.022628784179688,17.858736038208008,0.6509674191474915,2.603869676589966,3.908804416656494,0.6427441835403442,0.25557222962379456,-0.5895232558250427
78,19121,19122,-0.09352032840251923,-0.20217280089855194,0.9383955001831055,-45.67400360107422,-13.978032112121582,24.902111053466797,0.6599670052528381,2.597870111465454,3.9028048515319824,0.7093913555145264,-0.019464710727334023,-0.5140082836151123
79,19131,19132,0.08176910877227783,0.028852732852101326,0.9682705998420715,-49.88471221923828,-20.81907844543457,28.183969497680664,0.66896653175354,2.6098694801330566,3.914804220199585,0.9691649675369263,-0.3056737780570984,-0.22734026610851288
80,19141,19142,0.12770819664001465,-0.046734586358070374,1.1059255599975586,-57.09885025024414,-29.316312789916992,26.4971866607666,0.6719663739204407,2.6128692626953125,3.8968050479888916,1.124777913093567,-0.7840688824653625,0.055111467838287354
81,19151,19152,-0.03884487599134445,-0.16007104516029358,0.9613931179046631,-60.59440231323242,-31.147619247436523,23.82756233215332,0.6524673700332642,2.6113693714141846,3.907304525375366,1.3779778480529785,-1.5179226398468018,0.3241684138774872
82,19161,19162,-0.20321960747241974,-0.24701140820980072,0.9667531251907349,-59.08748245239258,-22.13943862915039,21.042409896850586,0.6704664826393127,2.626368522644043,3.9043047428131104,1.8007726669311523,-2.288980007171631,0.6369482278823853
83,19171,19172,-0.19667677581310272,-0.22076496481895447,0.9294523000717163,-49.08346939086914,-11.943541526794434,15.719586372375488,0.6674666404724121,2.6113693714141846,3.910304307937622,2.0794081687927246,-2.6033706665039062,0.8398086428642273
84,19181,19182,-0.1902676373720169,-0.16922293603420258,0.959538996219635,-35.28150939941406,-5.384254455566406,11.338430404663086,0.6539672613143921,2.6128692626953125,3.8968050479888916,2.2007906436920166,-3.261613130569458,1.0320383310317993
85,19191,19192,-0.1631392538547516,-0.12426450103521347,0.9696662425994873,-10.949281692504883,7.386982440948486,4.622889518737793,0.6539672613143921,2.6188690662384033,3.911804437637329,2.2051291465759277,-3.548640489578247,1.1266752481460571
86,19201,19202,-0.026105690747499466,-0.0809779167175293,0.9537043571472168,22.456424713134766,20.146907806396484,-2.454681873321533,0.6539672613143921,2.621868848800659,3.8998048305511475,2.0616486072540283,-3.635084629058838,1.1517527103424072
87,19211,19212,-0.039457742124795914,-0.08348458260297775,1.0921909809112549,41.527381896972656,24.141204833984375,-7.784248352050781,0.6419678926467896,2.6338682174682617,3.9058046340942383,1.8104493618011475,-3.368607759475708,1.0968950986862183
88,19221,19222,-0.03792967647314072,-0.002178953029215336,1.0128060579299927,36.712520599365234,18.266220092773438,-12.42449951171875,0.6599670052528381,2.6098694801330566,3.9208037853240967,1.510610580444336,-3.0669748783111572,1.028688669204712
89,19231,19232,-0.044068511575460434,-0.11748409271240234,0.8982005715370178,7.60288667678833,3.853914737701416,-16.974647521972656,0.6539672613143921,2.594870090484619,3.908804416656494,1.4429529905319214,-2.5328006744384766,0.8814663887023926
90,19241,19242,-0.061212409287691116,-0.14683040976524353,0.8501810431480408,-26.369592666625977,-12.370262145996094,-18.206512451171875,0.6644667387008667,2.602369785308838,3.8983049392700195,1.4193758964538574,-2.436535596847534,0.7296209931373596
91,19251,19252,-0.00843622162938118,-0.150831937789917,0.9657660126686096,-37.70646286010742,-23.40880584716797,-18.836170196533203,0.6599670052528381,2.630868434906006,3.917804002761841,1.5815409421920776,-2.947862148284912,0.6233351230621338
92,19261,19262,0.10633720457553864,0.017396777868270874,1.0254249572753906,-28.253538131713867,-23.084022521972656,-17.06764030456543,0.676466166973114,2.593370199203491,3.9043047428131104,1.8503997325897217,-3.221989631652832,0.4307929277420044
93,19271,19272,0.016094578430056572,-0.024795716628432274,1.0758423805236816,-2.3968608379364014,-8.247461318969727,-13.180116653442383,0.6644667387008667,2.6053695678710938,3.9043047428131104,2.2081356048583984,-3.434138774871826,0.24394910037517548
94,19281,19282,-0.16227072477340698,-0.20408400893211365,1.049655795097351,24.554702758789062,7.3597893714904785,-8.436383247375488,0.6584670543670654,2.6143691539764404,3.889305353164673,2.4189391136169434,-3.525731086730957,0.10873253643512726
95,19291,19292,-0.05445704981684685,-0.11359187960624695,0.9838354587554932,42.62302780151367,11.806567192077637,-5.304194927215576,0.6629668474197388,2.606869697570801,3.8968050479888916,2.214405059814453,-3.501164197921753,0.08678093552589417
96,19301,19302,-0.0140151372179389,-0.09998291730880737,0.959096372127533,50.57676696777344,7.239150047302246,-5.907406806945801,0.6599670052528381,2.603869676589966,3.908804416656494,2.0452640056610107,-2.807691812515259,-0.044943857938051224
97,19311,19312,-0.013238809071481228,-0.12462403625249863,0.9552125930786133,47.542327880859375,7.638411045074463,-4.028753757476807,0.6509674191474915,2.6158690452575684,3.89080548286438,2.069993495941162,-2.296926498413086,-0.12943720817565918
98,19321,19322,-0.09693384170532227,-0.2863301932811737,1.0348114967346191,21.935935974121094,5.364741802215576,-0.6117019653320312,0.6554672122001648,2.578371047973633,3.9013049602508545,1.9904135465621948,-1.919254183769226,-0.14354164898395538
99,19331,19332,-0.06487739086151123,-0.18293853104114532,1.108149528503418,-8.16504192352295,13.20275592803955,-0.544739305973053,0.6704664826393127,2.599370002746582,3.907304525375366,1.9027388095855713,-1.9011260271072388,-0.08139382302761078
100,19341,19342,0.03783842921257019,0.06549713015556335,0.984756350517273,-26.079273223876953,22.922420501708984,-1.057088851928711,0.6704664826393127,2.599370002746582,3.907304525375366,1.703462839126587,-1.9945688247680664,-0.052309732884168625
101,19351,19352,0.03146383538842201,-0.030900852754712105,0.9818384647369385,-30.88385772705078,21.460474014282227,-2.7536890506744385,0.6704664826393127,2.599370002746582,3.907304525375366,1.3759933710098267,-2.404226779937744,0.0039644851349294186
102,19361,19362,0.013663156889379025,-0.10209007561206818,1.0801067352294922,-25.853818893432617,17.871213912963867,-3.204559803009033,0.6704664826393127,2.6143691539764404,3.9043047428131104,1.2310980558395386,-2.505068302154541,-0.10011637955904007
103,19371,19372,-0.013256393373012543,-0.050739143043756485,1.0339010953903198,-18.45296859741211,4.4171671867370605,-4.768800258636475,0.6524673700332642,2.6113693714141846,3.907304525375366,1.0268490314483643,-2.9114043712615967,-0.10068057477474213
104,19381,19382,-0.05769738554954529,-0.10062496364116669,1.050531029701233,-0.25130167603492737,-1.311221718788147,-6.326694011688232,0.6629668474197388,2.597870111465454,3.9028048515319824,1.0638062953948975,-2.889294385910034,-0.21986404061317444
105,19391,19392,-0.10292419791221619,-0.17278128862380981,1.049717903137207,22.46147346496582,-4.555600643157959,-4.947950839996338,0.6719663739204407,2.60086989402771,3.8968050479888916,1.0796514749526978,-2.8709540367126465,-0.29860538244247437
106,19401,19402,0.053092293441295624,-0.12576207518577576,1.034852147102356,42.13180160522461,-8.111083030700684,-4.108181476593018,0.6554672122001648,2.596370220184326,3.907304525375366,1.155774474143982,-2.5724263191223145,-0.3813795745372772
107,19411,19412,0.042827144265174866,-0.1596665233373642,0.9345468282699585,48.809974670410156,-5.352136135101318,-2.105945587158203,0.6599670052528381,2.597870111465454,3.8998048305511475,1.3058229684829712,-2.3292734622955322,-0.404339075088501
108,19421,19422,-0.07841107249259949,-0.2753571569919586,0.8549506068229675,42.3149528503418,3.6011712551116943,-2.2907400131225586,0.6539672613143921,2.606869697570801,3.8998048305511475,1.3998631238937378,-1.792398452758789,-0.44172993302345276
109,19431,19432,0.048434123396873474,-0.17062169313430786,0.9713960289955139,25.641387939453125,15.275003433227539,0.48230892419815063,0.6569671630859375,2.594870090484619,3.911804437637329,1.342903733253479,-1.500806212425232,-0.41914594173431396
110,19441,19442,0.014009987004101276,-0.11346583068370819,1.0245745182037354,5.278019905090332,18.411590576171875,2.612196922302246,0.6584670543670654,2.5843708515167236,3.907304525375366,1.1126147508621216,-1.069951057434082,-0.431367963552475
111,19451,19452,0.01084968913346529,-0.08320233970880508,0.9944543838500977,-14.562939643859863,13.17780876159668,1.1905407905578613,0.6539672613143921,2.5888705253601074,3.911804437637329,0.8090398907661438,-1.0237919092178345,-0.3775138854980469
112,19461,19462,0.002112593501806259,-0.09308446198701859,0.967187225818634,-32.49715042114258,-3.232762098312378,3.3994264602661133,0.6614668965339661,2.6083695888519287,3.8953051567077637,0.8267487287521362,-1.3097522258758545,-0.3611224293708801
113,19471,19472,0.01793460175395012,-0.07419437170028687,0.995668351650238,-46.87080764770508,-11.890555381774902,6.8490519523620605,0.6494675278663635,2.6203689575195312,3.916304111480713,0.8776848912239075,-1.7290767431259155,-0.31452861428260803
114,19481,19482,-0.03315747529268265,-0.07077384740114212,0.9973803162574768,-42.05411148071289,-9.710885047912598,8.438764572143555,0.6599670052528381,2.62786865234375,3.917804002761841,0.9040229916572571,-1.8457112312316895,-0.29707467555999756
115,19491,19492,-0.03997466340661049,-0.12322290986776352,0.9530797004699707,-29.401365280151367,5.348976135253906,13.309856414794922,0.6719663739204407,2.62786865234375,3.911804437637329,1.1028708219528198,-2.480823278427124,-0.19176597893238068
116,19501,19502,0.005227191373705864,-0.059205103665590286,0.9772324562072754,-14.476140975952148,33.32511520385742,16.1638240814209,0.6494675278663635,2.6413679122924805,3.9223039150238037,1.0353418588638306,-2.902899980545044,-0.04321536794304848
117,19511,19512,0.03670460358262062,-0.01408451609313488,1.038559079170227,2.326890468597412,51.749053955078125,17.207754135131836,0.6434678435325623,2.659367084503174,3.907304525375366,0.6836536526679993,-2.7208993434906006,0.049778107553720474
118,19521,19522,-0.016588855534791946,-0.1410445272922516,0.906791090965271,16.84262466430664,54.417354583740234,17.042015075683594,0.6404679417610168,2.656367063522339,3.9223039150238037,0.053233709186315536,-2.774841785430908,0.23211124539375305
119,19531,19532,-0.05385361611843109,-0.17592357099056244,0.955350935459137,23.41173553466797,48.050777435302734,16.644941329956055,0.6269686222076416,2.6398680210113525,3.908804416656494,-0.40210846066474915,-2.4569435119628906,0.33639946579933167
120,19541,19542,0.04344187676906586,-0.16289472579956055,0.9405485391616821,21.256948471069336,32.964447021484375,19.844852447509766,0.6449677348136902,2.6338682174682617,3.8998048305511475,-0.753169596195221,-2.327876329421997,0.46444183588027954
121,19551,19552,-0.01136632077395916,-0.10594410449266434,0.8851402997970581,11.253545761108398,16.237552642822266,21.599889755249023,0.6314684152603149,2.6173691749572754,3.913304328918457,-1.030942440032959,-2.2233386039733887,0.6315656900405884
122,19561,19562,-0.002771669765934348,-0.03241633251309395,0.9643980860710144,3.863633155822754,-1.55648934841156,22.055559158325195,0.6329683661460876,2.6098694801330566,3.908804416656494,-1.2565218210220337,-1.9852592945098877,0.8409750461578369
123,19571,19572,-0.024644888937473297,-0.129675954580307,0.8396844267845154,1.366672158241272,-22.020729064941406,21.779184341430664,0.6419678926467896,2.6338682174682617,3.908804416656494,-1.2436137199401855,-2.0029680728912354,1.0571110248565674
124,19581,19582,0.06832883507013321,-0.0032027314882725477,1.0137951374053955,2.377764940261841,-40.516761779785156,18.81781005859375,0.6479675769805908,2.6338682174682617,3.908804416656494,-0.9680155515670776,-2.0563642978668213,1.2589983940124512
125,19591,19592,-0.08639474958181381,-0.08817228674888611,0.9782932996749878,9.114964485168457,-51.59172058105469,16.98203468322754,0.6509674191474915,2.6698665618896484,3.917804002761841,-0.4711887836456299,-1.9408730268478394,1.439539909362793
126,19601,19602,-0.022313054651021957,-0.18604230880737305,0.8568414449691772,18.080095291137695,-48.86577224731445,13.073739051818848,0.6434678435325623,2.6683664321899414,3.907304525375366,0.04425748437643051,-1.793465256690979,1.6267783641815186
127,19611,19612,-0.03881567716598511,-0.0503942035138607,1.0246694087982178,21.346275329589844,-35.546607971191406,9.821256637573242,0.6389680504798889,2.6668665409088135,3.917804002761841,0.5755466222763062,-1.7199599742889404,1.768714427947998
128,19621,19622,-0.005550923757255077,-0.04152440279722214,0.9982301592826843,9.76366138458252,-21.8841495513916,6.87541389465332,0.6329683661460876,2.6728663444519043,3.9238038063049316,0.68533855676651,-1.532847285270691,1.927272081375122
129,19631,19632,-0.05963592603802681,-0.10210169106721878,0.9637324213981628,2.5511536598205566,-12.921770095825195,4.581821441650391,0.6449677348136902,2.651867389678955,3.911804437637329,1.025854229927063,-1.3721370697021484,1.990931510925293
130,19641,19642,-0.044194240123033524,-0.0820043534040451,1.0490883588790894,1.8931562900543213,3.4527950286865234,4.68858003616333,0.6419678926467896,2.648867607116699,3.9208037853240967,1.1229249238967896,-1.4567714929580688,2.0483551025390625
131,19651,19652,0.0007020034827291965,-0.04459386318922043,1.0618714094161987,1.865461826324463,19.694793701171875,3.8153440952301025,0.6479675769805908,2.657866954803467,3.9208037853240967,1.0259549617767334,-1.4150302410125732,2.1078577041625977
132,19661,19662,-0.00686231954023242,-0.0696333795785904,1.0721383094787598,6.617122173309326,25.488248825073242,3.806062936782837,0.6389680504798889,2.6608669757843018,3.9238038063049316,0.9038345217704773,-1.3759843111038208,2.1354386806488037
133,19671,19672,-0.07037776708602905,-0.044535741209983826,1.1249269247055054,18.116191864013672,31.573469161987305,7.045536994934082,0.6359682083129883,2.648867607116699,3.9208037853240967,0.6765899658203125,-1.3859339952468872,2.164100170135498
134,19681,19682,0.022428076714277267,-0.060906507074832916,1.0823696851730347,39.30131912231445,37.14155960083008,2.3332810401916504,0.6254687309265137,2.650367498397827,3.9283034801483154,0.14267079532146454,-1.1216527223587036,2.246830463409424
135,19691,19692,-0.04587358608841896,-0.07792174071073532,1.1319353580474854,54.7898063659668,45.857757568359375,0.7497292160987854,0.623968780040741,2.648867607116699,3.9208037853240967,-0.249803826212883,-0.7734091281890869,2.280517101287842
136,19701,19702,-0.01572134532034397,-0.06837470084428787,1.11581552028656,62.06330490112305,41.85272979736328,1.350859522819519,0.6314684152603149,2.647367477416992,3.9193038940429688,-0.6270827054977417,-0.43925735354423523,2.275608777999878
137,19711,19712,0.017657458782196045,-0.0712500810623169,1.0927517414093018,66.4830322265625,23.05022430419922,0.9791632294654846,0.6269686222076416,2.624868631362915,3.9058046340942383,-0.9346445202827454,0.25719204545021057,2.2828598022460938
138,19721,19722,0.01737014204263687,-0.07782869040966034,1.0460784435272217,52.84527587890625,8.777755737304688,2.5974652767181396,0.6374680995941162,2.6143691539764404,3.9193038940429688,-1.0348190069198608,0.6462268829345703,2.268639326095581
139,19731,19732,-0.014446304179728031,-0.10279341042041779,1.1029925346374512,24.57688331604004,-15.594578742980957,0.9971668124198914,0.6284685730934143,2.596370220184326,3.907304525375366,-1.186615228652954,1.253445029258728,2.298158884048462
140,19741,19742,-0.06702862679958344,-0.060775015503168106,1.1787368059158325,-1.1643905639648438,-31.517597198486328,-3.192941904067993,0.6344682574272156,2.6053695678710938,3.9193038940429688,-1.0432099103927612,1.42533540725708,2.297818422317505
141,19751,19752,-0.014648891985416412,-0.17322799563407898,1.0949437618255615,-11.035177230834961,-40.193199157714844,-4.20688009262085,0.6449677348136902,2.5858707427978516,3.911804437637329,-0.6409590244293213,1.462302565574646,2.274571657180786
142,19761,19762,-0.0841452032327652,-0.12708081305027008,1.1480002403259277,-6.342185974121094,-36.566619873046875,-4.507137298583984,0.6449677348136902,2.603869676589966,3.9268035888671875,-0.17117340862751007,1.3469007015228271,2.230417013168335
143,19771,19772,-0.03471202403306961,-0.19009102880954742,1.0767242908477783,15.291369438171387,-16.674869537353516,-6.722711086273193,0.6539672613143921,2.5798709392547607,3.917804002761841,0.1495698243379593,1.1690480709075928,2.1574339866638184
144,19781,19782,-0.0006295870407484472,-0.06158506125211716,1.1992546319961548,34.07832336425781,3.2377641201019287,-8.692490577697754,0.6464676856994629,2.5843708515167236,3.916304111480713,0.2993384003639221,1.4737263917922974,2.1056835651397705
145,19791,19792,-0.011052274145185947,-0.11463696509599686,1.0778148174285889,34.79945755004883,18.417098999023438,-6.6506853103637695,0.6404679417610168,2.575371265411377,3.9043047428131104,0.13947241008281708,1.5632234811782837,1.9729158878326416
146,19801,19802,0.008774606510996819,-0.14739106595516205,1.0315461158752441,23.5115909576416,37.9831428527832,-4.39760684967041,0.6359682083129883,2.567871570587158,3.911804437637329,0.0823122039437294,2.1030423641204834,1.9507384300231934
147,19811,19812,-0.07666002213954926,-0.15844757854938507,1.0204269886016846,13.989416122436523,51.870948791503906,1.1725029945373535,0.6194689869880676,2.5903704166412354,3.892305374145508,-0.5108110308647156,2.443889856338501,1.8740471601486206
148,19821,19822,0.04747658595442772,-0.1154237762093544,1.0383201837539673,7.799231052398682,46.8606071472168,3.2937710285186768,0.6284685730934143,2.575371265411377,3.9043047428131104,-0.9303035140037537,2.5432708263397217,1.9165452718734741
149,19831,19832,-0.01049736700952053,-0.09120169281959534,1.0352500677108765,3.5718085765838623,35.26530075073242,5.826513767242432,0.6254687309265137,2.5663716793060303,3.910304307937622,-1.4048221111297607,2.686659574508667,1.9805670976638794
150,19841,19842,-0.013416462577879429,-0.12898489832878113,0.9999452829360962,2.9348042011260986,20.798599243164062,4.762269020080566,0.6254687309265137,2.5603718757629395,3.9013049602508545,-1.5537664890289307,2.838148593902588,2.1396877765655518
151,19851,19852,0.011468328535556793,-0.12183720618486404,1.0327450037002563,5.984307765960693,15.933063507080078,4.689031600952148,0.6299684643745422,2.5618717670440674,3.89080548286438,-1.9493643045425415,2.8316168785095215,2.1392905712127686
152,19861,19862,0.0043011801317334175,-0.09568686783313751,1.1129783391952515,5.941537380218506,7.520904064178467,3.6518309116363525,0.6374680995941162,2.5633718967437744,3.913304328918457,-1.9288060665130615,2.9891865253448486,2.287325859069824
153,19871,19872,0.01764899492263794,-0.12990957498550415,1.0193806886672974,2.313950300216675,-7.403530120849609,-0.16561301052570343,0.622468888759613,2.5543723106384277,3.9223039150238037,-2.065633773803711,2.9413890838623047,2.2825982570648193
154,19881,19882,0.026643691584467888,-0.10447616130113602,1.058479905128479,-4.896230697631836,-16.26959228515625,0.06841528415679932,0.6269686222076416,2.5528724193573,3.911804437637329,-1.9717532396316528,3.046020030975342,2.3239083290100098
155,19891,19892,-0.061737798154354095,-0.1948290914297104,0.9630230069160461,-15.064821243286133,-15.542261123657227,-3.7191648483276367,0.6419678926467896,2.540872812271118,3.9028048515319824,-1.7974514961242676,3.0099992752075195,2.3239529132843018
156,19901,19902,0.02421748638153076,-0.11979053914546967,0.9886413216590881,-24.239622116088867,-7.876574516296387,-5.834305286407471,0.6404679417610168,2.545372724533081,3.9013049602508545,-1.5773576498031616,2.8195693492889404,2.3029775619506836
157,19911,19912,0.019013063982129097,-0.1250351369380951,1.0086115598678589,-41.423954010009766,-3.8470194339752197,-3.8538525104522705,0.6419678926467896,2.5528724193573,3.9028048515319824,-1.625693440437317,2.5973308086395264,2.1889045238494873
158,19921,19922,-0.017969507724046707,-0.1629829704761505,0.9090043306350708,-53.61023712158203,-14.149354934692383,-2.59065580368042,0.6299684643745422,2.567871570587158,3.8998048305511475,-1.5614577531814575,2.253314733505249,2.1737029552459717
159,19931,19932,0.10145069658756256,-0.05678579583764076,0.9271650314331055,-54.5604362487793,-15.914992332458496,-3.516813278198242,0.6374680995941162,2.5633718967437744,3.8983049392700195,-1.4052765369415283,1.7042571306228638,2.1454286575317383
160,19941,19942,-0.0417029932141304,-0.1199631467461586,0.9160345196723938,-31.273372650146484,-15.06960391998291,-6.543834686279297,0.6269686222076416,2.5648717880249023,3.9058046340942383,-1.2225329875946045,1.371766448020935,2.179314374923706
161,19951,19952,0.04699133336544037,-0.09046938270330429,0.9216598272323608,-2.555518627166748,-9.344987869262695,-7.70650577545166,0.6344682574272156,2.572371244430542,3.892305374145508,-1.0139365196228027,1.2446566820144653,2.2161593437194824
162,19961,19962,-0.002568969503045082,-0.11827275902032852,0.9757643938064575,24.14215850830078,-3.04248046875,-7.756307125091553,0.6389680504798889,2.5798709392547607,3.914804220199585,-1.026227593421936,1.221039056777954,2.099083662033081
163,19971,19972,-0.0434221513569355,-0.22747988998889923,0.954988956451416,37.545772552490234,6.990156173706055,-4.420643329620361,0.6299684643745422,2.594870090484619,3.8998048305511475,-0.9903073906898499,1.604385256767273,2.0703017711639404
164,19981,19982,0.03532131388783455,-0.06783641129732132,0.9884825348854065,33.25485610961914,16.98868179321289,-1.8977731466293335,0.6329683661460876,2.5858707427978516,3.908804416656494,-1.1016793251037598,2.0385241508483887,2.0136711597442627
165,19991,19992,0.049494799226522446,-0.03237827122211456,1.043192744255066,24.509336471557617,25.488704681396484,-5.8024797439575195,0.6404679417610168,2.5813708305358887,3.910304307937622,-1.2500272989273071,2.068007707595825,1.9145334959030151
166,20001,20002,0.01510971412062645,-0.13855671882629395,0.9741867184638977,3.1894655227661133,34.8726921081543,-11.302369117736816,0.6314684152603149,2.5663716793060303,3.9013049602508545,-1.6076146364212036,2.3931596279144287,1.8482213020324707
167,20011,20012,0.047056782990694046,-0.11511710286140442,0.946261465549469,-39.60723114013672,34.22328567504883,-13.810680389404297,0.623968780040741,2.5798709392547607,3.908804416656494,-1.8750864267349243,2.402454137802124,1.7656691074371338
168,20021,20022,0.03570983558893204,-0.1073913499712944,0.9111948013305664,-69.44542694091797,6.046601295471191,-20.011699676513672,0.6374680995941162,2.6083695888519287,3.907304525375366,-2.4062044620513916,2.018784761428833,1.543220043182373
169,20031,20032,-0.021498562768101692,-0.1337236762046814,0.9141995906829834,-84.17699432373047,-35.84694290161133,-29.48150634765625,0.6344682574272156,2.6203689575195312,3.9013049602508545,-2.3497214317321777,1.3184937238693237,1.4399293661117554
170,20041,20042,-0.026317467913031578,-0.0371515117585659,0.9524407982826233,-94.78215026855469,-63.282020568847656,-38.441078186035156,0.6314684152603149,2.6413679122924805,3.9223039150238037,-1.9556516408920288,0.3728066086769104,1.1800963878631592
171,20051,20052,0.08742170035839081,0.06028030812740326,0.9006131291389465,-104.28168487548828,-86.61555480957031,-44.76968002319336,0.6254687309265137,2.6653666496276855,3.9223039150238037,-1.2992192506790161,-0.7432289719581604,0.7987205386161804
172,20061,20062,0.05408138409256935,-0.04428079351782799,0.819955050945282,-106.51377868652344,-90.17479705810547,-45.935611724853516,0.6404679417610168,2.650367498397827,3.9313032627105713,-0.6518604755401611,-1.3804570436477661,0.4266227185726166
173,20071,20072,-0.059464070945978165,-0.09881938993930817,0.8670448660850525,-94.50714111328125,-73.61808776855469,-46.444766998291016,0.6179690957069397,2.684865713119507,3.944802761077881,0.4958445429801941,-2.625854015350342,0.03308131545782089
174,20081,20082,-0.06515467911958694,-0.16512516140937805,0.9802526235580444,-69.63836669921875,-42.16268539428711,-47.021114349365234,0.6419678926467896,2.6638667583465576,3.9238038063049316,1.0579936504364014,-3.4568164348602295,-0.43858030438423157
175,20091,20092,-0.07326667010784149,-0.06358154118061066,0.9596392512321472,-29.986801147460938,-3.971219062805176,-45.14602279663086,0.6404679417610168,2.6383681297302246,3.913304328918457,1.831801176071167,-4.107372760772705,-0.7835891842842102
176,20101,20102,-0.036787811666727066,0.026519065722823143,1.038320541381836,22.432790756225586,31.510374069213867,-44.933719635009766,0.6359682083129883,2.6608669757843018,3.9058046340942383,1.8346201181411743,-4.608165740966797,-1.2829718589782715
177,20111,20112,-0.0021195218432694674,-0.03955954685807228,1.02186119556427,83.60999298095703,60.37659454345703,-44.999576568603516,0.623968780040741,2.705864667892456,3.935803174972534,1.5188006162643433,-4.205076694488525,-1.7221184968948364
178,20121,20122,0.059434693306684494,-0.04212605953216553,1.0502489805221558,126.61773681640625,78.0076904296875,-43.56719970703125,0.6329683661460876,2.705864667892456,3.944802761077881,0.8834558129310608,-2.844270706176758,-2.139406442642212
179,20131,20132,0.05055981129407883,-0.038461312651634216,1.030267357826233,144.30496215820312,80.2625503540039,-44.294273376464844,0.6284685730934143,2.683365821838379,3.940302848815918,0.15270790457725525,-2.0253844261169434,-2.6460793018341064
180,20141,20142,0.07062002271413803,-0.028857039287686348,0.961536169052124,147.83941650390625,74.24525451660156,-45.166439056396484,0.6284685730934143,2.683365821838379,3.940302848815918,-0.8462603688240051,-0.39378035068511963,-3.0751991271972656
181,20151,20152,0.10614629834890366,0.045932598412036896,1.06094491481781,139.8675537109375,58.33313751220703,-44.65559768676758,0.6284685730934143,2.683365821838379,3.940302848815918,-1.6928462982177734,0.9208810329437256,-3.534507989883423
182,20161,20162,0.039177268743515015,-0.05901693180203438,1.0448369979858398,118.1683578491211,28.04576301574707,-45.502872467041016,0.6254687309265137,2.656367063522339,3.964301824569702,-2.4327926635742188,2.2232165336608887,-3.9731404781341553
183,20171,20172,0.004488753154873848,-0.12301264703273773,0.9897842407226562,80.46493530273438,-8.13094425201416,-40.45915985107422,0.6524673700332642,2.6083695888519287,3.9313032627105713,-2.6159474849700928,3.4561774730682373,-4.408751010894775
184,20181,20182,0.024609243497252464,-0.008014194667339325,0.9304816126823425,23.345136642456055,-50.697998046875,-33.61503219604492,0.6554672122001648,2.545372724533081,3.9043047428131104,-2.570854902267456,3.919243812561035,-4.8990325927734375
185,20191,20192,0.05730833113193512,0.05147947371006012,1.0288803577423096,-50.572471618652344,-88.42863464355469,-23.825576782226562,0.6584670543670654,2.5333733558654785,3.8983049392700195,-1.9334501028060913,4.130177021026611,-5.28469705581665
186,20201,20202,0.029491527006030083,-0.0568944551050663,1.0093485116958618,-114.66645050048828,-114.862060546875,-19.04686737060547,0.6494675278663635,2.575371265411377,3.8803060054779053,-1.4062989950180054,3.803595542907715,-5.615057945251465
187,20211,20212,-0.008441942743957043,-0.0994809940457344,1.0141539573669434,-154.90435791015625,-115.20243072509766,-15.05236530303955,0.6614668965339661,2.647367477416992,3.9313032627105713,-0.03524992614984512,2.3980677127838135,-5.8905253410339355
188,20221,20222,-0.01483333669602871,-0.023850420489907265,1.1052957773208618,-160.21499633789062,-93.1863784790039,-13.496650695800781,0.6734663248062134,2.7013649940490723,3.9493024349212646,1.1865332126617432,0.588911771774292,-6.118521690368652
189,20231,20232,0.02615717425942421,-0.043416403234004974,1.0790190696716309,-138.15419006347656,-63.149593353271484,-15.707592010498047,0.6929653286933899,2.6998648643493652,3.93880295753479,1.698042631149292,-0.5466081500053406,-6.302534580230713
190,20241,20242,-0.010904121212661266,-0.11498607695102692,1.029897689819336,-96.25028228759766,-37.01350784301758,-19.026002883911133,0.6854656934738159,2.656367063522339,3.9253036975860596,2.5601413249969482,-2.2316229343414307,-6.4222612380981445
191,20251,20252,-0.05542202293872833,0.0138448690995574,0.939891517162323,-41.41036605834961,-7.8480095863342285,-18.428302764892578,0.7289635539054871,2.6338682174682617,3.93880295753479,2.844973564147949,-2.8602733612060547,-6.600076675415039
192,20261,20262,-0.19318167865276337,-0.062108516693115234,1.1522557735443115,12.796387672424316,11.737724304199219,-15.433549880981445,0.6944652795791626,2.575371265411377,3.8953051567077637,3.0757296085357666,-3.5627055168151855,-6.766243934631348
193,20271,20272,-0.18621289730072021,-0.09409081935882568,1.073922872543335,58.82570266723633,31.357900619506836,-12.678910255432129,0.6674666404724121,2.602369785308838,3.8953051567077637,2.805109739303589,-3.4781699180603027,-6.952546119689941
194,20281,20282,0.03020540438592434,0.025749551132321358,1.0130031108856201,87.41622924804688,37.85540008544922,-10.931463241577148,0.6554672122001648,2.6173691749572754,3.907304525375366,2.6420300006866455,-2.7626869678497314,-7.116334438323975
195,20291,20292,-0.015763655304908752,0.0037521920166909695,0.9828941822052002,97.98326110839844,37.664459228515625,-7.626335620880127,0.6629668474197388,2.6098694801330566,3.9058046340942383,1.9839630126953125,-1.895734429359436,-7.241151809692383
196,20301,20302,0.04439086839556694,-0.2158079296350479,0.9766710996627808,88.79086303710938,28.305517196655273,-5.195540428161621,0.6824658513069153,2.6113693714141846,3.9313032627105713,1.6448404788970947,-1.0189155340194702,-7.32452392578125
197,20311,20312,-0.006405021995306015,-0.14587940275669098,0.9906815886497498,64.55303192138672,16.615306854248047,-1.6252623796463013,0.6719663739204407,2.5618717670440674,3.9058046340942383,1.4614425897598267,0.029968557879328728,-7.417989730834961
198,20321,20322,0.02476632408797741,-0.002633117837831378,0.8946256041526794,28.11737632751465,4.382579326629639,2.663543701171875,0.6824658513069153,2.548372507095337,3.892305374145508,1.2491142749786377,0.416461318731308,-7.384941101074219
199,20331,20332,0.043533630669116974,0.034851424396038055,1.010697841644287,-5.9967217445373535,0.26216620206832886,6.092237949371338,0.683965802192688,2.5258736610412598,3.89080548286438,1.084168791770935,0.8924874663352966,-7.38249397277832
200,20341,20342,0.0028637375216931105,-0.07425523549318314,0.9658828973770142,-31.732812881469727,-5.897627353668213,9.212250709533691,0.6734663248062134,2.548372507095337,3.889305353164673,1.0850893259048462,0.7814769744873047,-7.3057379722595215
201,20351,20352,-0.05896018072962761,-0.16736510396003723,1.0730540752410889,-46.10698318481445,-5.873441219329834,12.590400695800781,0.6749662160873413,2.576871156692505,3.8968050479888916,1.2313367128372192,0.3163720965385437,-7.187619209289551
202,20361,20362,-0.11985938251018524,-0.2226816862821579,1.007211446762085,-48.59539794921875,-4.3257012367248535,14.490124702453613,0.6899654865264893,2.5588719844818115,3.911804437637329,1.368585467338562,-0.28515446186065674,-7.037787914276123
203,20371,20372,-0.011372721754014492,-0.11401956528425217,0.9436464905738831,-40.49293899536133,4.271866321563721,17.814855575561523,0.6929653286933899,2.567871570587158,3.8998048305511475,1.3239654302597046,-0.720987856388092,-6.905002117156982
204,20381,20382,0.006222594529390335,-0.12134318798780441,0.9047206044197083,-21.138174057006836,12.965252876281738,22.6074275970459,0.6824658513069153,2.548372507095337,3.883305788040161,1.2839195728302002,-1.3286792039871216,-6.694194316864014
205,20391,20392,0.07317344099283218,-0.01143094152212143,1.025484561920166,4.102094650268555,26.897146224975586,28.011301040649414,0.6719663739204407,2.5528724193573,3.89080548286438,1.171593189239502,-1.4829201698303223,-6.506094932556152
206,20401,20402,0.011495827697217464,-0.06471439450979233,0.9860461354255676,29.088964462280273,36.24711990356445,30.677528381347656,0.6599670052528381,2.573871374130249,3.9058046340942383,0.921186625957489,-1.570277452468872,-6.2265143394470215
207,20411,20412,-0.09738602489233017,-0.18322114646434784,1.1456365585327148,51.78837966918945,36.77108383178711,33.28963088989258,0.6509674191474915,2.5798709392547607,3.9058046340942383,0.5023749470710754,-0.9992571473121643,-5.992259979248047
208,20421,20422,-0.04574665427207947,-0.11638414114713669,1.0113385915756226,60.03447341918945,25.669898986816406,36.94571304321289,0.6584670543670654,2.572371244430542,3.913304328918457,0.1682548224925995,-0.7021664977073669,-5.624505519866943
209,20431,20432,-0.0877518579363823,-0.09560581296682358,1.1117507219314575,48.518089294433594,29.267728805541992,39.16455841064453,0.6554672122001648,2.5513722896575928,3.8983049392700195,-0.039711613208055496,0.06584980338811874,-5.297765731811523
210,20441,20442,-0.018674923107028008,-0.11797039210796356,0.9271921515464783,13.59967041015625,34.88482666015625,42.37162399291992,0.6659666895866394,2.546872615814209,3.9028048515319824,-0.13943426311016083,0.16306036710739136,-4.8500494956970215
211,20451,20452,-0.02177976258099079,-0.09573397785425186,0.8616810441017151,-39.0451774597168,36.592952728271484,40.416202545166016,0.6419678926467896,2.546872615814209,3.89080548286438,-0.6747652888298035,0.27780136466026306,-4.409852981567383
212,20461,20462,0.037032391875982285,-0.04394584149122238,0.7906767129898071,-93.81119537353516,20.246158599853516,39.837310791015625,0.6494675278663635,2.6053695678710938,3.9253036975860596,-1.1870460510253906,-0.4608420133590698,-3.9437975883483887
213,20471,20472,0.03984452411532402,0.03912918642163277,0.8819282650947571,-117.29803466796875,-7.446966648101807,40.137413024902344,0.6404679417610168,2.6653666496276855,3.9283034801483154,-1.189947247505188,-1.104093074798584,-3.5844907760620117
214,20481,20482,-0.032406605780124664,0.0001404516660841182,1.0089043378829956,-93.10283660888672,-29.375394821166992,35.46530532836914,0.6509674191474915,2.6728663444519043,3.9208037853240967,-1.1011239290237427,-2.565913677215576,-3.1619184017181396
215,20491,20492,-0.02405281737446785,0.14515087008476257,1.0579508543014526,-38.87169647216797,-46.0948486328125,33.072608947753906,0.6539672613143921,2.6458675861358643,3.911804437637329,-0.9382119178771973,-3.319859266281128,-2.7914979457855225
216,20501,20502,0.008892083540558815,0.14991384744644165,1.071258306503296,6.842909812927246,-56.07558822631836,32.66455078125,0.66896653175354,2.6368680000305176,3.917804002761841,-0.21135330200195312,-3.691594123840332,-2.464630126953125
217,20511,20512,0.020457936450839043,0.09032683819532394,0.9185169339179993,45.4288330078125,-57.15349197387695,31.100452423095703,0.6509674191474915,2.6188690662384033,3.911804437637329,0.2779400050640106,-3.6178016662597656,-2.10018253326416
218,20521,20522,0.15661203861236572,0.1383330076932907,0.9703329801559448,79.58264923095703,-58.862464904785156,28.320499420166016,0.6419678926467896,2.6158690452575684,3.911804437637329,0.9083819389343262,-2.994568109512329,-1.7812776565551758
219,20531,20532,0.08976545929908752,-0.009854771196842194,0.8781797289848328,102.75839233398438,-52.43585968017578,32.79582977294922,0.6464676856994629,2.6113693714141846,3.916304111480713,1.6197469234466553,-1.9908604621887207,-1.5182589292526245
220,20541,20542,0.07684201747179031,-0.011943051591515541,0.8944008350372314,112.66879272460938,-41.34801483154297,36.611488342285156,0.6524673700332642,2.6353681087493896,3.916304111480713,2.0274813175201416,-1.2868067026138306,-1.1329164505004883
221,20551,20552,0.05022425949573517,-0.03538190573453903,0.9614545106887817,111.8193359375,-25.198190689086914,38.438297271728516,0.6539672613143921,2.624868631362915,3.911804437637329,2.459033489227295,-0.20414245128631592,-0.7701283693313599
222,20561,20562,-0.04620150104165077,-0.11344564706087112,0.9386940598487854,101.22174072265625,-8.943572044372559,36.43497085571289,0.6644667387008667,2.6053695678710938,3.916304111480713,2.6315109729766846,0.5844427943229675,-0.3310578167438507
223,20571,20572,-0.03566252067685127,-0.07849020510911942,1.0040309429168701,78.67066955566406,6.939088344573975,32.86429977416992,0.6419678926467896,2.603869676589966,3.9058046340942383,2.715816020965576,1.8341560363769531,-0.007316684816032648
224,20581,20582,0.05641314759850502,-0.07665417343378067,1.067075252532959,52.47040557861328,21.76140594482422,29.784574508666992,0.6479675769805908,2.60086989402771,3.911804437637329,2.712371587753296,2.5542218685150146,0.3299388587474823
225,20591,20592,0.13193930685520172,0.035963717848062515,0.9387319684028625,21.518285751342773,30.915803909301758,25.182575225830078,0.6479675769805908,2.606869697570801,3.917804002761841,2.419139862060547,2.764072895050049,0.7185488939285278
226,20601,20602,0.31740814447402954,0.2554393410682678,1.1000030040740967,-3.994586706161499,39.800628662109375,23.316152572631836,0.6449677348136902,2.6128692626953125,3.9058046340942383,2.163012742996216,2.8304283618927,1.0211846828460693
227,20611,20612,0.1836034655570984,0.1159716323018074,1.010490894317627,-18.0249080657959,37.340110778808594,21.734434127807617,0.6494675278663635,2.629368543624878,3.937303066253662,1.740470290184021,2.8084189891815186,1.2679393291473389
228,20621,20622,-0.05049138143658638,-0.18086668848991394,1.0218453407287598,-25.414833068847656,37.16545104980469,22.06111717224121,0.6389680504798889,2.624868631362915,3.9238038063049316,1.407639503479004,2.637861967086792,1.4996516704559326
229,20631,20632,-0.1166461780667305,-0.17654283344745636,0.9524255394935608,-22.845266342163086,35.111934661865234,18.874858856201172,0.6404679417610168,2.6353681087493896,3.9283034801483154,1.0500952005386353,2.360269784927368,1.7392842769622803
230,20641,20642,-0.08125395327806473,-0.08841855078935623,1.1477572917938232,-4.865046977996826,25.700984954833984,10.333694458007812,0.6479675769805908,2.62786865234375,3.917804002761841,0.8768052458763123,2.1659631729125977,1.9503188133239746
231,20651,20652,-0.20511884987354279,-0.2666642367839813,1.0718251466751099,8.36746883392334,19.150407791137695,2.773475170135498,0.6374680995941162,2.6173691749572754,3.9193038940429688,0.612618625164032,2.1080989837646484,2.066917657852173
232,20661,20662,-0.04145897924900055,-0.1664276421070099,1.0513700246810913,23.87866973876953,3.7002627849578857,-4.749899387359619,0.6434678435325623,2.6053695678710938,3.916304111480713,0.46974101662635803,2.2156388759613037,2.10621976852417
233,20671,20672,0.079416923224926,-0.007656931411474943,1.0493600368499756,33.811668395996094,-15.78813362121582,-14.594218254089355,0.6404679417610168,2.6173691749572754,3.916304111480713,0.5786381363868713,2.409334182739258,2.098468065261841
234,20681,20682,-0.0052610705606639385,-0.151860311627388,1.012162208557129,41.35503005981445,-24.55329704284668,-25.212547302246094,0.6659666895866394,2.594870090484619,3.9208037853240967,0.7101426124572754,2.6944003105163574,1.9610812664031982
235,20691,20692,-0.002355539472773671,-0.12146862596273422,1.0214829444885254,43.1107063293457,-32.471038818359375,-33.27796936035156,0.6449677348136902,2.603869676589966,3.935803174972534,0.9787309169769287,3.16589617729187,1.7096072435379028
236,20701,20702,0.098616823554039,-0.011129263788461685,0.9388973712921143,40.74354553222656,-34.76386642456055,-40.318851470947266,0.6449677348136902,2.573871374130249,3.9208037853240967,1.350641131401062,3.9225871562957764,1.3278441429138184
237,20711,20712,0.10705061256885529,0.08272387087345123,1.0105303525924683,33.35761642456055,-27.94807243347168,-43.19517135620117,0.6719663739204407,2.5858707427978516,3.911804437637329,1.5438308715820312,3.7492828369140625,0.9857857823371887
238,20721,20722,0.11873210966587067,0.16526320576667786,1.031152367591858,24.317996978759766,-21.92194366455078,-43.68878936767578,0.6509674191474915,2.5558722019195557,3.9208037853240967,1.8563097715377808,4.426701068878174,0.49425259232521057
239,20731,20732,0.04352658987045288,-0.2044316679239273,0.9759469628334045,10.272051811218262,-8.149465560913086,-41.90043640136719,0.6629668474197388,2.5858707427978516,3.908804416656494,1.9202158451080322,4.632843494415283,0.009000487625598907
240,20741,20742,-0.11789112538099289,-0.333892822265625,0.9524500966072083,-16.524715423583984,18.93778419494629,-33.51121520996094,0.6704664826393127,2.599370002746582,3.916304111480713,1.931894302368164,4.4574503898620605,-0.37069612741470337
241,20751,20752,-0.021150412037968636,-0.18214941024780273,1.03237783908844,-41.53876495361328,54.319881439208984,-21.72728157043457,0.6524673700332642,2.6203689575195312,3.9193038940429688,1.6784158945083618,4.234114646911621,-0.6986595988273621
242,20761,20762,-0.04644779860973358,-0.10141845792531967,1.0108864307403564,-45.25621795654297,82.7904052734375,-9.879483222961426,0.6599670052528381,2.6338682174682617,3.9268035888671875,0.8096159100532532,3.8063220977783203,-1.0174484252929688
243,20771,20772,-0.025744475424289703,-0.08078312128782272,1.0458298921585083,-24.714996337890625,102.54461669921875,0.09282771497964859,0.6464676856994629,2.656367063522339,3.9343032836914062,-0.10667098313570023,3.438056707382202,-1.1431869268417358
244,20781,20782,-0.042856018990278244,-0.13310112059116364,0.9756129384040833,-5.352240562438965,110.4806900024414,7.588296413421631,0.622468888759613,2.6623668670654297,3.9493024349212646,-1.178566813468933,3.3354058265686035,-1.148438811302185
245,20791,20792,0.019327815622091293,-0.11719930917024612,1.0419117212295532,0.45051833987236023,105.95664978027344,12.124873161315918,0.6089695692062378,2.648867607116699,3.944802761077881,-2.210850477218628,3.3551719188690186,-0.9861400127410889
246,20801,20802,0.033011943101882935,-0.06403855234384537,1.0311630964279175,-8.125489234924316,76.48527526855469,16.22418212890625,0.6134693026542664,2.650367498397827,3.940302848815918,-2.787039041519165,3.347153902053833,-0.5660961270332336
247,20811,20812,-0.0007914184243418276,-0.034631043672561646,0.9986992478370667,-24.285051345825195,38.56689453125,22.148883819580078,0.6209689378738403,2.6188690662384033,3.9328033924102783,-3.6037919521331787,3.2959680557250977,-0.3774142265319824
248,20821,20822,0.06352636963129044,-0.08045117557048798,1.0416433811187744,-33.25739669799805,-17.573152542114258,24.824934005737305,0.623968780040741,2.6128692626953125,3.911804437637329,-3.871121883392334,2.9689295291900635,-0.07681728899478912
249,20831,20832,-0.04458634927868843,-0.21826426684856415,0.9671226143836975,-26.914161682128906,-72.42493438720703,28.03905487060547,0.6104694604873657,2.6443676948547363,3.907304525375366,-3.621812105178833,2.7564916610717773,0.24676208198070526
250,20841,20842,0.09682714939117432,-0.003908718936145306,0.9622440934181213,-2.750422954559326,-117.59417724609375,29.245018005371094,0.6344682574272156,2.6623668670654297,3.9253036975860596,-2.6428394317626953,2.385354518890381,0.6222918033599854
251,20851,20852,0.07552500069141388,0.07592201977968216,1.0508733987808228,22.653974533081055,-157.55784606933594,30.111907958984375,0.6359682083129883,2.657866954803467,3.9298033714294434,-1.848894715309143,2.5112483501434326,0.7212095260620117
252,20861,20862,0.12152109295129776,0.06250466406345367,0.970646858215332,43.18259048461914,-177.68948364257812,28.43448829650879,0.6344682574272156,2.659367084503174,3.9553022384643555,-0.04674285277724266,2.9834368228912354,1.1311520338058472
253,20871,20872,0.010440164245665073,0.01817733235657215,1.0550243854522705,46.536720275878906,-171.71897888183594,22.0482120513916,0.6464676856994629,2.659367084503174,3.961301803588867,2.1826446056365967,3.7256429195404053,1.6044389009475708
254,20881,20882,-0.02987932600080967,-0.05132622271776199,0.9750805497169495,33.87710189819336,-145.27993774414062,13.925411224365234,0.6854656934738159,2.632368326187134,3.9283034801483154,3.433562994003296,3.8288493156433105,1.4282441139221191
255,20891,20892,-0.07996552437543869,-0.0714942216873169,1.0012669563293457,13.024259567260742,-104.13233947753906,8.899292945861816,0.6749662160873413,2.6188690662384033,3.93880295753479,5.206404209136963,4.3036789894104,1.626150131225586
256,20901,20902,-0.07565268129110336,-0.18162328004837036,0.9922693371772766,-5.061893463134766,-52.76518249511719,2.9721951484680176,0.6809659600257874,2.597870111465454,3.9268035888671875,5.865067958831787,4.143224239349365,1.4249955415725708
257,20911,20912,-0.09226307272911072,-0.09016526490449905,1.0762724876403809,-10.263829231262207,7.430269241333008,2.9940543174743652,0.6779661178588867,2.594870090484619,3.917804002761841,6.466796875,4.089961528778076,1.4358739852905273
258,20921,20922,-0.07565149664878845,-0.1604052037000656,1.132607102394104,-8.556922912597656,68.19075775146484,5.067037105560303,0.6494675278663635,2.6173691749572754,3.916304111480713,6.223110198974609,3.947124719619751,1.3532772064208984
259,20931,20932,-0.06038445606827736,-0.24638092517852783,1.0831718444824219,-5.697233200073242,118.26378631591797,8.434520721435547,0.6479675769805908,2.630868434906006,3.9208037853240967,5.442265033721924,3.8486461639404297,1.3600939512252808
260,20941,20942,0.004841952119022608,-0.0516120120882988,1.1016714572906494,-5.8038859367370605,159.32373046875,11.513656616210938,0.6344682574272156,2.6623668670654297,3.9283034801483154,3.6788318157196045,3.778745174407959,1.1740039587020874
261,20951,20952,-0.0009150456171482801,0.03228392452001572,0.9379896521568298,-20.464204788208008,183.76174926757812,17.721099853515625,0.6344682574272156,2.6623668670654297,3.9283034801483154,2.5770153999328613,3.8976449966430664,1.5667542219161987
262,20961,20962,-0.02743578888475895,-0.007552150636911392,1.0608526468276978,-35.89986801147461,180.39439392089844,18.471174240112305,0.6344682574272156,2.6623668670654297,3.9283034801483154,0.5514962077140808,3.584336280822754,1.7667447328567505
263,20971,20972,-0.05925147607922554,-0.11572115868330002,1.0669115781784058,-49.560604095458984,154.20741271972656,18.7038631439209,0.6404679417610168,2.6683664321899414,3.937303066253662,-0.7039303779602051,3.014972686767578,2.428995370864868
264,20981,20982,-0.13810083270072937,-0.20196597278118134,0.897100567817688,-67.79199981689453,111.10184478759766,15.570686340332031,0.6209689378738403,2.6398680210113525,3.935803174972534,-2.6469922065734863,2.360605478286743,2.5024633407592773
265,20991,20992,-0.014076399616897106,-0.05495394021272659,1.1067087650299072,-85.75762939453125,58.25052261352539,11.181802749633789,0.616469144821167,2.6413679122924805,3.937303066253662,-3.8826191425323486,1.5615836381912231,2.6781656742095947
266,21001,21002,0.11572104692459106,0.1737024188041687,1.1082086563110352,-95.71739959716797,5.62777853012085,5.512490272521973,0.6269686222076416,2.648867607116699,3.9328033924102783,-4.0986104011535645,0.8433671593666077,3.0297322273254395
267,21011,21012,0.038692887872457504,-0.023549363017082214,0.960382878780365,-91.7570571899414,-38.27029800415039,-2.8762927055358887,0.6179690957069397,2.621868848800659,3.911804437637329,-4.153215408325195,-0.25470295548439026,3.11539363861084
268,21021,21022,0.002540068468078971,-0.030673077329993248,1.0300272703170776,-80.98831939697266,-61.304443359375,-8.754720687866211,0.616469144821167,2.650367498397827,3.9193038940429688,-3.6471898555755615,-0.97567218542099,3.165318012237549
269,21031,21032,0.009556269273161888,0.009683811105787754,1.066870927810669,-74.80086517333984,-68.73454284667969,-11.028231620788574,0.6149692535400391,2.657866954803467,3.9208037853240967,-2.8687069416046143,-1.9000656604766846,3.1449155807495117
270,21041,21042,0.00840065348893404,0.022099992260336876,1.053794264793396,-57.550079345703125,-66.75167846679688,-12.590258598327637,0.6419678926467896,2.630868434906006,3.9328033924102783,-2.2986481189727783,-2.4978489875793457,3.0493600368499756
271,21051,21052,0.024127867072820663,0.004122500773519278,0.9918678402900696,-24.707733154296875,-52.168392181396484,-13.127964973449707,0.6524673700332642,2.6083695888519287,3.910304307937622,-1.6283552646636963,-2.997931957244873,2.9728331565856934
272,21061,21062,-0.0622062124311924,0.0964256301522255,1.1470580101013184,15.627063751220703,-30.43506622314453,-13.041009902954102,0.6569671630859375,2.60086989402771,3.9028048515319824,-1.0187588930130005,-3.3208980560302734,2.8737730979919434
273,21071,21072,-0.050608064979314804,-0.005099079106003046,1.1851515769958496,69.63558197021484,-0.35413098335266113,-13.220206260681152,0.6524673700332642,2.6113693714141846,3.8983049392700195,-0.7458176016807556,-3.0785491466522217,2.7812209129333496
274,21081,21082,-0.16385121643543243,-0.2634461224079132,1.032516598701477,112.13077545166016,14.246097564697266,-12.813952445983887,0.6179690957069397,2.6128692626953125,3.911804437637329,-0.813854455947876,-2.3656558990478516,2.6665544509887695
275,21091,21092,-0.11715324223041534,-0.18671637773513794,1.0133986473083496,141.40509033203125,29.289226531982422,-13.632335662841797,0.6149692535400391,2.6098694801330566,3.917804002761841,-0.9273718595504761,-1.375436544418335,2.507160186767578
276,21101,21102,-0.07984916865825653,-0.19015569984912872,0.9720914959907532,149.29592895507812,28.872066497802734,-12.875484466552734,0.6194689869880676,2.5873706340789795,3.913304328918457,-1.3810328245162964,0.40660539269447327,2.4744091033935547
277,21111,21112,0.04377485066652298,0.004375363700091839,1.0717965364456177,135.2665557861328,16.03436851501465,-13.21866512298584,0.6329683661460876,2.5828707218170166,3.917804002761841,-1.5805189609527588,1.9679150581359863,2.3596832752227783
278,21121,21122,0.011008817702531815,-0.05834197625517845,0.9706704020500183,107.68515014648438,1.7717463970184326,-11.935709953308105,0.6329683661460876,2.567871570587158,3.914804220199585,-1.5726321935653687,3.0468149185180664,2.1500518321990967
279,21131,21132,0.09034577757120132,-0.03170570731163025,0.9658220410346985,66.0228271484375,-2.0519773960113525,-8.127344131469727,0.6299684643745422,2.549872398376465,3.911804437637329,-1.5731149911880493,4.049983501434326,2.0054221153259277
280,21141,21142,0.14330615103244781,-0.05019732937216759,0.7619096040725708,7.352422714233398,-2.2816715240478516,-4.954702854156494,0.6419678926467896,2.522873878479004,3.911804437637329,-1.569474458694458,4.363656997680664,1.8225756883621216
281,21151,21152,0.014047295786440372,-0.1239759624004364,0.8586454391479492,-53.74113082885742,4.686399459838867,-3.9939017295837402,0.6359682083129883,2.519873857498169,3.8968050479888916,-1.602697491645813,4.300574779510498,1.7222265005111694
282,21161,21162,0.06282293796539307,-0.05235334113240242,0.9922402501106262,-98.01656341552734,13.702998161315918,0.5956242680549622,0.6344682574272156,2.599370002746582,3.910304307937622,-1.6568379402160645,3.921569585800171,1.7132065296173096
283,21171,21172,0.04770253226161003,-0.020974190905690193,0.8901278376579285,-125.85704040527344,11.239067077636719,6.87715482711792,0.6404679417610168,2.632368326187134,3.937303066253662,-1.9282633066177368,2.6030900478363037,1.5958518981933594
284,21181,21182,-0.05324618145823479,-0.1236504539847374,0.9572958946228027,-122.67198181152344,23.540664672851562,12.041983604431152,0.6254687309265137,2.677366018295288,3.9343032836914062,-2.0852434635162354,1.1374801397323608,1.5810235738754272
285,21191,21192,-0.01839873380959034,-0.05274805799126625,0.9969367384910583,-105.67272186279297,50.01506805419922,20.44550895690918,0.623968780040741,2.6668665409088135,3.935803174972534,-2.47912335395813,0.030557431280612946,1.7117148637771606
286,21201,21202,0.023487074300646782,-0.024819038808345795,1.0782811641693115,-66.56539154052734,62.034854888916016,24.404333114624023,0.6179690957069397,2.6878654956817627,3.9298033714294434,-3.0537331104278564,-0.9357239007949829,1.9267607927322388
287,21211,21212,0.028889887034893036,0.041911572217941284,1.1262260675430298,-13.767599105834961,43.23216247558594,22.668848037719727,0.6179690957069397,2.6728663444519043,3.9328033924102783,-3.707566499710083,-1.3173041343688965,2.2697412967681885
288,21221,21222,0.07462325692176819,-0.020286723971366882,1.062272310256958,29.731143951416016,9.029271125793457,20.240781784057617,0.5984700918197632,2.6413679122924805,3.913304328918457,-4.053936004638672,-1.5101561546325684,2.484785795211792
289,21231,21232,0.03841886296868324,-0.08319226652383804,0.9847021102905273,53.49885940551758,-34.86416244506836,17.843318939208984,0.616469144821167,2.6413679122924805,3.9343032836914062,-4.143105506896973,-1.0165382623672485,2.7916994094848633
290,21241,21242,0.011459114030003548,-0.043652329593896866,1.0632470846176147,67.64818572998047,-77.90548706054688,16.651981353759766,0.6119694113731384,2.624868631362915,3.9208037853240967,-3.9128780364990234,-0.7268414497375488,2.866997241973877
291,21251,21252,0.07562826573848724,0.03864067420363426,0.9684454798698425,74.08563232421875,-101.76924896240234,17.98249053955078,0.6254687309265137,2.6383681297302246,3.9283034801483154,-2.8422000408172607,0.22656141221523285,3.1608433723449707
292,21261,21262,0.04602803289890289,0.014401664026081562,1.0216944217681885,69.78052520751953,-104.31633758544922,19.246801376342773,0.6329683661460876,2.6338682174682617,3.917804002761841,-2.03141188621521,0.5488178730010986,3.1285758018493652
293,21271,21272,-0.021892815828323364,-0.05300641804933548,0.9469912648200989,50.17805862426758,-101.39708709716797,20.144262313842773,0.6389680504798889,2.606869697570801,3.9268035888671875,-0.7389225363731384,1.6466675996780396,3.4755618572235107
294,21281,21282,0.03451080247759819,-0.023756030946969986,1.019239902496338,22.703060150146484,-84.05610656738281,16.34242057800293,0.6494675278663635,2.602369785308838,3.9223039150238037,0.04593557119369507,2.032010316848755,3.593104600906372
295,21291,21292,-0.06486894935369492,-0.11652619391679764,0.9864841103553772,-5.926517009735107,-56.5491828918457,11.305610656738281,0.6584670543670654,2.5903704166412354,3.910304307937622,1.0605486631393433,2.2815492153167725,3.7101693153381348
296,21301,21302,-0.06737436354160309,-0.13038599491119385,0.9744001626968384,-27.254154205322266,-18.950218200683594,7.169646263122559,0.6434678435325623,2.5873706340789795,3.910304307937622,1.6642844676971436,2.054978847503662,3.7300257682800293
297,21311,21312,-0.050348177552223206,-0.07836025953292847,0.9602298736572266,-36.82733917236328,19.900178909301758,6.050375938415527,0.6449677348136902,2.5798709392547607,3.9238038063049316,1.7759177684783936,1.6469812393188477,3.7478060722351074
298,21321,21322,0.013471199199557304,0.0669306144118309,0.9907281398773193,-35.51568603515625,49.02233123779297,3.1757657527923584,0.6434678435325623,2.6143691539764404,3.913304328918457,1.3759514093399048,1.3159147500991821,3.819272518157959
299,21331,21332,0.07711037248373032,0.07204541563987732,1.0737719535827637,-25.197717666625977,66.86048126220703,1.7938361167907715,0.6344682574272156,2.623368740081787,3.940302848815918,0.9443070292472839,0.8063823580741882,3.8356099128723145
300,21341,21342,0.07002334296703339,0.09774961322546005,1.0840555429458618,-7.588900089263916,67.77182006835938,-2.249335527420044,0.6329683661460876,2.624868631362915,3.935803174972534,0.14942556619644165,0.5474118590354919,3.8633310794830322
301,21351,21352,0.07691871374845505,0.015824904665350914,1.1286605596542358,24.24460792541504,59.043312072753906,-10.943878173828125,0.6314684152603149,2.602369785308838,3.913304328918457,-0.7136991620063782,0.51313716173172,3.8642306327819824
302,21361,21362,0.07914470136165619,0.026888031512498856,1.1705976724624634,56.35423278808594,38.02991485595703,-21.172042846679688,0.622468888759613,2.5873706340789795,3.913304328918457,-1.0625050067901611,0.9898830652236938,3.8157596588134766
303,21371,21372,0.08247040212154388,0.061642348766326904,1.0442805290222168,53.49830627441406,13.209986686706543,-29.172578811645508,0.6284685730934143,2.569371461868286,3.910304307937622,-1.5086266994476318,1.4893887042999268,3.6247811317443848
304,21381,21382,0.05637839809060097,-0.027342837303876877,0.9587243795394897,30.434974670410156,-1.3062273263931274,-32.4627685546875,0.622468888759613,2.542372941970825,3.9013049602508545,-1.6142122745513916,1.7747913599014282,3.2994894981384277
305,21391,21392,-0.06307047605514526,-0.1856476217508316,1.0296192169189453,9.631338119506836,-22.407541275024414,-36.9567756652832,0.623968780040741,2.5258736610412598,3.884805679321289,-1.511520504951477,2.1405177116394043,2.9822983741760254
306,21401,21402,-0.04424763470888138,-0.14898039400577545,0.96634441614151,-11.148712158203125,-41.672672271728516,-40.74948501586914,0.6449677348136902,2.5258736610412598,3.89080548286438,-1.1374486684799194,2.049138069152832,2.57251238822937
307,21411,21412,0.05017704889178276,0.057826749980449677,1.14808189868927,-28.41792869567871,-67.6368408203125,-43.75173568725586,0.6464676856994629,2.548372507095337,3.8983049392700195,-0.7413308620452881,1.9671133756637573,2.1605441570281982
308,21421,21422,0.12280083447694778,0.13106082379817963,1.1599712371826172,-32.729095458984375,-88.34513092041016,-49.999324798583984,0.6464676856994629,2.5843708515167236,3.9013049602508545,0.1393260657787323,1.5409765243530273,1.6962162256240845
309,21431,21432,0.02454436384141445,-0.06799798458814621,0.9711123704910278,-24.622709274291992,-94.82026672363281,-50.38086700439453,0.6659666895866394,2.5528724193573,3.8998048305511475,0.6583923101425171,1.3851401805877686,1.2006852626800537
310,21441,21442,-0.057414282113313675,-0.0560983382165432,0.9148962497711182,-14.458517074584961,-82.73688507080078,-51.71471405029297,0.676466166973114,2.5543723106384277,3.907304525375366,1.6295806169509888,1.0623373985290527,0.6690911650657654
311,21451,21452,-0.1143769919872284,-0.2240060716867447,0.896615207195282,-5.024609088897705,-56.82305145263672,-54.23619079589844,0.6704664826393127,2.524373769760132,3.883305788040161,2.325791835784912,0.9127064943313599,0.1328917294740677
312,21461,21462,-0.08531251549720764,-0.31433531641960144,0.9805169701576233,1.2879266738891602,-28.91885757446289,-52.47194290161133,0.6659666895866394,2.5108745098114014,3.8728063106536865,2.8231313228607178,0.992032527923584,-0.41684475541114807
313,21471,21472,-0.014964153058826923,-0.10942994803190231,0.8221240639686584,7.64590311050415,0.29628148674964905,-51.769779205322266,0.6614668965339661,2.524373769760132,3.889305353164673,3.1802244186401367,1.183424472808838,-0.9532972574234009
314,21481,21482,-0.002013138495385647,-0.05089282616972923,0.9032303690910339,9.235847473144531,20.93168830871582,-50.842247009277344,0.676466166973114,2.548372507095337,3.889305353164673,2.9992897510528564,1.040756344795227,-1.4524850845336914
315,21491,21492,0.09202631562948227,0.06364168971776962,0.9748010039329529,1.850010871887207,43.008056640625,-50.11090850830078,0.6614668965339661,2.548372507095337,3.8983049392700195,2.7772252559661865,1.237247109413147,-1.9662305116653442
316,21501,21502,0.022677170112729073,-0.034597381949424744,0.8724968433380127,-5.961196422576904,56.325923919677734,-48.678253173828125,0.6629668474197388,2.5588719844818115,3.911804437637329,2.248357057571411,1.2977979183197021,-2.4627273082733154
317,21511,21512,-0.11154036223888397,-0.20384196937084198,0.8882497549057007,-5.346202850341797,58.20172119140625,-45.586849212646484,0.6494675278663635,2.575371265411377,3.907304525375366,1.6468148231506348,1.279144525527954,-2.9434940814971924
318,21521,21522,0.03224033862352371,0.03981398418545723,0.8801645040512085,-6.686450004577637,51.381099700927734,-43.434059143066406,0.6614668965339661,2.5663716793060303,3.9043047428131104,1.198093056678772,1.245002269744873,-3.38374924659729
319,21531,21532,-0.01004253700375557,0.002548864344134927,0.8939250111579895,-10.330429077148438,39.43124008178711,-41.277366638183594,0.6659666895866394,2.5648717880249023,3.8968050479888916,0.5927265882492065,1.169796109199524,-3.805708169937134
320,21541,21542,-0.031376928091049194,-0.04146135225892067,1.0628573894500732,-17.494016647338867,27.83671760559082,-36.73716735839844,0.6524673700332642,2.569371461868286,3.907304525375366,0.11858823150396347,1.0364903211593628,-4.204823017120361
321,21551,21552,-0.02652403898537159,-0.04135918989777565,0.947623610496521,-28.957603454589844,14.608906745910645,-32.521392822265625,0.6554672122001648,2.5663716793060303,3.9043047428131104,-0.08731012046337128,0.7690808773040771,-4.549811363220215
322,21561,21562,0.0015570353716611862,0.008755440823733807,0.9547639489173889,-38.464508056640625,-0.6893115043640137,-29.194297790527344,0.6584670543670654,2.5603718757629395,3.907304525375366,-0.2286602109670639,0.38753747940063477,-4.8587965965271
323,21571,21572,-0.0645456537604332,-0.11326026916503906,0.996640145778656,-38.55742263793945,-15.410212516784668,-26.537616729736328,0.66896653175354,2.5888705253601074,3.887805461883545,-0.1821916103363037,0.02300373651087284,-5.1522746086120605
324,21581,21582,0.050768546760082245,0.09780924022197723,0.9587756991386414,-31.74861717224121,-22.062442779541016,-22.140073776245117,0.6644667387008667,2.6053695678710938,3.9013049602508545,0.0706557035446167,-0.4030500054359436,-5.411122798919678
325,21591,21592,0.024255244061350822,0.03178378567099571,0.9821681380271912,-20.518848419189453,-25.45730209350586,-18.214893341064453,0.66896653175354,2.5858707427978516,3.908804416656494,0.3730650246143341,-0.64485764503479,-5.64481782913208
326,21601,21602,0.03807753324508667,0.005456015933305025,0.9564110040664673,-6.872642993927002,-18.07740020751953,-12.783061981201172,0.6749662160873413,2.5918703079223633,3.917804002761841,0.5444034337997437,-0.9090803265571594,-5.814533233642578
327,21611,21612,0.06603523343801498,0.033830899745225906,0.8930965662002563,11.728850364685059,-4.35094690322876,-7.397963047027588,0.6614668965339661,2.5903704166412354,3.907304525375366,0.8425016403198242,-1.0945022106170654,-5.934783458709717
328,21621,21622,0.005356210749596357,-0.1301315724849701,0.9330111145973206,29.675207138061523,18.942279815673828,-2.222008228302002,0.6629668474197388,2.603869676589966,3.8938052654266357,0.7420886754989624,-0.8916640877723694,-6.0152740478515625
329,21631,21632,0.06609054654836655,-0.06053627282381058,1.019760251045227,42.039485931396484,39.60995101928711,2.448652982711792,0.6629668474197388,2.621868848800659,3.9238038063049316,0.555479884147644,-0.33835625648498535,-6.085552215576172
330,21641,21642,0.06324569135904312,-0.03129415214061737,0.8952656388282776,47.24648666381836,51.897682189941406,8.888507843017578,0.6524673700332642,2.626368522644043,3.9223039150238037,0.18331699073314667,-0.3246404826641083,-6.00724458694458
331,21651,21652,-0.0003544265928212553,-0.06628765910863876,1.0773088932037354,54.47187423706055,58.643951416015625,14.764019966125488,0.6509674191474915,2.630868434906006,3.9238038063049316,-0.44753143191337585,0.4453893303871155,-5.950865268707275
332,21661,21662,0.03129854053258896,-0.04047953709959984,1.044800043106079,62.87461853027344,56.45238494873047,21.981708526611328,0.6419678926467896,2.6338682174682617,3.9328033924102783,-1.1537171602249146,0.6738364100456238,-5.749533176422119
333,21671,21672,-0.04682205617427826,-0.1136816218495369,1.0842071771621704,73.75239562988281,45.03840255737305,25.820903778076172,0.6284685730934143,2.623368740081787,3.943302869796753,-1.6049638986587524,1.2228116989135742,-5.536092758178711
334,21681,21682,-0.007195814047008753,-0.08143300563097,1.0497252941131592,68.37403106689453,36.1211051940918,29.586101531982422,0.6314684152603149,2.602369785308838,3.9223039150238037,-1.8710700273513794,2.069676637649536,-5.297959327697754
335,21691,21692,-0.03499597683548927,-0.028894947841763496,1.0469197034835815,40.30265808105469,44.904518127441406,32.2531623840332,0.6494675278663635,2.599370002746582,3.9253036975860596,-2.256559371948242,2.795403003692627,-4.9890570640563965
336,21701,21702,-0.019628392532467842,-0.08754390478134155,0.9831696152687073,-8.316563606262207,64.22306060791016,32.25550842285156,0.6014699339866638,2.6173691749572754,3.916304111480713,-2.746755599975586,2.964245080947876,-4.6504364013671875
337,21711,21712,0.06364846974611282,0.04236225411295891,1.0817711353302002,-61.39892578125,65.99038696289062,35.68814468383789,0.6314684152603149,2.623368740081787,3.9313032627105713,-3.4722466468811035,2.8606770038604736,-4.2983503341674805
338,21721,21722,-0.03713922202587128,-0.11436040699481964,1.1530730724334717,-98.03599548339844,44.84025192260742,40.00360870361328,0.6119694113731384,2.651867389678955,3.935803174972534,-3.9134163856506348,2.2870798110961914,-3.920743942260742
339,21731,21732,0.020868264138698578,-0.0743737444281578,0.9723759889602661,-117.69902038574219,-3.604599714279175,39.9282341003418,0.6209689378738403,2.6638667583465576,3.9328033924102783,-4.4562087059021,1.118282675743103,-3.5648717880249023
340,21741,21742,0.08572126924991608,-0.053904950618743896,0.92908775806427,-120.08050537109375,-69.35930633544922,36.13169860839844,0.6449677348136902,2.6458675861358643,3.9238038063049316,-4.298181533813477,0.11706823855638504,-3.1271517276763916
341,21751,21752,0.02613258734345436,-0.03699994832277298,0.9816088676452637,-103.0077896118164,-121.6759033203125,32.002227783203125,0.6614668965339661,2.6353681087493896,3.8983049392700195,-3.4194934368133545,-1.207439661026001,-2.791262626647949
342,21761,21762,0.02620563469827175,0.00457847211509943,0.9118552207946777,-67.72220611572266,-147.4159698486328,30.35453987121582,0.6824658513069153,2.656367063522339,3.9013049602508545,-2.6182608604431152,-2.0348050594329834,-2.3704004287719727
343,21771,21772,-0.018577104434370995,-0.141653910279274,1.049424409866333,-13.682400703430176,-159.3338623046875,25.071287155151367,0.6824658513069153,2.656367063522339,3.9013049602508545,-0.8087083101272583,-2.804647207260132,-2.040804386138916
344,21781,21782,-0.003449627198278904,-0.01441511232405901,1.1013164520263672,48.547481536865234,-153.65223693847656,20.949174880981445,0.6824658513069153,2.656367063522339,3.9013049602508545,1.0779796838760376,-2.809108018875122,-1.6733571290969849
345,21791,21792,-0.009331760928034782,-0.02314402349293232,0.9846017360687256,92.27083587646484,-125.40312194824219,20.61474609375,0.6479675769805908,2.657866954803467,3.9238038063049316,2.2369329929351807,-2.315596580505371,-1.326586127281189
346,21801,21802,-0.03682655096054077,0.0246694628149271,0.8792415857315063,107.58737182617188,-79.12106323242188,26.811052322387695,0.66896653175354,2.6398680210113525,3.9478025436401367,3.6422946453094482,-1.0141607522964478,-1.0313762426376343
347,21811,21812,0.015447231940925121,-0.07922763377428055,0.8722572326660156,107.49626922607422,-25.128183364868164,34.3718376159668,0.6584670543670654,2.629368543624878,3.9343032836914062,4.091520309448242,-0.3155030310153961,-0.7154203057289124
348,21821,21822,-0.014659483917057514,-0.08103783428668976,0.8853772878646851,92.57862854003906,21.663894653320312,39.260704040527344,0.66896653175354,2.603869676589966,3.914804220199585,4.378353595733643,0.6879518032073975,-0.37986335158348083
349,21831,21832,0.14550557732582092,0.12568677961826324,1.0061428546905518,61.63356018066406,57.52066421508789,39.9868278503418,0.6734663248062134,2.602369785308838,3.9313032627105713,4.058626174926758,1.8479037284851074,0.030808594077825546
350,21841,21842,-0.029198098927736282,0.020336462184786797,1.0482450723648071,17.363544464111328,76.8942642211914,40.33504104614258,0.6584670543670654,2.6113693714141846,3.907304525375366,3.593080520629883,2.2304277420043945,0.4712609350681305
351,21851,21852,0.04108525067567825,0.14318451285362244,0.9570668339729309,-24.091463088989258,84.4315185546875,34.91709518432617,0.6524673700332642,2.6353681087493896,3.9253036975860596,2.469851016998291,2.3644633293151855,0.966181218624115
352,21861,21862,0.08121158927679062,0.14984512329101562,0.9826101064682007,-53.30756378173828,69.72520446777344,28.827877044677734,0.6419678926467896,2.654867172241211,3.9478025436401367,1.8902033567428589,2.001934051513672,1.3606739044189453
353,21871,21872,-0.03869553282856941,-0.05541975796222687,0.939842700958252,-61.981021881103516,47.059810638427734,24.334701538085938,0.6479675769805908,2.6638667583465576,3.944802761077881,1.0956063270568848,1.413036584854126,1.7021262645721436
354,21881,21882,0.050848588347435,0.04832688346505165,1.0326436758041382,-54.81974792480469,20.11380386352539,19.792098999023438,0.6674666404724121,2.650367498397827,3.946302652359009,0.7581577301025391,0.768352746963501,1.9579980373382568
355,21891,21892,-0.0018547935178503394,-0.006948496215045452,0.9923478960990906,-32.403533935546875,-4.220364570617676,15.677018165588379,0.6539672613143921,2.630868434906006,3.9328033924102783,0.508354663848877,0.2752564251422882,2.1485183238983154
356,21901,21902,0.01312235277146101,-0.0013730020727962255,1.0859483480453491,1.704681158065796,-18.57391357421875,12.068748474121094,0.6494675278663635,2.6083695888519287,3.9283034801483154,0.6179044842720032,0.14533570408821106,2.257565975189209
357,21911,21912,-0.03806653246283531,-0.13930681347846985,0.982232391834259,37.478309631347656,-26.802366256713867,8.429131507873535,0.6599670052528381,2.60086989402771,3.9268035888671875,0.8236151933670044,-0.02922683209180832,2.406130075454712
358,21921,21922,-0.016873948276042938,-0.009751278907060623,0.9779554605484009,68.88314819335938,-23.38361167907715,7.405758380889893,0.6434678435325623,2.6083695888519287,3.910304307937622,1.0564759969711304,0.5671501159667969,2.4384326934814453
359,21931,21932,0.04688342660665512,0.15491244196891785,1.0424991846084595,75.46062469482422,-12.83810806274414,5.393355369567871,0.6449677348136902,2.630868434906006,3.93880295753479,1.3877800703048706,0.927854061126709,2.5627477169036865
360,21941,21942,0.08322367072105408,0.06426151841878891,1.0364214181900024,64.27914428710938,-3.7432405948638916,5.6208930015563965,0.6434678435325623,2.623368740081787,3.9283034801483154,1.6063451766967773,1.8558167219161987,2.5758273601531982
361,21951,21952,0.07193291932344437,0.056266605854034424,1.0365070104599,42.119789123535156,-4.5352983474731445,5.741515636444092,0.6509674191474915,2.603869676589966,3.9328033924102783,1.678305745124817,2.5322136878967285,2.6269686222076416
362,21961,21962,0.06405021995306015,0.012157867662608624,1.041050910949707,14.593060493469238,-3.095576047897339,9.070544242858887,0.6524673700332642,2.5843708515167236,3.9283034801483154,1.6921169757843018,2.6289539337158203,2.7780604362487793
363,21971,21972,0.15805217623710632,0.1146635115146637,0.9806855320930481,-5.103659152984619,4.168010711669922,5.816618919372559,0.6569671630859375,2.5918703079223633,3.9208037853240967,1.6606281995773315,2.9580166339874268,2.8251588344573975
364,21981,21982,-0.012577240355312824,-0.011882844381034374,0.9993159174919128,-7.391099452972412,7.657824993133545,3.440406084060669,0.6464676856994629,2.5843708515167236,3.9253036975860596,1.5943256616592407,2.8840274810791016,2.908374071121216
365,21991,21992,-0.028942150995135307,-0.04637833312153816,1.0758510828018188,-6.485451698303223,0.40743839740753174,0.4115884304046631,0.6524673700332642,2.5873706340789795,3.9223039150238037,1.6373153924942017,2.757908821105957,2.971951484680176
366,22001,22002,-0.029058275744318962,-0.04325445368885994,1.0383341312408447,-0.642884373664856,-4.229320049285889,-2.688455581665039,0.6659666895866394,2.567871570587158,3.9058046340942383,1.616410255432129,2.7206666469573975,2.970289707183838
367,22011,22012,-0.06061211973428726,-0.03910725563764572,0.9840558767318726,0.9612043499946594,-0.6782243847846985,-3.0530524253845215,0.6494675278663635,2.578371047973633,3.913304328918457,1.6688824892044067,2.628023862838745,2.969207286834717
368,22021,22022,-0.00501903286203742,-0.0519951730966568,0.9332948923110962,1.6682204008102417,5.654804706573486,-3.355135440826416,0.6569671630859375,2.570871353149414,3.9058046340942383,1.6635136604309082,2.6271276473999023,2.9413557052612305
369,22031,22032,-0.0105232372879982,-0.04535091295838356,0.9955003261566162,4.088086128234863,12.261527061462402,-0.8747865557670593,0.6449677348136902,2.5798709392547607,3.914804220199585,1.5535924434661865,2.6396243572235107,2.9028799533843994
370,22041,22042,-0.05341218039393425,-0.024559486657381058,1.029192328453064,3.5223140716552734,11.230992317199707,2.0004749298095703,0.6569671630859375,2.573871374130249,3.911804437637329,1.4942644834518433,2.601480007171631,2.9282774925231934
371,22051,22052,-0.03933395817875862,-0.15951408445835114,0.9612513184547424,12.298483848571777,12.10256576538086,5.073819637298584,0.6464676856994629,2.575371265411377,3.910304307937622,1.4910808801651,2.577890634536743,2.989222764968872
372,22061,22062,-0.0658729076385498,-0.06047214940190315,1.096210241317749,23.097368240356445,16.365781784057617,4.316133499145508,0.6464676856994629,2.5903704166412354,3.9223039150238037,1.198350191116333,2.701617479324341,3.000225067138672
373,22071,22072,-0.0302107073366642,-0.04930869862437248,1.034481406211853,26.203365325927734,24.693235397338867,0.9330031275749207,0.6359682083129883,2.567871570587158,3.9268035888671875,0.917864978313446,3.125304937362671,2.965801239013672
374,22081,22082,-0.0099513353779912,-0.04946773126721382,1.0654819011688232,19.445640563964844,35.914817810058594,-1.6933828592300415,0.6419678926467896,2.5798709392547607,3.9238038063049316,0.8623715043067932,3.299590587615967,3.0553431510925293
375,22091,22092,-0.04349721595644951,-0.09110850840806961,0.9702244400978088,-0.0177751574665308,45.18190383911133,-5.812747955322266,0.6284685730934143,2.578371047973633,3.913304328918457,0.5409672260284424,3.635061025619507,3.0324816703796387
376,22101,22102,0.06600893288850784,-0.03473610430955887,1.0281543731689453,-26.79618263244629,53.30313491821289,-7.159955978393555,0.6374680995941162,2.5843708515167236,3.9223039150238037,0.2808547914028168,3.504943609237671,3.0976834297180176
377,22111,22112,0.02864512987434864,-0.04130322113633156,1.0869675874710083,-40.40956497192383,49.65885925292969,-4.576871871948242,0.623968780040741,2.5858707427978516,3.9238038063049316,-0.3855379521846771,3.1091644763946533,3.052347421646118
378,22121,22122,-0.02622612938284874,-0.2344653308391571,0.9498292207717896,-32.922889709472656,39.10784912109375,1.318902611732483,0.6509674191474915,2.5858707427978516,3.9238038063049316,-0.9177566766738892,2.718095064163208,3.017420768737793
379,22131,22132,0.1436784714460373,0.07049150764942169,1.0727145671844482,-4.256234645843506,36.14845657348633,6.600124359130859,0.6344682574272156,2.5543723106384277,3.907304525375366,-1.4540053606033325,2.3607890605926514,3.0000388622283936
380,22141,22142,0.13113634288311005,0.13948839902877808,1.1078654527664185,22.847854614257812,20.390689849853516,12.078482627868652,0.623968780040741,2.5528724193573,3.908804416656494,-1.7610961198806763,2.294238567352295,3.0859334468841553
381,22151,22152,0.020180564373731613,-0.027343373745679855,1.062516450881958,46.502769470214844,-5.951137065887451,13.585786819458008,0.6299684643745422,2.5528724193573,3.917804002761841,-1.87294602394104,2.6314141750335693,3.235780715942383
382,22161,22162,-0.12265994399785995,-0.20600605010986328,1.0392746925354004,45.579341888427734,-33.994041442871094,15.053678512573242,0.6314684152603149,2.569371461868286,3.910304307937622,-1.7797316312789917,3.17484188079834,3.382169008255005
383,22171,22172,-0.07033059000968933,-0.09593053162097931,0.9292192459106445,32.065670013427734,-59.90168380737305,19.951797485351562,0.6389680504798889,2.5528724193573,3.911804437637329,-1.3486000299453735,3.7300257682800293,3.5404911041259766
384,22181,22182,0.020170485600829124,-0.031137701123952866,1.0455056428909302,23.41127586364746,-83.5118637084961,19.383522033691406,0.6479675769805908,2.5618717670440674,3.908804416656494,-0.6063776016235352,3.8558669090270996,3.7467005252838135
385,22191,22192,0.0022300719283521175,0.08218061923980713,1.0730520486831665,23.572891235351562,-82.47132110595703,17.021726608276367,0.6494675278663635,2.5513722896575928,3.916304111480713,0.41265594959259033,4.250219821929932,3.961944103240967
386,22201,22202,-0.07462505996227264,0.07550431787967682,1.1096357107162476,14.783632278442383,-69.70153045654297,14.662845611572266,0.6464676856994629,2.5663716793060303,3.9223039150238037,1.1032943725585938,4.249199390411377,4.011112213134766
387,22211,22212,-0.04249026998877525,-0.09390181303024292,0.9525443911552429,-7.127750396728516,-38.8616943359375,17.634614944458008,0.6599670052528381,2.5378730297088623,3.908804416656494,1.8309919834136963,4.394359588623047,4.101536750793457
388,22221,22222,-0.04155248403549194,-0.11148779094219208,0.9135224223136902,-33.370574951171875,0.27542221546173096,17.839548110961914,0.6509674191474915,2.516874074935913,3.9028048515319824,2.126079559326172,4.394303798675537,4.17772912979126
389,22231,22232,-0.018487414345145226,-0.04445993900299072,0.928947925567627,-57.3923454284668,27.204750061035156,17.88945198059082,0.6374680995941162,2.5513722896575928,3.910304307937622,2.109606981277466,4.032861709594727,4.313732147216797
390,22241,22242,0.0334007665514946,0.07990234345197678,0.9531732201576233,-67.71544647216797,60.15974807739258,19.636716842651367,0.6254687309265137,2.5903704166412354,3.907304525375366,1.6971505880355835,3.4522430896759033,4.42248010635376
391,22251,22252,0.03072778508067131,-0.05278151109814644,0.8127650618553162,-77.11922454833984,82.6974105834961,20.091352462768555,0.623968780040741,2.603869676589966,3.9058046340942383,1.000091552734375,2.8290817737579346,4.568819522857666
392,22261,22262,-0.03918657824397087,-0.17050011456012726,0.7968249917030334,-77.49658203125,88.35224151611328,18.722537994384766,0.623968780040741,2.648867607116699,3.911804437637329,0.08431778103113174,1.9842923879623413,4.74908447265625
393,22271,22272,-0.02585134096443653,-0.09583000093698502,0.9324922561645508,-66.95259857177734,72.09326934814453,15.44890308380127,0.6299684643745422,2.6338682174682617,3.9208037853240967,-0.6477982401847839,1.6252228021621704,4.98947811126709
394,22281,22282,-0.041765403002500534,-0.07551871240139008,0.881097674369812,-56.50498962402344,45.09770584106445,8.510123252868652,0.6074696183204651,2.6203689575195312,3.907304525375366,-1.4564861059188843,0.7708700895309448,5.150311470031738
395,22291,22292,-0.11074645072221756,-0.03651982173323631,0.9141242504119873,-50.1161994934082,13.176862716674805,1.2549335956573486,0.6179690957069397,2.6128692626953125,3.917804002761841,-1.911342978477478,0.64983069896698,5.26241397857666
396,22301,22302,-0.023893829435110092,-0.045899540185928345,0.9043574929237366,-46.191585540771484,-21.49696922302246,-5.584626197814941,0.6254687309265137,2.6113693714141846,3.916304111480713,-2.124255418777466,0.04161351919174194,5.28078031539917
397,22311,22312,-0.04134717956185341,0.027037225663661957,0.9866257309913635,-45.60710906982422,-54.03225326538086,-8.297767639160156,0.6344682574272156,2.623368740081787,3.916304111480713,-1.7765095233917236,-0.6317797899246216,5.284447193145752
398,22321,22322,-0.04899430274963379,-0.03360489383339882,0.9687483310699463,-31.574846267700195,-68.24922180175781,-9.361544609069824,0.6284685730934143,2.6443676948547363,3.9013049602508545,-1.0592142343521118,-0.7723950743675232,5.289643287658691
399,22331,22332,-0.04565020278096199,-0.10841511934995651,1.0374311208724976,-1.869004487991333,-56.90684127807617,-9.907431602478027,0.6329683661460876,2.654867172241211,3.9268035888671875,-0.2824828624725342,-1.2203696966171265,5.21778678894043
400,22341,22342,0.004902812652289867,-0.02247006446123123,1.0654789209365845,36.79144287109375,-20.841886520385742,-7.408226013183594,0.6284685730934143,2.6713664531707764,3.940302848815918,0.1493512988090515,-1.2896755933761597,5.1111650466918945
401,22351,22352,-0.06604229658842087,-0.0018314849585294724,1.171878695487976,67.06458282470703,9.941216468811035,-7.747452259063721,0.623968780040741,2.67586612701416,3.935803174972534,0.3693310618400574,-0.7703039050102234,5.051721572875977
402,22361,22362,-0.04594213515520096,-0.0630374625325203,1.1546014547348022,81.74063110351562,33.896156311035156,-7.278473854064941,0.6284685730934143,2.6893653869628906,3.940302848815918,0.29144585132598877,-0.21076294779777527,4.969406604766846
403,22371,22372,0.02017182856798172,-0.12664732336997986,0.9621173143386841,66.12370300292969,50.38677978515625,-7.690240383148193,0.6134693026542664,2.659367084503174,3.937303066253662,-0.11962216347455978,0.5970619916915894,4.896049499511719
404,22381,22382,0.02690020203590393,-0.2823926508426666,0.8785387277603149,23.18593406677246,53.34242630004883,-10.514166831970215,0.6119694113731384,2.654867172241211,3.935803174972534,-0.6726619601249695,1.3102370500564575,4.830860614776611
405,22391,22392,0.025486266240477562,-0.39686861634254456,0.9767022132873535,1.0673329830169678,50.41287612915039,-16.70945167541504,0.6119694113731384,2.6458675861358643,3.9208037853240967,-1.1285630464553833,1.5193796157836914,4.734529495239258
406,22401,22402,-0.0013201332185417414,-0.09566983580589294,1.0209428071975708,-6.496713638305664,44.9211311340332,-20.823719024658203,0.6149692535400391,2.651867389678955,3.914804220199585,-1.7134082317352295,1.485426425933838,4.5871686935424805
407,22411,22412,0.08222611993551254,-0.01924128644168377,1.0990689992904663,-14.138907432556152,26.99992561340332,-23.655420303344727,0.6029698252677917,2.6458675861358643,3.9298033714294434,-1.9833765029907227,1.5862475633621216,4.413546562194824
408,22421,22422,0.09164776653051376,0.06944610178470612,1.0893915891647339,-13.94068717956543,6.9220781326293945,-29.152984619140625,0.616469144821167,2.6353681087493896,3.9193038940429688,-2.250931978225708,1.2554072141647339,4.162786483764648
409,22431,22432,0.0478924997150898,0.007631312590092421,1.0941351652145386,-8.307917594909668,-4.162052154541016,-37.16731262207031,0.6059696674346924,2.6188690662384033,3.9208037853240967,-2.3134169578552246,1.162665843963623,3.901639938354492
410,22441,22442,-0.10542891174554825,-0.2045920342206955,1.0843538045883179,2.5164661407470703,-19.429197311401367,-41.98402404785156,0.622468888759613,2.6383681297302246,3.913304328918457,-2.2415931224823,1.1366394758224487,3.5673606395721436
411,22451,22452,0.033858153969049454,-0.08093100786209106,1.0822829008102417,6.570075988769531,-42.634403228759766,-42.627235412597656,0.616469144821167,2.626368522644043,3.9343032836914062,-2.065807580947876,1.1498764753341675,3.1515095233917236
412,22461,22462,-0.003674423089250922,-0.1034197211265564,1.0543493032455444,-5.3498454093933105,-59.813907623291016,-42.1281623840332,0.6359682083129883,2.6188690662384033,3.9268035888671875,-1.6829817295074463,1.0661711692810059,2.6833767890930176
413,22471,22472,-0.02587917074561119,-0.25567686557769775,1.0074989795684814,-23.849184036254883,-74.13360595703125,-40.3745002746582,0.6329683661460876,2.62786865234375,3.9268035888671875,-1.060374140739441,1.2273757457733154,2.306264638900757
414,22481,22482,0.008048098534345627,-0.10919894278049469,1.0540218353271484,-35.33399963378906,-82.75474548339844,-38.64552307128906,0.6284685730934143,2.6353681087493896,3.9343032836914062,-0.21694032847881317,1.0836220979690552,1.8947439193725586
415,22491,22492,0.018695838749408722,-0.054997462779283524,1.0322149991989136,-45.24618148803711,-74.04337310791016,-39.334754943847656,0.6554672122001648,2.6443676948547363,3.9523022174835205,0.6599219441413879,0.48289039731025696,1.4243662357330322
416,22501,22502,-0.000502081005834043,-0.08786915987730026,0.9313665628433228,-63.60990524291992,-45.90512466430664,-39.218971252441406,0.6554672122001648,2.6443676948547363,3.9223039150238037,1.447069764137268,0.03477341681718826,1.0223618745803833
417,22511,22512,-0.005574582144618034,-0.06948908418416977,1.0056941509246826,-75.00109100341797,-1.105427622795105,-39.44863510131836,0.6539672613143921,2.624868631362915,3.9268035888671875,1.6349562406539917,-0.49801012873649597,0.6684336066246033
418,22521,22522,-0.03536410257220268,-0.07496991008520126,1.0145905017852783,-66.61371612548828,49.160301208496094,-40.42333221435547,0.6479675769805908,2.648867607116699,3.9328033924102783,1.7673020362854004,-1.2036699056625366,0.273527055978775
419,22531,22532,0.03927724435925484,-0.05156555026769638,1.0473366975784302,-21.00510597229004,92.84742736816406,-42.40908432006836,0.6434678435325623,2.680366039276123,3.9343032836914062,1.3066589832305908,-1.6153826713562012,-0.11072327196598053
420,22541,22542,0.07604590058326721,-0.016833262518048286,1.1396689414978027,52.883724212646484,106.76787567138672,-47.38947296142578,0.6089695692062378,2.708864450454712,3.9478025436401367,0.23677170276641846,-1.9215511083602905,-0.5197213888168335
421,22551,22552,0.06096595153212547,-0.08743716031312943,1.0864249467849731,102.42532348632812,98.0850601196289,-51.563873291015625,0.5999699831008911,2.705864667892456,3.96580171585083,-0.9548431038856506,-1.157160758972168,-0.9627577066421509
422,22561,22562,0.0379527322947979,-0.10435546934604645,1.0672502517700195,106.2629165649414,80.2138900756836,-48.91998291015625,0.622468888759613,2.6743662357330322,3.9583020210266113,-1.469375729560852,-0.15457773208618164,-1.6108489036560059
423,22571,22572,0.030110394582152367,-0.11537855863571167,1.0830034017562866,78.5264663696289,51.48555374145508,-39.70625305175781,0.622468888759613,2.6743662357330322,3.9583020210266113,-2.4150454998016357,1.0493944883346558,-2.051490068435669
424,22581,22582,0.03963179513812065,-0.24730117619037628,1.065694808959961,24.59724235534668,30.645952224731445,-29.497404098510742,0.622468888759613,2.6743662357330322,3.9583020210266113,-2.9043540954589844,1.7076404094696045,-2.4904825687408447
425,22591,22592,0.012984666973352432,-0.20777474343776703,1.0106279850006104,-59.42253112792969,24.539417266845703,-9.710424423217773,0.622468888759613,2.6743662357330322,3.9583020210266113,-3.2328779697418213,1.8937889337539673,-2.831456422805786
426,22601,22602,0.005289905704557896,-0.08047357201576233,0.9690638184547424,-121.99806213378906,18.823041915893555,5.761526107788086,0.6209689378738403,2.6158690452575684,3.908804416656494,-3.433466672897339,1.3607666492462158,-2.9860267639160156
427,22611,22612,0.0029824767261743546,-0.07996228337287903,0.9544433355331421,-154.30734252929688,8.87904167175293,13.77122974395752,0.6374680995941162,2.653367280960083,3.937303066253662,-3.672806739807129,-0.029912877827882767,-3.0059971809387207
428,22621,22622,-0.0040250071324408054,-0.0674206092953682,0.9538336396217346,-142.56500244140625,-25.39376449584961,15.990192413330078,0.6344682574272156,2.6743662357330322,3.9283034801483154,-3.787416458129883,-1.887446641921997,-2.9968478679656982
429,22631,22632,-0.016843575984239578,-0.0007459358312189579,1.0230414867401123,-115.82355499267578,-60.17943572998047,16.29486846923828,0.6404679417610168,2.680366039276123,3.9283034801483154,-3.696289539337158,-2.6962177753448486,-2.58046817779541
430,22641,22642,-0.02320229634642601,-0.05646488443017006,0.9974497556686401,-77.36734771728516,-81.41029357910156,15.00425910949707,0.6524673700332642,2.659367084503174,3.9253036975860596,-2.981658935546875,-3.8756535053253174,-2.4285428524017334
431,22651,22652,0.03136734291911125,-0.0021575293503701687,1.1042964458465576,-40.98402786254883,-96.7540054321289,17.454383850097656,0.6374680995941162,2.647367477416992,3.916304111480713,-2.4965121746063232,-4.447532653808594,-2.0354268550872803
432,22661,22662,0.10662093758583069,-0.0022544069215655327,1.0047684907913208,-3.8547041416168213,-99.35807800292969,20.330434799194336,0.6494675278663635,2.653367280960083,3.9223039150238037,-1.277912974357605,-5.058901309967041,-1.956511378288269
433,22671,22672,-0.040312349796295166,-0.05852331593632698,0.9946760535240173,34.35366439819336,-81.34833526611328,25.59839630126953,0.6494675278663635,2.6443676948547363,3.913304328918457,-0.3344397246837616,-5.146483421325684,-1.6591174602508545
434,22681,22682,-0.09191974997520447,-0.017170220613479614,1.1038020849227905,66.58902740478516,-52.79896926879883,28.561330795288086,0.6449677348136902,2.6368680000305176,3.917804002761841,0.04535164684057236,-4.881213188171387,-1.1216787099838257
435,22691,22692,0.02051297016441822,0.09786766767501831,1.1755226850509644,80.23298645019531,-21.09932518005371,28.22589874267578,0.6434678435325623,2.647367477416992,3.9283034801483154,0.681096076965332,-4.0684051513671875,-0.7663137912750244
436,22701,22702,-0.029353652149438858,-0.00497588561847806,1.0307321548461914,71.00819396972656,4.208242416381836,26.183231353759766,0.6539672613143921,2.6368680000305176,3.911804437637329,0.9259430766105652,-3.5932300090789795,-0.546886682510376
437,22711,22712,0.01698204316198826,-0.04285183921456337,0.9650006890296936,39.7298469543457,21.172096252441406,25.114755630493164,0.6524673700332642,2.6083695888519287,3.9043047428131104,0.7425404787063599,-2.693147659301758,-0.1289433240890503
438,22721,22722,-0.012148594483733177,0.006646095309406519,1.0233999490737915,-11.489892959594727,25.298442840576172,24.41512107849121,0.6449677348136902,2.5798709392547607,3.917804002761841,0.4445798695087433,-2.452897071838379,0.14276091754436493
439,22731,22732,-0.05442730709910393,-0.2524152994155884,0.9089139699935913,-66.18417358398438,19.282711029052734,25.136667251586914,0.6449677348136902,2.6128692626953125,3.917804002761841,0.16174332797527313,-2.52315354347229,0.3868213891983032
440,22741,22742,-0.07153678685426712,-0.15533079206943512,1.004909634590149,-109.16883850097656,14.80289363861084,25.438644409179688,0.6599670052528381,2.6398680210113525,3.917804002761841,-0.023871110752224922,-3.458575487136841,0.5512371063232422
441,22751,22752,-0.006747381296008825,0.02718702331185341,1.0934369564056396,-128.04074096679688,7.56035852432251,23.677509307861328,0.6404679417610168,2.6683664321899414,3.9253036975860596,-0.14173032343387604,-4.481433391571045,0.7621406316757202
442,22761,22762,-0.01966910995543003,-0.009063112549483776,0.9984776973724365,-124.29398345947266,-0.9753602147102356,20.258892059326172,0.6479675769805908,2.6728663444519043,3.9238038063049316,-0.28902772068977356,-6.078925132751465,0.9719207286834717
443,22771,22772,-0.04246522858738899,0.05780838802456856,1.123033881187439,-98.14456939697266,-11.250770568847656,14.425274848937988,0.6479675769805908,2.6728663444519043,3.908804416656494,-0.24151435494422913,-7.026642322540283,1.1606723070144653
444,22781,22782,0.00278551341034472,0.04814598336815834,1.0915026664733887,-46.82045364379883,-20.774208068847656,9.606948852539062,0.6749662160873413,2.648867607116699,3.917804002761841,-0.09285084158182144,-8.240503311157227,1.2404577732086182
445,22791,22792,-0.03563442826271057,0.002460125368088484,1.041634440422058,22.663673400878906,-27.2474365234375,4.4394965171813965,0.6734663248062134,2.596370220184326,3.892305374145508,0.05824001878499985,-8.606560707092285,1.4071077108383179
446,22801,22802,-0.030726781114935875,0.013496072962880135,1.040751338005066,90.1545181274414,-30.865032196044922,1.4625910520553589,0.6479675769805908,2.594870090484619,3.8758060932159424,0.41212698817253113,-8.291467666625977,1.4256010055541992
447,22811,22812,0.05645093694329262,0.002406100044026971,0.96689772605896,139.50045776367188,-27.95615577697754,1.5059173107147217,0.6509674191474915,2.6098694801330566,3.8938052654266357,0.6625544428825378,-7.322880268096924,1.5456846952438354
448,22821,22822,-0.0294595118612051,-0.013202521950006485,0.9701585173606873,159.03041076660156,-28.477514266967773,1.008076786994934,0.6539672613143921,2.6128692626953125,3.9058046340942383,0.8852539658546448,-6.254286289215088,1.6434775590896606
449,22831,22832,-0.004901365842670202,-0.03621457889676094,0.9201671481132507,154.0681915283203,-28.48968505859375,3.9863741397857666,0.6464676856994629,2.5903704166412354,3.9043047428131104,1.4032835960388184,-4.365981101989746,1.4216645956039429
450,22841,22842,0.01276691909879446,-0.05321104824542999,0.9125223159790039,142.23854064941406,-15.895567893981934,7.2347846031188965,0.6434678435325623,2.5633718967437744,3.9043047428131104,1.5352157354354858,-3.190915107727051,1.6489919424057007
451,22851,22852,0.04853955656290054,-0.07605991512537003,0.9768164157867432,123.65228271484375,-0.9230316281318665,10.400156021118164,0.6584670543670654,2.5513722896575928,3.892305374145508,1.6852596998214722,-1.5479928255081177,1.7459393739700317
452,22861,22862,-0.021339135244488716,-0.04838818311691284,1.009867548942566,91.83997344970703,18.209712982177734,15.897644996643066,0.6614668965339661,2.542372941970825,3.907304525375366,1.7174499034881592,0.05212998017668724,1.8093125820159912
453,22871,22872,-0.021686987951397896,-0.06850332021713257,0.9623857736587524,49.744503021240234,38.17872619628906,24.156694412231445,0.6704664826393127,2.5333733558654785,3.8953051567077637,1.602486252784729,0.5357251167297363,1.9771091938018799
454,22881,22882,-0.0230124332010746,-0.09395718574523926,0.9262096285820007,11.41380500793457,47.62459182739258,32.99967575073242,0.6494675278663635,2.5063745975494385,3.8953051567077637,1.2235437631607056,1.1788675785064697,2.2249915599823
455,22891,22892,-0.0162984486669302,-0.026118088513612747,1.0312877893447876,-31.759902954101562,54.35447311401367,41.75093460083008,0.6629668474197388,2.516874074935913,3.9058046340942383,0.9313356280326843,1.167667031288147,2.434645652770996
456,22901,22902,0.007120163645595312,-0.03599920496344566,1.0142046213150024,-60.92619705200195,61.46302795410156,48.37775802612305,0.6359682083129883,2.5618717670440674,3.8938052654266357,0.13663513958454132,0.776732861995697,3.0691964626312256
457,22911,22912,0.12926016747951508,0.05038527399301529,0.9800578355789185,-68.88890838623047,50.470703125,50.86137771606445,0.6464676856994629,2.5813708305358887,3.9283034801483154,-0.5093657374382019,0.05895697697997093,3.5950980186462402
458,22921,22922,0.035162895917892456,0.0032387101091444492,1.0430424213409424,-58.74578857421875,21.055017471313477,47.34022521972656,0.6374680995941162,2.5903704166412354,3.910304307937622,-0.882757306098938,-0.5405912399291992,4.000426769256592
459,22931,22932,-0.02322784624993801,-0.025352060794830322,1.0375349521636963,-34.05956268310547,-2.5045809745788574,41.409645080566406,0.6419678926467896,2.5798709392547607,3.914804220199585,-1.1132586002349854,-1.2615528106689453,4.4642510414123535
460,22941,22942,0.031409017741680145,-0.07604587078094482,0.9822592735290527,4.240835666656494,-20.54163360595703,35.502017974853516,0.6299684643745422,2.549872398376465,3.9058046340942383,-1.093056559562683,-1.7274216413497925,4.860012054443359
461,22951,22952,-0.02250027097761631,-0.02172413095831871,1.0161638259887695,37.838714599609375,-37.42874526977539,28.08605194091797,0.6404679417610168,2.548372507095337,3.8983049392700195,-0.8228565454483032,-1.5656009912490845,5.163061618804932
462,22961,22962,0.036523085087537766,-0.009234551340341568,0.9840444922447205,62.983238220214844,-50.51948165893555,21.931039810180664,0.6314684152603149,2.5573720932006836,3.910304307937622,-0.6300048232078552,-1.2530622482299805,5.535736560821533
463,22971,22972,-0.0515364408493042,0.013727148994803429,1.0226495265960693,74.10174560546875,-57.164794921875,18.230010986328125,0.6389680504798889,2.5528724193573,3.9058046340942383,0.20414158701896667,-0.3756897449493408,5.593728542327881
464,22981,22982,0.07007165253162384,-0.042969994246959686,0.8944301605224609,69.38374328613281,-57.22502899169922,21.340431213378906,0.6539672613143921,2.5528724193573,3.914804220199585,0.8425407409667969,0.02758806385099888,5.748174667358398
465,22991,22992,-0.0735926404595375,-0.0953821912407875,0.9225576519966125,53.52571105957031,-52.15810012817383,20.024978637695312,0.6419678926467896,2.549872398376465,3.8998048305511475,1.42460036277771,0.6626618504524231,5.948000431060791
466,23001,23002,0.004715425428003073,-0.08727678656578064,0.8548963665962219,31.064380645751953,-38.82789611816406,17.86849021911621,0.6464676856994629,2.548372507095337,3.9193038940429688,1.9950093030929565,1.1195117235183716,6.135743141174316
467,23011,23012,-0.045611701905727386,-0.1288110613822937,0.8554365038871765,10.983455657958984,-20.75383186340332,14.288774490356445,0.6569671630859375,2.540872812271118,3.9058046340942383,2.3420002460479736,1.3740971088409424,6.338706970214844
468,23021,23022,0.013992216438055038,-0.08240092545747757,0.8683089017868042,-5.862919330596924,-3.2027089595794678,10.522078514099121,0.6554672122001648,2.5273735523223877,3.916304111480713,2.539560556411743,1.5915135145187378,6.4856767654418945
469,23031,23032,-0.013936308212578297,-0.014686964452266693,0.9615767598152161,-16.57528305053711,7.867944240570068,6.102687358856201,0.6509674191474915,2.5648717880249023,3.9028048515319824,2.6011552810668945,1.5791054964065552,6.593090534210205
470,23041,23042,-0.10217072069644928,-0.07504130154848099,0.9446731209754944,-25.903902053833008,14.853155136108398,2.1566555500030518,0.6479675769805908,2.567871570587158,3.9268035888671875,2.5764753818511963,1.3906842470169067,6.664432525634766
471,23051,23052,-0.050513703376054764,-0.024046503007411957,0.9973998069763184,-28.005239486694336,20.61150550842285,0.04080741107463837,0.6494675278663635,2.578371047973633,3.910304307937622,2.3590312004089355,1.067440390586853,6.728853702545166
472,23061,23062,0.027043147012591362,0.059309836477041245,1.0219236612319946,-27.737165451049805,23.22686004638672,-2.35868501663208,0.6329683661460876,2.606869697570801,3.9298033714294434,2.0284230709075928,0.6991147398948669,6.769964694976807
473,23071,23072,0.002633054740726948,-0.019619112834334373,0.9531797170639038,-20.27367401123047,22.197566986083984,-4.164236545562744,0.623968780040741,2.606869697570801,3.908804416656494,1.785279393196106,0.4166252613067627,6.753410816192627
474,23081,23082,-0.020208103582262993,-0.07179995626211166,0.9085662961006165,-6.4142560958862305,17.79637908935547,-6.689995288848877,0.6359682083129883,2.5888705253601074,3.914804220199585,1.5571002960205078,0.3876071870326996,6.661618232727051
475,23091,23092,-0.03240158408880234,0.04440582916140556,1.013601541519165,11.17440414428711,9.73802661895752,-8.498615264892578,0.6299684643745422,2.5888705253601074,3.9058046340942383,1.2671067714691162,0.15029281377792358,6.643822193145752
476,23101,23102,0.005025081802159548,0.08565074950456619,0.9994076490402222,29.187477111816406,4.379348278045654,-9.280264854431152,0.6404679417610168,2.5843708515167236,3.910304307937622,1.1555205583572388,0.41399288177490234,6.515365123748779
477,23111,23112,0.011862609535455704,0.06294305622577667,1.0864568948745728,51.51542282104492,4.090035915374756,-9.57021427154541,0.6269686222076416,2.60086989402771,3.914804220199585,1.1195193529129028,0.8863283395767212,6.364647388458252
478,23121,23122,0.015569117851555347,0.00822342000901699,1.0624773502349854,65.28128814697266,2.7367632389068604,-6.708261966705322,0.622468888759613,2.5813708305358887,3.9193038940429688,1.0944029092788696,1.758117914199829,6.1560492515563965
479,23131,23132,-0.05252159386873245,-0.10440899431705475,0.9355652928352356,59.57209396362305,1.444036602973938,-2.8983020782470703,0.6389680504798889,2.573871374130249,3.9328033924102783,1.0455684661865234,1.7755869626998901,6.251633167266846
480,23141,23142,-0.008679709397256374,-0.007291595451533794,1.0022293329238892,45.43009567260742,-5.651058197021484,-0.5685538053512573,0.6389680504798889,2.549872398376465,3.8998048305511475,1.0314730405807495,2.4466233253479004,6.195839881896973
481,23151,23152,-0.009596247225999832,-0.13662882149219513,0.846594512462616,42.334407806396484,-13.15899658203125,1.5840301513671875,0.6404679417610168,2.5393729209899902,3.9043047428131104,1.1616616249084473,2.851865768432617,6.216451644897461
482,23161,23162,0.05509530380368233,-0.14870449900627136,0.9692327380180359,28.948318481445312,-1.2653559446334839,4.702922344207764,0.6359682083129883,2.543872833251953,3.8938052654266357,1.318381667137146,3.2569868564605713,6.236640930175781
483,23171,23172,0.03606134280562401,-0.07413670420646667,1.0892661809921265,2.174797773361206,28.841808319091797,9.321887016296387,0.6329683661460876,2.5258736610412598,3.908804416656494,1.2991306781768799,3.723895788192749,6.222257137298584
