,timestamp_start,timestamp_end,acc.x,acc.y,acc.z,gyro.x,gyro.y,gyro.z,mag.x,mag.y,mag.z,stabilizer.pitch,stabilizer.roll,stabilizer.yaw
0,103530,103531,-0.019751502200961113,-0.10922551900148392,0.9650066494941711,-9.153899192810059,-11.320723533630371,3.4616432189941406,0.6569671630859375,2.5858707427978516,3.8788058757781982,-0.7261238694190979,-3.0114240646362305,-2.4100873470306396
1,103540,103541,-0.018046827986836433,-0.1071760505437851,0.9650716185569763,-13.251213073730469,-17.436382293701172,-0.19575048983097076,0.6569671630859375,2.5858707427978516,3.8788058757781982,-0.4836103320121765,-3.0557422637939453,-2.3885836601257324
2,103550,103551,-0.13873302936553955,-0.29398587346076965,0.9478081464767456,-8.26999568939209,-24.006013870239258,-2.6916396617889404,0.6569671630859375,2.5858707427978516,3.8788058757781982,-0.2326274812221527,-3.214785099029541,-2.391739845275879
3,103560,103561,-0.06390296667814255,-0.1763291358947754,0.9277397990226746,-5.813676357269287,-27.617950439453125,-2.762327194213867,0.6569671630859375,2.654867172241211,3.908804416656494,0.001089979661628604,-3.2204296588897705,-2.4140517711639404
4,103570,103571,0.015682488679885864,-0.11556748300790787,0.9416447281837463,-4.353488445281982,-26.54883575439453,-0.6383240818977356,0.6374680995941162,2.6383681297302246,3.9043047428131104,0.44915103912353516,-3.3246383666992188,-2.4082834720611572
5,103580,103581,0.001648720121011138,-0.09431947022676468,1.014963150024414,1.9781559705734253,-17.006254196166992,1.581114649772644,0.6539672613143921,2.6398680210113525,3.9058046340942383,0.5161178708076477,-3.1822509765625,-2.4013285636901855
6,103590,103591,-0.05694238096475601,-0.1860762983560562,0.9771063327789307,13.36704158782959,-9.0624418258667,3.2689144611358643,0.6584670543670654,2.656367063522339,3.913304328918457,0.5008280873298645,-3.04654860496521,-2.373408794403076
7,103600,103601,-0.00951599795371294,-0.18066361546516418,1.004868745803833,21.368833541870117,-10.018362998962402,3.816236734390259,0.6404679417610168,2.6443676948547363,3.8983049392700195,0.6786553859710693,-2.8754475116729736,-2.331073522567749
8,103610,103611,0.011400534771382809,-0.125557079911232,0.985292375087738,16.9932861328125,-10.997404098510742,6.944685935974121,0.6539672613143921,2.648867607116699,3.911804437637329,0.6057292222976685,-2.6340420246124268,-2.2816169261932373
9,103620,103621,-0.03398733213543892,-0.1227160170674324,1.004498839378357,-2.8665659427642822,-2.0897419452667236,8.398043632507324,0.6539672613143921,2.651867389678955,3.9058046340942383,0.7328488826751709,-2.6533684730529785,-2.185276746749878
10,103630,103631,-0.06194708123803139,-0.15480127930641174,1.0064032077789307,-13.092345237731934,1.9218260049819946,5.450231075286865,0.6659666895866394,2.6368680000305176,3.8968050479888916,0.6661093235015869,-2.7939350605010986,-2.1165552139282227
11,103640,103641,-0.050992775708436966,-0.4202563762664795,0.9538453817367554,-20.561677932739258,-1.9658417701721191,0.7343367338180542,0.6539672613143921,2.651867389678955,3.8998048305511475,0.7091028690338135,-2.870006561279297,-2.093231201171875
12,103650,103651,0.00983534287661314,-0.28636643290519714,1.0261850357055664,-33.22001266479492,-0.525436282157898,-0.9853358268737793,0.6509674191474915,2.6338682174682617,3.908804416656494,0.7030152678489685,-2.975161075592041,-2.11431884765625
13,103660,103661,-0.0007457727915607393,-0.08183508366346359,1.0257980823516846,-35.631771087646484,2.117236614227295,-0.5642228126525879,0.6554672122001648,2.656367063522339,3.892305374145508,0.7252256870269775,-3.4167065620422363,-2.1168956756591797
14,103670,103671,-0.002162723569199443,-0.08817633986473083,0.9729875326156616,-29.902935028076172,6.483702659606934,2.24643611907959,0.6479675769805908,2.6458675861358643,3.9028048515319824,0.5918225049972534,-3.7558538913726807,-2.1115682125091553
15,103680,103681,-0.011381618678569794,-0.05125631019473076,1.0575053691864014,-18.64960289001465,3.8491933345794678,2.024627923965454,0.6704664826393127,2.653367280960083,3.9223039150238037,0.5091063976287842,-3.7537014484405518,-2.1153597831726074
16,103690,103691,-0.01362092886120081,-0.09048429876565933,0.9776932597160339,-7.868373870849609,-7.811790943145752,1.3238803148269653,0.6554672122001648,2.647367477416992,3.9043047428131104,0.5365524291992188,-3.987671375274658,-2.081062078475952
17,103700,103701,0.024059033021330833,-0.05594596266746521,0.9978582262992859,-1.0142583847045898,-14.628766059875488,0.6715307235717773,0.6614668965339661,2.629368543624878,3.8983049392700195,0.756608247756958,-3.8815033435821533,-2.079775333404541
18,103710,103711,-0.05431842803955078,-0.08781411498785019,0.996070146560669,16.97823715209961,-14.391243934631348,1.5536926984786987,0.6599670052528381,2.6158690452575684,3.8998048305511475,1.0111956596374512,-3.7946290969848633,-2.0537357330322266
19,103720,103721,-0.07894299179315567,-0.20952613651752472,0.9540243744850159,31.863773345947266,-11.178865432739258,-0.049628566950559616,0.6584670543670654,2.6173691749572754,3.907304525375366,1.1554639339447021,-3.465801477432251,-2.044038772583008
20,103730,103731,-0.05261203274130821,-0.2399139106273651,0.9789186716079712,29.935209274291992,6.232309341430664,-1.0724544525146484,0.6554672122001648,2.6173691749572754,3.9013049602508545,1.1122370958328247,-3.034428119659424,-2.0628175735473633
21,103740,103741,0.006239745765924454,-0.08020719885826111,1.0134596824645996,35.26613998413086,26.54542350769043,-3.3525826930999756,0.6569671630859375,2.621868848800659,3.8998048305511475,0.8367173075675964,-2.73693585395813,-2.0886003971099854
22,103750,103751,0.02720983326435089,-0.05499497801065445,1.1218007802963257,39.94569778442383,32.0134391784668,-4.965551853179932,0.6464676856994629,2.6413679122924805,3.8953051567077637,0.4577174186706543,-2.3304262161254883,-2.146908760070801
23,103760,103761,-0.045916665345430374,-0.18476787209510803,1.0278345346450806,35.799015045166016,25.556142807006836,-4.583648681640625,0.6359682083129883,2.6398680210113525,3.8968050479888916,0.11228083074092865,-1.8460177183151245,-2.218251943588257
24,103770,103771,-0.01095687597990036,-0.21954753994941711,1.0434801578521729,20.15875244140625,15.264801025390625,-2.764754295349121,0.6299684643745422,2.6338682174682617,3.9028048515319824,-0.04708004742860794,-1.5146886110305786,-2.265540361404419
25,103780,103781,-0.008544876240193844,-0.15235520899295807,1.0394788980484009,-4.246410369873047,3.61944317817688,-2.277428388595581,0.6404679417610168,2.596370220184326,3.889305353164673,-0.04078587144613266,-1.5809764862060547,-2.2767579555511475
26,103790,103791,0.02712167054414749,-0.142555370926857,1.0408096313476562,-20.1726016998291,-2.5511202812194824,-1.4492359161376953,0.6539672613143921,2.597870111465454,3.8938052654266357,-0.04259078949689865,-1.8518272638320923,-2.2850887775421143
27,103800,103801,-0.005414518062025309,-0.17785297334194183,0.9942560791969299,-27.62242317199707,-11.486533164978027,0.09429838508367538,0.6584670543670654,2.5873706340789795,3.8953051567077637,0.012298578396439552,-2.156947374343872,-2.2858200073242188
28,103810,103811,0.01845184713602066,-0.08635805547237396,1.0273933410644531,-24.362703323364258,-27.818971633911133,1.255565881729126,0.6674666404724121,2.5903704166412354,3.889305353164673,0.32276710867881775,-2.4226715564727783,-2.2617506980895996
29,103820,103821,-0.0167319867759943,-0.12750446796417236,0.9987061023712158,-8.180062294006348,-39.9831428527832,0.6651461124420166,0.6629668474197388,2.603869676589966,3.89080548286438,0.6708062291145325,-2.3281466960906982,-2.2576637268066406
30,103830,103831,-0.05188958719372749,-0.11591745167970657,1.0597481727600098,10.246698379516602,-29.814302444458008,1.049688458442688,0.6569671630859375,2.5918703079223633,3.89080548286438,0.9367491006851196,-2.2311344146728516,-2.2494306564331055
31,103840,103841,0.06892484426498413,-0.06428632140159607,1.0995817184448242,20.01527976989746,-7.114506721496582,2.3877367973327637,0.6734663248062134,2.593370199203491,3.883305788040161,1.197123646736145,-2.051196336746216,-2.2189667224884033
32,103850,103851,0.06254450231790543,-0.09404006600379944,1.0031507015228271,19.598974227905273,11.343412399291992,1.639468789100647,0.6524673700332642,2.5873706340789795,3.9013049602508545,1.1015721559524536,-1.7904313802719116,-2.210073471069336
33,103860,103861,0.008325105533003807,-0.08925504982471466,1.0226753950119019,11.981358528137207,26.389127731323242,0.4904061257839203,0.6539672613143921,2.5888705253601074,3.89080548286438,0.8391843438148499,-1.583629846572876,-2.2153754234313965
34,103870,103871,-0.03895244374871254,-0.16427822411060333,0.9794579744338989,7.469700813293457,33.62123489379883,-0.515520453453064,0.6644667387008667,2.5843708515167236,3.9043047428131104,0.48497164249420166,-1.569820761680603,-2.2198686599731445
35,103880,103881,-0.07007890194654465,-0.2769306004047394,1.0859400033950806,10.357657432556152,35.79294204711914,-1.3413512706756592,0.6479675769805908,2.5888705253601074,3.8968050479888916,-0.0599210187792778,-1.4283775091171265,-2.2738265991210938
36,103890,103891,-0.013763504102826118,-0.18054157495498657,1.0515718460083008,6.534787178039551,32.65906524658203,-0.9347986578941345,0.6524673700332642,2.578371047973633,3.8953051567077637,-0.586256206035614,-1.3512251377105713,-2.317418336868286
37,103900,103901,-0.06936456263065338,-0.19519177079200745,1.1439915895462036,-3.06132173538208,20.217384338378906,0.5330553650856018,0.6644667387008667,2.575371265411377,3.886305570602417,-0.8090835213661194,-1.3557363748550415,-2.315302848815918
38,103910,103911,-0.01970748044550419,-0.11243841797113419,1.0001323223114014,-11.875885009765625,-2.7834296226501465,-0.028484048321843147,0.6509674191474915,2.573871374130249,3.9028048515319824,-0.6596115827560425,-1.5149009227752686,-2.2700130939483643
39,103920,103921,0.022913146764039993,-0.11282582581043243,0.9381606578826904,-18.139253616333008,-16.31301498413086,-2.325376033782959,0.6674666404724121,2.548372507095337,3.8803060054779053,-0.6019303798675537,-1.9328182935714722,-2.278345823287964
40,103930,103931,-0.01388318371027708,-0.08144629746675491,0.9684954285621643,-20.063339233398438,-15.672374725341797,-1.7481108903884888,0.6524673700332642,2.548372507095337,3.883305788040161,-0.5814551711082458,-2.188678503036499,-2.322340726852417
41,103940,103941,-0.08777496963739395,-0.1699792444705963,0.9561671018600464,-11.321259498596191,-10.482576370239258,-1.7758266925811768,0.6629668474197388,2.540872812271118,3.884805679321289,-0.336586594581604,-1.533156394958496,-2.3187243938446045
42,103950,103951,-0.030827336013317108,-0.11201221495866776,0.99797123670578,0.9394903779029846,-7.365483283996582,-2.7478301525115967,0.6479675769805908,2.5318734645843506,3.8698065280914307,-0.2980150282382965,-1.5535027980804443,-2.343755006790161
43,103960,103961,-0.006606379058212042,-0.1354490965604782,0.9363856911659241,4.250237941741943,-7.282808303833008,-3.2640342712402344,0.6584670543670654,2.515374183654785,3.889305353164673,-0.25740358233451843,-1.5934443473815918,-2.388180732727051
44,103970,103971,0.012008161284029484,-0.08557586371898651,0.9866629838943481,2.265697479248047,-6.039432525634766,0.14445453882217407,0.6659666895866394,2.5348732471466064,3.884805679321289,-0.12272540479898453,-1.47084641456604,-2.3820927143096924
45,103980,103981,0.005806442350149155,-0.07042711973190308,0.9117636680603027,-4.69924783706665,-8.496099472045898,2.13312029838562,0.6659666895866394,2.5528724193573,3.8788058757781982,0.03918096795678139,-1.5631755590438843,-2.3525023460388184
46,103990,103991,-0.039403945207595825,-0.12410103529691696,1.025404691696167,-7.019491672515869,-2.507347583770752,4.070231914520264,0.6659666895866394,2.5318734645843506,3.8788058757781982,0.16935481131076813,-1.5909428596496582,-2.3084676265716553
47,104000,104001,-0.03609239310026169,-0.06641265749931335,0.9869476556777954,-11.39231014251709,-1.5196272134780884,9.513907432556152,0.6599670052528381,2.5348732471466064,3.884805679321289,0.06147180497646332,-1.7290153503417969,-2.259594678878784
48,104010,104011,-0.04471614956855774,-0.10789039731025696,0.9263356924057007,-16.032346725463867,-7.6933674812316895,9.401552200317383,0.6494675278663635,2.545372724533081,3.886305570602417,0.13977958261966705,-1.9190433025360107,-2.1499369144439697
49,104020,104021,-0.005881628952920437,-0.05512301251292229,0.9563170671463013,-32.916160583496094,-17.651397705078125,8.586287498474121,0.6629668474197388,2.5348732471466064,3.8968050479888916,0.3690282106399536,-2.297341823577881,-2.036046266555786
50,104030,104031,-0.1380295306444168,-0.25549328327178955,0.9142282009124756,-41.572269439697266,-24.168540954589844,6.765408992767334,0.66896653175354,2.546872615814209,3.8728063106536865,0.7283716797828674,-2.58882474899292,-1.9242722988128662
51,104040,104041,-0.04090622812509537,-0.09190350770950317,1.0022443532943726,-48.08100128173828,-19.92190170288086,9.871145248413086,0.6479675769805908,2.567871570587158,3.89080548286438,0.8004084825515747,-2.9356918334960938,-1.8567616939544678
52,104050,104051,-0.017623882740736008,-0.07780634611845016,0.9586849212646484,-43.693641662597656,-16.17710304260254,15.243287086486816,0.6614668965339661,2.5603718757629395,3.892305374145508,1.108088731765747,-3.4767372608184814,-1.6920255422592163
53,104060,104061,-0.10292841494083405,-0.20203717052936554,0.9282237887382507,-23.85539436340332,-3.505103826522827,18.628633499145508,0.6674666404724121,2.5813708305358887,3.8983049392700195,1.1380748748779297,-3.676159620285034,-1.5282628536224365
54,104070,104071,-0.07134391367435455,-0.267368346452713,0.8328015208244324,-6.957335472106934,14.488500595092773,22.09222412109375,0.6644667387008667,2.569371461868286,3.889305353164673,1.0354057550430298,-3.8472378253936768,-1.3265520334243774
55,104080,104081,-0.017733434215188026,-0.1433355212211609,0.9087066054344177,10.782464981079102,27.892900466918945,23.942028045654297,0.6644667387008667,2.578371047973633,3.9013049602508545,0.744164228439331,-3.819876194000244,-1.1135202646255493
56,104090,104091,0.14409688115119934,0.07105112820863724,1.0475021600723267,30.72276496887207,30.49074363708496,22.494949340820312,0.6539672613143921,2.570871353149414,3.881805896759033,0.487801194190979,-3.5466952323913574,-0.8909972310066223
57,104100,104101,0.029737168923020363,-0.04782611131668091,0.9391100406646729,48.254730224609375,28.08016586303711,20.98503875732422,0.6629668474197388,2.5888705253601074,3.9058046340942383,0.062002912163734436,-2.9411773681640625,-0.7163696885108948
58,104110,104111,-0.15884974598884583,-0.3386523723602295,0.8216148614883423,54.3908576965332,20.03839111328125,20.22366714477539,0.6554672122001648,2.596370220184326,3.892305374145508,-0.27662068605422974,-2.5358433723449707,-0.5215513706207275
59,104120,104121,0.023535769432783127,-0.08099090307950974,0.8991816639900208,38.5984001159668,8.591423988342285,19.429811477661133,0.6509674191474915,2.5798709392547607,3.908804416656494,-0.25754785537719727,-1.9022475481033325,-0.31869858503341675
60,104130,104131,0.029960090294480324,-0.06908529251813889,0.7951099276542664,14.140871047973633,-7.170712947845459,16.443403244018555,0.6479675769805908,2.573871374130249,3.881805896759033,-0.38793623447418213,-1.769985556602478,-0.14730553328990936
61,104140,104141,-0.011033793911337852,-0.07518856227397919,0.8291755318641663,-14.005054473876953,-21.307466506958008,14.82547378540039,0.6434678435325623,2.5573720932006836,3.889305353164673,-0.0563688762485981,-2.0388736724853516,0.02817370742559433
62,104150,104151,-0.005484973080456257,-0.09212228655815125,0.8483789563179016,-39.10646057128906,-37.45379638671875,11.765585899353027,0.6494675278663635,2.5603718757629395,3.8773059844970703,0.42487895488739014,-2.487609386444092,0.1903858333826065
63,104160,104161,-0.03459969535470009,-0.055617187172174454,0.9344205260276794,-59.96111297607422,-42.97298049926758,7.103246688842773,0.6539672613143921,2.606869697570801,3.8998048305511475,0.7977671027183533,-2.9223721027374268,0.2942291498184204
64,104170,104171,-0.013083726167678833,-0.2669839560985565,0.7861235737800598,-80.01026916503906,-38.5356330871582,1.4516242742538452,0.6599670052528381,2.62786865234375,3.881805896759033,1.28354012966156,-3.6051294803619385,0.36339420080184937
65,104180,104181,-0.04297845810651779,-0.16795043647289276,0.8636686205863953,-78.34293365478516,-27.53620147705078,-2.68867564201355,0.6524673700332642,2.656367063522339,3.9043047428131104,1.5909597873687744,-4.398428916931152,0.37816402316093445
66,104190,104191,-0.046736132353544235,-0.09523683786392212,0.9714121222496033,-38.14365005493164,-11.023494720458984,-6.573795318603516,0.6524673700332642,2.677366018295288,3.910304307937622,1.7346259355545044,-5.0310163497924805,0.340224951505661
67,104200,104201,-0.012691248208284378,-0.04791724681854248,1.0016196966171265,4.959706783294678,9.145308494567871,-7.541742324829102,0.6644667387008667,2.659367084503174,3.9223039150238037,1.7347540855407715,-5.262435436248779,0.2684445083141327
68,104210,104211,-0.0451241061091423,-0.10571026802062988,0.9846000075340271,37.18668746948242,25.087406158447266,-4.5088210105896,0.66896653175354,2.648867607116699,3.8998048305511475,1.4701265096664429,-4.847178936004639,0.18063490092754364
69,104220,104221,-0.16563580930233002,-0.26355451345443726,1.037804365158081,65.9185791015625,41.006038665771484,-3.589968204498291,0.6449677348136902,2.6428678035736084,3.9058046340942383,1.0993238687515259,-4.02968692779541,0.0935828685760498
70,104230,104231,-0.03892524912953377,-0.07573363184928894,1.0680326223373413,86.09268188476562,49.43645477294922,-6.022832870483398,0.6389680504798889,2.6608669757843018,3.8968050479888916,0.7591449022293091,-3.3964974880218506,0.02058517001569271
71,104240,104241,-0.003803900210186839,-0.037823133170604706,1.0227422714233398,95.60110473632812,46.71641540527344,-7.096440315246582,0.6419678926467896,2.6368680000305176,3.9238038063049316,0.006024939939379692,-2.227933406829834,-0.06940680742263794
72,104250,104251,-8.321534551214427e-05,-0.05589788034558296,1.0213464498519897,92.79915618896484,36.885986328125,-7.815320014953613,0.6389680504798889,2.657866954803467,3.908804416656494,-0.3531043529510498,-1.1602625846862793,-0.17141957581043243
73,104260,104261,0.008305858820676804,-0.0821145623922348,1.016900897026062,81.39224243164062,21.172025680541992,-7.5994648933410645,0.6479675769805908,2.648867607116699,3.9208037853240967,-0.5419154763221741,-0.3731846511363983,-0.25297558307647705
74,104270,104271,0.02331729605793953,-0.06895437091588974,0.8453375697135925,61.781463623046875,5.18668270111084,-8.498773574829102,0.6434678435325623,2.629368543624878,3.910304307937622,-0.6086887121200562,0.20814692974090576,-0.3292836844921112
75,104280,104281,-0.04827652499079704,-0.09754783660173416,0.9442490339279175,28.45380401611328,-4.898724555969238,-9.659807205200195,0.6434678435325623,2.602369785308838,3.9043047428131104,-0.5521558523178101,0.403304785490036,-0.4089858829975128
76,104290,104291,0.003399832407012582,-0.10626129806041718,1.0565080642700195,-1.5847419500350952,-15.942883491516113,-11.383825302124023,0.6404679417610168,2.593370199203491,3.9193038940429688,-0.3799343705177307,0.5040759444236755,-0.5158645510673523
77,104300,104301,-0.02021630108356476,-0.172536239027977,0.8937619924545288,-13.53498363494873,-26.75849151611328,-11.884947776794434,0.6449677348136902,2.6188690662384033,3.8968050479888916,-0.06661006063222885,0.15731894969940186,-0.6239562630653381
78,104310,104311,-0.01830124668776989,-0.08936559408903122,0.998238742351532,-20.45763397216797,-22.831697463989258,-10.106643676757812,0.6539672613143921,2.6428678035736084,3.911804437637329,0.2732791602611542,-0.0746140107512474,-0.7292237281799316
79,104320,104321,0.06007532402873039,-0.049387603998184204,1.0143793821334839,-21.510183334350586,-9.3646879196167,-5.792348861694336,0.6494675278663635,2.6623668670654297,3.916304111480713,0.5066614151000977,-0.3693108856678009,-0.7985324263572693
80,104330,104331,-0.0700661763548851,-0.10630685836076736,0.9069150686264038,-17.031946182250977,8.89037799835205,-2.7263715267181396,0.6404679417610168,2.653367280960083,3.916304111480713,0.33791840076446533,-0.5239590406417847,-0.8637771606445312
81,104340,104341,-0.0712636336684227,-0.2258862555027008,0.946743905544281,-10.569872856140137,21.769861221313477,-1.1676305532455444,0.6509674191474915,2.6608669757843018,3.911804437637329,0.026524122804403305,-0.7093015313148499,-0.9087569117546082
82,104350,104351,0.021161718294024467,-0.2142481505870819,1.0878797769546509,-1.7868179082870483,34.31401824951172,0.7350613474845886,0.6389680504798889,2.6728663444519043,3.9208037853240967,-0.3385583460330963,-0.7539465427398682,-0.9210538268089294
83,104360,104361,0.031461987644433975,-0.11744040995836258,1.1865702867507935,27.56255531311035,36.89031982421875,-0.39102697372436523,0.6479675769805908,2.681865930557251,3.9328033924102783,-0.8033915162086487,-0.48848554491996765,-0.9404644966125488
84,104370,104371,0.09010361135005951,0.0686461552977562,1.2054346799850464,69.18310546875,34.016780853271484,-1.136614441871643,0.6209689378738403,2.6938652992248535,3.9298033714294434,-1.1641348600387573,0.239982470870018,-0.9473975300788879
85,104380,104381,0.03038567118346691,-0.07852471619844437,1.2280253171920776,93.01995086669922,33.64115905761719,-0.19085872173309326,0.6209689378738403,2.6938652992248535,3.9298033714294434,-1.3018014430999756,0.9932652711868286,-0.9179861545562744
86,104390,104391,0.0007771158125251532,-0.17193786799907684,1.1597050428390503,86.66094207763672,29.12506103515625,0.9470993280410767,0.6209689378738403,2.6938652992248535,3.9298033714294434,-1.6577364206314087,2.0655698776245117,-0.8986487984657288
87,104400,104401,0.012021053582429886,-0.20321740210056305,1.220900535583496,59.50798797607422,3.6302967071533203,-2.282421350479126,0.6359682083129883,2.684865713119507,3.93880295753479,-1.9282009601593018,2.520007610321045,-0.9467768669128418
88,104410,104411,0.07016060501337051,-0.18862608075141907,1.0234874486923218,31.71990966796875,-24.237064361572266,-5.42266321182251,0.6149692535400391,2.6608669757843018,3.935803174972534,-1.7219146490097046,3.119669198989868,-0.957785964012146
89,104420,104421,0.009876145049929619,-0.181472510099411,0.9797503352165222,-0.9133093953132629,-40.488121032714844,-11.58824634552002,0.6329683661460876,2.62786865234375,3.9268035888671875,-1.219286322593689,2.9868693351745605,-1.038488507270813
90,104430,104431,0.05692252144217491,-0.012320580892264843,1.0149096250534058,-37.96861267089844,-37.39194107055664,-13.68620777130127,0.6389680504798889,2.6188690662384033,3.917804002761841,-0.8706341981887817,2.733138084411621,-1.2063109874725342
91,104440,104441,-0.11481000483036041,-0.1792367398738861,0.9871588349342346,-66.9952392578125,-34.784236907958984,-13.973519325256348,0.6449677348136902,2.62786865234375,3.9058046340942383,-0.4453115165233612,2.13667631149292,-1.3378636837005615
92,104450,104451,-0.05473051965236664,-0.19055205583572388,1.1329388618469238,-87.43682861328125,-21.219905853271484,-12.76437759399414,0.6419678926467896,2.624868631362915,3.911804437637329,-0.32049059867858887,1.2822741270065308,-1.5478355884552002
93,104460,104461,0.13297457993030548,-0.07091163098812103,1.0476301908493042,-94.11581420898438,3.0578019618988037,-8.049365043640137,0.6389680504798889,2.651867389678955,3.9208037853240967,-0.19032101333141327,0.302469402551651,-1.625377893447876
94,104470,104471,0.1174648329615593,-0.009660536423325539,0.946999192237854,-77.36368560791016,19.639911651611328,1.8944917917251587,0.6284685730934143,2.6683664321899414,3.9283034801483154,-0.5589450001716614,-0.1738240122795105,-1.7069329023361206
95,104480,104481,0.03285634517669678,-0.013273528777062893,1.126779556274414,-35.06084060668945,27.0982666015625,13.817926406860352,0.6314684152603149,2.656367063522339,3.916304111480713,-1.0742636919021606,-0.8912001848220825,-1.7930870056152344
96,104490,104491,0.013294831849634647,0.08721240609884262,1.1496108770370483,3.683744192123413,37.83806610107422,19.602867126464844,0.6479675769805908,2.630868434906006,3.914804220199585,-1.4859296083450317,-0.8899662494659424,-1.6344232559204102
97,104500,104501,0.045728959143161774,0.04799586161971092,1.068630576133728,39.44697952270508,38.93537139892578,12.827371597290039,0.6404679417610168,2.6443676948547363,3.907304525375366,-1.757844090461731,-0.4514065384864807,-1.381583333015442
98,104510,104511,-0.0006312196492217481,-0.05762770026922226,1.032196044921875,54.725894927978516,19.845937728881836,7.778120040893555,0.6419678926467896,2.624868631362915,3.9058046340942383,-2.1177127361297607,0.35026785731315613,-1.2744752168655396
99,104520,104521,-0.10578075796365738,-0.27352234721183777,0.9591667056083679,50.52771759033203,0.7643698453903198,3.927912473678589,0.623968780040741,2.630868434906006,3.911804437637329,-2.2847096920013428,0.7566855549812317,-1.2707034349441528
100,104530,104531,-0.023396188393235207,-0.15364143252372742,1.0794754028320312,32.924808502197266,-17.53388786315918,-0.2457730621099472,0.6329683661460876,2.6158690452575684,3.9028048515319824,-2.137209415435791,1.2555392980575562,-1.2093369960784912
101,104540,104541,-0.029347343370318413,-0.11146748065948486,1.0143141746520996,4.112388610839844,-28.0036678314209,-3.8887031078338623,0.6419678926467896,2.5888705253601074,3.89080548286438,-1.8424792289733887,1.352158546447754,-1.2354274988174438
102,104550,104551,-0.0350511260330677,-0.10776606947183609,0.9495251178741455,-29.672697067260742,-33.618106842041016,-5.7308030128479,0.6329683661460876,2.567871570587158,3.8968050479888916,-1.3732398748397827,0.9960275292396545,-1.2682161331176758
103,104560,104561,0.016020359471440315,-0.04115240275859833,1.031398892402649,-49.18619918823242,-30.15318489074707,-7.732781887054443,0.6434678435325623,2.5543723106384277,3.8953051567077637,-0.88355952501297,0.3337614834308624,-1.321415901184082
104,104570,104571,-0.04055248945951462,-0.14434930682182312,1.0619642734527588,-54.99530792236328,-27.647817611694336,-7.971951007843018,0.6449677348136902,2.5648717880249023,3.887805461883545,-0.7120726108551025,0.132766455411911,-1.3847079277038574
105,104580,104581,-0.11925892531871796,-0.2574692368507385,0.9345042705535889,-55.346858978271484,-22.848907470703125,-9.329319953918457,0.6644667387008667,2.593370199203491,3.889305353164673,-0.4264986217021942,-0.6672271490097046,-1.5144410133361816
106,104590,104591,-0.0654880553483963,-0.1915322095155716,0.9657915830612183,-52.04853820800781,-19.90485191345215,-8.441489219665527,0.6629668474197388,2.570871353149414,3.8968050479888916,-0.3536149561405182,-0.9828106164932251,-1.6040266752243042
107,104600,104601,0.0036987795028835535,0.006164868362247944,1.0340604782104492,-38.71615219116211,-10.262073516845703,-8.806100845336914,0.6599670052528381,2.5828707218170166,3.884805679321289,-0.2882484495639801,-1.38801908493042,-1.722687005996704
108,104610,104611,0.06788821518421173,0.03610502928495407,1.055915117263794,-23.963075637817383,3.7427120208740234,-7.027328968048096,0.6599670052528381,2.5618717670440674,3.881805896759033,-0.18949073553085327,-1.7451345920562744,-1.7831519842147827
109,104620,104621,-0.05386153981089592,-0.12095938622951508,0.8986888527870178,-8.748915672302246,20.10740089416504,-5.950357437133789,0.6524673700332642,2.545372724533081,3.886305570602417,-0.43160393834114075,-1.9275518655776978,-1.901591181755066
110,104630,104631,0.01185691263526678,-0.09690923243761063,0.939957320690155,6.131755352020264,38.13885498046875,-1.9098408222198486,0.6494675278663635,2.5513722896575928,3.8773059844970703,-0.8713306784629822,-1.7950291633605957,-1.9655396938323975
111,104640,104641,0.012059545144438744,-0.0909072682261467,0.9447416067123413,20.508752822875977,44.312320709228516,-1.7600401639938354,0.6539672613143921,2.549872398376465,3.887805461883545,-1.3674230575561523,-1.7125427722930908,-2.027747631072998
112,104650,104651,0.05061466246843338,-0.12077680230140686,0.8813349008560181,30.687475204467773,30.650915145874023,-2.8887109756469727,0.6614668965339661,2.575371265411377,3.889305353164673,-1.7060920000076294,-1.2893317937850952,-2.0272932052612305
113,104660,104661,0.07848557829856873,-0.02652388997375965,0.8871508240699768,34.84719467163086,8.579007148742676,-5.286240577697754,0.6434678435325623,2.5543723106384277,3.8773059844970703,-1.9341120719909668,-1.0142537355422974,-2.09147310256958
114,104670,104671,0.007460626307874918,-0.05246588587760925,0.9233001470565796,28.548187255859375,-22.554866790771484,-8.007143020629883,0.6464676856994629,2.548372507095337,3.886305570602417,-1.6096895933151245,-0.5618489384651184,-2.0715384483337402
115,104680,104681,0.07270225882530212,0.03537490591406822,0.9678089022636414,15.742217063903809,-49.75558853149414,-8.86497688293457,0.6509674191474915,2.546872615814209,3.89080548286438,-1.0060502290725708,-0.3049573302268982,-2.0904526710510254
116,104690,104691,0.008690590038895607,-0.043906934559345245,0.9058497548103333,-2.2109663486480713,-68.49299621582031,-9.908631324768066,0.6524673700332642,2.5393729209899902,3.892305374145508,-0.6129514575004578,-0.5495959520339966,-2.297485113143921
117,104700,104701,0.04549723118543625,-0.0744672641158104,0.9682283401489258,-13.030051231384277,-72.62769317626953,-9.63044548034668,0.6539672613143921,2.5618717670440674,3.8968050479888916,0.395611047744751,-0.5955629348754883,-2.311192512512207
118,104710,104711,0.00447698961943388,-0.09637129306793213,0.821143627166748,-25.707284927368164,-67.61617279052734,-11.12915325164795,0.6644667387008667,2.5603718757629395,3.8953051567077637,0.8229559659957886,-0.932790994644165,-2.4997398853302
119,104720,104721,0.06864526122808456,-0.033063020557165146,0.8777250647544861,-39.489341735839844,-52.230472564697266,-11.739680290222168,0.6719663739204407,2.573871374130249,3.887805461883545,1.569766640663147,-1.3679125308990479,-2.582826614379883
120,104730,104731,0.08950120210647583,-0.00816812552511692,0.8519793748855591,-45.00484085083008,-40.18490982055664,-9.341044425964355,0.6704664826393127,2.5663716793060303,3.883305788040161,2.2266368865966797,-1.914951205253601,-2.6501007080078125
121,104740,104741,0.020800985395908356,-0.08319392055273056,0.9630887508392334,-19.815120697021484,-19.9141902923584,-5.403151512145996,0.6644667387008667,2.5873706340789795,3.8953051567077637,2.2590279579162598,-2.1406450271606445,-2.7566111087799072
122,104750,104751,-0.04910939186811447,-0.06336948275566101,1.0730996131896973,23.948890686035156,5.78593635559082,-2.9773967266082764,0.6734663248062134,2.602369785308838,3.9043047428131104,2.2951433658599854,-1.9299325942993164,-2.7843375205993652
123,104760,104761,0.28798720240592957,0.18255086243152618,1.068389892578125,62.85675811767578,34.306705474853516,-0.5636768341064453,0.6629668474197388,2.5888705253601074,3.884805679321289,1.8924407958984375,-1.3638256788253784,-2.835254192352295
124,104770,104771,0.08810972422361374,-0.001257596304640174,0.9946534037590027,91.71949005126953,54.618289947509766,1.272998332977295,0.6539672613143921,2.6188690662384033,3.911804437637329,1.235396146774292,-0.5041805505752563,-2.8647656440734863
125,104780,104781,-0.057084985077381134,-0.11751221120357513,0.9394301772117615,103.97198486328125,67.3011703491211,2.688202142715454,0.6569671630859375,2.6458675861358643,3.917804002761841,0.6362391114234924,0.2905508875846863,-2.833357810974121
126,104790,104791,0.021034976467490196,-0.14265073835849762,1.0773870944976807,103.87559509277344,69.1928939819336,6.644564628601074,0.6299684643745422,2.657866954803467,3.917804002761841,-0.22299663722515106,1.672544002532959,-2.8065435886383057
127,104800,104801,-0.07229316234588623,-0.1839248687028885,1.0276919603347778,91.69527435302734,60.42143630981445,11.166833877563477,0.6344682574272156,2.6413679122924805,3.916304111480713,-0.9621667861938477,2.6968603134155273,-2.7093863487243652
128,104810,104811,0.001402833848260343,0.006772772409021854,0.9310197830200195,51.9326057434082,58.711181640625,14.229838371276855,0.6359682083129883,2.62786865234375,3.911804437637329,-1.4172768592834473,3.0222771167755127,-2.5128660202026367
129,104820,104821,-0.009351328946650028,-0.10944010317325592,1.08884859085083,6.427316188812256,44.690223693847656,17.08453369140625,0.6449677348136902,2.606869697570801,3.914804220199585,-2.147764205932617,3.283318042755127,-2.366238594055176
130,104830,104831,-0.053681470453739166,-0.10018850862979889,0.9192777872085571,-38.521793365478516,18.289066314697266,19.040632247924805,0.622468888759613,2.6173691749572754,3.916304111480713,-2.3543522357940674,2.997514486312866,-2.1518959999084473
131,104840,104841,0.03355418145656586,-0.05099688097834587,0.8659719228744507,-61.21748733520508,-24.044404983520508,17.10503387451172,0.6419678926467896,2.630868434906006,3.9208037853240967,-2.2498679161071777,2.3492817878723145,-1.9599837064743042
132,104850,104851,0.003306912025436759,-0.049793437123298645,1.0692113637924194,-64.5062255859375,-69.11859893798828,13.38052749633789,0.6284685730934143,2.632368326187134,3.916304111480713,-1.4125672578811646,1.4889329671859741,-1.7329771518707275
133,104860,104861,-0.003923468757420778,-0.04892518371343613,1.0351459980010986,-55.05558776855469,-116.42156982421875,8.959844589233398,0.622468888759613,2.647367477416992,3.913304328918457,-0.322719931602478,0.9818242788314819,-1.6074284315109253
134,104870,104871,-0.16745157539844513,-0.26649928092956543,1.0926038026809692,-41.72806930541992,-149.79959106445312,0.9064868092536926,0.6494675278663635,2.6683664321899414,3.9283034801483154,1.4230550527572632,0.5284779667854309,-1.4420853853225708
135,104880,104881,-0.12768544256687164,-0.22054900228977203,1.1940486431121826,-17.603269577026367,-158.08721923828125,-2.1098620891571045,0.66896653175354,2.6728663444519043,3.935803174972534,2.676391363143921,0.21144701540470123,-1.5678588151931763
136,104890,104891,0.03777597099542618,-0.1986430585384369,1.1657938957214355,5.327120304107666,-149.73439025878906,-0.8397178649902344,0.6749662160873413,2.6668665409088135,3.9268035888671875,4.685006141662598,0.14125822484493256,-1.4135648012161255
137,104900,104901,0.04512608423829079,-0.1919272094964981,1.1387543678283691,42.30486297607422,-119.4534912109375,-1.642098069190979,0.6779661178588867,2.654867172241211,3.908804416656494,5.621626377105713,0.3453283905982971,-1.5626567602157593
138,104910,104911,0.014472824521362782,-0.1415432095527649,1.0460805892944336,71.13597106933594,-79.0329360961914,1.3059537410736084,0.7034648060798645,2.626368522644043,3.9193038940429688,6.717366695404053,1.2151198387145996,-1.5682487487792969
139,104920,104921,-0.01103525422513485,-0.13278153538703918,0.9746547937393188,92.22605895996094,-19.521577835083008,4.393057823181152,0.7004649639129639,2.569371461868286,3.8953051567077637,7.199911117553711,2.31599497795105,-1.594529151916504
140,104930,104931,-0.0031900713220238686,-0.0801469162106514,0.8754431009292603,100.00778198242188,40.99271774291992,5.154388427734375,0.6944652795791626,2.578371047973633,3.892305374145508,6.750567436218262,3.0847246646881104,-1.5686665773391724
141,104940,104941,0.004236114211380482,0.006898936349898577,0.9350656867027283,77.81135559082031,91.12244415283203,8.043879508972168,0.683965802192688,2.6098694801330566,3.908804416656494,5.655172824859619,4.251273155212402,-1.6795942783355713
142,104950,104951,0.12054460495710373,-0.022394653409719467,0.928982675075531,48.65747833251953,116.90238189697266,11.180500984191895,0.6629668474197388,2.6188690662384033,3.9028048515319824,4.633760929107666,4.567151069641113,-1.3539822101593018
143,104960,104961,0.12844300270080566,-0.023349875584244728,1.134225606918335,15.975255012512207,121.07471466064453,15.274042129516602,0.6464676856994629,2.632368326187134,3.9013049602508545,3.008303642272949,4.923798561096191,-1.3288522958755493
144,104970,104971,-0.12569023668766022,-0.28141146898269653,1.0929980278015137,-7.773615837097168,109.4246597290039,16.92997932434082,0.6434678435325623,2.656367063522339,3.916304111480713,1.9156404733657837,4.8385329246521,-1.0130937099456787
145,104980,104981,-0.008256543427705765,-0.13078264892101288,1.0553117990493774,-22.225133895874023,85.83918762207031,15.915839195251465,0.6464676856994629,2.6443676948547363,3.9493024349212646,1.3953425884246826,4.702333450317383,-0.5582872629165649
146,104990,104991,0.021953554823994637,-0.15776853263378143,0.9180175065994263,-42.0637092590332,52.485008239746094,12.239457130432129,0.6524673700332642,2.6353681087493896,3.9313032627105713,0.6650501489639282,4.187024116516113,-0.3253532946109772
147,105000,105001,0.03971538692712784,-0.058848775923252106,1.0522098541259766,-60.70254135131836,27.54024314880371,5.167572498321533,0.6629668474197388,2.603869676589966,3.9208037853240967,0.27503103017807007,3.7809791564941406,-0.28755635023117065
148,105010,105011,0.03226329758763313,-0.10685410350561142,0.9203073978424072,-82.4075927734375,3.2415003776550293,-0.2779398560523987,0.6659666895866394,2.621868848800659,3.9328033924102783,0.2604033350944519,2.9704718589782715,-0.1537686139345169
149,105020,105021,-0.06893854588270187,-0.11484057456254959,1.0403528213500977,-89.37892150878906,-18.400312423706055,-8.463574409484863,0.6494675278663635,2.626368522644043,3.910304307937622,0.204215407371521,2.186297655105591,-0.31444451212882996
150,105030,105031,0.06231579929590225,0.08457780629396439,1.1444718837738037,-84.95256805419922,-34.55904769897461,-14.655271530151367,0.6674666404724121,2.629368543624878,3.9253036975860596,0.6062106490135193,1.1447440385818481,-0.30874526500701904
151,105040,105041,-0.022610682994127274,-0.11487139761447906,1.1887640953063965,-60.196533203125,-43.56421661376953,-21.556875228881836,0.6599670052528381,2.6428678035736084,3.911804437637329,1.219840168952942,0.27331751585006714,-0.326476126909256
152,105050,105051,-0.0183566864579916,-0.15736238658428192,1.0693329572677612,-28.022518157958984,-48.40177536010742,-24.584508895874023,0.6704664826393127,2.6383681297302246,3.910304307937622,1.7081774473190308,0.09585662186145782,-0.6564733982086182
153,105060,105061,-0.09188875555992126,-0.182717427611351,1.1425946950912476,5.128541469573975,-37.820343017578125,-19.088098526000977,0.6704664826393127,2.6113693714141846,3.9253036975860596,2.234342336654663,-0.09354061633348465,-0.76929771900177
154,105070,105071,-0.020123060792684555,-0.12034251540899277,1.0642304420471191,23.29820442199707,-19.25057029724121,-11.315483093261719,0.6554672122001648,2.593370199203491,3.913304328918457,2.412659168243408,0.10775593668222427,-0.9737784266471863
155,105080,105081,0.03872951492667198,-0.0324823334813118,0.9807392954826355,25.946134567260742,9.285415649414062,-3.777040719985962,0.676466166973114,2.5603718757629395,3.8953051567077637,2.4276418685913086,0.5213608741760254,-1.1014090776443481
156,105090,105091,0.005078523885458708,-0.045780520886182785,0.9957699179649353,12.814870834350586,36.73487854003906,2.84516978263855,0.6734663248062134,2.5813708305358887,3.8983049392700195,1.964861512184143,0.8450739979743958,-1.233382225036621
157,105100,105101,-0.15841752290725708,-0.23977315425872803,1.0763614177703857,-20.366243362426758,62.85508346557617,9.238754272460938,0.6554672122001648,2.593370199203491,3.9043047428131104,1.4885249137878418,0.7042508721351624,-1.1269768476486206
158,105110,105111,-0.08499027043581009,-0.16956087946891785,0.995053231716156,-53.5349235534668,84.87457275390625,13.814682006835938,0.6554672122001648,2.5843708515167236,3.9013049602508545,0.4049678146839142,0.13525880873203278,-1.0638731718063354
159,105120,105121,0.02619980089366436,-0.07667874544858932,0.9219647645950317,-90.1578598022461,80.9326400756836,20.735591888427734,0.6554672122001648,2.6353681087493896,3.907304525375366,-0.31047719717025757,-0.5713387131690979,-0.8567660450935364
160,105130,105131,0.07721130549907684,-0.047978244721889496,0.9318181276321411,-105.2463607788086,55.353004455566406,20.703866958618164,0.6524673700332642,2.632368326187134,3.8953051567077637,-1.2961654663085938,-1.7917348146438599,-0.711348295211792
161,105140,105141,0.04299495369195938,-0.014752783812582493,0.9573554992675781,-99.28343200683594,17.090484619140625,16.67446517944336,0.6434678435325623,2.6623668670654297,3.916304111480713,-1.5172687768936157,-2.5422191619873047,-0.5514881610870361
162,105150,105151,0.08787702023983002,0.12444531172513962,1.0156818628311157,-85.36995697021484,-21.293453216552734,11.252922058105469,0.6509674191474915,2.6338682174682617,3.908804416656494,-1.468346118927002,-3.6800143718719482,-0.3604510426521301
163,105160,105161,0.04590487852692604,0.02385718561708927,0.9988435506820679,-63.57088088989258,-53.542884826660156,4.675450801849365,0.6629668474197388,2.624868631362915,3.917804002761841,-0.8927193284034729,-4.593040943145752,-0.17945356667041779
164,105170,105171,-0.0897810086607933,-0.1484762281179428,0.9474191069602966,-38.41515350341797,-73.82076263427734,-1.2343482971191406,0.6614668965339661,2.6173691749572754,3.892305374145508,-0.10992813110351562,-4.690726280212402,-0.15283818542957306
165,105180,105181,-0.032906871289014816,-0.11106421798467636,0.9438060522079468,-8.116071701049805,-77.5829849243164,-2.945866584777832,0.6569671630859375,2.621868848800659,3.887805461883545,0.7856258749961853,-5.015219688415527,-0.08177635073661804
166,105190,105191,0.024359794333577156,-0.0335492268204689,0.9627029895782471,23.003028869628906,-63.349124908447266,-5.472524642944336,0.6674666404724121,2.6053695678710938,3.907304525375366,1.1978144645690918,-4.87438440322876,-0.08700994402170181
167,105200,105201,-0.14861652255058289,-0.11454308032989502,1.0352965593338013,44.98745346069336,-39.55774688720703,-3.102480411529541,0.6659666895866394,2.594870090484619,3.8938052654266357,1.8923306465148926,-4.3194580078125,-0.11126793175935745
168,105210,105211,-0.03445219248533249,-0.04817143827676773,0.9354237914085388,61.79861068725586,-10.22729206085205,-0.6469592452049255,0.6659666895866394,2.594870090484619,3.8938052654266357,2.1893844604492188,-3.63358736038208,-0.12641432881355286
169,105220,105221,-0.03640230372548103,-0.003567695152014494,1.011033535003662,69.45323944091797,21.26630973815918,1.464388132095337,0.6659666895866394,2.594870090484619,3.8938052654266357,1.9832799434661865,-2.9338338375091553,-0.1120319813489914
170,105230,105231,0.03021443448960781,0.025137048214673996,0.9733847379684448,81.18268585205078,46.37565994262695,2.1990296840667725,0.6659666895866394,2.594870090484619,3.8938052654266357,1.5586575269699097,-2.215592861175537,-0.08246278762817383
171,105240,105241,-0.08562753349542618,-0.09030742198228836,1.053735613822937,87.40497589111328,61.97549819946289,3.56520676612854,0.6599670052528381,2.6128692626953125,3.8968050479888916,1.0717045068740845,-1.6238640546798706,-0.05046571418642998
172,105250,105251,-0.04591016098856926,-0.26413002610206604,0.9663956165313721,95.2745590209961,67.36286926269531,2.3748302459716797,0.6554672122001648,2.6083695888519287,3.886305570602417,0.2216050624847412,-0.5089840292930603,-0.01533413864672184
173,105260,105261,0.04992176219820976,-0.08411984890699387,1.016920566558838,83.75370025634766,60.32536315917969,4.655145168304443,0.6344682574272156,2.6053695678710938,3.8953051567077637,-0.5282728672027588,0.6270672678947449,0.011092869564890862
174,105270,105271,0.01766427420079708,-0.07203742116689682,0.9902403354644775,58.73578643798828,49.49844741821289,10.414819717407227,0.6419678926467896,2.594870090484619,3.908804416656494,-1.1111135482788086,0.9651947021484375,0.15231932699680328
175,105280,105281,0.02748691290616989,-0.0985177680850029,1.0256060361862183,21.589550018310547,40.64546203613281,15.800284385681152,0.6464676856994629,2.6053695678710938,3.907304525375366,-1.549614667892456,1.419935703277588,0.2883778512477875
176,105290,105291,-0.04836580902338028,-0.18328560888767242,0.8682002425193787,-32.18458557128906,20.249258041381836,23.77657699584961,0.6509674191474915,2.567871570587158,3.8998048305511475,-1.957106113433838,1.115487813949585,0.5313272476196289
177,105300,105301,0.021603289991617203,-0.09065084904432297,1.031829595565796,-83.94025421142578,3.052356481552124,30.683378219604492,0.6479675769805908,2.5588719844818115,3.8938052654266357,-1.8243000507354736,0.23194429278373718,0.7839622497558594
178,105310,105311,-0.06727638840675354,-0.12481469660997391,0.9581433534622192,-120.30370330810547,-12.441614151000977,33.97355651855469,0.6419678926467896,2.594870090484619,3.8968050479888916,-1.788541316986084,-0.5369027853012085,1.1176108121871948
179,105320,105321,-0.02063898742198944,-0.08395782113075256,0.9326497912406921,-131.13584899902344,-23.498075485229492,35.12395477294922,0.6494675278663635,2.6383681297302246,3.9043047428131104,-1.5426099300384521,-2.0881385803222656,1.4506473541259766
180,105330,105331,-0.09766915440559387,-0.1023087352514267,0.9542925357818604,-119.69322967529297,-31.191835403442383,38.302242279052734,0.6359682083129883,2.648867607116699,3.908804416656494,-1.1954761743545532,-3.7217838764190674,1.7988085746765137
181,105340,105341,-0.011374351568520069,0.025350136682391167,1.0762629508972168,-87.45147705078125,-34.818992614746094,38.392520904541016,0.6644667387008667,2.677366018295288,3.916304111480713,-0.7387137413024902,-4.317534923553467,2.2419424057006836
182,105350,105351,0.09001588821411133,0.10473501682281494,1.0877578258514404,-39.6248664855957,-37.14238739013672,35.68564987182617,0.6614668965339661,2.659367084503174,3.9223039150238037,-0.4653753340244293,-4.893875598907471,2.6514296531677246
183,105360,105361,0.041429195553064346,0.09236761182546616,1.0988619327545166,13.56342601776123,-29.575984954833984,30.440275192260742,0.6524673700332642,2.626368522644043,3.892305374145508,-0.10768790543079376,-4.7991485595703125,3.0171127319335938
184,105370,105371,-0.025314923375844955,-0.08425743877887726,1.0177510976791382,45.95646667480469,-21.806446075439453,27.629016876220703,0.6389680504798889,2.621868848800659,3.881805896759033,0.1185448095202446,-4.5398736000061035,3.314117670059204
185,105380,105381,-0.0028083703946322203,-0.01536155678331852,1.0304843187332153,57.760826110839844,-21.362211227416992,24.13247299194336,0.6434678435325623,2.6173691749572754,3.883305788040161,0.3859449028968811,-3.762998104095459,3.5920450687408447
186,105390,105391,-0.07532322406768799,0.00890829972922802,1.008683204650879,58.63045120239258,-22.60068130493164,21.678987503051758,0.6344682574272156,2.6143691539764404,3.886305570602417,0.5233936309814453,-3.1798346042633057,3.8568804264068604
187,105400,105401,0.022934067994356155,-0.006045906338840723,0.9815095663070679,54.570430755615234,-18.19984245300293,16.96401023864746,0.6284685730934143,2.6173691749572754,3.883305788040161,0.8752378225326538,-2.6799638271331787,3.997194290161133
188,105410,105411,-0.013026305474340916,-0.01293099019676447,1.0365053415298462,42.61921691894531,-12.985735893249512,13.49439811706543,0.6449677348136902,2.594870090484619,3.8728063106536865,1.0564273595809937,-2.5273497104644775,4.113030433654785
189,105420,105421,0.06368895620107651,-0.013743001967668533,1.0601623058319092,31.705530166625977,-9.476157188415527,9.995341300964355,0.6479675769805908,2.603869676589966,3.8788058757781982,1.0825132131576538,-2.1994597911834717,4.258495330810547
190,105430,105431,0.04753238707780838,0.026098638772964478,1.040319800376892,25.248332977294922,-8.006012916564941,5.831789493560791,0.6479675769805908,2.567871570587158,3.884805679321289,1.2118306159973145,-2.0506160259246826,4.308719158172607
191,105440,105441,0.008032156154513359,-0.08033915609121323,0.9313914179801941,20.01778221130371,-3.059478759765625,5.175347805023193,0.6344682574272156,2.569371461868286,3.892305374145508,1.3066869974136353,-1.8086341619491577,4.352235794067383
192,105450,105451,-0.013481497764587402,-0.0481247752904892,1.0218276977539062,28.805423736572266,7.756083965301514,4.857236862182617,0.6434678435325623,2.5513722896575928,3.8803060054779053,1.185135841369629,-1.4514604806900024,4.433155536651611
193,105460,105461,-0.01674587093293667,-0.09598506987094879,0.985027551651001,35.55428695678711,18.662363052368164,5.007335186004639,0.6539672613143921,2.5558722019195557,3.887805461883545,0.9586975574493408,-1.456350564956665,4.495070457458496
194,105470,105471,0.02601645514369011,-0.1344175934791565,0.8880212306976318,52.8145866394043,30.814247131347656,3.1531734466552734,0.6539672613143921,2.573871374130249,3.89080548286438,0.5257177948951721,-0.774082601070404,4.59217643737793
195,105480,105481,0.0345589779317379,-0.1353938728570938,0.9042325019836426,65.46410369873047,41.00190734863281,3.177854537963867,0.6479675769805908,2.567871570587158,3.887805461883545,0.36851397156715393,-0.3889201283454895,4.541145324707031
196,105490,105491,0.015526052564382553,-0.20962652564048767,0.9549540281295776,67.52748107910156,41.04195022583008,5.596060276031494,0.6389680504798889,2.597870111465454,3.8968050479888916,-0.20179522037506104,0.5003646612167358,4.635066986083984
197,105500,105501,0.0027309805154800415,-0.1727069914340973,0.8873503804206848,55.555419921875,36.60458755493164,9.066429138183594,0.6329683661460876,2.5888705253601074,3.8938052654266357,-0.7046980857849121,1.1233341693878174,4.748387336730957
198,105510,105511,0.09665520489215851,0.07985150814056396,0.9352983832359314,43.81032943725586,27.63758659362793,11.983965873718262,0.6329683661460876,2.5918703079223633,3.8938052654266357,-0.9048570990562439,1.350682258605957,4.820729732513428
199,105520,105521,0.047903746366500854,0.0127040334045887,1.0216960906982422,31.3799991607666,12.12163257598877,14.638223648071289,0.6344682574272156,2.569371461868286,3.8953051567077637,-1.1995574235916138,1.7423179149627686,4.991645812988281
200,105530,105531,-0.13610510528087616,-0.12296237796545029,0.9851984977722168,18.622886657714844,-5.6935648918151855,16.457420349121094,0.6299684643745422,2.5858707427978516,3.9028048515319824,-1.217995047569275,1.8695392608642578,5.135998249053955
201,105540,105541,-0.10351334512233734,-0.20493553578853607,0.924841582775116,11.641316413879395,-31.02619743347168,16.219911575317383,0.6299684643745422,2.5858707427978516,3.9028048515319824,-0.8954565525054932,2.048499345779419,5.281403541564941
202,105550,105551,0.004992072004824877,-0.04286091774702072,0.981478750705719,0.8146682977676392,-59.57744216918945,15.253194808959961,0.6299684643745422,2.60086989402771,3.89080548286438,-0.33693036437034607,1.8647092580795288,5.387474060058594
203,105560,105561,0.1151069849729538,0.1574326753616333,0.8885868787765503,-12.268050193786621,-74.92357635498047,19.270692825317383,0.6464676856994629,2.632368326187134,3.916304111480713,0.5404069423675537,1.9406955242156982,5.544902324676514
204,105570,105571,0.04130728542804718,0.021512087434530258,0.9070367217063904,-21.853851318359375,-74.18831634521484,22.750810623168945,0.6464676856994629,2.632368326187134,3.916304111480713,1.3401530981063843,1.7188092470169067,5.729857921600342
205,105580,105581,-0.009447483345866203,-0.07759424299001694,0.9535191059112549,-31.50975227355957,-65.8271255493164,24.918859481811523,0.6359682083129883,2.6128692626953125,3.914804220199585,1.9034019708633423,1.1281880140304565,5.9236626625061035
206,105590,105591,-0.08932222425937653,-0.01550068985670805,0.9489129781723022,-34.10211944580078,-53.18762969970703,24.484601974487305,0.6494675278663635,2.626368522644043,3.916304111480713,2.763242721557617,0.7335498929023743,6.177913665771484
207,105600,105601,-0.12149463593959808,0.01495532225817442,1.0210202932357788,-28.869213104248047,-27.298709869384766,18.26201057434082,0.6464676856994629,2.623368740081787,3.9043047428131104,3.1947903633117676,0.349540650844574,6.385263919830322
208,105610,105611,-0.04756658151745796,-0.02583785355091095,1.060370683670044,-11.658947944641113,13.042810440063477,12.032364845275879,0.6449677348136902,2.6338682174682617,3.917804002761841,3.325136423110962,0.16025783121585846,6.541567325592041
209,105620,105621,0.01311700139194727,-0.010550304315984249,1.0632771253585815,2.7947165966033936,54.32900619506836,2.394822597503662,0.6299684643745422,2.6608669757843018,3.911804437637329,2.7325029373168945,0.2657252252101898,6.578790664672852
210,105630,105631,-0.05925339087843895,-0.03962244093418121,1.0265085697174072,8.728585243225098,85.72774505615234,-6.669870376586914,0.6344682574272156,2.6893653869628906,3.9223039150238037,1.6175752878189087,0.41906824707984924,6.500197410583496
211,105640,105641,-0.055556751787662506,-0.013237863779067993,1.0687617063522339,21.69790267944336,93.05183410644531,-17.114309310913086,0.6209689378738403,2.6698665618896484,3.935803174972534,0.5826800465583801,0.5808597207069397,6.361227035522461
212,105650,105651,-0.0029858171474188566,-0.06929513812065125,1.0084240436553955,39.61748123168945,84.18180847167969,-25.89604949951172,0.6269686222076416,2.6668665409088135,3.944802761077881,0.12766914069652557,0.7771068811416626,6.219423294067383
213,105660,105661,-0.05585727095603943,-0.0817476287484169,1.0604891777038574,67.02809143066406,64.7984390258789,-32.17689514160156,0.6134693026542664,2.6623668670654297,3.9223039150238037,-0.7782159447669983,1.574455738067627,5.894432544708252
214,105670,105671,-0.011721419170498848,-0.10300007462501526,1.0547486543655396,82.47974395751953,39.895057678222656,-35.476478576660156,0.6074696183204651,2.650367498397827,3.9223039150238037,-0.9938910007476807,2.2335205078125,5.615668296813965
215,105680,105681,0.07351329922676086,-0.02663259394466877,0.9878506064414978,85.27149963378906,17.445398330688477,-37.06190872192383,0.6029698252677917,2.6458675861358643,3.9238038063049316,-1.1467958688735962,3.1913440227508545,5.2751078605651855
216,105690,105691,-0.08769398927688599,-0.14710795879364014,0.9728606939315796,74.13495635986328,3.1398966312408447,-36.90599060058594,0.5999699831008911,2.6158690452575684,3.9268035888671875,-1.345991849899292,4.216137409210205,4.88172721862793
217,105700,105701,0.02256709709763527,-0.06304486095905304,1.0183910131454468,50.146148681640625,-5.572812080383301,-39.39828872680664,0.6209689378738403,2.597870111465454,3.9208037853240967,-1.267852783203125,4.558037757873535,4.522279739379883
218,105710,105711,0.04055013507604599,-0.07130156457424164,1.0252752304077148,20.50420570373535,-12.657578468322754,-41.19521713256836,0.623968780040741,2.5798709392547607,3.908804416656494,-1.1943854093551636,4.964137077331543,4.118710517883301
219,105720,105721,-0.02346038445830345,-0.08004391193389893,0.9877114295959473,-14.108040809631348,-15.560585975646973,-42.08689498901367,0.6179690957069397,2.6098694801330566,3.914804220199585,-1.0209236145019531,4.745560169219971,3.693997859954834
220,105730,105731,0.009196690283715725,-0.07409381121397018,0.9656654000282288,-46.24952697753906,-10.548336029052734,-41.84116744995117,0.623968780040741,2.6188690662384033,3.9298033714294434,-0.8725165724754333,4.289820194244385,3.268244981765747
221,105740,105741,-0.023147398605942726,-0.19594943523406982,0.9249603748321533,-66.39653015136719,-4.07952880859375,-42.21272277832031,0.6209689378738403,2.6428678035736084,3.9298033714294434,-0.8435834050178528,3.685502767562866,2.839726209640503
222,105750,105751,-0.028400612995028496,-0.11305173486471176,0.995913565158844,-77.62908172607422,2.482513666152954,-39.817256927490234,0.6269686222076416,2.6668665409088135,3.9238038063049316,-0.9073905944824219,2.7525670528411865,2.390580892562866
223,105760,105761,-0.01639796607196331,-0.018494125455617905,1.0084158182144165,-78.68148803710938,7.80080509185791,-33.345550537109375,0.6254687309265137,2.6683664321899414,3.9223039150238037,-0.9720036387443542,1.5697263479232788,1.9772181510925293
224,105770,105771,0.013255198486149311,-0.07575053721666336,0.9458392858505249,-68.66649627685547,10.880938529968262,-25.233356475830078,0.6449677348136902,2.6638667583465576,3.9298033714294434,-1.167081594467163,1.2132238149642944,1.6982405185699463
225,105780,105781,-0.06662281602621078,-0.08626055717468262,0.957085371017456,-48.35418701171875,7.566633224487305,-19.97749900817871,0.6344682574272156,2.6413679122924805,3.913304328918457,-1.2856048345565796,0.3552830219268799,1.4207895994186401
226,105790,105791,0.005598397459834814,-0.02507190965116024,0.9745033979415894,-18.94915199279785,8.21834659576416,-15.862850189208984,0.6449677348136902,2.6428678035736084,3.9208037853240967,-1.3071013689041138,0.14777855575084686,1.2937690019607544
227,105800,105801,-0.012785118073225021,-0.007200830616056919,1.013590931892395,12.843493461608887,11.674234390258789,-10.712408065795898,0.6419678926467896,2.6398680210113525,3.9028048515319824,-1.4887232780456543,0.3650844693183899,1.165271282196045
228,105810,105811,0.02150208130478859,-0.00027908245101571083,1.0387945175170898,42.006591796875,13.159283638000488,-8.572582244873047,0.6284685730934143,2.629368543624878,3.9253036975860596,-1.6481493711471558,0.8610922694206238,1.1001484394073486
229,105820,105821,0.05607754737138748,0.005858156830072403,1.048841118812561,64.93849182128906,15.008444786071777,-6.941295146942139,0.6254687309265137,2.647367477416992,3.9253036975860596,-1.8414665460586548,1.1180416345596313,0.9463227391242981
230,105830,105831,-0.02514689229428768,-0.0811048373579979,1.0307884216308594,73.64261627197266,12.038763999938965,-6.917367458343506,0.6209689378738403,2.6458675861358643,3.9328033924102783,-1.9987168312072754,2.1003825664520264,0.9347495436668396
231,105840,105841,0.028557274490594864,-0.07916547358036041,1.001619815826416,63.648109436035156,5.384448051452637,-4.487802028656006,0.6269686222076416,2.630868434906006,3.9238038063049316,-1.8185557126998901,2.5621824264526367,0.9170864820480347
232,105850,105851,0.001323163160122931,-0.054600685834884644,1.0197031497955322,43.60665512084961,-2.1257917881011963,0.21363672614097595,0.6329683661460876,2.603869676589966,3.9208037853240967,-1.8918075561523438,3.150341272354126,0.8912171721458435
233,105860,105861,0.047041989862918854,-0.04556967690587044,1.0227502584457397,19.768299102783203,-9.189970016479492,4.441880226135254,0.6419678926467896,2.603869676589966,3.908804416656494,-1.8354488611221313,3.4825282096862793,0.9160717725753784
234,105870,105871,0.023368600755929947,-0.046899572014808655,1.0522997379302979,5.980234146118164,-13.32998275756836,10.211742401123047,0.6374680995941162,2.593370199203491,3.910304307937622,-1.6612588167190552,3.341891288757324,0.9297004342079163
235,105880,105881,-0.02914302982389927,-0.071339450776577,1.0343953371047974,1.2993428707122803,-13.306295394897461,16.792415618896484,0.6359682083129883,2.5918703079223633,3.9058046340942383,-1.5159467458724976,3.3750245571136475,1.0535542964935303
236,105890,105891,-0.039445988833904266,-0.0703413188457489,1.040222406387329,-4.32899808883667,-8.064923286437988,24.77735710144043,0.6509674191474915,2.597870111465454,3.9208037853240967,-1.3501912355422974,3.2593324184417725,1.2481495141983032
237,105900,105901,-0.05379243567585945,-0.10515236109495163,0.9711995720863342,-7.837274551391602,0.7439141869544983,31.508588790893555,0.6509674191474915,2.5888705253601074,3.8998048305511475,-1.3656268119812012,3.2890336513519287,1.5292495489120483
238,105910,105911,-0.021937482059001923,0.0021835395600646734,1.0736676454544067,-9.07866382598877,1.8866764307022095,32.2154426574707,0.6254687309265137,2.6173691749572754,3.9223039150238037,-1.4804294109344482,3.191166400909424,1.8051542043685913
239,105920,105921,0.006544502452015877,-0.13757818937301636,0.9386386275291443,5.786581516265869,-0.5242429375648499,28.263534545898438,0.6389680504798889,2.6128692626953125,3.9028048515319824,-1.5546756982803345,3.2403199672698975,2.109750747680664
240,105930,105931,-0.08795326203107834,-0.08956579864025116,1.0593171119689941,37.228271484375,-11.898738861083984,19.13667106628418,0.6329683661460876,2.6158690452575684,3.9208037853240967,-1.5953810214996338,3.5322299003601074,2.3129913806915283
241,105940,105941,-0.010991016402840614,-0.047874566167593,1.08063542842865,66.79631805419922,-14.611845016479492,10.252882957458496,0.6314684152603149,2.6383681297302246,3.9193038940429688,-1.4225424528121948,3.997166872024536,2.426692485809326
242,105950,105951,0.0272046085447073,-0.010562353767454624,1.085687518119812,78.07648468017578,-17.00261878967285,5.631473064422607,0.6269686222076416,2.630868434906006,3.9238038063049316,-1.1026195287704468,4.965864658355713,2.6379072666168213
243,105960,105961,-0.0066740913316607475,-0.07767084240913391,1.093798279762268,63.765445709228516,-37.263938903808594,4.5430192947387695,0.6329683661460876,2.6128692626953125,3.9238038063049316,-0.9362540245056152,5.430615425109863,2.542384624481201
244,105970,105971,-0.016647664830088615,-0.04493176192045212,1.0138473510742188,36.755462646484375,-62.04433822631836,1.7608767747879028,0.622468888759613,2.6113693714141846,3.9343032836914062,-0.19639383256435394,6.006353378295898,2.6638355255126953
245,105980,105981,-0.00951256975531578,-0.11061405390501022,0.900886058807373,-1.691650629043579,-82.5240249633789,-1.4060873985290527,0.6419678926467896,2.6158690452575684,3.911804437637329,0.7133914232254028,6.181063652038574,2.676203966140747
246,105990,105991,-0.010672781616449356,-0.08035469055175781,1.012580156326294,-46.31399154663086,-72.61444091796875,-0.6976902484893799,0.6629668474197388,2.6158690452575684,3.9268035888671875,1.2216377258300781,5.773169040679932,2.382636070251465
247,106000,106001,0.02444528602063656,-0.01887131854891777,1.0386513471603394,-88.14269256591797,-51.95543670654297,0.5345046520233154,0.6434678435325623,2.6383681297302246,3.9283034801483154,1.9271528720855713,4.747735977172852,2.320817708969116
248,106010,106011,-0.07957545667886734,-0.10554583370685577,0.8966010212898254,-120.37252807617188,-20.46504020690918,-1.520416259765625,0.6509674191474915,2.654867172241211,3.9268035888671875,2.2007129192352295,3.6994435787200928,2.2346255779266357
249,106020,106021,-0.008572650142014027,-0.05122852325439453,0.9969991445541382,-120.92749786376953,15.19126033782959,-2.6177544593811035,0.6509674191474915,2.6728663444519043,3.935803174972534,2.067007541656494,2.4657230377197266,2.1317150592803955
250,106030,106031,0.03484690561890602,-0.05304497107863426,1.0271083116531372,-100.37340545654297,45.514122009277344,-10.288409233093262,0.6464676856994629,2.677366018295288,3.913304328918457,1.797272801399231,1.5595890283584595,2.133777141571045
251,106040,106041,0.10297434031963348,0.021626047790050507,0.985419511795044,-69.36453247070312,71.81849670410156,-19.826265335083008,0.6464676856994629,2.677366018295288,3.913304328918457,0.8776869177818298,0.6982541680335999,1.791922688484192
252,106050,106051,0.10104026645421982,-0.05878009274601936,0.9986180067062378,-36.03756332397461,70.95291137695312,-30.25905418395996,0.6464676856994629,2.677366018295288,3.913304328918457,0.03882402554154396,0.07785214483737946,1.4678823947906494
253,106060,106061,-0.053150951862335205,-0.025442877784371376,1.1261199712753296,-4.494091033935547,50.81916809082031,-37.212772369384766,0.6254687309265137,2.6743662357330322,3.937303066253662,-0.5149747133255005,0.10321805626153946,1.1527156829833984
254,106070,106071,-0.055334996432065964,-0.08315866440534592,1.0150593519210815,17.387670516967773,34.13609313964844,-35.2294807434082,0.6374680995941162,2.647367477416992,3.9223039150238037,-0.8314017653465271,0.4039694368839264,0.850602924823761
255,106080,106081,0.010713797062635422,-0.039291951805353165,1.0033533573150635,26.89577293395996,18.365299224853516,-34.95322799682617,0.6314684152603149,2.650367498397827,3.9193038940429688,-0.9025615453720093,0.8068205118179321,0.5982378125190735
256,106090,106091,-0.023483656346797943,-0.11725658178329468,1.0078561305999756,32.68634033203125,2.468515157699585,-33.04789733886719,0.6374680995941162,2.632368326187134,3.9223039150238037,-1.1036614179611206,1.081709861755371,0.21549086272716522
257,106100,106101,0.0015108358347788453,-0.08076756447553635,0.9861466288566589,35.79994201660156,-5.452041149139404,-27.11005210876465,0.6389680504798889,2.62786865234375,3.93880295753479,-0.9885547757148743,1.4454681873321533,-0.0469912625849247
258,106110,106111,-0.009782248176634312,-0.18765166401863098,0.998938262462616,40.798805236816406,-6.522709846496582,-24.81477165222168,0.6449677348136902,2.6158690452575684,3.917804002761841,-0.9013292193412781,1.6520352363586426,-0.30351823568344116
259,106120,106121,0.07075770199298859,0.009801284410059452,1.0586111545562744,55.57455062866211,-18.827804565429688,-27.874134063720703,0.6419678926467896,2.60086989402771,3.917804002761841,-0.7136435508728027,2.234793186187744,-0.533840537071228
260,106130,106131,0.022892342880368233,0.0022756140679121017,1.1071194410324097,79.64237976074219,-40.2095832824707,-30.967071533203125,0.6389680504798889,2.603869676589966,3.9238038063049316,-0.5377306342124939,2.924730062484741,-0.8822619915008545
261,106140,106141,0.04657873138785362,-0.16184666752815247,1.1346296072006226,102.87664794921875,-58.003841400146484,-28.6394100189209,0.6479675769805908,2.5858707427978516,3.9208037853240967,0.1704033464193344,4.069114685058594,-1.125468373298645
262,106150,106151,-0.05200641229748726,-0.324587345123291,1.0238683223724365,105.22870635986328,-65.83711242675781,-30.209884643554688,0.6704664826393127,2.548372507095337,3.913304328918457,0.6584026217460632,4.668619155883789,-1.5399473905563354
263,106160,106161,-0.0035811690613627434,-0.11730504035949707,1.0344594717025757,99.2103042602539,-47.854217529296875,-32.652252197265625,0.6674666404724121,2.5273735523223877,3.916304111480713,1.5236066579818726,6.081883907318115,-1.7883551120758057
264,106170,106171,0.009852428920567036,-0.023341383785009384,1.0630220174789429,86.14909362792969,-14.194023132324219,-30.134382247924805,0.6644667387008667,2.5123744010925293,3.910304307937622,1.6116570234298706,7.017316818237305,-2.1883182525634766
265,106180,106181,-0.020990874618291855,-0.10522796213626862,1.0227340459823608,61.67495346069336,8.359049797058105,-27.133987426757812,0.6554672122001648,2.5543723106384277,3.913304328918457,1.4262053966522217,7.46124267578125,-2.5317962169647217
266,106190,106191,-0.002999548800289631,-0.07298655062913895,1.0462547540664673,16.55039405822754,24.596839904785156,-25.59896469116211,0.6479675769805908,2.5528724193573,3.917804002761841,1.2149138450622559,8.055584907531738,-2.7784602642059326
267,106200,106201,-0.05642089247703552,-0.21274729073047638,0.9882110357284546,-48.905635833740234,51.8902473449707,-22.41526985168457,0.6509674191474915,2.543872833251953,3.8968050479888916,0.8564992547035217,7.641885757446289,-2.9327661991119385
268,106210,106211,0.005807243287563324,-0.20036736130714417,1.1096583604812622,-118.81298828125,80.91873931884766,-14.56049919128418,0.6314684152603149,2.5843708515167236,3.8983049392700195,-0.11136769503355026,6.604916572570801,-3.1591744422912598
269,106220,106221,-0.06848971545696259,-0.2206379473209381,1.023930311203003,-141.16795349121094,85.24810791015625,-6.468397617340088,0.6584670543670654,2.6353681087493896,3.937303066253662,-1.1011102199554443,5.015809535980225,-3.240469455718994
270,106230,106231,0.05452930927276611,-0.04944269731640816,1.0514397621154785,-149.02565002441406,69.0171890258789,-1.140142798423767,0.6389680504798889,2.6158690452575684,3.9208037853240967,-1.7331671714782715,3.7822670936584473,-3.1290764808654785
271,106240,106241,0.05746264383196831,-0.08767513185739517,0.9706475734710693,-150.25827026367188,52.21739959716797,2.747594118118286,0.6254687309265137,2.6353681087493896,3.907304525375366,-2.4385082721710205,2.0750532150268555,-3.1590938568115234
272,106250,106251,0.03337616100907326,-0.05717390030622482,0.9747688174247742,-147.49940490722656,41.90719985961914,5.233558654785156,0.6374680995941162,2.656367063522339,3.9043047428131104,-2.75858998298645,1.030824065208435,-2.9943201541900635
273,106260,106261,0.06843683123588562,-0.08387049287557602,0.963186502456665,-142.37403869628906,32.63768005371094,5.845179557800293,0.622468888759613,2.6353681087493896,3.9013049602508545,-3.13299298286438,-0.604233980178833,-2.9416122436523438
274,106270,106271,-0.0015603943029418588,-0.05821877345442772,0.9909465909004211,-116.60279083251953,9.881046295166016,2.1528263092041016,0.6329683661460876,2.6638667583465576,3.9058046340942383,-3.350867986679077,-1.4587198495864868,-2.85446834564209
275,106280,106281,0.050763241946697235,-0.0005221320898272097,1.0370051860809326,-63.139469146728516,-30.198305130004883,-3.7853100299835205,0.622468888759613,2.6143691539764404,3.9013049602508545,-3.212141752243042,-2.4949963092803955,-2.863945245742798
276,106290,106291,0.005331628955900669,-0.024210408329963684,1.0314408540725708,-0.9461727738380432,-82.02338409423828,-11.586769104003906,0.6359682083129883,2.62786865234375,3.9058046340942383,-2.498054265975952,-2.6620535850524902,-2.8444199562072754
277,106300,106301,0.04546194523572922,-0.002538740634918213,0.9836497902870178,40.73983383178711,-112.02855682373047,-17.082612991333008,0.6404679417610168,2.6113693714141846,3.8983049392700195,-1.6612293720245361,-2.39982533454895,-2.995615243911743
278,106310,106311,0.033861320465803146,-0.061264075338840485,1.0102872848510742,62.6190299987793,-127.64330291748047,-24.613149642944336,0.6479675769805908,2.570871353149414,3.9028048515319824,-0.07973664253950119,-1.6478880643844604,-3.0254430770874023
279,106320,106321,-0.004308168310672045,-0.08740822970867157,0.9372348189353943,70.39786529541016,-122.3621826171875,-30.488162994384766,0.6659666895866394,2.540872812271118,3.8968050479888916,0.7341508865356445,-1.1797921657562256,-3.400256872177124
280,106330,106331,-0.07062172889709473,-0.07993189245462418,0.9232335090637207,66.29776000976562,-96.40791320800781,-33.307945251464844,0.6719663739204407,2.5318734645843506,3.9028048515319824,2.0983664989471436,-0.688308835029602,-3.728632926940918
281,106340,106341,0.06732750684022903,0.08352712541818619,0.9369500279426575,54.785343170166016,-59.253482818603516,-34.78703308105469,0.6854656934738159,2.5273735523223877,3.9043047428131104,2.964052438735962,0.1718568503856659,-4.015117168426514
282,106350,106351,0.008127616718411446,-0.06020678952336311,0.8517482876777649,34.097049713134766,-18.288772583007812,-30.819154739379883,0.6734663248062134,2.5333733558654785,3.913304328918457,3.1788763999938965,0.2417064607143402,-4.394772529602051
283,106360,106361,-0.13474518060684204,-0.26354485750198364,0.8062263131141663,14.449150085449219,20.904659271240234,-23.762130737304688,0.6749662160873413,2.5618717670440674,3.8998048305511475,2.9489846229553223,0.6211678981781006,-4.652140140533447
284,106370,106371,-0.011708050034940243,-0.06641463935375214,0.8521081209182739,-9.052539825439453,56.547115325927734,-18.906747817993164,0.6539672613143921,2.5798709392547607,3.9028048515319824,2.411855936050415,0.5606564283370972,-4.852655410766602
285,106380,106381,0.0048810262233018875,-0.04294266179203987,0.8566043376922607,-34.450321197509766,79.70315551757812,-16.79690933227539,0.6659666895866394,2.6158690452575684,3.908804416656494,1.396960735321045,0.18817757070064545,-4.998267650604248
286,106390,106391,-0.007875736802816391,-0.016568623483181,0.9417785406112671,-54.73966598510742,91.13312530517578,-13.533105850219727,0.6449677348136902,2.6638667583465576,3.9208037853240967,0.38454610109329224,-0.5686019659042358,-5.121680736541748
287,106400,106401,0.012054375372827053,-0.043469760566949844,0.9239256381988525,-66.48711395263672,86.83422088623047,-9.88387393951416,0.6509674191474915,2.6458675861358643,3.9208037853240967,-0.39271068572998047,-0.9453212022781372,-5.279531002044678
288,106410,106411,0.009761285036802292,-0.0471842885017395,0.9158003926277161,-66.89623260498047,68.29114532470703,-5.614297866821289,0.6464676856994629,2.653367280960083,3.913304328918457,-1.2609058618545532,-1.81020987033844,-5.350570201873779
289,106420,106421,-0.005755302496254444,-0.03337230533361435,1.0087392330169678,-55.320167541503906,36.71467590332031,-2.9064347743988037,0.6539672613143921,2.6698665618896484,3.911804437637329,-1.649594783782959,-2.295027256011963,-5.43956184387207
290,106430,106431,0.02486695535480976,-0.04743976891040802,1.0427463054656982,-21.414628982543945,-2.9537100791931152,2.567270517349243,0.6509674191474915,2.6458675861358643,3.911804437637329,-1.8674993515014648,-2.6974594593048096,-5.433587074279785
291,106440,106441,-0.008387073874473572,-0.04492652788758278,1.0578558444976807,20.70954132080078,-48.46316146850586,5.538554668426514,0.6479675769805908,2.6428678035736084,3.914804220199585,-1.451541781425476,-2.502387285232544,-5.4048285484313965
292,106450,106451,-0.008249934762716293,-0.06150100752711296,1.07735013961792,59.595481872558594,-81.8187026977539,7.233213901519775,0.6539672613143921,2.648867607116699,3.9268035888671875,-0.5301060080528259,-1.8657891750335693,-5.368305683135986
293,106460,106461,0.02750840038061142,-0.06189551576972008,1.0268796682357788,75.73395538330078,-92.64260864257812,8.38227367401123,0.6734663248062134,2.6143691539764404,3.916304111480713,0.6798257827758789,-1.0347201824188232,-5.364795207977295
294,106470,106471,0.055151283740997314,-0.006860580760985613,1.0599629878997803,73.81402587890625,-87.85372161865234,9.863497734069824,0.6599670052528381,2.60086989402771,3.908804416656494,1.326707124710083,-0.6275233030319214,-5.176613807678223
295,106480,106481,-0.055011849850416183,-0.12075593322515488,0.9674900770187378,70.97349548339844,-77.30554962158203,13.41065502166748,0.6584670543670654,2.6203689575195312,3.9193038940429688,2.1352977752685547,0.31999173760414124,-5.05223274230957
296,106490,106491,-0.03270965814590454,-0.13390234112739563,1.0578136444091797,56.58090591430664,-63.42604446411133,19.952186584472656,0.6644667387008667,2.602369785308838,3.9223039150238037,2.7775983810424805,0.6096822619438171,-4.850171089172363
297,106500,106501,-0.02471133880317211,-0.05823776125907898,1.1042414903640747,39.9211311340332,-29.683048248291016,28.284549713134766,0.6644667387008667,2.6173691749572754,3.910304307937622,3.091829776763916,1.1772671937942505,-4.563785076141357
298,106510,106511,-0.1190667450428009,-0.11698268353939056,1.059297800064087,4.534373760223389,9.150904655456543,34.319698333740234,0.66896653175354,2.6338682174682617,3.9298033714294434,3.0814013481140137,1.2457681894302368,-4.198300838470459
299,106520,106521,-0.066476009786129,-0.07671134173870087,1.0383453369140625,-24.629350662231445,28.34782600402832,40.2260627746582,0.6494675278663635,2.656367063522339,3.9193038940429688,2.727724552154541,1.014762043952942,-3.7555482387542725
300,106530,106531,-0.0075764707289636135,-0.03181303292512894,1.0247293710708618,-47.465538024902344,30.527685165405273,45.53102493286133,0.6569671630859375,2.6638667583465576,3.9268035888671875,2.3537611961364746,0.404676616191864,-3.256098508834839
301,106540,106541,-0.028457053005695343,-0.020522402599453926,1.0551456212997437,-63.62181854248047,33.55339431762695,50.182708740234375,0.6584670543670654,2.683365821838379,3.9343032836914062,2.02097749710083,0.029918961226940155,-2.8089077472686768
302,106550,106551,0.024567769840359688,-0.0731593519449234,0.9684988856315613,-68.03267669677734,28.59777069091797,51.72248077392578,0.6449677348136902,2.7028648853302,3.9238038063049316,1.6536802053451538,-0.8081988096237183,-2.25512433052063
303,106560,106561,0.02047286368906498,0.06541690230369568,1.0518341064453125,-69.46558380126953,20.648876190185547,48.25840759277344,0.6509674191474915,2.6998648643493652,3.941802740097046,1.3884841203689575,-1.453971266746521,-1.7587776184082031
304,106570,106571,0.019373852759599686,0.11477623134851456,1.1973042488098145,-68.44371032714844,12.544487953186035,40.413692474365234,0.6434678435325623,2.704364776611328,3.9253036975860596,1.3036295175552368,-2.3419482707977295,-1.3041776418685913
305,106580,106581,-0.08331895619630814,-0.07082498073577881,1.0140053033828735,-49.742950439453125,-0.7775914072990417,31.66233253479004,0.6494675278663635,2.707364559173584,3.940302848815918,1.2339811325073242,-3.191716194152832,-0.8843498229980469
306,106590,106591,0.04617900401353836,0.10614021867513657,1.0595585107803345,-15.0665864944458,-14.882184028625488,20.081912994384766,0.6404679417610168,2.683365821838379,3.9283034801483154,1.3875709772109985,-2.8943848609924316,-0.8166247606277466
307,106600,106601,0.017699507996439934,0.05127320438623428,1.144117832183838,21.882089614868164,-20.466020584106445,10.968733787536621,0.6569671630859375,2.654867172241211,3.914804220199585,1.7138886451721191,-2.777617931365967,-0.7242904305458069
308,106610,106611,0.017031434923410416,-0.09840987622737885,1.0051443576812744,49.2914924621582,-10.793843269348145,2.067793846130371,0.6494675278663635,2.659367084503174,3.9313032627105713,1.9316935539245605,-2.500711441040039,-0.6599537134170532
309,106620,106621,0.007651172578334808,-0.05876639485359192,1.0242559909820557,65.4711685180664,2.3544511795043945,-4.436154365539551,0.6659666895866394,2.6458675861358643,3.917804002761841,1.8608888387680054,-1.898823857307434,-0.6268256902694702
310,106630,106631,-0.07240072637796402,-0.13894817233085632,0.9760946035385132,63.28730773925781,8.991106033325195,-9.616541862487793,0.6704664826393127,2.6443676948547363,3.916304111480713,1.8551994562149048,-0.8757409453392029,-0.8299799561500549
311,106640,106641,-0.1057717502117157,-0.1459403932094574,1.0122590065002441,38.76057434082031,10.014761924743652,-9.364385604858398,0.6554672122001648,2.629368543624878,3.9253036975860596,1.7511845827102661,-0.9463930726051331,-0.7451223134994507
312,106650,106651,-0.16535785794258118,-0.20341520011425018,0.9880393147468567,15.230440139770508,11.579967498779297,-10.566452026367188,0.66896653175354,2.630868434906006,3.917804002761841,1.7434004545211792,-0.5331969261169434,-0.9430809020996094
313,106660,106661,-0.1336408108472824,-0.2135055661201477,1.0405129194259644,0.4163426458835602,19.118330001831055,-8.578990936279297,0.6599670052528381,2.624868631362915,3.914804220199585,1.64336097240448,-0.6014372706413269,-1.0313440561294556
314,106670,106671,-0.03998304530978203,-0.07715906947851181,0.9685178995132446,5.024580478668213,22.870508193969727,-7.286815643310547,0.6524673700332642,2.6443676948547363,3.907304525375366,1.2465580701828003,-0.5297408103942871,-1.0423625707626343
315,106680,106681,0.07722806185483932,-0.20488861203193665,1.0336586236953735,-0.7966826558113098,26.716289520263672,-7.717720031738281,0.6599670052528381,2.630868434906006,3.8998048305511475,1.0819838047027588,-0.5292149782180786,-1.163603663444519
316,106690,106691,0.019508391618728638,-0.1395210325717926,1.0647499561309814,-8.929359436035156,22.385793685913086,-4.5006489753723145,0.6449677348136902,2.6428678035736084,3.9208037853240967,0.7340019941329956,-0.5750097036361694,-1.1869595050811768
317,106700,106701,0.04753571003675461,0.02107556350529194,1.02896249294281,-16.96979331970215,9.391944885253906,2.2216925621032715,0.6509674191474915,2.651867389678955,3.908804416656494,0.7096170783042908,-0.7813466787338257,-1.2284144163131714
318,106710,106711,-0.10240013152360916,-0.15612217783927917,1.1698862314224243,-19.600080490112305,2.041917324066162,7.969024181365967,0.6599670052528381,2.651867389678955,3.911804437637329,0.8431910872459412,-1.0649418830871582,-1.2159055471420288
319,106720,106721,-0.13355697691440582,-0.1705913245677948,1.040442705154419,-17.1220645904541,14.088240623474121,15.017961502075195,0.6539672613143921,2.654867172241211,3.9208037853240967,0.8535918593406677,-1.2367134094238281,-1.1388351917266846
320,106730,106731,-0.026827476918697357,-0.051695164293050766,1.0728280544281006,-13.304771423339844,29.42359733581543,20.9915714263916,0.6554672122001648,2.659367084503174,3.9283034801483154,0.6732195019721985,-1.3881582021713257,-0.9843194484710693
321,106740,106741,0.06513839960098267,-0.06010788679122925,1.0174469947814941,2.1913366317749023,32.69015121459961,23.7469539642334,0.6599670052528381,2.6398680210113525,3.9208037853240967,0.08532466739416122,-1.4396250247955322,-0.665173351764679
322,106750,106751,0.10570202022790909,0.017184777185320854,1.090093731880188,19.120738983154297,26.728620529174805,25.83803939819336,0.6554672122001648,2.6383681297302246,3.9283034801483154,-0.4149659276008606,-1.2521461248397827,-0.37294477224349976
323,106760,106761,0.2133251279592514,0.05700981616973877,0.9943125247955322,32.86125183105469,4.511139392852783,26.807292938232422,0.6464676856994629,2.6353681087493896,3.9223039150238037,-0.544326663017273,-0.8486770987510681,-0.14857147634029388
324,106770,106771,0.03781069070100784,-0.38498732447624207,1.000511884689331,36.44475555419922,-12.9055814743042,26.351709365844727,0.6599670052528381,2.651867389678955,3.914804220199585,-0.23556138575077057,-0.5957511067390442,0.037296608090400696
325,106780,106781,0.0434056855738163,-0.11424630135297775,1.0333867073059082,15.181897163391113,-8.224966049194336,25.4851016998291,0.6629668474197388,2.630868434906006,3.9268035888671875,-0.18035174906253815,-0.2338578999042511,0.31600987911224365
326,106790,106791,-0.03853513300418854,-0.06139029562473297,0.9914256930351257,-17.03150177001953,8.659374237060547,27.01287841796875,0.6389680504798889,2.6368680000305176,3.9238038063049316,-0.26526331901550293,-0.2224777787923813,0.6042022109031677
327,106800,106801,-0.02811412885785103,0.08479361236095428,1.0792288780212402,-35.3895263671875,16.724931716918945,30.002056121826172,0.6509674191474915,2.6638667583465576,3.9208037853240967,-0.4188816249370575,-0.6234939098358154,0.9079429507255554
328,106810,106811,0.0034756879322230816,0.11030597984790802,1.1415574550628662,-35.513153076171875,11.273774147033691,30.489974975585938,0.6479675769805908,2.6458675861358643,3.911804437637329,-0.4374709725379944,-1.1824913024902344,1.1795374155044556
329,106820,106821,0.0014177542179822922,0.007932709529995918,1.1695926189422607,-20.55787467956543,9.53254508972168,33.06756591796875,0.6404679417610168,2.6383681297302246,3.9223039150238037,-0.5273059606552124,-1.5350704193115234,1.499629259109497
330,106830,106831,0.011940119788050652,0.01545623503625393,1.0404356718063354,5.379450798034668,3.474407196044922,31.639850616455078,0.6419678926467896,2.648867607116699,3.914804220199585,-0.6713029742240906,-1.614060878753662,1.84914231300354
331,106840,106841,-0.034701939672231674,0.06110109016299248,1.1903917789459229,37.49541091918945,-6.2210798263549805,26.804664611816406,0.6434678435325623,2.623368740081787,3.910304307937622,-0.6733830571174622,-1.1836044788360596,2.143374443054199
332,106850,106851,0.013121365569531918,-0.09869377315044403,1.018210530281067,59.04598617553711,-18.554582595825195,22.624340057373047,0.6509674191474915,2.6188690662384033,3.911804437637329,-0.44983619451522827,-0.6093372702598572,2.350713014602661
333,106860,106861,-0.06329191476106644,-0.20283499360084534,0.9717995524406433,71.2555160522461,-33.20369338989258,17.90467071533203,0.6479675769805908,2.6188690662384033,3.9208037853240967,-0.07188738882541656,0.15846295654773712,2.5096309185028076
334,106870,106871,-0.07075385004281998,-0.06131751835346222,0.9497854113578796,69.75897216796875,-40.75297164916992,14.445630073547363,0.6449677348136902,2.597870111465454,3.914804220199585,0.2994470000267029,1.0832839012145996,2.674281120300293
335,106880,106881,-0.09371977299451828,-0.16686367988586426,0.9462922811508179,61.31520462036133,-42.009674072265625,12.027361869812012,0.6554672122001648,2.5813708305358887,3.910304307937622,0.6021315455436707,1.5505801439285278,2.822072744369507
336,106890,106891,0.0024158398155122995,-0.05085694044828415,1.004075288772583,45.443973541259766,-36.07067108154297,11.614826202392578,0.6584670543670654,2.596370220184326,3.8983049392700195,1.2220098972320557,2.1180872917175293,2.859206438064575
337,106900,106901,-0.023958630859851837,-0.007156948558986187,1.0225311517715454,16.44818687438965,-22.317996978759766,8.564886093139648,0.6584670543670654,2.596370220184326,3.8983049392700195,1.3907767534255981,2.2278125286102295,2.9762275218963623
338,106910,106911,0.004686200525611639,-0.05337083712220192,0.9860296249389648,-17.712369918823242,-0.1757030040025711,6.35429573059082,0.6584670543670654,2.596370220184326,3.8983049392700195,1.5336905717849731,2.0139005184173584,3.0280184745788574
339,106920,106921,-0.05863979458808899,-0.15770219266414642,0.9496393799781799,-45.98484420776367,22.10512924194336,2.0102763175964355,0.6614668965339661,2.6113693714141846,3.907304525375366,1.2424676418304443,1.6182835102081299,3.1019539833068848
340,106930,106931,-0.029428856447339058,-0.06539011001586914,0.991866409778595,-65.2726058959961,41.026363372802734,0.990318775177002,0.6584670543670654,2.6383681297302246,3.913304328918457,0.8266379833221436,0.8855535387992859,3.131592035293579
341,106940,106941,-0.09880461543798447,-0.024623744189739227,0.9186034202575684,-74.09351348876953,49.80022430419922,0.9250804781913757,0.6389680504798889,2.6608669757843018,3.935803174972534,0.27132973074913025,0.09386805444955826,3.1542162895202637
342,106950,106951,-0.11345238238573074,-0.07277043908834457,0.9436758160591125,-68.88839721679688,49.03307342529297,-0.5292072892189026,0.6299684643745422,2.6608669757843018,3.9298033714294434,-0.1904657483100891,-0.38754329085350037,3.144260883331299
343,106960,106961,-0.006560027599334717,0.010313700884580612,1.038461446762085,-53.712738037109375,41.83680725097656,-0.9730390906333923,0.6479675769805908,2.648867607116699,3.9268035888671875,-0.6552054286003113,-1.186029076576233,3.135183334350586
344,106970,106971,-0.021505728363990784,0.04534919187426567,1.0840364694595337,-28.38686180114746,29.20802116394043,-1.968196988105774,0.6284685730934143,2.650367498397827,3.910304307937622,-0.7613323330879211,-1.218325138092041,3.102036237716675
345,106980,106981,-0.02414129488170147,0.07315132021903992,1.0710369348526,-5.710669040679932,12.520633697509766,-4.5275068283081055,0.6404679417610168,2.632368326187134,3.916304111480713,-1.106252908706665,-1.4415050745010376,3.076582908630371
346,106990,106991,-0.01823553442955017,-0.011797592043876648,1.017783761024475,11.320805549621582,-0.20573969185352325,-5.217433929443359,0.6314684152603149,2.623368740081787,3.910304307937622,-1.1405004262924194,-1.3179949522018433,3.0255162715911865
347,107000,107001,0.0718235895037651,0.0035040222574025393,1.0174634456634521,22.82999038696289,-13.486625671386719,-6.16172981262207,0.6329683661460876,2.621868848800659,3.908804416656494,-1.0547288656234741,-1.131267786026001,2.9722909927368164
348,107010,107011,0.022161312401294708,0.06279376149177551,1.028599500656128,25.10215950012207,-26.358427047729492,-7.617755889892578,0.6404679417610168,2.599370002746582,3.9043047428131104,-0.745374321937561,-0.7629936933517456,2.905459403991699
349,107020,107021,0.005720662884414196,0.11852707713842392,1.0824896097183228,24.202863693237305,-33.237674713134766,-7.932863235473633,0.6374680995941162,2.6113693714141846,3.913304328918457,-0.2667118310928345,-0.8154510855674744,2.7776265144348145
350,107030,107031,-0.0061815520748496056,0.10588070750236511,1.0231568813323975,21.26492691040039,-33.392372131347656,-9.841207504272461,0.6449677348136902,2.597870111465454,3.917804002761841,0.15445199608802795,-0.3849976658821106,2.6957600116729736
351,107040,107041,0.03921663016080856,0.05399114266037941,0.9467245936393738,16.586605072021484,-26.285451889038086,-10.488122940063477,0.6509674191474915,2.60086989402771,3.8968050479888916,0.1798909306526184,-0.4619342088699341,2.6077353954315186
352,107050,107051,0.047623977065086365,0.010068167001008987,0.9617432951927185,14.38219165802002,-14.6708345413208,-11.478425979614258,0.6524673700332642,2.596370220184326,3.910304307937622,0.46488112211227417,-0.29485976696014404,2.4806735515594482
353,107060,107061,0.0016668383032083511,0.029660752043128014,0.9835243821144104,14.521015167236328,-1.7887585163116455,-10.966320991516113,0.6479675769805908,2.5918703079223633,3.9058046340942383,0.6257970929145813,-0.19820164144039154,2.346938133239746
354,107070,107071,-0.003975562751293182,-0.05011584982275963,0.967863917350769,11.602383613586426,13.984465599060059,-11.773341178894043,0.6494675278663635,2.575371265411377,3.8983049392700195,0.2682386040687561,-0.00611640140414238,2.2785747051239014
355,107080,107081,-0.005590637680143118,-0.03717875853180885,1.0147751569747925,12.343842506408691,25.68459701538086,-10.751957893371582,0.6449677348136902,2.597870111465454,3.911804437637329,-0.006711410358548164,-0.02894342504441738,2.1594464778900146
356,107090,107091,-0.03750179708003998,-0.12075785547494888,0.9832573533058167,24.152729034423828,39.400108337402344,-9.822349548339844,0.6584670543670654,2.599370002746582,3.913304328918457,-0.1932893991470337,0.051649343222379684,2.0275464057922363
357,107100,107101,0.016496237367391586,-0.127501979470253,1.012231469154358,47.551971435546875,51.04723358154297,-7.496812343597412,0.6284685730934143,2.599370002746582,3.892305374145508,-0.8900008201599121,0.6476132273674011,1.9908230304718018
358,107110,107111,-0.0005165169131942093,-0.10157987475395203,0.9967696666717529,71.02943420410156,50.53466033935547,-9.06452465057373,0.6284685730934143,2.6173691749572754,3.9253036975860596,-1.4437130689620972,1.4092419147491455,1.9333101511001587
359,107120,107121,0.07323896884918213,0.07120618224143982,1.0178457498550415,84.0288314819336,33.93960952758789,-8.528159141540527,0.6284685730934143,2.6203689575195312,3.907304525375366,-1.9183838367462158,1.9151229858398438,1.8306058645248413
360,107130,107131,0.12424323707818985,0.05575472488999367,1.0812397003173828,79.35000610351562,6.6621994972229,-7.249730110168457,0.6404679417610168,2.596370220184326,3.9043047428131104,-2.01472806930542,2.9663450717926025,1.7882589101791382
361,107140,107141,-0.06465129554271698,-0.11282160878181458,0.9695634841918945,49.418701171875,-12.729792594909668,-8.191924095153809,0.6344682574272156,2.602369785308838,3.9193038940429688,-1.838728666305542,3.249471664428711,1.63985276222229
362,107150,107151,-0.09179297089576721,-0.07199034839868546,1.0078072547912598,21.725051879882812,-18.373950958251953,-5.987910747528076,0.6374680995941162,2.5603718757629395,3.910304307937622,-1.4943870306015015,3.535602569580078,1.5510284900665283
363,107160,107161,-0.03747014328837395,-0.050914108753204346,1.0535744428634644,-4.434988498687744,-12.32502555847168,-4.207790851593018,0.6449677348136902,2.549872398376465,3.9058046340942383,-1.3080878257751465,3.584029197692871,1.4914380311965942
364,107170,107171,-0.08366318792104721,-0.07041129469871521,1.003652811050415,-26.154829025268555,-5.89243221282959,-0.9918496012687683,0.6569671630859375,2.5378730297088623,3.8998048305511475,-1.179740309715271,3.2934322357177734,1.4292421340942383
365,107180,107181,-0.01161210797727108,-0.03561771661043167,1.0029417276382446,-33.779090881347656,-6.20272970199585,0.4800354540348053,0.6404679417610168,2.5543723106384277,3.913304328918457,-1.273161768913269,3.00030255317688,1.4184085130691528
366,107190,107191,0.02259734459221363,-0.05988314747810364,1.0189800262451172,-26.71227264404297,-16.072120666503906,1.6744807958602905,0.6509674191474915,2.543872833251953,3.8998048305511475,-1.0988435745239258,2.5788397789001465,1.4045287370681763
367,107200,107201,0.00820459146052599,-0.09832759201526642,0.9562561511993408,-14.383833885192871,-26.387676239013672,1.6591817140579224,0.6389680504798889,2.5378730297088623,3.8968050479888916,-0.7748798727989197,2.3297505378723145,1.4164320230484009
368,107210,107211,0.005893615540117025,-0.08245795220136642,0.9749707579612732,-0.7349664568901062,-28.598237991333008,1.7399970293045044,0.6494675278663635,2.542372941970825,3.8803060054779053,-0.3988693058490753,2.4339988231658936,1.4830888509750366
369,107220,107221,-0.04624001681804657,-0.1639522910118103,0.989324688911438,27.721500396728516,-26.280792236328125,2.8551206588745117,0.6479675769805908,2.5528724193573,3.8968050479888916,-0.23815315961837769,2.727708578109741,1.494244933128357
370,107230,107231,-0.018266048282384872,-0.10095372051000595,0.980952262878418,51.14717102050781,-15.22024917602539,4.929518699645996,0.6419678926467896,2.5618717670440674,3.8968050479888916,-0.07741378992795944,3.306286573410034,1.556704044342041
371,107240,107241,-0.029066840186715126,-0.22278493642807007,0.9574218392372131,67.07837677001953,-4.590670108795166,5.932049751281738,0.6404679417610168,2.569371461868286,3.916304111480713,0.1102987676858902,4.004449367523193,1.6491566896438599
372,107250,107251,-0.0029731951653957367,-0.08040041476488113,0.9217106103897095,65.74376678466797,12.487519264221191,9.437590599060059,0.6254687309265137,2.5543723106384277,3.907304525375366,-0.22927938401699066,4.568541049957275,1.6253654956817627
373,107260,107261,0.047358155250549316,-0.01052229106426239,1.0460976362228394,38.224884033203125,24.50105094909668,10.730415344238281,0.6359682083129883,2.5588719844818115,3.908804416656494,-0.42704346776008606,4.967061519622803,1.7097443342208862
374,107270,107271,-0.009297137148678303,-0.04749233275651932,0.8859928846359253,-7.074496746063232,31.36571502685547,9.330073356628418,0.6359682083129883,2.5318734645843506,3.9058046340942383,-0.6356537342071533,4.995034694671631,1.8345602750778198
375,107280,107281,-0.07938551157712936,-0.30529606342315674,0.92853182554245,-58.914161682128906,31.8313045501709,10.80434513092041,0.6329683661460876,2.567871570587158,3.911804437637329,-1.1103709936141968,4.433745861053467,1.8572871685028076
376,107290,107291,0.04573887586593628,-0.030547291040420532,0.9881638288497925,-99.99691772460938,26.77178382873535,16.558862686157227,0.6284685730934143,2.6083695888519287,3.9223039150238037,-1.146106481552124,3.570702075958252,2.126011848449707
377,107300,107301,-0.029942641034722328,-0.029824210330843925,0.8892450332641602,-121.4371109008789,8.886460304260254,19.26289939880371,0.6269686222076416,2.62786865234375,3.9238038063049316,-1.3904222249984741,2.3937594890594482,2.256444215774536
378,107310,107311,-0.07160111516714096,-0.12338922917842865,0.9510451555252075,-116.1246337890625,-6.66705322265625,25.30256462097168,0.6509674191474915,2.6368680000305176,3.9238038063049316,-1.2079156637191772,1.283255696296692,2.5882270336151123
379,107320,107321,0.020302841439843178,-0.19142413139343262,0.8320092558860779,-96.05384063720703,-21.4304141998291,31.277074813842773,0.6449677348136902,2.630868434906006,3.9058046340942383,-1.0246495008468628,0.16127927601337433,2.886998176574707
380,107330,107331,0.008935706689953804,-0.09098504483699799,0.9791670441627502,-64.35242462158203,-30.157285690307617,38.44045639038086,0.6419678926467896,2.6098694801330566,3.917804002761841,-0.7501436471939087,-0.18700502812862396,3.339954137802124
381,107340,107341,-0.04189731180667877,-0.16391082108020782,0.9945341944694519,-23.955482482910156,-33.27495574951172,40.69017791748047,0.6284685730934143,2.623368740081787,3.9013049602508545,-0.37207430601119995,-0.5293058753013611,3.781470537185669
382,107350,107351,-0.05510123819112778,-0.0404713973402977,0.9976038932800293,8.898860931396484,-31.510692596435547,42.00792694091797,0.623968780040741,2.624868631362915,3.9028048515319824,-0.007159616332501173,-0.467883825302124,4.239362716674805
383,107360,107361,-0.030324574559926987,-0.004855669103562832,1.034055471420288,26.52280044555664,-27.24631690979004,43.965511322021484,0.6179690957069397,2.624868631362915,3.914804220199585,0.23299911618232727,-0.2242433726787567,4.666601181030273
384,107370,107371,-0.022796524688601494,-0.027720894664525986,0.9851185083389282,32.878517150878906,-24.76173973083496,43.497802734375,0.6269686222076416,2.6158690452575684,3.914804220199585,0.5531654357910156,0.21552696824073792,5.150582790374756
385,107380,107381,-0.050120722502470016,-0.09639500826597214,1.0396945476531982,31.731142044067383,-26.26276969909668,36.232906341552734,0.6254687309265137,2.6053695678710938,3.910304307937622,0.8031256198883057,0.45970675349235535,5.535860538482666
386,107390,107391,-0.1328403800725937,-0.15972447395324707,0.8992761373519897,23.14309310913086,-24.668079376220703,30.184091567993164,0.6314684152603149,2.596370220184326,3.9193038940429688,1.1719214916229248,0.8357845544815063,5.898285388946533
387,107400,107401,-0.0529131144285202,0.07597571611404419,0.9513523578643799,4.249756813049316,-16.26363182067871,25.142868041992188,0.6299684643745422,2.5858707427978516,3.917804002761841,1.0895761251449585,0.765895664691925,6.078280925750732
388,107410,107411,0.02593284659087658,0.17316089570522308,1.0448631048202515,-15.471221923828125,-8.17127799987793,19.98350715637207,0.6389680504798889,2.5798709392547607,3.9058046340942383,1.1126216650009155,0.6527535915374756,6.280820846557617
389,107420,107421,-0.011610778048634529,0.0018661689246073365,0.9696112275123596,-38.515506744384766,0.08516757190227509,15.149876594543457,0.6404679417610168,2.593370199203491,3.9043047428131104,1.2417066097259521,0.19261498749256134,6.462216377258301
390,107430,107431,-0.04557289928197861,-0.06391353160142899,0.8735002875328064,-54.848365783691406,7.774295330047607,10.839768409729004,0.6404679417610168,2.5903704166412354,3.8953051567077637,1.178065538406372,-0.3920394480228424,6.582045555114746
391,107440,107441,-0.058746661990880966,0.015535813756287098,0.9875223636627197,-53.749027252197266,18.503385543823242,5.981513023376465,0.6494675278663635,2.6173691749572754,3.907304525375366,0.9511289596557617,-1.006555199623108,6.646859645843506
392,107450,107451,-0.08084430545568466,-0.057374365627765656,1.0223965644836426,-36.258323669433594,32.13400650024414,3.595909833908081,0.6479675769805908,2.603869676589966,3.8968050479888916,0.9006532430648804,-1.4065855741500854,6.711110591888428
393,107460,107461,-0.08787193149328232,-0.017253704369068146,1.0346579551696777,-2.8883042335510254,46.49422836303711,0.7746328115463257,0.6269686222076416,2.6098694801330566,3.911804437637329,0.4007725417613983,-1.5882600545883179,6.7121500968933105
394,107470,107471,0.03237339109182358,0.037428952753543854,0.9889678955078125,17.103519439697266,45.22513198852539,-1.6420313119888306,0.6269686222076416,2.621868848800659,3.8998048305511475,-0.041256263852119446,-1.341265320777893,6.688168525695801
395,107480,107481,0.0057450998574495316,0.015207363292574883,1.0060904026031494,29.21523666381836,37.43393325805664,-4.598596572875977,0.6329683661460876,2.60086989402771,3.908804416656494,-0.5120355486869812,-1.0186314582824707,6.637734413146973
396,107490,107491,-0.023988349363207817,-0.09757572412490845,1.1294898986816406,47.71316146850586,37.485687255859375,-6.628154277801514,0.6134693026542664,2.596370220184326,3.9043047428131104,-0.7147234678268433,-0.6033069491386414,6.574573040008545
397,107500,107501,-0.11274860799312592,-0.2203996479511261,1.0514466762542725,62.311771392822266,42.52323913574219,-8.738054275512695,0.6149692535400391,2.606869697570801,3.9028048515319824,-1.0221168994903564,-0.16266854107379913,6.49247932434082
398,107510,107511,-0.14609497785568237,-0.09094041585922241,1.011637806892395,63.9687614440918,38.45692443847656,-12.379963874816895,0.6209689378738403,2.5918703079223633,3.908804416656494,-1.668182611465454,0.6193763613700867,6.397079944610596
399,107520,107521,-0.02703900821506977,0.05380917713046074,0.9976478219032288,53.425838470458984,15.436447143554688,-15.833627700805664,0.6209689378738403,2.5798709392547607,3.9268035888671875,-1.8755754232406616,1.2585393190383911,6.250757217407227
400,107530,107531,-0.00559000950306654,0.0006942905019968748,0.9323903918266296,21.46042251586914,-23.09457015991211,-20.643573760986328,0.6194689869880676,2.5903704166412354,3.8953051567077637,-1.383357286453247,1.300015926361084,6.018754959106445
401,107540,107541,0.0072889914736151695,0.04482027515769005,0.9556089043617249,-12.274176597595215,-46.78443145751953,-23.324697494506836,0.6314684152603149,2.572371244430542,3.8953051567077637,-0.9615212082862854,1.1689399480819702,5.7771382331848145
402,107550,107551,0.15018513798713684,-0.03206370398402214,0.9174723625183105,-36.83281326293945,-53.50274658203125,-24.763145446777344,0.6539672613143921,2.594870090484619,3.8968050479888916,-0.6357372403144836,0.8213804960250854,5.535356521606445
403,107560,107561,0.1805480271577835,0.1315852850675583,1.020310401916504,-44.94697570800781,-56.10161209106445,-28.031436920166016,0.6389680504798889,2.606869697570801,3.9208037853240967,0.026576489210128784,0.3752083480358124,5.255913734436035
404,107570,107571,0.03815000131726265,0.1172017976641655,1.0589392185211182,-39.924312591552734,-44.82527542114258,-29.586687088012695,0.6584670543670654,2.5903704166412354,3.916304111480713,0.6292478442192078,-0.03392207622528076,4.958714485168457
405,107580,107581,0.00028648751322180033,0.08635853976011276,1.0210824012756348,-27.96135902404785,-21.406532287597656,-29.989696502685547,0.6569671630859375,2.5798709392547607,3.9058046340942383,0.6951114535331726,-0.4774143099784851,4.660749435424805
406,107590,107591,0.03055633045732975,0.07863757759332657,0.9450833797454834,-16.88521957397461,2.654877185821533,-28.353979110717773,0.66896653175354,2.576871156692505,3.908804416656494,0.6738985776901245,-0.7363840937614441,4.370140075683594
407,107600,107601,-0.10985634475946426,-0.09880661219358444,0.9847251176834106,-2.7442266941070557,27.131980895996094,-27.998334884643555,0.6389680504798889,2.573871374130249,3.8998048305511475,0.5605332255363464,-0.7836010456085205,4.083498001098633
408,107610,107611,-0.1530916839838028,-0.14630939066410065,1.0212342739105225,12.584428787231445,47.26695251464844,-28.21282196044922,0.6464676856994629,2.593370199203491,3.8983049392700195,0.022102637216448784,-0.6458145976066589,3.814619779586792
409,107620,107621,-0.17120614647865295,-0.1504715085029602,1.1032642126083374,22.63499641418457,58.93269348144531,-29.141393661499023,0.6404679417610168,2.593370199203491,3.910304307937622,-0.547146201133728,-0.3950706720352173,3.5281388759613037
410,107630,107631,-0.16722902655601501,-0.18282365798950195,1.0361722707748413,35.893253326416016,61.1634407043457,-31.086748123168945,0.6209689378738403,2.5888705253601074,3.914804220199585,-1.11799156665802,-0.1537584364414215,3.2161808013916016
411,107640,107641,-0.19382989406585693,-0.26331785321235657,0.9178597927093506,49.104469299316406,52.205814361572266,-33.04782485961914,0.6374680995941162,2.5873706340789795,3.9343032836914062,-1.5890088081359863,0.46056970953941345,2.8855061531066895
412,107650,107651,-0.08367031812667847,-0.10585204511880875,0.9998472332954407,51.133487701416016,31.966947555541992,-32.41596984863281,0.6329683661460876,2.567871570587158,3.914804220199585,-1.9470031261444092,0.9020344614982605,2.543708324432373
413,107660,107661,0.05980468541383743,0.008787138387560844,0.8815406560897827,41.39873123168945,1.397863507270813,-29.038864135742188,0.6464676856994629,2.5603718757629395,3.8983049392700195,-1.9924168586730957,1.3869543075561523,2.2312793731689453
414,107670,107671,0.06537123769521713,-0.007604935206472874,0.905707597732544,16.29502296447754,-31.28451156616211,-22.992158889770508,0.622468888759613,2.5633718967437744,3.8953051567077637,-1.8004052639007568,1.2994117736816406,1.9373098611831665
415,107680,107681,0.022642359137535095,-0.04140680283308029,0.8779592514038086,-5.809854030609131,-50.977447509765625,-21.97493553161621,0.6314684152603149,2.578371047973633,3.892305374145508,-1.1252121925354004,1.3236545324325562,1.6835227012634277
416,107690,107691,-0.041016772389411926,-0.07563930004835129,0.9087322950363159,-22.738893508911133,-40.101097106933594,-20.41707992553711,0.6344682574272156,2.575371265411377,3.910304307937622,-0.7307462692260742,1.1137475967407227,1.4569668769836426
417,107700,107701,0.06674055755138397,0.056673623621463776,0.8607798218727112,-33.94896697998047,-14.039539337158203,-18.035568237304688,0.6314684152603149,2.569371461868286,3.9013049602508545,-0.4372509717941284,0.814826488494873,1.2621506452560425
418,107710,107711,-0.09249433130025864,-0.08300397545099258,0.9809709787368774,-32.3087158203125,10.644535064697266,-17.5092830657959,0.6359682083129883,2.594870090484619,3.887805461883545,-0.4992026388645172,0.35607317090034485,1.066585898399353
419,107720,107721,-0.0988646000623703,-0.10509724915027618,0.8657465577125549,-19.12515640258789,17.718494415283203,-16.587665557861328,0.6419678926467896,2.5828707218170166,3.9028048515319824,-0.5745892524719238,0.061257243156433105,0.882724404335022
420,107730,107731,-0.0864492729306221,-0.17713341116905212,0.9521471858024597,11.219182014465332,12.813981056213379,-11.454541206359863,0.6389680504798889,2.597870111465454,3.9238038063049316,-0.8644669651985168,0.03994250297546387,0.7476153373718262
421,107740,107741,-0.02730841375887394,-0.17196813225746155,1.0348539352416992,31.46719741821289,10.83827018737793,-5.554160118103027,0.6389680504798889,2.597870111465454,3.9238038063049316,-1.0956698656082153,0.4897034168243408,0.6982057094573975
422,107750,107751,-0.0029628705233335495,-0.11620930582284927,1.0947597026824951,37.0965461730957,17.104686737060547,0.8936917781829834,0.6389680504798889,2.597870111465454,3.9238038063049316,-1.2956361770629883,0.9028874635696411,0.6890223622322083
423,107760,107761,0.07915156334638596,0.051623716950416565,1.030140995979309,34.648216247558594,10.367591857910156,4.973546981811523,0.6359682083129883,2.621868848800659,3.9238038063049316,-1.4983768463134766,1.4692401885986328,0.7685372829437256
424,107770,107771,-0.01960134692490101,-0.04817379266023636,1.0497030019760132,29.316131591796875,-14.98581600189209,5.037202835083008,0.6284685730934143,2.623368740081787,3.9313032627105713,-1.2362056970596313,1.279083013534546,0.727454423904419
425,107780,107781,-0.14441345632076263,-0.18843096494674683,1.0174068212509155,23.144996643066406,-35.071922302246094,7.12830924987793,0.6344682574272156,2.599370002746582,3.9193038940429688,-0.790721595287323,1.615701675415039,0.7882868647575378
426,107790,107791,-0.16925442218780518,-0.33009594678878784,0.976821780204773,16.469995498657227,-49.14191436767578,5.920241355895996,0.6314684152603149,2.599370002746582,3.916304111480713,-0.4005677402019501,1.842572808265686,0.8430448174476624
427,107800,107801,-0.07065024971961975,-0.2660257816314697,0.8346638083457947,19.420730590820312,-43.931396484375,4.540311336517334,0.6404679417610168,2.596370220184326,3.913304328918457,0.13862256705760956,2.0304579734802246,0.880614697933197
428,107810,107811,-0.026397250592708588,-0.24705827236175537,0.8250903487205505,11.813451766967773,-22.338947296142578,2.5834429264068604,0.6479675769805908,2.5888705253601074,3.9268035888671875,0.21444010734558105,2.2159531116485596,0.8989231586456299
429,107820,107821,-0.015211254358291626,-0.29997771978378296,0.9391641020774841,5.96812629699707,5.983919143676758,0.9618277549743652,0.6404679417610168,2.5813708305358887,3.907304525375366,0.32665783166885376,2.2950382232666016,0.9074764847755432
430,107830,107831,0.014423216693103313,-0.1700230836868286,0.9078940153121948,-5.230266571044922,26.441112518310547,-0.3514743745326996,0.6359682083129883,2.60086989402771,3.911804437637329,0.025675522163510323,2.3637824058532715,0.9149171113967896
431,107840,107841,-0.02794918790459633,-0.15039004385471344,1.064461588859558,-20.567520141601562,40.81332015991211,2.477466344833374,0.6284685730934143,2.6143691539764404,3.9253036975860596,-0.4872756600379944,2.160740375518799,0.9211189150810242
432,107850,107851,-0.07805603742599487,-0.09687607735395432,1.1123589277267456,-22.694774627685547,45.806480407714844,5.8038177490234375,0.6314684152603149,2.6413679122924805,3.9283034801483154,-1.0033071041107178,1.8119022846221924,0.9676768183708191
433,107860,107861,-0.019072849303483963,-0.06704262644052505,1.03218674659729,-7.77768087387085,35.655426025390625,3.375591516494751,0.622468888759613,2.653367280960083,3.9343032836914062,-1.2626478672027588,1.8098596334457397,1.055009126663208
434,107870,107871,-0.09228013455867767,-0.15060609579086304,1.0602861642837524,6.465856552124023,9.246268272399902,0.4093322455883026,0.6254687309265137,2.632368326187134,3.9253036975860596,-1.425525188446045,1.9105499982833862,1.096295714378357
435,107880,107881,-0.10095351934432983,-0.23849263787269592,1.0446789264678955,8.95240306854248,-27.505779266357422,-1.2343339920043945,0.6119694113731384,2.6398680210113525,3.9328033924102783,-1.2644826173782349,2.0918407440185547,1.1035683155059814
436,107890,107891,-0.15906952321529388,-0.19221146404743195,0.9691275954246521,-5.015199184417725,-49.801910400390625,-3.904384136199951,0.6314684152603149,2.623368740081787,3.913304328918457,-0.7130696177482605,2.127849578857422,1.076385259628296
437,107900,107901,-0.15301276743412018,-0.13985586166381836,0.9660971164703369,6.327622413635254,-50.21116256713867,-6.471938133239746,0.6374680995941162,2.6383681297302246,3.9223039150238037,-0.07838991284370422,2.12243390083313,1.016066551208496
438,107910,107911,-0.08964306116104126,-0.038013070821762085,1.02219820022583,16.343286514282227,-36.1304931640625,-8.089640617370605,0.6404679417610168,2.632368326187134,3.9343032836914062,0.2795065641403198,2.3317806720733643,0.9252150058746338
439,107920,107921,0.05152956768870354,0.0804777666926384,1.0337084531784058,18.97593879699707,-4.6740007400512695,-8.740527153015137,0.6464676856994629,2.6353681087493896,3.916304111480713,0.5222323536872864,2.6345198154449463,0.8537735939025879
440,107930,107931,0.03954001143574715,-0.02649112045764923,1.1372650861740112,8.03182601928711,25.988832473754883,-7.35089635848999,0.6314684152603149,2.632368326187134,3.9253036975860596,0.09177745133638382,2.774259090423584,0.7252321839332581
441,107940,107941,0.14110314846038818,0.03369322419166565,1.0937951803207397,-15.131711959838867,46.45750045776367,-7.282719612121582,0.6359682083129883,2.6668665409088135,3.93880295753479,-0.25628381967544556,2.7071681022644043,0.6855073571205139
442,107950,107951,0.11128345131874084,0.021093446761369705,0.9549012184143066,-37.53794860839844,57.56461715698242,-10.276244163513184,0.6269686222076416,2.6638667583465576,3.9328033924102783,-1.1432278156280518,2.3013057708740234,0.539040207862854
443,107960,107961,0.06773391366004944,0.08229614794254303,1.1187814474105835,-58.12262725830078,53.2106819152832,-11.078444480895996,0.6299684643745422,2.6998648643493652,3.944802761077881,-1.5382716655731201,1.80951726436615,0.4830471873283386
444,107970,107971,0.08673746138811111,0.20597340166568756,1.0351330041885376,-69.04427337646484,40.80439758300781,-10.58358097076416,0.616469144821167,2.680366039276123,3.9283034801483154,-2.020268201828003,1.091496229171753,0.3800940215587616
445,107980,107981,-0.029726702719926834,-0.007486300077289343,1.0880334377288818,-73.2735366821289,23.864662170410156,-7.821477890014648,0.6209689378738403,2.6728663444519043,3.9328033924102783,-2.126504421234131,0.5565259456634521,0.35972461104393005
446,107990,107991,-0.030357863754034042,-0.09721843898296356,0.9625182747840881,-68.27193450927734,5.368621826171875,-6.058625221252441,0.622468888759613,2.659367084503174,3.9223039150238037,-2.3353188037872314,-0.4306809902191162,0.23999249935150146
447,108000,108001,0.02674722485244274,-0.09775200486183167,1.0046688318252563,-51.68555450439453,-12.078702926635742,-3.1954495906829834,0.6194689869880676,2.677366018295288,3.9223039150238037,-2.183361053466797,-1.0995326042175293,0.20276503264904022
448,108010,108011,0.03260838985443115,-0.044459570199251175,1.097680687904358,-27.11566162109375,-25.92525291442871,-1.3630369901657104,0.6194689869880676,2.650367498397827,3.9193038940429688,-1.9017157554626465,-1.1739294528961182,0.2507641315460205
449,108020,108021,-0.05994021147489548,-0.025234850123524666,1.0986531972885132,0.18605493009090424,-37.59767150878906,-1.8833736181259155,0.6269686222076416,2.6458675861358643,3.911804437637329,-1.4167062044143677,-1.3840924501419067,0.24208539724349976
450,108030,108031,-0.15285317599773407,0.04923434183001518,1.213894009590149,22.670320510864258,-45.377952575683594,-1.3142342567443848,0.6314684152603149,2.656367063522339,3.9223039150238037,-1.1272042989730835,-1.153723955154419,0.2433469593524933
451,108040,108041,-0.010540226474404335,0.07403909415006638,1.0717267990112305,43.23582458496094,-44.78806686401367,-0.5257090926170349,0.6404679417610168,2.659367084503174,3.9193038940429688,-0.506916880607605,-0.6109674572944641,0.28504201769828796
452,108050,108051,0.07592731714248657,0.13160674273967743,1.0852171182632446,48.53453826904297,-40.8284797668457,0.35178419947624207,0.6269686222076416,2.657866954803467,3.9298033714294434,-0.23476167023181915,-0.1059124544262886,0.28875935077667236
453,108060,108061,0.09201299399137497,0.1559021919965744,1.0072214603424072,46.7522087097168,-33.30492401123047,3.0599093437194824,0.6359682083129883,2.624868631362915,3.9238038063049316,-0.0002674782881513238,0.15316994488239288,0.2751777768135071
454,108070,108071,0.142500638961792,0.06232944503426552,1.0657621622085571,35.547645568847656,-27.42186164855957,3.4116125106811523,0.6449677348136902,2.6428678035736084,3.9208037853240967,0.3482922315597534,0.5774462819099426,0.3055060803890228
455,108080,108081,0.09830781817436218,-0.027745747938752174,1.127943992614746,15.652122497558594,-24.675168991088867,3.8208632469177246,0.6314684152603149,2.6113693714141846,3.916304111480713,0.22018586099147797,0.8885578513145447,0.3746850788593292
456,108090,108091,0.09491395205259323,0.046864449977874756,1.0637497901916504,-2.7921957969665527,-17.508893966674805,3.8803000450134277,0.6494675278663635,2.6053695678710938,3.907304525375366,0.5494672656059265,0.9510639905929565,0.40744030475616455
457,108100,108101,0.041525132954120636,0.09085021913051605,1.0826466083526611,-21.459766387939453,-5.55914306640625,4.439820289611816,0.6389680504798889,2.6188690662384033,3.911804437637329,0.5620408654212952,0.6202069520950317,0.43664923310279846
458,108110,108111,0.03534405678510666,-0.0492720901966095,1.049230694770813,-36.1892204284668,9.594239234924316,3.2345736026763916,0.6554672122001648,2.6203689575195312,3.913304328918457,0.5581308603286743,0.25505343079566956,0.46677008271217346
459,108120,108121,-0.033756572753190994,-0.14293120801448822,1.073833703994751,-43.45042037963867,22.223787307739258,0.20116430521011353,0.6419678926467896,2.6428678035736084,3.914804220199585,0.18241944909095764,-0.22255748510360718,0.4911822974681854
460,108130,108131,0.1177709549665451,-0.050460971891880035,1.058135747909546,-45.17969512939453,19.34644889831543,-5.20414400100708,0.6344682574272156,2.653367280960083,3.913304328918457,-0.08715475350618362,-0.48721951246261597,0.4725852310657501
461,108140,108141,0.1375509649515152,0.029368335381150246,1.1223700046539307,-32.238189697265625,8.724200248718262,-11.142904281616211,0.6449677348136902,2.6338682174682617,3.8968050479888916,-0.06611263006925583,-0.9635159373283386,0.378772497177124
462,108150,108151,0.08161730319261551,-0.00897850003093481,1.046832799911499,-16.223976135253906,-2.676870822906494,-15.548595428466797,0.6434678435325623,2.6113693714141846,3.9193038940429688,-0.01651482842862606,-1.1111201047897339,0.23731744289398193
463,108160,108161,-0.012427616864442825,-0.023048333823680878,1.040348768234253,-4.838726043701172,-11.466938972473145,-20.074356079101562,0.6464676856994629,2.6083695888519287,3.9013049602508545,0.15165039896965027,-1.2216566801071167,0.04881390556693077
464,108170,108171,0.09396686404943466,0.006163544952869415,1.0741983652114868,2.110940933227539,-19.02960777282715,-24.642290115356445,0.6479675769805908,2.597870111465454,3.8998048305511475,0.37249279022216797,-1.2833006381988525,-0.18066246807575226
465,108180,108181,0.09113672375679016,0.047939151525497437,1.047468662261963,7.352452754974365,-11.220269203186035,-26.61254119873047,0.6479675769805908,2.5888705253601074,3.9028048515319824,0.5367329120635986,-1.223958134651184,-0.43130895495414734
466,108190,108191,0.0666898563504219,0.06860658526420593,1.0791280269622803,9.665705680847168,6.496981620788574,-29.666311264038086,0.6644667387008667,2.5873706340789795,3.9013049602508545,0.48794957995414734,-1.1222937107086182,-0.701909065246582
467,108200,108201,0.053443457931280136,0.036431360989809036,1.0418016910552979,14.681254386901855,26.906251907348633,-33.23194885253906,0.6554672122001648,2.6053695678710938,3.913304328918457,0.3034241199493408,-0.9500192999839783,-1.0169533491134644
468,108210,108211,-0.040112532675266266,-0.14960630238056183,0.9237943291664124,16.101388931274414,35.47892379760742,-34.346927642822266,0.6494675278663635,2.6083695888519287,3.916304111480713,-0.05409042164683342,-0.713111162185669,-1.3551106452941895
469,108220,108221,-0.20536832511425018,-0.19194883108139038,1.0515714883804321,2.774306297302246,26.6544246673584,-33.427608489990234,0.6389680504798889,2.603869676589966,3.9028048515319824,-0.35513871908187866,-0.5527755618095398,-1.7074508666992188
470,108230,108231,0.034566763788461685,-0.05518637225031853,0.9904215931892395,-11.438371658325195,19.94966697692871,-28.55103302001953,0.6449677348136902,2.60086989402771,3.9238038063049316,-0.699951708316803,-0.6465708613395691,-1.9846466779708862
471,108240,108241,-0.001591928768903017,-0.04903857037425041,1.1074244976043701,-25.890884399414062,9.827017784118652,-22.2136287689209,0.6284685730934143,2.6173691749572754,3.910304307937622,-0.48899897933006287,-1.1652594804763794,-2.3020668029785156
472,108250,108251,-0.1260772943496704,-0.13715720176696777,0.956953763961792,-42.79224395751953,2.5946216583251953,-13.572256088256836,0.6449677348136902,2.603869676589966,3.9028048515319824,-0.5229436159133911,-1.6474995613098145,-2.4736247062683105
473,108260,108261,-0.1420193761587143,-0.10282990336418152,1.1948596239089966,-45.26741409301758,-1.4349018335342407,-7.121254920959473,0.6404679417610168,2.629368543624878,3.9043047428131104,-0.5929352641105652,-2.23626971244812,-2.550022840499878
474,108270,108271,0.030626872554421425,0.06877488642930984,1.2492148876190186,-9.99750804901123,-7.680854797363281,2.901850700378418,0.6524673700332642,2.6143691539764404,3.916304111480713,-0.5585082173347473,-2.0179524421691895,-2.57942795753479
475,108280,108281,-0.02547561004757881,-0.04995042085647583,1.0858455896377563,37.885494232177734,-12.495733261108398,6.654269218444824,0.6464676856994629,2.602369785308838,3.8953051567077637,-0.41897711157798767,-1.6688491106033325,-2.539823532104492
476,108290,108291,0.010033799335360527,-0.11586520820856094,0.9756699204444885,75.53515625,-18.667232513427734,5.266175270080566,0.6344682574272156,2.6083695888519287,3.916304111480713,-0.3785546123981476,-0.8794188499450684,-2.4511613845825195
477,108300,108301,0.10234527289867401,0.055645108222961426,1.1597929000854492,92.69136810302734,-22.661447525024414,2.5994131565093994,0.6524673700332642,2.6173691749572754,3.9223039150238037,-0.19657762348651886,-0.23375128209590912,-2.4017701148986816
478,108310,108311,0.17833909392356873,0.14757823944091797,1.0129263401031494,96.86082458496094,-26.49250030517578,-0.04048794135451317,0.6569671630859375,2.60086989402771,3.911804437637329,-0.08772943913936615,0.9437487721443176,-2.3395302295684814
