,gyro.x,gyro.y,gyro.z,stabilizer.pitch,stabilizer.roll,stabilizer.yaw,label
0,0.00864217896014452,-0.1303328573703766,-0.001915378263220191,-0.3757665455341339,-0.6722233891487122,-0.000284076202660799,2
1,0.031751248985528946,0.0823095440864563,0.010285260155797005,-0.3747076988220215,-0.671556830406189,-8.48125091579277e-06,2
2,-0.027449458837509155,0.021092111244797707,-0.06125539168715477,-0.3749352693557739,-0.6707232594490051,-1.9582099412218668e-05,2
3,-0.037818677723407745,-0.02258036658167839,-0.09227245301008224,-0.37490299344062805,-0.6701125502586365,-0.0004154842463321984,2
4,0.02723829448223114,-0.00590653158724308,-0.02511030063033104,-0.3745307922363281,-0.6694254875183105,-0.0009056291892193258,2
5,0.009556557983160019,0.00882625114172697,0.0854591429233551,-0.3741632401943207,-0.6687304973602295,-0.0014435108751058578,2
6,-0.009538293816149235,-0.10758832842111588,-0.0013496469473466277,-0.3739541471004486,-0.668060839176178,-0.000854011217597872,2
7,-0.1313048154115677,-0.05678451061248779,0.08540201187133789,-0.37263840436935425,-0.6672911643981934,-0.0005104654119350016,2
8,0.07224435359239578,-0.0066929967142641544,-0.06450371444225311,-0.3719290494918823,-0.6674591898918152,0.0001275137474294752,2
9,0.046939603984355927,-0.03974899649620056,0.001243588631041348,-0.37166348099708557,-0.6663605570793152,-0.00016122339002322406,2
10,0.022047102451324463,-0.11131264269351959,-0.011136739514768124,-0.371044784784317,-0.6652364134788513,-0.0004351117822807282,2
11,0.141445592045784,-0.024135909974575043,0.035340890288352966,-0.36989733576774597,-0.6642986536026001,-0.0005143973394297063,2
12,-0.04750868305563927,0.05031496658921242,0.05463295057415962,-0.3689557909965515,-0.6629827618598938,-0.0006668442510999739,2
13,-0.033621951937675476,-0.020975524559617043,-0.009685278870165348,-0.36884817481040955,-0.6624029278755188,-5.789983697468415e-05,2
14,-0.09469408541917801,0.114812470972538,-0.036000899970531464,-0.3682432770729065,-0.6618865728378296,-8.497797534801066e-05,2
15,-0.007132330909371376,-0.02440708503127098,-0.03770770505070686,-0.36841750144958496,-0.661616861820221,-0.0003080956230405718,2
16,0.07887190580368042,0.04969317838549614,-0.02092934213578701,-0.3678891956806183,-0.66055828332901,-0.0003532198606990278,2
17,0.007455436512827873,-0.005812750197947025,-0.1041070818901062,-0.36768099665641785,-0.6596365571022034,-0.0004443956713657826,2
18,0.005304509308189154,-0.006407016422599554,0.0011047866428270936,-0.36754223704338074,-0.6590209007263184,-0.0008674561395309865,2
19,0.021187735721468925,-0.05492950975894928,0.04237134009599686,-0.3670503795146942,-0.6587663292884827,-0.0009870321955531836,2
20,-0.032493747770786285,0.0280498918145895,-0.0019386876374483109,-0.3678203225135803,-0.5987837910652161,-0.0008373617311008275,2
21,0.08077006787061691,0.020063893869519234,0.04755241423845291,-0.3693523705005646,-0.6173979640007019,-0.0006861211149953306,2
22,-0.06995527446269989,-0.05021490901708603,0.03170612081885338,-0.3707345724105835,-0.6315459609031677,-0.0005777793121524155,2
23,0.01615786738693714,0.001298371935263276,-0.06423637270927429,-0.37165412306785583,-0.7064529061317444,-0.0003920960589312017,2
24,0.0009959894232451916,-0.010004387237131596,-0.05014514550566673,-0.372270405292511,-0.6998081803321838,-0.0007246811874210835,2
25,-0.04458771273493767,-0.04050722345709801,0.02025546133518219,-0.37165895104408264,-0.6989767551422119,-0.0010628593154251575,2
26,0.021179568022489548,-0.013180343434214592,0.0666755735874176,-0.3709830343723297,-0.6986008882522583,-0.0012512116227298975,2
27,0.025150872766971588,0.013972902670502663,0.01234282087534666,-0.3708244562149048,-0.6976561546325684,-0.0010380650637671351,2
28,0.07735495269298553,0.08969947695732117,-0.0100401034578681,-0.3705689311027527,-0.6967827677726746,-0.001123919733799994,2
29,0.07743151485919952,0.0862242802977562,0.012777033261954784,-0.37101420760154724,-0.6953021287918091,-0.0011263054329901934,2
30,-0.028716713190078735,-7.19832896720618e-05,-0.02639615349471569,-0.3714309632778168,-0.6937259435653687,-0.0012923917965963483,2
31,0.06058306246995926,-0.08562052249908447,0.04652881622314453,-0.371075302362442,-0.69314044713974,-0.0014165809843689203,2
32,-0.000330439826939255,-0.04968753457069397,-0.0115182651206851,-0.37034857273101807,-0.691730260848999,-0.0012917739804834127,2
33,-0.04258820414543152,-0.012977119535207748,0.005812237970530987,-0.369954377412796,-0.6906177401542664,-0.0008932597120292485,2
34,-0.015542014501988888,0.024724332615733147,0.02496700920164585,-0.3693406581878662,-0.6900413036346436,-0.001009720959700644,2
35,0.024768222123384476,0.06068791076540947,0.046523213386535645,-0.3689705729484558,-0.6897217631340027,-0.0009189501288346946,2
36,-0.0846330001950264,0.0031303626019507647,-0.08369790762662888,-0.3685555160045624,-0.6884980201721191,-0.0002754930465016514,2
37,-0.012557393871247768,0.0694478303194046,-0.10297315567731857,-0.36820194125175476,-0.6885601878166199,-0.0004875280137639493,2
38,-0.0034262347035109997,-0.05981854349374771,0.045453574508428574,-0.36803585290908813,-0.6878336668014526,-0.0018022372387349606,2
39,0.027618788182735443,0.005462377332150936,-0.026509137824177742,-0.3675534427165985,-0.6872773170471191,-0.0016947572585195303,2
40,-0.035001810640096664,-0.016644064337015152,-0.07550429552793503,-0.36681243777275085,-0.6860067248344421,-0.0016994621837511659,2
41,0.04829510301351547,-0.0023263157345354557,-0.005719463340938091,-0.3659979999065399,-0.6858102679252625,-0.0024454635567963123,2
42,0.0033273238223046064,0.04560593143105507,0.04210849851369858,-0.36542293429374695,-0.6849225163459778,-0.0032405529636889696,2
43,0.09194625914096832,0.11889586597681046,-0.0568983368575573,-0.36538001894950867,-0.6836408972740173,-0.0030081213917583227,2
44,0.0048260982148349285,-0.06158917397260666,-0.030589409172534943,-0.3654472827911377,-0.6823216080665588,-0.0030763898976147175,2
45,0.13803814351558685,0.1117473766207695,-0.008643265813589096,-0.36524128913879395,-0.6813560724258423,-0.0033098789863288403,2
46,0.018045485019683838,-0.0382794588804245,0.02838830277323723,-0.36520153284072876,-0.6797325015068054,-0.0034210532903671265,2
47,0.0569516085088253,-0.036095358431339264,-0.03409445285797119,-0.36517247557640076,-0.6788241863250732,-0.0028389242943376303,2
48,-0.05543830245733261,0.1119413897395134,0.06022929772734642,-0.36447036266326904,-0.678226113319397,-0.0026297152508050203,2
49,0.04784731566905975,-0.012176594696938992,-0.09163045883178711,-0.36491215229034424,-0.6772604584693909,-0.0019586430862545967,2
50,0.03364299610257149,0.04396915063261986,0.03339372202754021,-0.36472994089126587,-0.6764845252037048,-0.002560898195952177,2
51,0.040885455906391144,-0.01266779750585556,0.03780873864889145,-0.36469489336013794,-0.6755921244621277,-0.0029631543438881636,2
52,-0.01667315512895584,-0.11962036788463593,0.0184471532702446,-0.364652544260025,-0.6749384999275208,-0.0025849011726677418,2
53,0.10256197303533554,-0.0172889307141304,0.02665763534605503,-0.36343422532081604,-0.6741646528244019,-0.0026317068841308355,2
54,-0.08388995379209518,-0.07006017118692398,0.043444931507110596,-0.36255234479904175,-0.672991931438446,-0.002714907517656684,2
55,0.05738620087504387,-0.007642954122275114,-0.061960335820913315,-0.3615162670612335,-0.6724982261657715,-0.0024858417455106974,2
56,-0.10205323249101639,0.03430601581931114,-0.04365689679980278,-0.36102503538131714,-0.6720708608627319,-0.0029349082615226507,2
57,0.025728650391101837,-0.03291969746351242,0.08160329610109329,-0.3609362542629242,-0.6720436215400696,-0.0036857093218714,2
58,-0.014274166896939278,0.049567241221666336,-0.047657717019319534,-0.3602655529975891,-0.6715571284294128,-0.0029979923274368048,2
59,-0.03148103505373001,0.11036664247512817,0.04962654039263725,-0.3600541055202484,-0.670696496963501,-0.0034815683029592037,2
60,-0.032485514879226685,0.057303816080093384,-0.10692446678876877,-0.36060431599617004,-0.6700316071510315,-0.0036033981014043093,2
61,-0.02664613351225853,0.13197535276412964,-0.05137237161397934,-0.3606965243816376,-0.6697217226028442,-0.004447521176189184,2
62,-0.09108644723892212,0.03106447495520115,-0.06006760895252228,-0.3614497184753418,-0.6688803434371948,-0.005070616491138935,2
63,-0.020235629752278328,-0.0492844358086586,0.06285132467746735,0.0,0.0,0.0,2
64,-0.07884539663791656,-0.040401265025138855,-0.007545091677457094,0.00014638961874879897,-0.0005409576697275043,0.00031280674738809466,2
65,0.012667486444115639,0.13272373378276825,-0.034820254892110825,-0.13880561292171478,0.1147594079375267,0.0006589266122318804,2
66,0.05036207288503647,-0.05082559585571289,-0.03445403277873993,-0.058175258338451385,-0.3927845060825348,-6.515237600979162e-06,2
67,-0.002560944529250264,0.09106048941612244,0.002209045458585024,-0.08482664078474045,-0.396711140871048,-0.00030307474662549794,2
68,0.020955920219421387,0.020374974235892296,-0.058066654950380325,-0.12074810266494751,-0.41882309317588806,-0.0007924314122647047,2
69,0.05016234517097473,0.1759393811225891,-0.0732736587524414,-0.1571800708770752,-0.442389577627182,-0.0011718475725501776,2
70,-0.01997913047671318,0.019271710887551308,0.017915595322847366,-0.19722270965576172,-0.4734126627445221,-0.0016866001533344388,2
71,0.007246628403663635,-0.06505127996206284,-0.0012329660821706057,-0.22806182503700256,-0.5093044638633728,-0.0017189589561894536,2
72,-0.05277955159544945,0.017065193504095078,0.025530168786644936,-0.24738135933876038,-0.5347856879234314,-0.0017652196111157537,2
73,0.03568956255912781,-0.04488520324230194,-0.0637272521853447,-0.26940980553627014,-0.5577784776687622,-0.0014508302556350827,2
74,-0.024954060092568398,-0.0938180536031723,-0.035317562520504,-0.28822702169418335,-0.5778716802597046,-0.0022226760629564524,2
75,-0.05043252184987068,-0.04492516443133354,0.07277240604162216,-0.30188655853271484,-0.5988776683807373,-0.002629237249493599,2
76,0.07122475653886795,0.06229059398174286,-0.02253618650138378,-0.3215223252773285,-0.62030428647995,-0.0024952804669737816,2
77,0.05637666583061218,0.006394519470632076,-0.018927790224552155,-0.3366268575191498,-0.6361408829689026,-0.0027900312561541796,2
78,0.1403050720691681,0.08465605229139328,-0.0400160551071167,-0.34774044156074524,-0.6477128267288208,-0.0034978974144905806,2
79,0.11442824453115463,-0.07647386938333511,-0.014713839627802372,-0.35914480686187744,-0.6575260758399963,-0.003605011384934187,2
80,-0.0002414016198599711,0.007898829877376556,0.044597078114748,-0.365831196308136,-0.665796160697937,-0.004400914069265127,2
81,0.0760759562253952,-0.061802640557289124,0.07289870083332062,-0.3704403042793274,-0.6753551959991455,-0.004028677009046078,2
82,-0.05391377583146095,0.004594332072883844,-0.14853863418102264,-0.37378111481666565,-0.6815203428268433,-0.0037547333631664515,2
83,-0.0016345890471711755,0.05451950058341026,0.015497994609177113,-0.3790438175201416,-0.6903600692749023,-0.0045857117511332035,2
84,0.058423519134521484,-0.031702253967523575,-0.16015614569187164,-0.38363543152809143,-0.6967235803604126,-0.004672491457313299,2
85,0.06748615950345993,-0.023893900215625763,-0.03607940301299095,-0.3827756941318512,-0.695565402507782,-0.0052153305150568485,2
86,-0.012079600244760513,-0.02114197239279747,-0.038889478892087936,-0.38543978333473206,-0.700528085231781,-0.005633452907204628,2
87,0.09111990034580231,-0.12126265466213226,-0.05227421969175339,-0.3848251402378082,-0.7000333666801453,-0.005897428374737501,2
88,-0.034592777490615845,0.02367696724832058,0.049887675791978836,-0.3831949532032013,-0.6986270546913147,-0.006132031325250864,2
89,-0.1193663701415062,0.028418485075235367,-0.01057061180472374,-0.3831689953804016,-0.6979538202285767,-0.005747356452047825,2
90,0.03432801738381386,0.05940154939889908,-0.03139655664563179,-0.38304030895233154,-0.698047399520874,-0.005789462476968765,2
91,-0.00634219404309988,0.03547988459467888,0.09484495222568512,-0.383157879114151,-0.6974162459373474,-0.005901750642806292,2
92,-0.014736135490238667,-0.04700882360339165,0.0046281819231808186,-0.38265061378479004,-0.6970102787017822,-0.005362669937312603,2
93,0.009718058630824089,-0.021706368774175644,0.0325479656457901,-0.3820209801197052,-0.6964852213859558,-0.0046621509827673435,2
94,0.03341301903128624,-0.017486512660980225,0.023129580542445183,-0.38149645924568176,-0.6962215900421143,-0.004387101158499718,2
95,-0.03673994168639183,0.010684972628951073,-0.002509090816602111,-0.38085541129112244,-0.6950947046279907,-0.004147463943809271,2
96,-0.027554070577025414,0.05134250968694687,-0.008493101224303246,-0.3807699382305145,-0.6946248412132263,-0.004324485082179308,2
97,-0.05090446025133133,-0.04898037016391754,-0.034605398774147034,-0.38055694103240967,-0.6942198276519775,-0.00485634570941329,2
98,0.07639092206954956,-0.06287987530231476,-0.030939772725105286,-0.38010188937187195,-0.6936330199241638,-0.004658032208681107,2
99,0.08090472221374512,-0.010482842102646828,-0.05369041860103607,-0.37935295701026917,-0.6931002140045166,-0.005250274203717709,2
100,-0.03352348506450653,0.012206506915390491,-0.02943672612309456,-0.3792257010936737,-0.6918070912361145,-0.005776869133114815,2
101,-0.011693124659359455,-0.004480711650103331,0.009237712249159813,-0.37899696826934814,-0.6909167766571045,-0.005865832325071096,2
102,0.043304432183504105,0.04892612621188164,-0.050502482801675797,-0.3787652254104614,-0.6898849010467529,-0.00598181551322341,2
103,0.00935489870607853,-0.038814809173345566,0.1468692272901535,-0.3784557580947876,-0.6888986825942993,-0.0060873134061694145,2
104,0.029104413464665413,0.08616303652524948,0.03550468385219574,-0.3796449303627014,-0.7924618124961853,-0.006369008217006922,2
105,0.052819669246673584,-0.05066865682601929,0.06579195708036423,-0.3813363015651703,-0.7672089338302612,-0.0055551230907440186,2
106,0.008734541945159435,-0.06009742245078087,-0.10563407838344574,-0.3817892074584961,-0.7482715845108032,-0.005238921847194433,2
107,0.02869071625173092,0.0020987014286220074,-0.10560669749975204,-0.3819303512573242,-0.6384967565536499,-0.004541182424873114,2
108,-0.07025397568941116,-0.00709792785346508,-0.031633198261260986,-0.3835113048553467,-0.654380738735199,-0.005611796863377094,2
109,-0.03735373914241791,0.03069598227739334,0.04586818069219589,-0.38468340039253235,-0.6691505312919617,-0.006381581537425518,2
110,-0.08417618274688721,-0.020043600350618362,0.0201257411390543,-0.385930597782135,-0.67975914478302,-0.006435500457882881,2
111,0.12254223227500916,0.06562559306621552,-0.052385564893484116,-0.3871482014656067,-0.6882526874542236,-0.0066531989723443985,2
112,-0.11744562536478043,-0.01828625239431858,-0.05131798982620239,-0.3886926770210266,-0.6941853761672974,-0.00691196508705616,2
113,-0.019693605601787567,-0.06241430714726448,0.04013678804039955,-0.3891068398952484,-0.7009232044219971,-0.007601268123835325,2
114,-0.08878087252378464,0.06928427517414093,-0.11363493651151657,-0.38803720474243164,-0.7006580829620361,-0.00802033580839634,2
115,0.0508437342941761,-0.04959101974964142,0.027282042428851128,-0.3881608247756958,-0.7002391219139099,-0.008505253121256828,2
116,0.1128922626376152,-0.042779915034770966,-0.07390725612640381,-0.3877038061618805,-0.6992409229278564,-0.008448023349046707,2
117,0.044245608150959015,0.060667555779218674,-0.04012727737426758,-0.38687965273857117,-0.6976995468139648,-0.00907578133046627,2
118,-0.0720101073384285,-0.05361008271574974,0.04491191357374191,-0.38693705201148987,-0.6969282031059265,-0.00938770268112421,2
119,0.03634750097990036,0.14983944594860077,-0.08709767460823059,-0.38653722405433655,-0.6965523362159729,-0.009324862621724606,2
120,0.014760011807084084,0.0035150954499840736,0.08025550097227097,-0.386768102645874,-0.6955949664115906,-0.009681283496320248,2
121,-0.024654420092701912,-0.12400928884744644,-0.03457087278366089,-0.38674283027648926,-0.6952154040336609,-0.009618990123271942,2
122,0.08141085505485535,0.10941991209983826,-0.06941771507263184,-0.3856343626976013,-0.6946487426757812,-0.00931102130562067,2
123,-0.05462292954325676,0.05014413967728615,0.09944440424442291,-0.38494667410850525,-0.6938689351081848,-0.009767960757017136,2
124,-0.12116663157939911,-0.011766296811401844,0.011674451641738415,-0.385760098695755,-0.6931501626968384,-0.00953772570937872,2
125,-0.11196927726268768,-0.08543270081281662,0.09693220257759094,-0.38541388511657715,-0.6932780146598816,-0.009220577776432037,2
126,-0.054452329874038696,0.10943161696195602,0.01945590041577816,-0.38472801446914673,-0.6934511661529541,-0.008633723482489586,2
127,0.014719247817993164,-0.055423304438591,-0.07242623716592789,-0.3844478130340576,-0.6933295726776123,-0.007778571918606758,2
128,0.04081307724118233,0.012806405313313007,-0.0501733124256134,-0.38423892855644226,-0.6924118995666504,-0.008356485515832901,2
129,0.009791150689125061,0.05740410089492798,-0.05928531289100647,-0.38356244564056396,-0.6911337375640869,-0.008677451871335506,2
130,0.08557631820440292,-0.015661092475056648,0.00657146330922842,-0.3832317292690277,-0.6905590891838074,-0.00960403960198164,2
131,-0.05014709010720253,0.06878755986690521,0.0012977595906704664,-0.3830937147140503,-0.6891552805900574,-0.009651639498770237,2
132,0.02174161560833454,-0.15350870788097382,-0.007037529721856117,-0.3831401467323303,-0.6884841918945312,-0.009702836163341999,2
133,0.03662944212555885,-0.018443752080202103,-0.046929869800806046,-0.38199475407600403,-0.6878086924552917,-0.009610279463231564,2
134,0.004949571099132299,0.03581774979829788,-0.031334273517131805,-0.3812401592731476,-0.6865063905715942,-0.010194714181125164,2
135,0.0071039991453289986,-0.0016836096765473485,0.038246024399995804,-0.3811735510826111,-0.6858231425285339,-0.010297654196619987,2
136,-0.031472690403461456,0.04204825684428215,-0.07214998453855515,-0.38092079758644104,-0.6850600838661194,-0.009906723164021969,2
137,-0.11269071698188782,0.0004970457521267235,0.03668436035513878,-0.38088685274124146,-0.6844186782836914,-0.010006191208958626,2
138,0.07220291346311569,-0.025295590981841087,-0.04933837056159973,-0.38013362884521484,-0.6844486594200134,-0.010171797126531601,2
139,0.06206919997930527,0.07873694598674774,0.049783654510974884,-0.3798820376396179,-0.6832907199859619,-0.010253195650875568,2
140,-0.09541274607181549,0.02240789867937565,0.038260165601968765,-0.3793368637561798,-0.6822006106376648,-0.010173670016229153,2
141,0.018143771216273308,0.012431331910192966,0.052177831530570984,-0.3794868290424347,-0.6819198727607727,-0.009874973446130753,2
142,0.061358094215393066,-0.033626358956098557,-0.019914766773581505,-0.37947019934654236,-0.6812431216239929,-0.00963132455945015,2
143,0.015177121385931969,0.03995867073535919,0.1143251359462738,-0.37880897521972656,-0.6801965832710266,-0.009501592256128788,2
144,0.0018020760035142303,0.020618613809347153,0.02831467241048813,-0.37891069054603577,-0.6790381669998169,-0.008756542578339577,2
145,-0.026489058509469032,-0.014639816246926785,-0.0012057666899636388,-0.37877845764160156,-0.6781161427497864,-0.008501502685248852,2
146,-0.0049176691100001335,0.014453682117164135,-0.12077004462480545,-0.37836048007011414,-0.6775038242340088,-0.008266055956482887,2
147,-0.010205917991697788,0.004119247198104858,-0.042242392897605896,-0.37796175479888916,-0.6767876744270325,-0.009040610864758492,2
148,-0.03815969452261925,-0.1600736826658249,-0.00433419831097126,-0.37767186760902405,-0.6756399273872375,-0.009738686494529247,2
149,-0.08866828680038452,-0.0420917309820652,0.007184285670518875,-0.3761274814605713,-0.6750630736351013,-0.009943031705915928,2
150,-0.06416849046945572,0.026864128187298775,-0.06273013353347778,-0.3748694956302643,-0.6749632954597473,-0.009706379845738411,2
151,-0.08728934824466705,0.06200304999947548,0.002334611490368843,-0.37450364232063293,-0.6747517585754395,-0.01007960643619299,2
152,0.06295862048864365,-0.0245371051132679,-0.04585922509431839,-0.37464824318885803,-0.674863338470459,-0.010229009203612804,2
153,-0.01694338209927082,0.029263760894536972,0.010674665682017803,-0.37394416332244873,-0.673575758934021,-0.010574663989245892,2
154,-0.001649063779041171,0.04872758314013481,-0.024967828765511513,-0.37376946210861206,-0.6729676127433777,-0.010504137724637985,2
155,-0.07996677607297897,0.0229843370616436,-0.04169576242566109,-0.3738498091697693,-0.6718952059745789,-0.010522101074457169,2
156,0.040443819016218185,-0.020500456914305687,0.004626009613275528,-0.37380120158195496,-0.6716553568840027,-0.010553590953350067,2
157,0.042967185378074646,0.024956369772553444,0.03480832278728485,-0.37318870425224304,-0.6705101728439331,-0.010534786619246006,2
158,-0.015682224184274673,0.05468882992863655,0.02113625966012478,-0.37343108654022217,-0.6693414449691772,-0.010208587162196636,2
159,-0.02550811879336834,-0.06418859958648682,0.0034115328453481197,-0.37357664108276367,-0.6686299443244934,-0.010018771514296532,2
160,-0.03294384106993675,-0.0083399573341012,0.01564231514930725,-0.37334752082824707,-0.6684322357177734,-0.01006473507732153,2
161,-0.0690671056509018,0.07541655004024506,0.0008874154882505536,-0.37282678484916687,-0.6680625081062317,-0.009259650483727455,2
162,0.06262233853340149,0.04936209321022034,0.0488700307905674,-0.3726778030395508,-0.6678296327590942,-0.009778298437595367,2
163,-0.01618099771440029,-0.07957229763269424,0.06033673509955406,-0.373062402009964,-0.6669193506240845,-0.009095253422856331,2
164,0.06769440323114395,-0.03420314937829971,-0.01095358096063137,-0.37207314372062683,-0.6659328937530518,-0.00858877133578062,2
165,0.02372695878148079,-0.08062905818223953,-0.07197781652212143,-0.37152665853500366,-0.6646920442581177,-0.008597810752689838,2
166,-0.02973032183945179,-0.018100526183843613,-0.04720545932650566,-0.37054866552352905,-0.664116621017456,-0.009194525890052319,2
167,0.0347336083650589,0.03987550362944603,0.11681047827005386,-0.370116263628006,-0.6633143424987793,-0.00917982216924429,2
168,-0.08444375544786453,-0.05630966275930405,0.021817492321133614,-0.37040454149246216,-0.662710964679718,-0.008517468348145485,2
169,0.013112980872392654,0.07717254757881165,0.04658973217010498,-0.3702002763748169,-0.6625320315361023,-0.008136189542710781,2
170,0.05692377686500549,-0.0928155705332756,0.0053863744251430035,-0.37020814418792725,-0.6622019410133362,-0.007501497399061918,2
171,-0.06781809777021408,0.059630971401929855,0.11510565131902695,-0.36951789259910583,-0.6613079905509949,-0.007585043087601662,2
172,0.0014156552497297525,-0.012393912300467491,-0.0014528909232467413,-0.37090981006622314,-0.5994829535484314,-0.006259799003601074,2
173,0.0035516542848199606,-0.028942657634615898,-0.06978300213813782,-0.37172171473503113,-0.6831772923469543,-0.006202037911862135,2
174,-0.060530148446559906,-0.013894223608076572,0.07484383136034012,-0.3713494539260864,-0.6827564239501953,-0.0065818121656775475,2
175,-0.05562427267432213,-0.03224216029047966,0.007921900600194931,-0.3713763952255249,-0.7474079728126526,-0.006562717258930206,2
176,0.06584381312131882,0.0031423645559698343,0.12297612428665161,-0.3720496594905853,-0.7311997413635254,-0.006480352487415075,2
177,-0.013982988893985748,-0.06643667072057724,-0.03379266336560249,-0.3727439343929291,-0.718238890171051,-0.005916922353208065,2
178,0.03393810987472534,-0.07819319516420364,-0.099322609603405,-0.372933954000473,-0.7089093923568726,-0.005708626471459866,2
179,-0.0010207165032625198,0.02004898712038994,0.015197018161416054,-0.37289226055145264,-0.6368615627288818,-0.005889333318918943,2
180,-0.02101733535528183,-0.0349762998521328,-0.025909341871738434,-0.37366288900375366,-0.6486422419548035,-0.005818148143589497,2
181,0.02579578198492527,-0.04676199331879616,0.06645966321229935,-0.37418702244758606,-0.6585605144500732,-0.006024317815899849,2
182,0.02699161134660244,-0.07291894406080246,0.025923674926161766,-0.37487971782684326,-0.666878342628479,-0.005377521272748709,2
183,-0.05382038652896881,-0.02594933472573757,0.02435816265642643,-0.3754846751689911,-0.6734112501144409,-0.005000345874577761,2
184,-0.040080130100250244,-0.013946861028671265,-0.09098728001117706,-0.3762126564979553,-0.6791786551475525,-0.004517524503171444,2
185,0.04825408011674881,0.007850046269595623,-0.029537709429860115,-0.37707051634788513,-0.6843871474266052,-0.0050324853509664536,2
186,0.016925148665905,0.040768519043922424,-0.06656680256128311,-0.37841370701789856,-0.7525218725204468,-0.00538922194391489,2
187,0.014630638994276524,-0.025862881913781166,-0.01559611689299345,-0.3798634111881256,-0.740124523639679,-0.006013273261487484,2
188,0.0019113647285848856,-0.020848853513598442,-0.005743116606026888,-0.38016122579574585,-0.6673749685287476,-0.005900540389120579,2
189,-0.0803217887878418,-0.07276402413845062,0.0625896006822586,-0.3803507089614868,-0.6777974963188171,-0.006020893342792988,2
190,-0.06615465134382248,0.11204023659229279,-0.041567202657461166,-0.3800979256629944,-0.6864214539527893,-0.0060728769749403,2
191,-0.039313893765211105,-0.0430024079978466,0.007569488137960434,-0.38091418147087097,-0.6929472088813782,-0.006620435975492001,2
192,-0.008064757101237774,0.007852315902709961,-0.003776386147364974,-0.3807844817638397,-0.6985244154930115,-0.006602849345654249,2
193,0.10587893426418304,0.09267324954271317,0.04849131032824516,-0.380221426486969,-0.6979808211326599,-0.006838181056082249,2
194,-0.0225467998534441,-0.06435272842645645,-0.054749105125665665,-0.3807012736797333,-0.6966916918754578,-0.0064944373443722725,2
195,0.03396376967430115,-0.008727943524718285,0.04967513307929039,-0.38033193349838257,-0.6958897113800049,-0.006864247843623161,2
196,0.00551643269136548,0.11100228875875473,-0.14707472920417786,-0.379856139421463,-0.6953580975532532,-0.006382209714502096,2
197,0.07563597708940506,0.02514878287911415,0.09286351501941681,-0.38004493713378906,-0.6947506070137024,-0.006990792229771614,2
198,-0.05229032412171364,-0.017549972981214523,0.03135119378566742,-0.3799164295196533,-0.6936823725700378,-0.006683786399662495,2
199,0.012063202448189259,-0.029543135315179825,-0.042622484266757965,-0.3791660666465759,-0.6936798691749573,-0.005978988483548164,2
200,0.016139347106218338,0.04658585041761398,0.08467713743448257,-0.3787074685096741,-0.6933823227882385,-0.006316943559795618,2
201,-0.03113618865609169,0.031866975128650665,0.04071522876620293,-0.37827521562576294,-0.6929589509963989,-0.0060002184472978115,2
202,0.03432978317141533,-0.015212315134704113,0.0012626276584342122,-0.3780156672000885,-0.6923637390136719,-0.005671045742928982,2
203,0.059266988188028336,-0.10269098728895187,0.06970565766096115,-0.3774736821651459,-0.6923002004623413,-0.005419452209025621,2
204,0.0311052817851305,-0.08968338370323181,-0.03490113466978073,-0.3768778443336487,-0.6911624670028687,-0.005252601578831673,2
205,-0.006919194478541613,-0.005245118401944637,-0.050582777708768845,-0.3757093548774719,-0.6898941993713379,-0.005729229189455509,2
206,0.027329446747899055,-0.018588488921523094,-0.03705913946032524,-0.37521201372146606,-0.6894067525863647,-0.006059727631509304,2
207,0.02193700149655342,0.037642672657966614,0.011702826246619225,-0.3748115599155426,-0.6889488697052002,-0.00613451236858964,2
208,0.15717071294784546,0.007501621730625629,-0.08593319356441498,-0.3748900890350342,-0.6882914900779724,-0.005990687292069197,2
209,0.1258184015750885,0.04722314327955246,0.04448537155985832,-0.37418875098228455,-0.6863396167755127,-0.006528669036924839,2
210,-0.01770571433007717,-0.16771242022514343,0.11246735602617264,-0.37414443492889404,-0.6846732497215271,-0.006525489967316389,2
211,-0.20819418132305145,0.068009153008461,-0.23985913395881653,-0.3732832074165344,-0.6845214366912842,-0.005745976231992245,2
212,0.033035408705472946,-0.16604354977607727,-0.07855913043022156,-0.3718852400779724,-0.7452593445777893,-0.007095555774867535,2
213,-0.20691213011741638,0.26221075654029846,0.6458501219749451,-0.36674192547798157,-0.7231525778770447,-0.007057226728647947,2
214,-0.45825254917144775,-0.39222630858421326,-1.0926320552825928,-0.36482179164886475,-0.641404390335083,-0.00400882214307785,2
215,-1.2285053730010986,-0.4965398609638214,-2.455308675765991,-0.3631017208099365,-0.6430643796920776,-0.00835703406482935,2
216,-0.2388513833284378,-0.9803421497344971,-1.9269332885742188,-0.357938289642334,-0.6390571594238281,-0.014322720468044281,2
217,-0.4807778298854828,0.3576509654521942,0.6161844730377197,-0.3535414934158325,-0.5712844133377075,-0.007464972790330648,2
218,-0.877388596534729,0.2473183274269104,0.9954354166984558,-0.34563395380973816,-0.7105375528335571,-0.009161880239844322,2
219,0.08366996794939041,0.19014182686805725,1.3132822513580322,-0.33245524764060974,-0.6198285222053528,0.0012480644509196281,2
220,0.38193634152412415,-0.6028381586074829,0.9884740114212036,-0.32511961460113525,-0.6067063212394714,0.0130474753677845,2
221,-0.4678225517272949,0.6931955218315125,1.1291382312774658,-0.318604975938797,-0.59123295545578,0.02606809511780739,2
222,0.8920837640762329,-1.7340439558029175,0.8886916637420654,-0.3155485689640045,-0.5807915329933167,0.04081582650542259,2
223,3.184439182281494,-4.207863807678223,4.598929405212402,-0.2950582206249237,-0.43561747670173645,0.0463121198117733,2
224,1.9907277822494507,-2.7932560443878174,3.7668533325195312,-0.2992182672023773,-0.42696794867515564,0.08482818305492401,2
225,3.6102938652038574,-5.203015327453613,2.1449406147003174,-0.3085426092147827,-0.3786791265010834,0.12211792916059494,2
226,-7.020794868469238,17.393903732299805,0.009346106089651585,-0.5165702700614929,-0.27096742391586304,0.14415602385997772,2
227,16.50811004638672,-11.090474128723145,0.606696367263794,-0.5062679052352905,-0.16515199840068817,0.15171173214912415,2
228,6.403171539306641,-6.920401573181152,1.2011702060699463,-0.7222076058387756,0.47397664189338684,0.15244773030281067,2
229,-2.50105619430542,-1.127321481704712,0.622411847114563,-0.6563657522201538,0.6619073152542114,0.1593366414308548,2
230,-8.993324279785156,-6.912944793701172,-0.32171446084976196,-1.004111886024475,0.5899502635002136,0.11881568282842636,2
231,-12.36807918548584,-13.642834663391113,0.586661696434021,-0.8281097412109375,0.571038007736206,0.14018350839614868,2
232,-15.026235580444336,-21.330663681030273,2.346989631652832,-0.9243112206459045,0.8359715938568115,0.13367943465709686,2
233,-8.708768844604492,-1.5122376680374146,9.360173225402832,-0.6870899796485901,0.5443127155303955,0.14610996842384338,2
234,-13.810147285461426,0.23050636053085327,12.014366149902344,-0.9082162976264954,0.8218868970870972,0.18137603998184204,2
235,-30.19042205810547,-19.327667236328125,9.652570724487305,-0.844248354434967,0.5710395574569702,0.30447500944137573,2
236,-38.06174850463867,-32.709842681884766,6.840788841247559,-0.6965905427932739,0.45743033289909363,0.424959659576416,2
237,-18.49394989013672,-28.647356033325195,3.782460927963257,-0.2528139054775238,0.16642236709594727,0.5325371026992798,2
238,-21.176218032836914,-38.214420318603516,2.030970335006714,0.0882938802242279,-0.1800399273633957,0.581836998462677,2
239,-28.915992736816406,-31.001358032226562,-0.031034676358103752,0.22269640862941742,-0.25666576623916626,0.5777451395988464,2
240,-36.077640533447266,-7.807991027832031,0.49095872044563293,0.706628680229187,-0.35128161311149597,0.5977579951286316,2
241,-39.02540588378906,-1.4122145175933838,0.075632743537426,0.9501944184303284,-1.0158276557922363,0.6366841197013855,2
242,-38.6900749206543,-9.53271770477295,1.0973150730133057,1.493909239768982,-0.9774253964424133,0.6187732219696045,2
243,-32.55928039550781,-19.729448318481445,2.486877679824829,2.2909369468688965,-1.3565508127212524,0.6368411779403687,2
244,-23.34486961364746,-19.95996856689453,1.073790192604065,2.433532476425171,-2.008357524871826,0.7473599314689636,2
245,-10.690153121948242,-14.312736511230469,-0.44417592883110046,2.920457124710083,-2.103492259979248,0.6866729855537415,2
246,1.499924659729004,1.6758122444152832,0.217325821518898,2.7422311305999756,-2.3273661136627197,0.7785467505455017,2
247,4.120904922485352,22.242332458496094,-0.08737767487764359,0.9580833911895752,-1.735273838043213,0.8651341795921326,2
248,5.182102680206299,33.02447509765625,-0.7686100006103516,1.8694489002227783,-2.3939881324768066,0.9957329630851746,2
249,4.78450870513916,36.98197555541992,-2.2147257328033447,-0.034949250519275665,-1.625172734260559,1.0570378303527832,2
250,5.45255708694458,32.694175720214844,-2.6078264713287354,0.712181568145752,-2.2532401084899902,1.0012691020965576,2
251,2.2131032943725586,22.097915649414062,-2.775076150894165,0.7001112699508667,-2.8004977703094482,1.0398669242858887,2
252,-3.925840377807617,7.150444984436035,-2.343451976776123,1.5016307830810547,-3.4095945358276367,0.8655574321746826,2
253,-8.15499496459961,-3.3462002277374268,-1.3822108507156372,1.367038369178772,-3.608107328414917,0.8871100544929504,2
254,-11.673624992370605,-7.473271369934082,-1.6651912927627563,2.1389880180358887,-4.58194637298584,0.8498599529266357,2
255,-9.65442180633545,-2.7873423099517822,-1.541838526725769,1.8721489906311035,-4.994170188903809,1.0745457410812378,2
256,6.043224334716797,6.83138370513916,-2.971010208129883,2.0075697898864746,-5.151475429534912,1.0359022617340088,2
257,25.043193817138672,15.2592134475708,-2.198437213897705,2.102350950241089,-5.227880001068115,0.9594830274581909,2
258,44.85683059692383,27.20619773864746,-1.3904017210006714,1.8451168537139893,-5.45157527923584,1.1515482664108276,2
259,65.71175384521484,33.88100051879883,-1.666392207145691,1.5284308195114136,-4.84699821472168,1.0887163877487183,2
260,86.67767333984375,34.932029724121094,-0.7890799641609192,1.2676072120666504,-4.882621765136719,1.192844271659851,2
261,97.8873291015625,37.617313385009766,-1.784683108329773,0.8118451833724976,-3.809174060821533,1.1623330116271973,2
262,101.07167053222656,35.12269973754883,-1.0582720041275024,0.5692444443702698,-3.366279363632202,1.1666076183319092,2
263,96.69164276123047,28.172929763793945,-1.2044261693954468,0.051634531468153,-1.9864617586135864,1.1610924005508423,2
264,86.23889923095703,21.565017700195312,-1.485228419303894,-0.05336391180753708,-1.415343165397644,1.0988420248031616,2
265,70.26696014404297,17.595312118530273,-1.4898592233657837,-0.5493243932723999,-0.2914438247680664,1.1608785390853882,2
266,49.605499267578125,15.36531925201416,-2.5602495670318604,-0.5595909357070923,0.23491686582565308,1.1092698574066162,2
267,29.897245407104492,12.416205406188965,-2.877565383911133,-0.8784331679344177,1.2419148683547974,1.1115010976791382,2
268,16.377538681030273,14.0850248336792,-3.030487060546875,-0.7951862215995789,1.7501287460327148,1.0993245840072632,2
269,6.2382636070251465,16.35601043701172,-2.976085901260376,-1.220987319946289,1.9802484512329102,1.030694842338562,2
270,6.123642444610596,15.425466537475586,-1.7911149263381958,-1.401053547859192,2.063739538192749,1.0035806894302368,2
271,13.892803192138672,11.678128242492676,-0.2084527164697647,-1.7845492362976074,2.561018466949463,0.9940431714057922,2
272,25.173376083374023,8.185688972473145,-0.07746653258800507,-1.8590452671051025,2.657200336456299,1.0187063217163086,2
273,31.717424392700195,5.728961944580078,-0.28759998083114624,-1.8905285596847534,3.428823947906494,1.2046359777450562,2
274,30.71332550048828,4.828649044036865,-1.5194554328918457,-2.1910390853881836,3.8399672508239746,1.1073579788208008,2
275,18.390687942504883,6.380396842956543,-0.33980125188827515,-2.0749480724334717,4.042817115783691,1.1680002212524414,2
276,1.0201196670532227,6.464527130126953,-0.9144578576087952,-2.3296148777008057,4.292049407958984,1.029757022857666,2
277,-16.68937873840332,3.919354200363159,-0.8478991985321045,-2.470752239227295,4.385932445526123,0.9766354560852051,2
278,-28.119853973388672,-2.0286307334899902,-0.12054025381803513,-2.6039652824401855,4.357623100280762,0.9415002465248108,2
279,-31.746889114379883,-7.84835958480835,-1.3457289934158325,-2.4831738471984863,4.481822967529297,1.191615104675293,2
280,-27.804397583007812,-16.2515926361084,-3.3421528339385986,-2.4159934520721436,4.294112205505371,1.243356704711914,2
281,-24.616722106933594,-21.03636360168457,-3.2191038131713867,-2.216914653778076,3.970507860183716,1.2454125881195068,2
282,-21.38408088684082,-19.181894302368164,-2.905999183654785,-2.0120866298675537,3.629267692565918,1.1678589582443237,2
283,-17.491416931152344,-12.247350692749023,-2.2754740715026855,-1.6253584623336792,3.2838430404663086,1.2296395301818848,2
284,-14.185412406921387,-4.283675193786621,-2.7751078605651855,-1.5012121200561523,3.0077927112579346,1.1475718021392822,2
285,-12.524717330932617,2.4266347885131836,-1.9239126443862915,-3.149212121963501,3.310138463973999,0.016356050968170166,2
286,-12.189111709594727,4.035572052001953,3.546678066253662,-2.833983898162842,3.369813919067383,0.2955339848995209,2
287,-12.632043838500977,-4.601658821105957,0.8582019209861755,-2.840392589569092,3.248715400695801,0.34733831882476807,2
288,-16.634281158447266,-20.5470027923584,0.41876837611198425,-2.1599605083465576,2.8186192512512207,0.6684074997901917,2
289,-21.71177101135254,-35.10739517211914,-1.414369821548462,-1.8047215938568115,3.3685266971588135,1.0841503143310547,2
290,-26.531951904296875,-42.74839782714844,-3.2222511768341064,-1.5201278924942017,3.011194944381714,0.982394278049469,2
291,-30.998825073242188,-45.724361419677734,-2.443202495574951,-1.2830429077148438,3.168893814086914,0.9718261361122131,2
292,-35.76981735229492,-44.934478759765625,-2.4864938259124756,-0.5146775841712952,2.84065580368042,1.0987623929977417,2
293,-39.44083786010742,-38.053550720214844,-3.8709354400634766,-0.17806044220924377,2.8148393630981445,1.0554101467132568,2
294,-41.80399703979492,-26.243072509765625,-3.692883014678955,0.3089878559112549,2.1591713428497314,1.005897879600525,2
295,-45.864864349365234,-12.591276168823242,-4.142012119293213,0.6077320575714111,1.972612738609314,0.9709019660949707,2
296,-45.71950912475586,0.1545684039592743,-3.8384103775024414,0.8245360851287842,1.3175022602081299,0.9522362351417542,2
297,-42.666988372802734,12.52924633026123,-3.5433554649353027,0.7083119750022888,1.092649221420288,0.8281862139701843,2
298,-38.81598663330078,21.370431900024414,-2.364820957183838,0.7421837449073792,0.4447789192199707,0.8556133508682251,2
299,-33.06592559814453,23.65152931213379,-1.0924681425094604,0.5440999865531921,0.1983097493648529,0.8018689155578613,2
300,-27.224763870239258,18.974882125854492,-0.8218713402748108,0.36554574966430664,-0.4493425488471985,0.8388593196868896,2
301,-20.065855026245117,10.077621459960938,-0.37526196241378784,-0.027771461755037308,-0.4611716866493225,0.7693593502044678,2
302,-14.028613090515137,-4.910668849945068,0.5623236298561096,-0.06489777565002441,-0.9330465793609619,0.8037717342376709,2
303,-10.920150756835938,-19.900012969970703,1.1426855325698853,0.10992778837680817,-1.0286028385162354,0.7885273098945618,2
304,-10.066187858581543,-26.84160614013672,1.8372925519943237,0.23182784020900726,-1.315414309501648,0.828524649143219,2
305,-12.268472671508789,-26.857669830322266,1.261744499206543,0.418690025806427,-1.3555917739868164,0.8558048605918884,2
306,-14.374828338623047,-21.36229705810547,0.22014161944389343,0.7556127905845642,-1.4422551393508911,0.860206127166748,2
307,-17.853683471679688,-8.332232475280762,0.2569160461425781,0.7886127233505249,-1.556229591369629,0.9147849082946777,2
308,-20.543466567993164,3.6217925548553467,-0.5243650078773499,1.0629136562347412,-1.9060544967651367,0.9101768732070923,2
309,-20.69569969177246,11.71438980102539,-0.4447691738605499,0.9812538623809814,-2.309161901473999,0.9696798920631409,2
310,-17.599950790405273,15.04825210571289,-0.651532769203186,0.7806968688964844,-2.3464531898498535,0.9596996903419495,2
311,-10.861066818237305,12.43674087524414,-0.6159862875938416,0.6688044667243958,-2.6658124923706055,0.9638106226921082,2
312,-2.1427016258239746,7.791344165802002,-0.7219924330711365,0.5749784708023071,-2.7131643295288086,0.9163519740104675,2
313,4.671498775482178,1.9117881059646606,-0.8754816055297852,0.7268282175064087,-2.8195505142211914,0.806615948677063,2
314,8.6260347366333,-2.7841715812683105,-0.4001210033893585,0.7227157354354858,-2.727616310119629,0.7704246640205383,2
315,8.814018249511719,-5.801241874694824,-0.015075746923685074,0.715080738067627,-2.7632179260253906,0.8019432425498962,2
316,6.624000549316406,-5.036330223083496,-0.4197830557823181,0.8194787502288818,-2.818263292312622,0.8075800538063049,2
317,3.6040148735046387,-2.6345632076263428,-0.5766674876213074,0.7742536664009094,-2.797149181365967,0.8690773248672485,2
318,2.907670021057129,2.176198959350586,-1.5112322568893433,0.8388161659240723,-2.7939889430999756,0.8577797412872314,2
319,3.673112630844116,5.770209312438965,-1.797770380973816,0.7658692002296448,-2.467869997024536,0.8176952004432678,2
320,4.802172660827637,6.172206401824951,-1.8949424028396606,0.7077620625495911,-2.4956514835357666,0.8179096579551697,2
321,6.007147312164307,5.861633777618408,-2.2581608295440674,0.6413407325744629,-2.546816825866699,0.8204969763755798,2
322,7.290546894073486,2.972175121307373,-2.3776888847351074,0.701782763004303,-2.481879472732544,0.7371668219566345,2
323,8.386061668395996,2.0411529541015625,-1.7282161712646484,0.588994562625885,-2.4556310176849365,0.7578601837158203,2
324,8.555665016174316,0.3038412630558014,-2.1343600749969482,0.6297223567962646,-2.327864408493042,0.7024222612380981,2
325,9.424928665161133,0.3861805200576782,-1.1140674352645874,0.4917603135108948,-2.1336963176727295,0.7224963307380676,2
326,8.875274658203125,0.10022394359111786,-1.3132492303848267,0.5033554434776306,-2.254624843597412,0.7366690039634705,2
327,7.616450309753418,-0.2633040249347687,-1.5010380744934082,0.577492892742157,-2.2067854404449463,0.7001010775566101,2
328,7.745145320892334,-0.09741174429655075,-1.1539371013641357,0.6396512389183044,-2.0950565338134766,0.6562435626983643,2
329,9.306538581848145,0.7561050057411194,-1.3280596733093262,0.6222379803657532,-1.9176243543624878,0.6368785500526428,2
330,11.127689361572266,2.3265016078948975,-1.3687090873718262,0.6604033708572388,-1.5371532440185547,0.5673576593399048,2
331,11.078097343444824,3.789586305618286,-0.6624659299850464,0.6004873514175415,-2.0046005249023438,0.6501411199569702,2
332,9.397653579711914,5.916934013366699,-1.4161994457244873,0.651640772819519,-1.4713177680969238,0.5536583662033081,2
333,10.019948959350586,7.312993049621582,-0.1489790976047516,0.5896210074424744,-1.1552468538284302,0.5125254392623901,2
334,7.960231304168701,8.520447731018066,0.28741541504859924,0.3782326579093933,-1.1866209506988525,0.5625022053718567,2
335,3.4896039962768555,9.356100082397461,-0.014968907460570335,0.23611578345298767,-0.9687633514404297,0.5628972053527832,2
336,0.04339521750807762,7.679403305053711,-0.4138052463531494,0.09438695758581161,-1.1511805057525635,0.5979471206665039,2
337,-1.3284416198730469,3.3689072132110596,-0.7947964072227478,-0.07518520206212997,-1.4745872020721436,0.6390710473060608,2
338,1.3763600587844849,-1.8904156684875488,-0.9647855758666992,-0.16250719130039215,-1.4353008270263672,0.6348836421966553,2
339,8.490055084228516,-6.7685089111328125,-0.9155431985855103,-0.036486297845840454,-0.9692875742912292,0.582955002784729,2
340,14.479649543762207,-9.879975318908691,-0.4600708484649658,-0.052099160850048065,-1.1790823936462402,0.5950500965118408,2
341,15.653326034545898,-9.624151229858398,-0.37951338291168213,0.1145886778831482,-0.9983769059181213,0.5787108540534973,2
342,14.203086853027344,-6.577953338623047,-0.27763137221336365,-0.05373529717326164,-0.7349534034729004,0.6067743301391602,2
343,9.642081260681152,-1.3455381393432617,-0.9043328166007996,0.22450822591781616,-0.5100836753845215,0.5804354548454285,2
344,5.296653747558594,-0.36524632573127747,-0.19985516369342804,0.1401548981666565,-0.3621464669704437,0.5799773335456848,2
345,-0.37554240226745605,2.0926735401153564,-0.6485227942466736,0.11116626113653183,-0.22715310752391815,0.5767607092857361,2
346,-3.4495511054992676,0.29932278394699097,-0.20772263407707214,0.059265341609716415,-0.3769324719905853,0.5747337341308594,2
347,-4.9626593589782715,-0.7265749573707581,-0.3455226421356201,0.09503067284822464,-0.16363462805747986,0.5670948624610901,2
348,-3.4159321784973145,-3.6109800338745117,-0.37793582677841187,0.011610369198024273,-0.4654366075992584,0.5656731128692627,2
349,-1.9760769605636597,-5.975011825561523,-0.3291797935962677,0.17789533734321594,-0.5136646032333374,0.5648084282875061,2
350,2.7961411476135254,-7.886532783508301,-0.6512393355369568,0.29556557536125183,-0.5265368223190308,0.5631085634231567,2
351,6.259357452392578,-7.344802379608154,-0.483629435300827,0.30232593417167664,-1.581125259399414,0.5782338380813599,2
352,11.28117847442627,-2.9343361854553223,-0.04346413537859917,0.37162986397743225,-1.3677501678466797,0.570845365524292,2
353,20.762731552124023,1.0733377933502197,-0.08326368778944016,0.4466927945613861,-1.222294807434082,0.5682021379470825,2
354,28.61467742919922,2.968759298324585,0.2292071282863617,0.45149388909339905,-0.8759165406227112,0.5605252981185913,2
355,33.004032135009766,5.292078971862793,1.038702130317688,0.48447760939598083,-0.8181970715522766,0.5690327286720276,2
356,31.8205509185791,5.437796115875244,1.0635242462158203,0.40789857506752014,-0.2746564745903015,0.5667591691017151,2
357,26.795429229736328,4.742544651031494,1.092914342880249,0.32915446162223816,-0.037932250648736954,0.5822093486785889,2
358,18.236902236938477,3.2071008682250977,0.9558829069137573,0.39477911591529846,0.40055572986602783,0.5865422487258911,2
359,9.612339973449707,-0.09798047691583633,0.29717183113098145,0.340292364358902,0.619509220123291,0.5955125093460083,2
360,2.8042638301849365,-2.3650035858154297,-0.5225098729133606,0.2698550820350647,0.7581100463867188,0.595014750957489,2
361,-1.9679051637649536,-1.1725367307662964,-0.5824438333511353,0.3085683584213257,0.788118302822113,0.5929282903671265,2
362,-2.843579053878784,-1.4981130361557007,-0.3581688702106476,0.3963070213794708,0.8721783757209778,0.5906810164451599,2
363,-0.05019965022802353,-0.29599398374557495,-0.47981539368629456,0.346136212348938,0.9277753829956055,0.5724316239356995,2
364,2.8643600940704346,2.9647696018218994,-0.5362075567245483,0.4181787967681885,1.0021964311599731,0.5738574266433716,2
365,4.838784694671631,3.415982961654663,-0.33135986328125,0.43493300676345825,1.110369324684143,0.5716784596443176,2
366,5.267200469970703,3.006643056869507,0.016159342601895332,0.36271512508392334,1.1676275730133057,0.5586168766021729,2
367,2.934971332550049,5.135679244995117,0.4215424060821533,0.16474969685077667,1.288979411125183,0.5158796310424805,2
368,-1.2393677234649658,2.964080572128296,0.5819798111915588,0.1549946665763855,1.3648219108581543,0.5296039581298828,2
369,-6.444091796875,4.492446422576904,0.7126123309135437,0.10324833542108536,1.3648972511291504,0.5306450724601746,2
370,-9.98056697845459,-1.2052196264266968,0.4771973192691803,0.17956967651844025,1.282612919807434,0.5742660164833069,2
371,-11.622386932373047,-3.243769645690918,-0.03416511416435242,0.11442583054304123,1.2791589498519897,0.5571341514587402,2
372,-11.126814842224121,-3.134397268295288,0.07583913952112198,-0.1697872132062912,1.297610878944397,0.4647948145866394,2
373,-8.559402465820312,-2.6598916053771973,0.5765326619148254,0.18433807790279388,1.5030871629714966,0.5543279647827148,2
374,-6.619839668273926,-3.2389376163482666,-0.07060398161411285,0.42612171173095703,-0.13453592360019684,0.6490330100059509,2
375,-6.089507579803467,-2.2938294410705566,-0.7492083311080933,0.4499213397502899,-0.1149236261844635,0.6455333828926086,2
376,2.3179819583892822,0.22276659309864044,-1.0235015153884888,0.4575228691101074,-0.0783017948269844,0.6323418617248535,2
377,12.958706855773926,5.549027919769287,-0.3597544729709625,0.29549440741539,0.0621100477874279,0.5789880752563477,2
378,21.334074020385742,9.937887191772461,0.35911041498184204,0.2011355608701706,0.2804569602012634,0.5594721436500549,2
379,24.68899917602539,11.746946334838867,0.2856929302215576,0.10914136469364166,0.48378217220306396,0.562350869178772,2
380,22.38738250732422,9.840710639953613,-0.3266039490699768,-0.07666128873825073,0.8742470145225525,0.5496752262115479,2
381,15.898187637329102,7.775327682495117,-0.7433554530143738,-0.09892986714839935,1.2801131010055542,0.5617401599884033,2
382,5.8320393562316895,2.540256977081299,-0.4779592454433441,-0.1609657257795334,1.4924769401550293,0.5610017776489258,2
383,-5.223675727844238,-1.1430541276931763,-0.8171105980873108,-0.20996786653995514,1.612973690032959,0.554501473903656,2
384,-14.930078506469727,-5.1405534744262695,-0.5856443047523499,0.0029204655438661575,1.555077314376831,0.5956002473831177,2
385,-20.86854362487793,-7.321910858154297,-1.080730676651001,-0.14346618950366974,1.1447961330413818,0.5391279458999634,2
386,-19.83599281311035,-5.38501501083374,-0.7412832379341125,-0.038943637162446976,1.0018569231033325,0.5381737351417542,2
387,-12.428877830505371,-2.5724008083343506,-1.1813642978668213,-0.028490561991930008,0.7292786836624146,0.5158734917640686,2
388,-1.580194115638733,1.3186602592468262,-0.790344774723053,0.2069046050310135,0.37600746750831604,0.5481571555137634,2
389,8.917040824890137,3.955453634262085,-0.7505961060523987,-0.034401968121528625,0.6064568758010864,0.4922774136066437,2
390,16.952730178833008,6.389333724975586,-0.18436014652252197,0.16917110979557037,0.5772273540496826,0.5331178307533264,2
391,18.93503761291504,7.882832050323486,-0.5855721831321716,0.044297780841588974,0.48588451743125916,0.5134669542312622,2
392,16.010103225708008,7.966393947601318,-0.8865303993225098,-0.16612879931926727,0.7183001637458801,0.48539942502975464,2
393,10.956633567810059,7.132377624511719,-0.9353303909301758,-0.23035494983196259,1.0337966680526733,0.4845840334892273,2
394,4.10045862197876,5.07618522644043,-1.3238224983215332,-0.3496738076210022,1.0541009902954102,0.46456655859947205,2
395,-2.2188901901245117,0.946772575378418,-1.5265733003616333,-0.36575621366500854,1.1769574880599976,0.46323513984680176,2
396,-6.289106845855713,-3.491112470626831,-1.6686415672302246,-0.39060327410697937,1.1906569004058838,0.4483753740787506,2
397,-7.45147180557251,-6.706027030944824,-2.048015832901001,-0.34556570649147034,1.3995361328125,0.4485831558704376,2
398,-8.62533950805664,-7.592538833618164,-2.1290972232818604,-0.38352054357528687,1.5534261465072632,0.42045482993125916,2
399,-9.168036460876465,-7.022658824920654,-2.111840009689331,-0.25825977325439453,1.3945235013961792,0.40343552827835083,2
400,-10.664664268493652,-5.998497009277344,-1.8379956483840942,-0.2128516286611557,1.2298078536987305,0.36965155601501465,2
401,-11.987447738647461,-4.047792911529541,-1.8866900205612183,-0.2497362494468689,0.7838432192802429,0.30757272243499756,2
402,-10.964640617370605,-0.8304384350776672,-1.320456862449646,-0.24198371171951294,0.8830294609069824,0.2934185266494751,2
403,-7.701586723327637,0.6895738840103149,-1.1289843320846558,-0.1435701847076416,0.7088862061500549,0.29175707697868347,2
404,-3.4114017486572266,0.37791040539741516,-1.1257818937301636,-0.20891770720481873,0.6556376218795776,0.27002424001693726,2
405,0.12480607628822327,-0.825344443321228,-0.90653395652771,-0.13046298921108246,0.5987975001335144,0.2719217538833618,2
406,1.8716846704483032,-1.990798830986023,-0.6633467078208923,0.022115007042884827,0.5972347259521484,0.2876121401786804,2
407,1.408125638961792,-2.0247936248779297,-1.077581763267517,0.045591745525598526,0.6213346719741821,0.281445175409317,2
408,-0.40802863240242004,-0.8628201484680176,-1.3586753606796265,0.06723706424236298,0.6356063485145569,0.2708713114261627,2
409,-3.182096004486084,0.22157613933086395,-1.6108477115631104,-0.1250155121088028,0.2953135371208191,0.2129274159669876,2
410,-5.374539375305176,0.7906830906867981,-1.0968835353851318,0.3466927707195282,0.6026085019111633,0.27347204089164734,2
411,-4.828026294708252,1.0956621170043945,-1.4468635320663452,0.03830856457352638,0.5160824060440063,0.2207319736480713,2
412,-4.918767929077148,4.954650402069092,-0.8783543705940247,-0.054009679704904556,0.43523970246315,0.19562940299510956,2
413,-5.386587619781494,15.181888580322266,-0.48902755975723267,-0.2678264081478119,0.4220118224620819,0.1683182269334793,2
414,-5.060794353485107,16.927291870117188,-0.20203953981399536,-0.4808325469493866,0.33534881472587585,0.15329451858997345,2
415,-3.4398629665374756,15.44237232208252,0.09595977514982224,-0.39509549736976624,0.2572527825832367,0.17541927099227905,2
416,-2.5794241428375244,16.213315963745117,-0.4854413866996765,-0.7078500986099243,0.26820507645606995,0.16468693315982819,2
417,-2.4349966049194336,19.27311134338379,-0.6612249612808228,-1.0823866128921509,0.2220594584941864,0.1431395709514618,2
418,-2.1579277515411377,21.79045867919922,-0.6749294400215149,-1.352123737335205,-0.3486393690109253,0.0868205800652504,2
419,-1.0732485055923462,21.771268844604492,0.058000583201646805,-1.7829742431640625,-0.6732043027877808,0.03439338132739067,2
420,4.364882946014404,17.89186668395996,1.6476569175720215,-2.0587942600250244,-0.5473380088806152,0.046581562608480453,2
421,12.54304313659668,4.82184362411499,2.0634851455688477,-2.2550902366638184,-1.0855751037597656,-0.03156663104891777,2
422,20.68888282775879,-14.777871131896973,2.526362895965576,-2.181358814239502,-0.8428198099136353,0.010264699347317219,2
423,29.362329483032227,-33.437862396240234,2.633164644241333,-1.880120873451233,-0.40782609581947327,0.08101463317871094,2
424,34.94233322143555,-38.10295867919922,2.9212632179260254,-1.6498045921325684,0.0051209391094744205,0.1406022310256958,2
425,33.876434326171875,-29.64568519592285,3.641256332397461,-1.0587490797042847,0.6253620386123657,0.22012461721897125,2
426,25.009916305541992,-12.627532958984375,3.4048948287963867,-0.6133182048797607,1.0718029737472534,0.26804178953170776,2
427,12.603011131286621,-0.27291610836982727,2.389345169067383,-0.3568933308124542,1.442903757095337,0.31758084893226624,2
428,-3.4704666137695312,8.596277236938477,1.8355106115341187,-0.3098915219306946,1.6647230386734009,0.3554372191429138,2
429,-17.684181213378906,17.333274841308594,1.6971391439437866,-0.48238417506217957,1.6279338598251343,0.36889737844467163,2
430,-26.70694351196289,18.34908103942871,2.362924814224243,-0.5743061900138855,1.6422899961471558,0.4179697334766388,2
431,-28.69017219543457,12.457058906555176,2.060912847518921,-0.835883617401123,1.4997377395629883,0.4560137689113617,2
432,-25.458141326904297,1.2109030485153198,1.7234344482421875,-1.0042519569396973,1.2395408153533936,0.4832138121128082,2
433,-18.5640926361084,-11.40900993347168,1.782342791557312,-0.9971831440925598,0.8184834718704224,0.4809211194515228,2
434,-11.250737190246582,-13.891949653625488,1.2372711896896362,-0.8041278123855591,0.7117840647697449,0.5245721340179443,2
435,-3.4231679439544678,-9.707691192626953,1.454114556312561,-0.5596221089363098,0.8556808829307556,0.5890883207321167,2
436,1.1758030652999878,1.9726800918579102,0.9560406804084778,-0.45755183696746826,0.824383020401001,0.6034008860588074,2
437,-0.01744166575372219,17.33521270751953,0.5841582417488098,-0.39489737153053284,1.0633947849273682,0.6511837840080261,2
438,-6.230238914489746,31.14229393005371,-0.3401220738887787,-0.6484909653663635,0.996667206287384,0.6394100785255432,2
439,-15.141753196716309,39.90693283081055,-1.046204924583435,-0.9772838950157166,0.8353261947631836,0.6215672492980957,2
440,-24.073701858520508,37.29059982299805,-0.5490132570266724,-1.4385565519332886,0.7445490956306458,0.6149142384529114,2
441,-28.30144691467285,19.424665451049805,-0.1471492052078247,-1.7054392099380493,0.7854442596435547,0.6623460054397583,2
442,-28.399181365966797,-3.826385736465454,-0.7611874938011169,-1.911806583404541,0.5313646197319031,0.6704843640327454,2
443,-25.927553176879883,-29.062288284301758,-0.9560729265213013,-1.8075051307678223,0.13557235896587372,0.6578990817070007,2
444,-22.068700790405273,-45.632503509521484,-0.9141908288002014,-1.460276484489441,-0.3488572835922241,0.6177069544792175,2
445,-17.464555740356445,-51.61865234375,-0.9706806540489197,-0.9886882901191711,-0.21249523758888245,0.68310546875,2
446,-11.894354820251465,-44.15355682373047,-1.427670955657959,-0.22568997740745544,-0.5060218572616577,0.6713489890098572,2
447,-10.39627742767334,-22.084056854248047,-0.47813931107521057,0.12173046916723251,-0.5746933221817017,0.6670979261398315,2
448,-10.764941215515137,9.625513076782227,-0.27774685621261597,0.3297567367553711,-0.6850754618644714,0.6614341735839844,2
449,-12.712529182434082,42.823978424072266,-0.4905376136302948,0.17655469477176666,-0.6653031706809998,0.6704723238945007,2
450,-12.86128044128418,67.9387435913086,0.2425156980752945,-0.3537953197956085,-0.8088698983192444,0.6615442037582397,2
451,-15.394124031066895,75.33905792236328,0.23130787909030914,-1.1836427450180054,-0.8286554217338562,0.6690422296524048,2
452,-16.458118438720703,67.73294830322266,0.9017059803009033,-2.054643392562866,-1.0259058475494385,0.6604434251785278,2
453,-15.433097839355469,42.61426544189453,1.080098271369934,-2.383922576904297,-1.0330413579940796,0.652985692024231,2
454,-13.241538047790527,2.9778966903686523,1.3403301239013672,-2.872305393218994,-1.2345908880233765,0.6449292302131653,2
455,-12.757060050964355,-35.67978286743164,1.8415827751159668,-2.8831188678741455,-1.3351778984069824,0.6493585109710693,2
456,-9.880125045776367,-65.30443572998047,1.4739142656326294,-2.492766857147217,-1.5584923028945923,0.6403398513793945,2
457,-8.693769454956055,-73.34188842773438,2.4436590671539307,-1.717968463897705,-1.5976132154464722,0.6630387306213379,2
458,-7.7581868171691895,-60.62529754638672,2.3882265090942383,-0.8190971612930298,-1.684169054031372,0.6821441650390625,2
459,-9.009333610534668,-32.250755310058594,1.8069791793823242,-0.46986010670661926,-1.624484896659851,0.7999762296676636,2
460,-9.557616233825684,6.080361843109131,1.5064563751220703,-0.08723541349172592,-1.788906216621399,0.8197153210639954,2
461,-13.222846031188965,42.63467788696289,0.3991375267505646,-0.17932096123695374,-1.7547321319580078,0.8785827159881592,2
462,-12.031222343444824,68.55120086669922,1.2649116516113281,-0.7615496516227722,-2.033308744430542,0.8993802666664124,2
463,-11.579551696777344,76.7118911743164,1.620313048362732,-1.583126187324524,-2.298593521118164,0.9080281257629395,2
464,-10.056085586547852,68.36001586914062,2.296978235244751,-2.3887100219726562,-2.1397266387939453,0.948440670967102,2
465,-5.756556034088135,49.52405548095703,1.951850175857544,-3.0514957904815674,-2.035238265991211,0.9718674421310425,2
466,-2.3870725631713867,10.414793968200684,0.7550115585327148,-3.445486068725586,-2.1531505584716797,0.9250837564468384,2
467,-1.9625380039215088,-28.942962646484375,0.3515762984752655,-3.540879487991333,-2.21136212348938,0.8936670422554016,2
468,-2.095564603805542,-55.1041259765625,0.6390885710716248,-3.169698715209961,-2.2513973712921143,0.8506636023521423,2
469,-3.215593099594116,-64.89055633544922,1.0792701244354248,-2.7283432483673096,-2.291806697845459,0.884397029876709,2
470,-4.8119120597839355,-57.11735153198242,1.2700198888778687,-1.8505960702896118,-2.4162328243255615,0.8193551301956177,2
471,-7.041130065917969,-36.936763763427734,1.494975209236145,-1.454153060913086,-2.2177515029907227,0.9848288893699646,2
472,-6.508718013763428,-8.163070678710938,-0.0010502211516723037,-0.8106215596199036,-2.407902240753174,0.9129106402397156,2
473,-6.450910568237305,20.45991325378418,0.6725004315376282,-0.9078318476676941,-2.4482920169830322,1.0102359056472778,2
474,-5.622653484344482,41.36952209472656,-0.07424449920654297,-1.159290075302124,-2.616727828979492,1.0244160890579224,2
475,-5.102964878082275,52.701900482177734,0.31519681215286255,-1.6032752990722656,-2.6229238510131836,1.0480470657348633,2
476,-2.7473995685577393,45.182334899902344,0.5318909287452698,-2.2735161781311035,-2.753485918045044,1.0663481950759888,2
477,0.675754189491272,22.25636100769043,0.30350205302238464,-2.605694532394409,-2.842196226119995,0.985133171081543,2
478,5.070837497711182,-1.0035862922668457,0.33473947644233704,-2.882645845413208,-2.872195243835449,0.9657594561576843,2
479,9.32823657989502,-21.975738525390625,-0.1474306285381317,-2.783524751663208,-2.8265066146850586,0.9150141477584839,2
480,12.80482006072998,-43.331478118896484,-0.07233680039644241,-2.4114205837249756,-2.776968240737915,0.835701048374176,2
481,15.03570556640625,-50.1812744140625,0.6872930526733398,-2.077040195465088,-2.597895860671997,0.8865808248519897,2
482,14.759571075439453,-43.68447494506836,-0.2985589802265167,-1.4753309488296509,-2.3821372985839844,0.8897039890289307,2
483,14.129837989807129,-26.351938247680664,-0.7570900321006775,-1.124552607536316,-2.306180477142334,0.9303781986236572,2
484,9.454939842224121,-2.5989925861358643,-2.033001184463501,-0.975285530090332,-2.1091344356536865,1.0097252130508423,2
485,5.834117412567139,18.595237731933594,-3.748875379562378,-0.9034776091575623,-2.116276264190674,0.9754759073257446,2
486,4.577819347381592,29.412887573242188,-4.157233238220215,-1.0949515104293823,-2.1677000522613525,0.9321228861808777,2
487,4.935742378234863,27.604042053222656,-4.473758220672607,-1.383284091949463,-2.2302911281585693,0.8665175437927246,2
488,9.290030479431152,8.626107215881348,-5.481428623199463,-1.765721321105957,-2.128976821899414,0.8567849397659302,2
489,15.275873184204102,-15.780684471130371,-6.343918800354004,-1.6455882787704468,-1.968366026878357,0.7216871976852417,2
490,20.069843292236328,-30.52381134033203,-6.2478437423706055,-1.4516931772232056,-1.8553763628005981,0.6232678294181824,2
491,21.44292449951172,-34.628910064697266,-5.865086078643799,-1.0904680490493774,-1.6619555950164795,0.5405256152153015,2
492,19.63631248474121,-37.50300598144531,-6.357170581817627,-1.0011528730392456,-1.7230894565582275,0.5320329070091248,2
493,16.361642837524414,-35.25936508178711,-7.7200236320495605,-0.5001577138900757,-1.367687463760376,0.4601626694202423,2
494,13.866093635559082,-21.873205184936523,-8.017919540405273,0.01743450202047825,-1.2146660089492798,0.3445441424846649,2
495,11.049821853637695,-3.0069029331207275,-8.95162296295166,0.03351586312055588,-1.0339804887771606,0.3463088870048523,2
496,9.359331130981445,18.197765350341797,-9.854179382324219,-0.0175772774964571,-0.9641405940055847,0.2929719388484955,2
497,9.379066467285156,29.336856842041016,-10.30260944366455,-0.19180847704410553,-0.9876720905303955,0.19787552952766418,2
498,12.482219696044922,24.40483856201172,-10.285235404968262,-0.5292222499847412,-0.7881214022636414,0.11322528123855591,2
499,17.36052703857422,6.445671081542969,-10.173439025878906,-0.7234774827957153,-0.5510194301605225,-0.004712016321718693,2
500,22.598186492919922,-19.106016159057617,-9.99267292022705,-0.7788152694702148,-0.3146185874938965,-0.11599321663379669,2
501,22.14794921875,-35.74368667602539,-8.982739448547363,-0.5150889158248901,-0.07611586153507233,-0.23999448120594025,2
502,17.260107040405273,-37.26628875732422,-8.365510940551758,0.08162711560726166,0.1600591093301773,-0.3769623041152954,2
503,8.791845321655273,-31.569448471069336,-7.283682346343994,0.14968009293079376,0.1822076141834259,-0.41704419255256653,2
504,0.557985246181488,-23.597871780395508,-7.801262378692627,0.4244711995124817,0.15088708698749542,-0.4807884693145752,2
505,-2.8904049396514893,-9.482149124145508,-8.568567276000977,0.8396739959716797,0.20684826374053955,-0.573834240436554,2
506,-4.302258014678955,5.896486282348633,-8.914522171020508,1.0953435897827148,0.1324261575937271,-0.6613732576370239,2
507,0.6566336154937744,19.91678237915039,-7.774558067321777,1.0215647220611572,0.12205801904201508,-0.7480049133300781,2
508,7.6733927726745605,30.855243682861328,-7.452284336090088,0.7215731143951416,0.038975395262241364,-0.8135089874267578,2
509,16.129314422607422,23.04051971435547,-6.781247138977051,0.3572578728199005,0.20851820707321167,-0.9006834626197815,2
510,22.864587783813477,7.792099475860596,-7.054352283477783,0.022964060306549072,0.3612336814403534,-0.9714752435684204,2
511,24.979660034179688,-13.574065208435059,-7.023895263671875,0.15250299870967865,0.8282878398895264,-1.0747718811035156,2
512,21.07586097717285,-27.60965919494629,-5.427311420440674,0.515167772769928,1.243168830871582,-1.1654976606369019,2
513,10.101888656616211,-23.4179630279541,-4.233996391296387,-0.04946392402052879,0.9676329493522644,-1.1954147815704346,2
514,-3.6946170330047607,-12.890997886657715,-4.325143337249756,0.17419591546058655,1.0349128246307373,-1.236967921257019,2
515,-11.339664459228516,-1.5126430988311768,-4.531972885131836,0.37669122219085693,1.034162163734436,-1.2784597873687744,2
516,-12.454395294189453,4.616001129150391,-4.4972028732299805,0.5434681177139282,0.9731117486953735,-1.3132350444793701,2
517,-7.506261825561523,9.429678916931152,-4.131979465484619,0.5806914567947388,0.8177797198295593,-1.3421871662139893,2
518,0.516697108745575,5.111230850219727,-3.9349138736724854,0.5463200807571411,0.7361817955970764,-1.37612783908844,2
519,7.214963912963867,1.581102967262268,-4.261131763458252,0.5662260055541992,0.777195394039154,-1.4148017168045044,2
520,13.044979095458984,3.9973814487457275,-3.281977653503418,0.6314426064491272,1.0658766031265259,-1.4899401664733887,2
521,14.536458969116211,6.19491720199585,-3.0680952072143555,0.03510496765375137,1.089348316192627,-1.603893518447876,2
522,12.250213623046875,0.31050193309783936,-3.8613088130950928,0.004675691947340965,1.2082005739212036,-1.6220436096191406,2
523,9.396369934082031,-12.362909317016602,-4.5586090087890625,0.12290535122156143,1.293782114982605,-1.6187955141067505,2
524,4.904548168182373,-26.826000213623047,-5.007063388824463,0.29204440116882324,1.467110514640808,-1.661411166191101,2
525,-0.1279556155204773,-31.361238479614258,-5.216527938842773,0.6126372218132019,1.4960289001464844,-1.6904981136322021,2
526,-6.425937652587891,-26.09967803955078,-6.389812469482422,1.0810250043869019,1.5114893913269043,-1.7141352891921997,2
527,-9.639474868774414,-9.357491493225098,-6.376987457275391,1.098371148109436,1.436023235321045,-1.844404935836792,2
528,-12.12702751159668,8.437512397766113,-6.219192028045654,1.294662356376648,1.367044448852539,-1.896187424659729,2
529,-9.848469734191895,18.739055633544922,-6.01455020904541,1.126196265220642,1.1904908418655396,-1.974526047706604,2
530,-5.5978803634643555,23.74718475341797,-4.5380539894104,0.9770673513412476,1.0445528030395508,-2.010404586791992,2
531,2.3244760036468506,15.891592979431152,-4.710177898406982,0.7023968696594238,0.9764837026596069,-2.063105344772339,2
532,9.089139938354492,8.434528350830078,-4.609960079193115,0.6134390234947205,1.0245524644851685,-2.093078136444092,2
533,12.461507797241211,-6.317215442657471,-5.31993293762207,0.5920006036758423,1.246409296989441,-2.1515352725982666,2
534,12.884526252746582,-21.848228454589844,-5.526534557342529,0.7239060401916504,1.3772934675216675,-2.178395986557007,2
535,6.049924373626709,-31.036916732788086,-5.508087635040283,0.9483475685119629,1.5094555616378784,-2.2268760204315186,2
536,-4.687501430511475,-25.47538185119629,-5.895290374755859,1.5193369388580322,1.6019988059997559,-2.2129671573638916,2
537,-15.861444473266602,-7.614235877990723,-6.447543621063232,1.9872075319290161,1.3083908557891846,-2.146414279937744,2
538,-22.92626953125,15.807747840881348,-8.265118598937988,2.1598501205444336,1.1423033475875854,-2.1865713596343994,2
539,-22.52949333190918,37.01115417480469,-8.485630989074707,1.951777458190918,1.2178881168365479,-2.38330340385437,2
540,-14.451959609985352,54.769752502441406,-6.791025161743164,1.3993968963623047,0.7881549596786499,-2.470972776412964,2
541,-4.924727439880371,56.4381217956543,-6.1013569831848145,0.5191653966903687,0.700779914855957,-2.665898561477661,2
542,6.968436241149902,51.37198257446289,-4.717996597290039,-0.3835339844226837,0.6932850480079651,-2.8388864994049072,2
543,15.537034034729004,32.74058532714844,-4.177699565887451,-0.8893776535987854,0.7959311604499817,-2.8871583938598633,2
544,19.530271530151367,10.622193336486816,-4.7457075119018555,-1.1826940774917603,0.9620447754859924,-2.9055397510528564,2
545,14.892904281616211,-8.254684448242188,-4.336374759674072,-1.2638360261917114,1.2548590898513794,-2.948310136795044,2
546,4.576250076293945,-21.392974853515625,-3.901425361633301,-0.9667275547981262,1.3297293186187744,-2.911109685897827,2
547,-8.427803039550781,-23.720285415649414,-4.3616790771484375,-0.8273433446884155,1.3878830671310425,-2.967845916748047,2
548,-20.993268966674805,-17.000219345092773,-4.273519039154053,-0.43545001745224,1.2339595556259155,-2.9572105407714844,2
549,-27.80518341064453,-3.9243571758270264,-4.540453910827637,-0.4358026087284088,1.0976524353027344,-3.0608155727386475,2
550,-27.04886817932129,10.27530574798584,-3.251450538635254,-0.27238452434539795,0.6376746296882629,-3.0609054565429688,2
551,-19.46291160583496,18.897775650024414,-2.7630183696746826,-0.6845858693122864,0.8336783051490784,-3.2364747524261475,2
552,-5.697707653045654,22.569364547729492,-1.6644814014434814,-0.9351247549057007,0.48242008686065674,-3.275085687637329,2
553,5.0279693603515625,16.730541229248047,-2.358586311340332,-1.0983290672302246,0.3531280755996704,-3.2743639945983887,2
554,12.56078052520752,4.895158767700195,-2.6776926517486572,-1.2521737813949585,0.40271976590156555,-3.2875924110412598,2
555,15.43924331665039,-17.8966007232666,-2.85015606880188,-1.1985400915145874,0.5706085562705994,-3.2817020416259766,2
556,10.279534339904785,-31.743999481201172,-3.083657741546631,-0.9552515149116516,0.7755132913589478,-3.2887134552001953,2
557,-0.378621369600296,-42.76314926147461,-3.267920970916748,-0.5483030080795288,0.7592463493347168,-3.3008954524993896,2
558,-15.483617782592773,-37.49277877807617,-4.000516414642334,0.0746384859085083,0.7187832593917847,-3.29351806640625,2
559,-27.068552017211914,-18.62845230102539,-4.724242210388184,0.7416266202926636,0.4456874430179596,-3.279578924179077,2
560,-31.210338592529297,6.392470359802246,-5.819821834564209,0.399251252412796,0.2878330945968628,-3.4380898475646973,2
561,-28.849449157714844,28.55551528930664,-4.305476665496826,0.340626984834671,-0.022553659975528717,-3.5040643215179443,2
562,-20.404111862182617,38.70597839355469,-2.9867846965789795,0.006324164103716612,-0.43882259726524353,-3.564608097076416,2
563,-7.233606815338135,37.473899841308594,-1.6978918313980103,-0.3519691526889801,-0.7086453437805176,-3.598660469055176,2
564,5.032395839691162,30.100505828857422,-1.4858689308166504,-0.7716799378395081,-0.42318180203437805,-3.6354167461395264,2
565,13.457125663757324,9.055497169494629,-2.241013765335083,-0.9998701810836792,-0.46515992283821106,-3.638763427734375,2
566,15.509502410888672,-19.707582473754883,-2.1965341567993164,-1.192299246788025,-0.5734091401100159,-3.663038730621338,2
567,10.138446807861328,-41.20772171020508,-1.2602297067642212,-0.7970722913742065,-0.3465213477611542,-3.6631617546081543,2
568,3.545689105987549,-47.51927947998047,-1.6195799112319946,-0.5605872869491577,-0.12488339841365814,-3.6822829246520996,2
569,-9.272665977478027,-49.02238082885742,-1.9986814260482788,0.30783653259277344,-0.03887048363685608,-3.6757335662841797,2
570,-21.121122360229492,-36.00895690917969,-2.536940574645996,1.1557444334030151,-0.42468252778053284,-3.6786530017852783,2
571,-29.67555809020996,-11.844581604003906,-3.012728452682495,1.7670880556106567,-0.7655539512634277,-3.687448263168335,2
572,-30.60172462463379,22.296894073486328,-2.897353172302246,2.5800671577453613,-1.4382455348968506,-3.672894239425659,2
573,-21.41216278076172,53.598419189453125,-1.5748844146728516,2.1966986656188965,-1.9512677192687988,-3.6886801719665527,2
574,-2.284320592880249,79.745361328125,0.49902164936065674,1.3963217735290527,-2.017791986465454,-3.737971544265747,2
575,23.62348175048828,91.7164306640625,1.0592577457427979,-0.8975064158439636,-0.6128159165382385,-3.853118658065796,2
576,46.04801559448242,86.08618927001953,-0.6268003582954407,-1.9552390575408936,-0.36818191409111023,-3.844756841659546,2
577,53.653045654296875,61.787559509277344,-2.2684831619262695,-2.7690937519073486,0.07740528881549835,-3.8548684120178223,2
578,46.10059356689453,29.82672882080078,-2.5850651264190674,-3.2139244079589844,0.43579593300819397,-3.8910932540893555,2
579,25.593639373779297,-3.8724162578582764,-0.626347541809082,-3.5718464851379395,1.1008009910583496,-3.904240608215332,2
580,-0.4763938784599304,-35.197574615478516,2.087970018386841,-3.396556854248047,1.3644710779190063,-3.933626651763916,2
581,-25.63166618347168,-65.64471435546875,2.8860251903533936,-2.8610973358154297,1.2877347469329834,-3.9537205696105957,2
582,-47.42977523803711,-82.2156982421875,2.4231975078582764,-2.2131195068359375,0.8850691914558411,-3.9718844890594482,2
583,-61.053733825683594,-81.6238784790039,1.2640180587768555,-1.371600866317749,0.4975961148738861,-3.9491353034973145,2
584,-63.510807037353516,-73.26747131347656,1.0471525192260742,-0.45164456963539124,-0.11269399523735046,-3.94166898727417,2
585,-54.37731170654297,-56.08601760864258,1.0072472095489502,0.24824395775794983,-0.8313846588134766,-3.9390788078308105,2
586,-42.019447326660156,-29.103994369506836,0.4416442811489105,0.8095935583114624,-1.3379685878753662,-3.9091415405273438,2
587,-22.82093048095703,4.9982099533081055,2.03849458694458,1.3436914682388306,-1.973139762878418,-3.9139935970306396,2
588,-1.7290987968444824,34.80649948120117,4.635298728942871,1.0571736097335815,-1.8146426677703857,-3.8549914360046387,2
589,16.79335594177246,55.27032470703125,4.206783294677734,0.5932530760765076,-1.9075301885604858,-3.8138976097106934,2
590,29.659914016723633,63.84072494506836,3.2643303871154785,0.08396397531032562,-1.7609751224517822,-3.784755229949951,2
591,31.947607040405273,55.97098922729492,1.859994649887085,-0.7531998157501221,-1.4910438060760498,-3.7454428672790527,2
592,26.726688385009766,29.814559936523438,0.7377042174339294,-1.3687043190002441,-1.1788721084594727,-3.7331998348236084,2
593,16.96061897277832,-9.021235466003418,-0.5416504144668579,-1.7067930698394775,-0.8031052350997925,-3.729151487350464,2
594,0.874050498008728,-38.13190841674805,0.8220326900482178,-1.4621564149856567,-0.5995155572891235,-3.767411708831787,2
595,-17.575170516967773,-65.7151870727539,1.2039461135864258,-1.0023798942565918,-0.7180822491645813,-3.7907676696777344,2
596,-33.510616302490234,-80.70986938476562,0.27144235372543335,-0.07319767028093338,-1.0422953367233276,-3.8361570835113525,2
597,-42.5136604309082,-73.1605224609375,0.046516481786966324,0.7692362070083618,-1.3320965766906738,-3.8238260746002197,2
598,-40.664546966552734,-47.62508773803711,-0.1354294717311859,1.3578343391418457,-1.8990333080291748,-3.7873716354370117,2
599,-29.42894172668457,-10.583271026611328,1.4589300155639648,1.8378140926361084,-2.3600122928619385,-3.760232448577881,2
600,-8.24061393737793,25.014711380004883,4.971763610839844,1.9547386169433594,-2.70109224319458,-3.7278904914855957,2
601,16.849258422851562,54.42070770263672,7.9620466232299805,1.7079216241836548,-2.83756685256958,-3.6802785396575928,2
602,39.43196105957031,69.5047378540039,8.306046485900879,0.9302173852920532,-2.5749473571777344,-3.576467990875244,2
603,56.76728057861328,64.4807357788086,6.94077205657959,0.285155713558197,-2.2354438304901123,-3.5252907276153564,2
604,69.569580078125,40.8076171875,7.596718788146973,-0.4921015501022339,-1.3281090259552002,-3.478015422821045,2
605,67.47289276123047,11.292695045471191,7.8347554206848145,-0.8876470923423767,-0.6737919449806213,-3.4334299564361572,2
606,48.99943161010742,-15.703898429870605,11.313223838806152,-1.0195389986038208,-0.3306683599948883,-3.354152202606201,2
607,21.308320999145508,-33.464927673339844,12.862503051757812,-0.8720454573631287,0.09584181010723114,-3.2559962272644043,2
608,-8.562926292419434,-47.73076629638672,12.49101448059082,-0.28687912225723267,0.44297078251838684,-3.1982579231262207,2
609,-31.922134399414062,-55.93169021606445,10.871689796447754,0.23627477884292603,0.300205260515213,-3.085580348968506,2
610,-41.861629486083984,-48.003902435302734,8.125563621520996,0.7187864184379578,-0.20313023030757904,-2.9543051719665527,2
611,-35.58514404296875,-31.67405891418457,5.465230941772461,1.1446418762207031,-0.7056666016578674,-2.8465864658355713,2
612,-18.672176361083984,-6.421188831329346,4.901810646057129,1.549265742301941,-1.1049917936325073,-2.7878777980804443,2
613,6.282930374145508,12.150293350219727,6.6881537437438965,1.4903464317321777,-1.2954089641571045,-2.716991424560547,2
614,29.329973220825195,9.15281867980957,6.297641754150391,1.3873556852340698,-1.1614676713943481,-2.6707825660705566,2
615,48.78348922729492,10.778677940368652,5.600944519042969,1.279461145401001,-0.6490268707275391,-2.645078182220459,2
616,50.643253326416016,15.16569995880127,5.925375938415527,1.1796643733978271,0.051972340792417526,-2.6277976036071777,2
617,42.95096969604492,20.762088775634766,4.803062915802002,1.0918670892715454,0.20772194862365723,-2.524152994155884,2
618,22.03567123413086,27.485801696777344,3.1740200519561768,0.8260028958320618,0.7954725027084351,-2.4847381114959717,2
619,1.0633985996246338,26.710691452026367,1.9256603717803955,0.48340922594070435,0.8658106327056885,-2.406278133392334,2
620,-21.396705627441406,19.23183822631836,1.4586392641067505,0.4351493716239929,0.956389844417572,-2.4042575359344482,2
621,-35.48550033569336,-0.9425097107887268,0.8739557266235352,0.01849612221121788,0.7689964771270752,-2.369072914123535,2
622,-42.10002517700195,-22.80885887145996,-2.3622679710388184,0.13620223104953766,0.2787345051765442,-2.3405861854553223,2
623,-43.93326187133789,-30.55848503112793,-7.493961811065674,0.7835211753845215,-0.3088191747665405,-2.3407769203186035,2
624,-35.8365478515625,-23.969942092895508,-11.601541519165039,1.7957402467727661,-0.692258894443512,-2.4200122356414795,2
625,-15.001919746398926,-12.849055290222168,-13.573624610900879,2.3134493827819824,-1.0761080980300903,-2.527479887008667,2
626,11.292829513549805,14.238638877868652,-14.41524887084961,2.2599263191223145,-1.2666186094284058,-2.6499147415161133,2
627,33.74876403808594,50.54502868652344,-15.343270301818848,1.720496654510498,-1.106504201889038,-2.7996904850006104,2
628,51.91492462158203,73.87940216064453,-18.36070442199707,0.952043890953064,-0.5132349133491516,-3.004343032836914,2
629,57.4637451171875,81.80381774902344,-20.298341751098633,0.37289655208587646,-0.022840693593025208,-3.186650514602661,2
630,52.079986572265625,74.92125701904297,-20.579071044921875,-0.8974065780639648,0.8356343507766724,-3.4183473587036133,2
631,37.809913635253906,57.479610443115234,-20.96225357055664,-2.661656141281128,1.654642939567566,-3.619591474533081,2
632,12.321072578430176,30.413877487182617,-21.376998901367188,-4.000083923339844,1.5696295499801636,-3.7592976093292236,2
633,-10.968862533569336,-9.156203269958496,-20.105764389038086,-4.260799407958984,1.6721681356430054,-3.9594438076019287,2
634,-29.08540916442871,-58.94743347167969,-16.71967887878418,-3.882462501525879,1.5261867046356201,-4.14611291885376,2
635,-32.04203796386719,-109.80758666992188,-15.200667381286621,-3.009320020675659,1.0555065870285034,-4.318924903869629,2
636,-33.136253356933594,-135.42715454101562,-14.799189567565918,-2.0025064945220947,0.8221621513366699,-4.473696231842041,2
637,-36.81098175048828,-134.5170135498047,-14.798598289489746,-0.08967644721269608,0.3411930501461029,-4.591785430908203,2
638,-42.36285400390625,-104.68366241455078,-16.57852554321289,1.0406467914581299,0.24704787135124207,-4.738429069519043,2
639,-44.4675407409668,-53.783958435058594,-17.08074378967285,2.1742513179779053,-0.37320372462272644,-4.916230201721191,2
640,-37.728614807128906,-1.6075392961502075,-16.685527801513672,2.652113437652588,-0.6371150016784668,-5.092779159545898,2
641,-23.1015567779541,38.206687927246094,-15.659908294677734,2.808232545852661,-1.0855273008346558,-5.255280017852783,2
642,-1.6166027784347534,64.9153823852539,-14.893957138061523,2.3099188804626465,-1.2818164825439453,-5.43841028213501,2
643,23.016773223876953,74.71685791015625,-16.935998916625977,1.4735747575759888,-1.123250961303711,-5.634174823760986,2
644,40.40740203857422,67.66190338134766,-19.291955947875977,0.7808956503868103,-0.8913238644599915,-5.814033508300781,2
645,47.41309356689453,50.19368362426758,-21.121030807495117,-0.0828017070889473,-0.4637548327445984,-6.018147945404053,2
646,42.28853225708008,24.122575759887695,-20.693143844604492,-0.5069806575775146,-0.14228318631649017,-6.214614391326904,2
647,21.5400447845459,-1.5109199285507202,-18.941682815551758,-0.7368911504745483,0.38143303990364075,-6.428643226623535,2
648,-2.676940441131592,-26.62173080444336,-15.48427963256836,-0.6241042613983154,0.578603982925415,-6.613742828369141,2
649,-22.649606704711914,-37.612667083740234,-13.124515533447266,-0.27961182594299316,0.5336458086967468,-6.770529747009277,2
650,-35.38772964477539,-41.36048889160156,-11.995159149169922,0.15809814631938934,0.24673685431480408,-6.90185022354126,2
651,-40.12717056274414,-28.613061904907227,-8.40871524810791,0.9024249315261841,-0.024697955697774887,-7.006845474243164,2
652,-39.46592330932617,-14.534119606018066,-5.885099411010742,1.1090483665466309,-0.4489387571811676,-7.100968360900879,2
653,-35.95564651489258,4.973498344421387,-2.9477739334106445,0.8686182498931885,-1.002240538597107,-7.172863483428955,2
654,-24.248170852661133,27.305814743041992,0.1458989530801773,0.8424742817878723,-1.2669041156768799,-7.2176713943481445,2
655,-13.487075805664062,43.73070526123047,2.191389799118042,0.6082125902175903,-1.6415525674819946,-7.220507621765137,2
656,-1.4769842624664307,47.29804229736328,2.946817636489868,0.18228289484977722,-1.6847482919692993,-7.225000858306885,2
657,9.326706886291504,37.08123016357422,0.4519461989402771,-0.44252270460128784,-1.687546968460083,-7.211713790893555,2
658,12.594451904296875,15.578267097473145,-1.1905827522277832,-0.8149321675300598,-1.5935444831848145,-7.215976715087891,2
659,15.798307418823242,-9.47698974609375,-1.8350027799606323,-0.920573890209198,-1.356934666633606,-7.241003513336182,2
660,7.83270788192749,-19.005428314208984,0.007287877611815929,-0.7224534153938293,-1.2539286613464355,-7.271249771118164,2
661,-7.8957438468933105,-24.807479858398438,0.33461469411849976,-0.683688759803772,-1.207383155822754,-7.260374546051025,2
662,-12.91872501373291,-15.808022499084473,-1.7533942461013794,-0.244313046336174,-1.2971038818359375,-7.270512104034424,2
663,-10.527382850646973,-6.457794666290283,-3.32580828666687,0.0611412413418293,-1.4691760540008545,-7.293020248413086,2
664,-9.396883964538574,2.1434671878814697,-4.058009624481201,0.14021766185760498,-1.6112291812896729,-7.319945812225342,2
665,0.7128052711486816,7.876629829406738,-4.941855430603027,0.14598312973976135,-1.6370805501937866,-7.36093282699585,2
666,9.581181526184082,17.431385040283203,-4.091110706329346,-0.3063451051712036,-1.7296758890151978,-7.361774921417236,2
667,12.691179275512695,15.12565803527832,-5.526012897491455,-0.4835946559906006,-1.5421361923217773,-7.402289867401123,2
668,17.258007049560547,6.925792694091797,-8.939946174621582,-0.5817622542381287,-1.4284039735794067,-7.466111183166504,2
669,17.262754440307617,-8.706480979919434,-11.17230224609375,-0.7492197751998901,-1.1945363283157349,-7.537265300750732,2
670,14.771978378295898,-31.283748626708984,-13.115570068359375,-0.5696972608566284,-1.0991770029067993,-7.665648937225342,2
671,15.101211547851562,-40.044185638427734,-11.112290382385254,-0.015121931210160255,-0.9448715448379517,-7.83248233795166,2
672,6.827273368835449,-34.855411529541016,-11.42313003540039,0.17146961390972137,-0.9547132253646851,-7.9171271324157715,2
673,6.392484188079834,-28.69973373413086,-12.403278350830078,0.7363110184669495,-0.7749170660972595,-8.052238464355469,2
674,5.4290008544921875,-12.760108947753906,-11.670271873474121,1.2916065454483032,-0.7669410109519958,-8.206561088562012,2
675,7.692071914672852,-1.6585474014282227,-11.25094223022461,1.24482262134552,-0.8237072825431824,-8.289350509643555,2
676,17.17742347717285,14.91254997253418,-11.702536582946777,1.4220696687698364,-0.6812365055084229,-8.422823905944824,2
677,24.314720153808594,22.721115112304688,-11.739112854003906,0.8017644286155701,-0.5504654049873352,-8.46895980834961,2
678,36.55635452270508,25.400484085083008,-14.381847381591797,0.5040542483329773,-0.21021819114685059,-8.58410930633545,2
679,42.7982177734375,20.607633590698242,-16.97832679748535,0.23729202151298523,0.08712740987539291,-8.714898109436035,2
680,43.47248458862305,8.231819152832031,-19.76765251159668,0.062243375927209854,0.6320202946662903,-8.891544342041016,2
681,30.220388412475586,0.8842136263847351,-18.4706974029541,0.05128925293684006,0.8052875399589539,-9.07568073272705,2
682,12.832528114318848,1.250800609588623,-16.742408752441406,0.0841403380036354,1.2193905115127563,-9.270057678222656,2
683,-2.1034748554229736,-1.9149813652038574,-14.517592430114746,0.048300839960575104,1.3411952257156372,-9.437694549560547,2
684,-3.7209932804107666,-4.264613151550293,-14.386959075927734,0.1907358169555664,1.179680347442627,-9.57786750793457,2
685,4.965305805206299,-20.551240921020508,-14.745518684387207,0.19709353148937225,1.2106553316116333,-9.727005958557129,2
686,16.037473678588867,-38.086151123046875,-15.368894577026367,0.7258859872817993,1.3629016876220703,-9.863332748413086,2
687,22.469451904296875,-46.87661361694336,-16.41570472717285,0.7863616347312927,1.1252576112747192,-10.022296905517578,2
688,19.17045783996582,-40.2574577331543,-15.526932716369629,1.3485969305038452,1.420661211013794,-10.188833236694336,2
689,11.316784858703613,-22.454208374023438,-13.240225791931152,1.5156099796295166,1.6729717254638672,-10.387694358825684,2
690,-3.8797647953033447,0.8019934296607971,-10.184240341186523,1.830267071723938,1.7682777643203735,-10.524344444274902,2
691,-17.109914779663086,31.789756774902344,-6.266371250152588,1.7434096336364746,1.7783526182174683,-10.654033660888672,2
692,-22.850378036499023,50.75208282470703,-4.903342247009277,1.2803024053573608,1.5864943265914917,-10.748427391052246,2
693,-16.366186141967773,59.29418182373047,-3.6514081954956055,0.7976652979850769,1.3082551956176758,-10.78178596496582,2
694,-0.983903169631958,47.961158752441406,-3.0751872062683105,0.13166537880897522,1.2019959688186646,-10.835878372192383,2
695,16.754472732543945,24.024127960205078,-2.8034331798553467,-0.2975028157234192,1.2514899969100952,-10.852263450622559,2
696,26.409212112426758,-6.402982234954834,-0.3585352301597595,-0.5374358296394348,1.5109018087387085,-10.872570991516113,2
697,24.91046714782715,-29.016550064086914,1.292197346687317,-0.4459080100059509,1.705207347869873,-10.854303359985352,2
698,4.85894775390625,-40.15518569946289,0.5106325745582581,-0.06247629225254059,2.05769419670105,-10.827720642089844,2
699,-18.63553237915039,-38.582618713378906,-0.039603155106306076,0.40057045221328735,1.9725817441940308,-10.80109691619873,2
700,-36.38239288330078,-33.988304138183594,-4.064944267272949,1.131347894668579,1.7449744939804077,-10.711337089538574,2
701,-46.38190841674805,-18.956344604492188,-7.677902698516846,0.8958032727241516,1.2176306247711182,-10.908750534057617,2
702,-47.57657241821289,3.1567413806915283,-7.689319610595703,1.155014157295227,0.8967808485031128,-10.983912467956543,2
703,-32.27669906616211,24.515539169311523,-5.628897190093994,1.1318057775497437,0.3649730980396271,-11.064240455627441,2
704,-6.782871246337891,34.80043411254883,-4.058908939361572,0.8541133999824524,-0.06467236578464508,-11.136959075927734,2
705,21.40833282470703,36.39823532104492,-2.9688494205474854,0.4186786115169525,0.049034904688596725,-11.235891342163086,2
706,52.49755096435547,26.21637535095215,-3.9956111907958984,0.037134744226932526,0.26964113116264343,-11.279397964477539,2
707,69.84988403320312,13.36184024810791,-2.3280060291290283,-0.18885822594165802,0.8141188621520996,-11.308659553527832,2
708,67.40375518798828,2.089376449584961,1.1443554162979126,-0.28376713395118713,1.615494728088379,-11.32970905303955,2
709,50.98357391357422,1.5314527750015259,3.6954755783081055,-0.2919045388698578,2.1605498790740967,-11.30918025970459,2
710,19.193708419799805,-1.2263951301574707,8.69032096862793,-0.31839993596076965,2.7762391567230225,-11.285048484802246,2
711,-18.390121459960938,7.6777215003967285,15.225003242492676,-0.3527257442474365,3.012697696685791,-11.219071388244629,2
712,-42.45157241821289,6.383630275726318,21.41490936279297,-0.32644253969192505,2.752112627029419,-11.055078506469727,2
713,-56.64680480957031,5.988306045532227,24.773488998413086,-0.4515819251537323,2.2339463233947754,-10.8718900680542,2
714,-54.000728607177734,-2.355308771133423,28.959125518798828,-0.4704902470111847,1.7286401987075806,-10.618236541748047,2
715,-39.4244384765625,-12.021629333496094,30.420820236206055,-0.3034219443798065,1.051162838935852,-10.28696060180664,2
716,-18.007558822631836,-18.727371215820312,34.08163833618164,-0.20381419360637665,0.9018799066543579,-9.982587814331055,2
717,0.4414016604423523,-18.195898056030273,36.658531188964844,0.1438283771276474,0.6424122452735901,-9.603837013244629,2
718,12.300166130065918,-14.267205238342285,39.350711822509766,0.2564355134963989,0.7434219717979431,-9.27046012878418,2
719,20.911157608032227,4.522556781768799,41.72505187988281,0.467807799577713,0.8900278210639954,-8.868806838989258,2
720,20.122350692749023,17.427907943725586,44.25832748413086,0.5038660764694214,1.1512967348098755,-8.444973945617676,2
721,14.106697082519531,24.593955993652344,44.97652053833008,0.3298196792602539,1.39909827709198,-8.016559600830078,2
722,7.156087875366211,16.921783447265625,44.55081558227539,0.06059340760111809,1.4829975366592407,-7.576451778411865,2
723,2.123014450073242,-0.5289727449417114,44.031925201416016,-0.1635558158159256,1.6020392179489136,-7.13662576675415,2
724,-2.5315816402435303,-24.578027725219727,42.605812072753906,-0.10039052367210388,1.6314101219177246,-6.672270774841309,2
725,-5.169190883636475,-37.028785705566406,40.1269645690918,-0.10332831740379333,1.5751794576644897,-6.302053451538086,2
726,-4.918671131134033,-50.38167953491211,36.53767013549805,0.35679468512535095,1.4175193309783936,-5.880674362182617,2
727,-4.39504337310791,-54.17807388305664,32.65087127685547,1.1387065649032593,1.4757051467895508,-5.442426681518555,2
728,-5.798089981079102,-51.54304122924805,31.185741424560547,1.2812271118164062,1.370154619216919,-5.232152938842773,2
729,-6.156982421875,-34.49509048461914,32.46084976196289,2.0633773803710938,1.2662814855575562,-4.867661476135254,2
730,-9.045089721679688,-4.645114898681641,32.106529235839844,2.055680274963379,1.1333718299865723,-4.655328750610352,2
731,-14.492707252502441,22.534799575805664,31.313207626342773,2.1182780265808105,1.0280952453613281,-4.3540940284729,2
732,-14.671234130859375,43.30681610107422,30.496551513671875,1.853327751159668,1.0552117824554443,-4.085626602172852,2
733,-6.449789524078369,64.83265686035156,30.144168853759766,1.296108365058899,0.7973620891571045,-3.794179677963257,2
734,3.0028493404388428,69.78031921386719,28.214954376220703,0.6715079545974731,0.6667654514312744,-3.4821279048919678,2
735,11.483495712280273,63.12470245361328,26.72247314453125,-0.0345878042280674,0.6925560832023621,-3.1953766345977783,2
736,14.162714958190918,44.98716354370117,24.132713317871094,-0.7634797692298889,0.8478293418884277,-2.941730499267578,2
737,12.979222297668457,22.79764747619629,24.102235794067383,-1.0485564470291138,1.0569835901260376,-2.656247615814209,2
738,8.519196510314941,-12.22978401184082,24.301803588867188,-1.214397668838501,1.2413105964660645,-2.4018845558166504,2
739,-2.518888473510742,-43.404701232910156,24.36572265625,-0.9388541579246521,1.412552833557129,-2.1282055377960205,2
740,-19.16965675354004,-57.326175689697266,24.52316665649414,-0.4172888696193695,1.3249168395996094,-1.8677351474761963,2
741,-35.82821273803711,-50.837066650390625,23.68235969543457,-0.027975725010037422,0.9628072381019592,-1.6624873876571655,2
742,-48.30563735961914,-25.39889907836914,21.347774505615234,0.5345653891563416,0.6261026263237,-1.431370496749878,2
743,-47.74616241455078,-4.384482383728027,21.145713806152344,0.9946913719177246,0.04302183538675308,-1.1935076713562012,2
744,-39.374305725097656,11.303614616394043,20.202091217041016,0.5860720276832581,-0.1293381154537201,-1.06826651096344,2
745,-25.8096981048584,23.499256134033203,18.675743103027344,0.5285253524780273,-0.7254460453987122,-0.858863353729248,2
746,-11.64597225189209,26.13884735107422,16.28748321533203,0.2923489212989807,-0.8716391324996948,-0.6807857751846313,2
747,4.138978481292725,23.865901947021484,14.41534423828125,0.0863431841135025,-0.9980472326278687,-0.5160017609596252,2
748,14.997333526611328,24.428125381469727,11.49312973022461,-0.120268315076828,-0.9465354681015015,-0.37190985679626465,2
749,23.2558536529541,22.15835952758789,8.635515213012695,-0.3945801258087158,-0.708881676197052,-0.2581499516963959,2
750,16.36692237854004,21.205556869506836,7.339042663574219,-0.6302645206451416,-0.5979411005973816,-0.16981561481952667,2
751,4.492963790893555,12.356727600097656,6.269636631011963,-0.8505203723907471,-0.506287693977356,-0.09730774164199829,2
752,-8.781270027160645,-3.3417155742645264,6.1554131507873535,-0.9368599653244019,-0.39462363719940186,-0.03851838782429695,2
753,-21.323888778686523,-13.038002014160156,6.127449989318848,-0.8365175127983093,-0.42548438906669617,0.016478782519698143,2
754,-34.5969352722168,-18.959409713745117,5.993765830993652,-0.5473012924194336,-0.8005208373069763,0.05470966920256615,2
755,-45.99895095825195,-23.542142868041992,6.362769603729248,-0.39041149616241455,-1.1010080575942993,0.12170238792896271,2
756,-42.9114990234375,-21.223058700561523,3.5826971530914307,0.017289843410253525,-1.5570478439331055,0.16758793592453003,2
757,-22.784709930419922,-10.2689790725708,1.672607660293579,-0.2634281814098358,-1.823446273803711,0.28783267736434937,2
758,-7.431254863739014,0.8650895953178406,0.7924910187721252,-0.03641201928257942,-2.0787010192871094,0.29846715927124023,2
759,1.0855696201324463,7.550940036773682,-0.5163334012031555,-0.05541554465889931,-2.2082388401031494,0.3111417591571808,2
760,8.30953598022461,1.8565881252288818,-1.1327356100082397,-0.156653493642807,-2.185166120529175,0.3169848322868347,2
761,15.162412643432617,-6.975749492645264,-1.9873453378677368,-0.05236366391181946,-2.041102647781372,0.27572497725486755,2
762,12.641105651855469,-10.616923332214355,-0.7273651361465454,0.028481317684054375,-1.8730249404907227,0.25119704008102417,2
763,1.4616332054138184,-8.066078186035156,1.956040859222412,0.30279576778411865,-1.9002708196640015,0.18103910982608795,2
764,-14.05272102355957,0.19526256620883942,4.5470380783081055,0.505128026008606,-1.8988977670669556,0.15452061593532562,2
765,-22.845125198364258,10.810078620910645,5.408315658569336,0.5719133615493774,-2.128375291824341,0.16677719354629517,2
766,-24.693012237548828,11.643753051757812,7.06584358215332,-0.00849340669810772,-2.34224534034729,0.3736827075481415,2
767,-18.858531951904297,4.468160152435303,9.987476348876953,-0.24178260564804077,-2.563248634338379,0.46860212087631226,2
768,-6.250596046447754,6.411208152770996,12.278711318969727,-0.2549038827419281,-2.8224496841430664,0.5237645506858826,2
769,6.824728965759277,5.165035724639893,15.578216552734375,-0.25331488251686096,-2.8911240100860596,0.6052665710449219,2
770,25.257640838623047,4.089925289154053,17.192411422729492,-0.36992329359054565,-2.7339677810668945,0.771109402179718,2
771,40.01805877685547,8.748085975646973,17.82661247253418,-0.39295506477355957,-2.650763511657715,0.917033851146698,2
772,47.571441650390625,14.38879680633545,18.27389907836914,-0.4247705936431885,-2.042996883392334,1.083355188369751,2
773,55.43592834472656,21.57310676574707,17.756275177001953,-0.5412761569023132,-1.8647538423538208,1.2310713529586792,2
774,57.19776153564453,24.1245059967041,16.458375930786133,-0.8372295498847961,-1.0718425512313843,1.4704205989837646,2
775,54.02769470214844,21.546600341796875,14.762434959411621,-1.108030080795288,-0.5529404878616333,1.6434872150421143,2
776,47.8015251159668,7.975693225860596,14.369861602783203,-1.3223711252212524,-0.14857050776481628,1.7662855386734009,2
777,37.52183151245117,-12.357400894165039,15.296869277954102,-1.5216655731201172,0.22518596053123474,1.925382137298584,2
778,21.165794372558594,-27.611408233642578,15.792533874511719,-1.2574540376663208,0.6378845572471619,2.009983777999878,2
779,5.515706539154053,-41.29240036010742,16.265798568725586,-0.8143590092658997,0.8068636655807495,2.087888479232788,2
780,-3.6603617668151855,-43.99216842651367,17.214111328125,-0.1855950802564621,0.7506720423698425,2.146639823913574,2
781,-8.069445610046387,-37.70466232299805,19.240219116210938,0.319551944732666,0.697491466999054,2.2831807136535645,2
782,-10.34801959991455,-32.273216247558594,20.73915672302246,0.8893006443977356,0.6226389408111572,2.4159374237060547,2
783,-2.2754321098327637,-26.881742477416992,22.0120849609375,0.997017502784729,0.3110661804676056,2.638457775115967,2
784,5.445703506469727,-23.422374725341797,22.700124740600586,1.3924916982650757,0.28342899680137634,2.8374526500701904,2
785,17.564891815185547,-22.924772262573242,24.388296127319336,1.66677987575531,0.40217986702919006,3.06085205078125,2
786,31.043561935424805,-13.19705867767334,26.288021087646484,2.047274589538574,0.5725992918014526,3.277289390563965,2
787,37.915199279785156,7.625879287719727,26.39006233215332,2.1586477756500244,1.070558786392212,3.5309252738952637,2
788,35.279197692871094,35.39826965332031,23.98593521118164,1.921863317489624,1.5654481649398804,3.8020074367523193,2
789,24.30129051208496,59.36506652832031,21.59039306640625,1.3413432836532593,1.6426889896392822,4.091246604919434,2
790,13.520125389099121,67.06973266601562,20.385799407958984,0.6332377791404724,1.866340160369873,4.335532188415527,2
791,5.438127040863037,51.11443328857422,20.3569393157959,-0.01994848996400833,2.00443696975708,4.563553810119629,2
792,-2.981973886489868,17.18625831604004,22.068134307861328,-0.6955124735832214,2.135024070739746,4.7783708572387695,2
793,-3.3747007846832275,-24.59157943725586,20.76062774658203,-0.8081329464912415,2.1465373039245605,5.014146327972412,2
794,2.2801995277404785,-55.86298751831055,19.660057067871094,-0.4134689271450043,2.149064540863037,5.245189666748047,2
795,12.94284439086914,-70.35195922851562,20.437889099121094,0.4648599922657013,2.246851921081543,5.472452163696289,2
796,16.39286994934082,-60.694122314453125,23.044790267944336,1.093173861503601,2.3269667625427246,5.634464263916016,2
797,10.807650566101074,-39.605228424072266,24.52680015563965,2.0734269618988037,2.5311949253082275,5.894028663635254,2
798,3.33355975151062,-9.813854217529297,22.466333389282227,1.9660263061523438,2.3600289821624756,6.0187249183654785,2
799,-6.7917609214782715,26.68597412109375,19.644208908081055,2.104541778564453,2.4365592002868652,6.231955051422119,2
800,-17.890989303588867,45.25998306274414,17.701087951660156,1.722531795501709,2.3410263061523438,6.393380165100098,2
801,-24.127405166625977,48.25416564941406,16.619375228881836,1.1207795143127441,2.076096773147583,6.549525260925293,2
802,-25.323448181152344,39.65497589111328,15.579955101013184,0.47968313097953796,1.8527683019638062,6.679166316986084,2
803,-21.13100814819336,19.12268829345703,14.737181663513184,0.01769752986729145,1.6759837865829468,6.817895412445068,2
804,-12.787620544433594,-6.055437088012695,12.678190231323242,0.02379368618130684,1.3595370054244995,7.057523250579834,2
805,-3.8023476600646973,-32.174049377441406,9.237011909484863,0.18801063299179077,1.239397406578064,7.231322288513184,2
806,2.9808285236358643,-48.6908073425293,7.103657245635986,0.6556159257888794,1.596804141998291,7.335271835327148,2
807,8.707165718078613,-50.23759841918945,7.213026523590088,1.3746005296707153,1.4952069520950317,7.49261474609375,2
808,13.969108581542969,-38.85871124267578,5.834837913513184,1.6092593669891357,1.7773748636245728,7.434532642364502,2
809,9.12650203704834,-15.440523147583008,4.6024346351623535,2.0210959911346436,1.9649403095245361,7.467947483062744,2
810,-1.2062984704971313,10.243849754333496,0.5992981791496277,2.203155517578125,2.0102667808532715,7.513051509857178,2
811,-13.478583335876465,35.50041961669922,-3.180037498474121,2.096484422683716,2.030296564102173,7.511569499969482,2
812,-26.350679397583008,52.36823272705078,-4.817818641662598,1.5972367525100708,1.9077566862106323,7.437528133392334,2
813,-34.10970687866211,53.712974548339844,-4.528145790100098,0.9947836995124817,1.6642146110534668,7.373140335083008,2
814,-34.46025085449219,44.55939865112305,-2.7776432037353516,0.5817450284957886,1.2413554191589355,7.410318374633789,2
815,-31.74163818359375,20.799470901489258,-3.04348087310791,-0.013274586759507656,0.6645366549491882,7.397246360778809,2
816,-20.425310134887695,-13.658881187438965,-3.5612266063690186,-0.06609586626291275,0.854998767375946,7.336269855499268,2
817,-6.42333459854126,-38.405521392822266,-4.4959845542907715,0.2237088978290558,0.6840810775756836,7.361475944519043,2
818,3.6594059467315674,-45.79012680053711,-5.2642974853515625,0.5867199301719666,0.5143845081329346,7.33756685256958,2
819,6.991628170013428,-35.180240631103516,-5.9902238845825195,1.1980658769607544,0.5197802782058716,7.331220626831055,2
820,6.177255153656006,-15.862199783325195,-6.128824234008789,1.2439179420471191,0.5948301553726196,7.195313453674316,2
821,2.32839035987854,9.24741268157959,-6.4312825202941895,1.4875110387802124,0.6520511507987976,7.143481254577637,2
822,-5.000974178314209,25.560020446777344,-9.113781929016113,1.3359729051589966,0.634113073348999,7.069085121154785,2
823,-14.078685760498047,42.39320755004883,-9.44143009185791,0.9471026062965393,0.5664942860603333,6.968807697296143,2
824,-20.477205276489258,49.7288932800293,-8.494107246398926,0.46055012941360474,0.4974057674407959,6.859242916107178,2
825,-22.65926170349121,39.953678131103516,-7.805931568145752,-0.11092349886894226,0.1808253824710846,6.784023284912109,2
826,-21.781843185424805,15.864251136779785,-7.700616359710693,-0.45044925808906555,0.04626719653606415,6.709846019744873,2
827,-16.467561721801758,-10.839426040649414,-8.40754222869873,-0.6246341466903687,-0.27666378021240234,6.651390552520752,2
828,-7.291365146636963,-24.179519653320312,-9.439714431762695,-0.3854617178440094,-0.4260530173778534,6.588144779205322,2
829,3.7654080390930176,-23.319997787475586,-9.706320762634277,-0.07094109803438187,-0.3554287552833557,6.4936442375183105,2
830,13.792401313781738,-12.502121925354004,-11.236132621765137,0.09314931184053421,-0.26890820264816284,6.3862223625183105,2
831,17.757539749145508,9.912586212158203,-11.443731307983398,0.31417116522789,-0.17208626866340637,6.282188892364502,2
832,15.212328910827637,28.5743465423584,-14.148487091064453,0.21226823329925537,0.055794913321733475,6.161881923675537,2
833,7.916952133178711,46.96767807006836,-17.317684173583984,-0.2196386605501175,0.237565815448761,6.022672176361084,2
834,-2.183046579360962,56.014984130859375,-20.620670318603516,-0.7089343667030334,0.29595133662223816,5.8584089279174805,2
835,-11.147246360778809,53.72096633911133,-23.694196701049805,-1.2529021501541138,0.20027193427085876,5.660998821258545,2
836,-16.726253509521484,35.95058822631836,-26.001127243041992,-1.8724734783172607,0.03244682028889656,5.430377006530762,2
837,-17.286252975463867,8.694778442382812,-25.896812438964844,-2.3407013416290283,-0.21859650313854218,5.171314239501953,2
838,-17.151391983032227,-18.211530685424805,-26.42049217224121,-2.3701632022857666,-0.3302670419216156,4.919731616973877,2
839,-16.712669372558594,-45.55569839477539,-25.853466033935547,-1.9492483139038086,-0.6457011103630066,4.6228227615356445,2
840,-16.55854034423828,-56.6558723449707,-25.57868766784668,-1.3501149415969849,-0.9478393793106079,4.330913066864014,2
841,-17.81111717224121,-49.85454177856445,-24.26343536376953,-0.802121102809906,-1.03536856174469,4.101485729217529,2
842,-15.265372276306152,-25.369422912597656,-22.909500122070312,-0.23291106522083282,-0.8549989461898804,3.9359538555145264,2
843,-7.556155204772949,8.137985229492188,-18.999500274658203,-0.06128298118710518,-1.0658761262893677,3.717036008834839,2
844,-4.56429386138916,36.08869171142578,-15.246540069580078,-0.1196102425456047,-1.1723328828811646,3.524033784866333,2
845,-1.0926978588104248,62.97573471069336,-9.934812545776367,-0.589436948299408,-1.069185495376587,3.413997173309326,2
846,5.154201507568359,76.83582305908203,-7.054820537567139,-1.445921778678894,-1.127519130706787,3.3339343070983887,2
847,16.48649024963379,71.29450988769531,-6.046990871429443,-2.2637927532196045,-1.0814001560211182,3.2620763778686523,2
848,27.54693031311035,58.090309143066406,-4.986288070678711,-3.0843706130981445,-0.9327387809753418,3.2070417404174805,2
849,31.123960494995117,28.864730834960938,-3.8878650665283203,-3.5900113582611084,-0.5454989075660706,3.1665661334991455,2
850,30.141691207885742,-10.189225196838379,-3.704451560974121,-3.9140536785125732,-0.3154749572277069,3.086625814437866,2
851,27.63108253479004,-49.31245040893555,-3.804938316345215,-3.8063366413116455,-0.09655105322599411,2.995074987411499,2
852,22.355106353759766,-66.06932830810547,-3.192235231399536,-3.0482914447784424,0.2878727316856384,2.932798385620117,2
853,10.145549774169922,-63.050106048583984,-1.1063176393508911,-2.39272403717041,0.4358517527580261,2.8559679985046387,2
854,-5.132254600524902,-40.42036437988281,0.9743556976318359,-1.658987283706665,0.4784277379512787,2.7771644592285156,2
855,-24.81989097595215,-10.988431930541992,1.9534844160079956,-1.399034857749939,0.48780861496925354,2.8211355209350586,2
856,-36.594242095947266,18.363754272460938,2.6883533000946045,-1.2469974756240845,0.12633205950260162,2.7721779346466064,2
857,-41.49019241333008,43.25455093383789,5.404924392700195,-1.5099730491638184,-0.21383199095726013,2.8174026012420654,2
858,-39.94150924682617,47.91819763183594,7.30166482925415,-2.0599141120910645,-0.699566662311554,2.8514163494110107,2
859,-34.782711029052734,31.715925216674805,10.896081924438477,-2.6660773754119873,-0.9532515406608582,2.9954986572265625,2
860,-24.706466674804688,3.2571487426757812,15.11559009552002,-3.009929895401001,-1.2694185972213745,3.106764554977417,2
861,-8.82419204711914,-24.786479949951172,16.638776779174805,-2.9061238765716553,-1.6252168416976929,3.1699869632720947,2
862,10.136688232421875,-45.26326370239258,17.272310256958008,-2.6485867500305176,-1.6432968378067017,3.371656894683838,2
863,25.553571701049805,-51.97260665893555,17.959123611450195,-2.496333122253418,-1.5081746578216553,3.638669967651367,2
864,29.054296493530273,-46.77094268798828,16.970481872558594,-1.8664565086364746,-1.1472443342208862,3.8649911880493164,2
865,24.628385543823242,-37.24938201904297,13.858003616333008,-0.9626340866088867,-0.9455461502075195,3.9055609703063965,2
866,18.788265228271484,-27.838747024536133,12.032967567443848,-0.7215210795402527,-0.7273600101470947,4.073455810546875,2
867,10.489226341247559,-16.22611427307129,8.654926300048828,-0.5601179003715515,-0.5324106812477112,4.230144500732422,2
868,-0.79123854637146,-9.85421085357666,5.652795791625977,-0.3555850386619568,-0.403363972902298,4.321843147277832,2
869,-8.34272289276123,-12.802793502807617,3.96004319190979,-0.5998907089233398,-0.451595276594162,4.439136505126953,2
870,-12.280263900756836,-20.68429946899414,1.1113231182098389,-0.4380130171775818,-0.6248452663421631,4.434939861297607,2
871,-10.404376029968262,-24.503150939941406,0.04739704728126526,-0.10530189424753189,-0.7111870646476746,4.431397438049316,2
872,2.2060000896453857,-24.155794143676758,-0.6128513216972351,0.285099595785141,-0.8783659338951111,4.385305404663086,2
873,17.499130249023438,-19.866680145263672,-2.7857329845428467,0.03271562233567238,-0.7720715403556824,4.514921188354492,2
874,31.70460319519043,-13.594232559204102,-7.6367387771606445,0.30879196524620056,-0.4985138177871704,4.508172035217285,2
875,33.350624084472656,-16.199363708496094,-11.639763832092285,0.5115184187889099,-0.16931958496570587,4.438146591186523,2
876,21.852882385253906,-22.925954818725586,-12.42057991027832,0.8396498560905457,0.24671827256679535,4.308507442474365,2
877,2.16277813911438,-33.59101104736328,-13.474044799804688,1.0088287591934204,0.39729976654052734,4.184832572937012,2
878,-17.426267623901367,-38.279991149902344,-15.126651763916016,1.3245818614959717,0.3231593370437622,4.039418697357178,2
879,-34.15969467163086,-36.76608657836914,-15.262748718261719,1.7640117406845093,0.010647301562130451,3.873419761657715,2
880,-40.83195877075195,-29.864587783813477,-14.994275093078613,1.8774347305297852,-0.12401873618364334,3.755504608154297,2
881,-34.626014709472656,-18.105215072631836,-13.772252082824707,2.308016300201416,-0.7161870002746582,3.6023645401000977,2
882,-19.13953399658203,-13.083978652954102,-12.250133514404297,2.3555898666381836,-0.9074382781982422,3.4669644832611084,2
883,2.541856050491333,-7.5441813468933105,-11.82723331451416,2.6066501140594482,-1.0628628730773926,3.3196537494659424,2
884,25.576580047607422,-9.593478202819824,-12.75781536102295,2.640599012374878,-0.8694129586219788,3.171631097793579,2
885,43.51925277709961,-17.40424346923828,-15.836087226867676,2.776437759399414,-0.6759743690490723,3.0483803749084473,2
886,48.79936599731445,-26.47517204284668,-20.82563591003418,2.6685585975646973,-0.27089279890060425,2.9426684379577637,2
887,34.68777084350586,-35.201969146728516,-27.786672592163086,3.2138051986694336,0.47981250286102295,2.621629238128662,2
888,6.64617395401001,-45.663841247558594,-31.514833450317383,3.308640241622925,0.7811933159828186,2.426349639892578,2
889,-26.031293869018555,-48.85103988647461,-36.22509002685547,3.991116762161255,0.8503420948982239,2.1244876384735107,2
890,-56.04271697998047,-36.967742919921875,-39.7391357421875,4.252898216247559,0.5388626456260681,1.8561097383499146,2
891,-72.14686584472656,-19.22652816772461,-39.97091293334961,4.69978141784668,-0.15841840207576752,1.5800186395645142,2
892,-67.98751068115234,-3.2717583179473877,-38.353633880615234,4.886679172515869,-0.6417496204376221,1.0872784852981567,2
893,-52.14534378051758,12.231700897216797,-37.10527038574219,4.936711311340332,-1.4371622800827026,0.7842795848846436,2
894,-23.421762466430664,26.162124633789062,-35.30644226074219,4.805129528045654,-1.7891099452972412,0.2939758896827698,2
895,6.051241397857666,31.89005470275879,-32.26946258544922,4.538105487823486,-2.0617382526397705,-0.06369686126708984,2
896,28.715063095092773,35.55100631713867,-27.84923553466797,4.17525577545166,-1.933473825454712,-0.471074640750885,2
897,45.728694915771484,39.195159912109375,-25.41733741760254,3.8805644512176514,-1.4443819522857666,-0.9387806057929993,2
898,48.230106353759766,35.3863639831543,-25.441959381103516,3.3149514198303223,-1.0734467506408691,-1.1251873970031738,2
899,32.345951080322266,35.45006561279297,-24.89260482788086,2.943281888961792,-0.3969799280166626,-1.5164949893951416,2
900,8.401162147521973,30.293628692626953,-22.777217864990234,2.651421308517456,-0.127681702375412,-1.6968218088150024,2
901,-16.009361267089844,26.25318717956543,-19.564306259155273,2.2763772010803223,-0.011470903642475605,-1.8943594694137573,2
902,-38.612632751464844,15.649014472961426,-13.885927200317383,1.9912734031677246,-0.22201010584831238,-2.008185863494873,2
903,-50.91094970703125,6.783457279205322,-10.809356689453125,1.8598887920379639,-0.7105366587638855,-2.0536928176879883,2
904,-49.01394271850586,-4.09417724609375,-8.86030387878418,1.8122347593307495,-1.1686958074569702,-2.1897573471069336,2
905,-36.16731643676758,-16.212800979614258,-7.631324291229248,2.003840208053589,-1.596960425376892,-2.3432834148406982,2
906,-20.970565795898438,-16.609535217285156,-7.795567989349365,2.0011181831359863,-1.8186842203140259,-2.509885787963867,2
907,-10.266702651977539,-10.35019302368164,-8.287944793701172,2.2332160472869873,-2.106781244277954,-2.556370735168457,2
908,-1.0333975553512573,-8.06054973602295,-9.430383682250977,2.382129430770874,-2.132002115249634,-2.694887638092041,2
909,7.639396667480469,-3.8361382484436035,-12.009553909301758,2.5339698791503906,-2.2140276432037354,-2.759197235107422,2
910,3.277498722076416,4.548228740692139,-15.337162971496582,2.466127634048462,-2.1085193157196045,-2.874500274658203,2
911,-9.414027214050293,24.159502029418945,-17.46128273010254,2.4467811584472656,-2.004319429397583,-3.052323818206787,2
912,-21.01860237121582,34.33020782470703,-19.11683464050293,2.2292799949645996,-2.1651225090026855,-3.1634411811828613,2
913,-25.689411163330078,29.142955780029297,-19.457300186157227,1.8625940084457397,-2.4136087894439697,-3.3103811740875244,2
914,-16.527902603149414,19.447265625,-21.170991897583008,1.5562416315078735,-2.6531548500061035,-3.5194342136383057,2
915,-3.9981391429901123,4.74721097946167,-20.567737579345703,1.3598259687423706,-2.9041190147399902,-3.706848382949829,2
916,13.11705207824707,-19.325639724731445,-17.616689682006836,1.4190914630889893,-2.9206466674804688,-3.972782611846924,2
917,28.215478897094727,-35.79761505126953,-15.342242240905762,1.6842918395996094,-2.6780359745025635,-4.252272129058838,2
918,40.17612075805664,-44.11041259765625,-10.290791511535645,2.207463264465332,-2.3387858867645264,-4.488173007965088,2
919,42.840389251708984,-35.04203796386719,-7.3621978759765625,2.3932132720947266,-1.960884928703308,-4.503762245178223,2
920,41.39211654663086,-13.678396224975586,-7.018999099731445,2.8540091514587402,-1.4652197360992432,-4.630615711212158,2
921,40.74496078491211,12.727191925048828,-7.656518936157227,2.9625275135040283,-1.2699697017669678,-4.568352222442627,2
922,36.731590270996094,33.86057662963867,-10.222152709960938,2.675734281539917,-0.8612537384033203,-4.576895236968994,2
923,39.66144943237305,50.0954475402832,-11.618821144104004,2.250718593597412,-0.5581077337265015,-4.6000494956970215,2
924,39.58298873901367,60.11951446533203,-13.634476661682129,1.6465139389038086,-0.08969561755657196,-4.720597743988037,2
925,35.518890380859375,48.11381912231445,-13.662843704223633,1.083728313446045,0.1634409874677658,-4.790731906890869,2
926,28.170156478881836,32.00575637817383,-14.667681694030762,0.6765265464782715,0.6398001313209534,-4.988269805908203,2
927,22.109243392944336,12.600990295410156,-12.739627838134766,0.31727057695388794,0.7958559393882751,-5.072702884674072,2
928,10.03279972076416,1.8401325941085815,-10.564754486083984,0.17129641771316528,1.1086682081222534,-5.226753234863281,2
929,4.24852180480957,1.1466410160064697,-9.063715934753418,0.1894376575946808,1.173977017402649,-5.32337760925293,2
930,-0.6233328580856323,-2.3524250984191895,-10.053894996643066,0.2434302270412445,1.2791860103607178,-5.432306289672852,2
931,-5.28785514831543,3.4119536876678467,-10.321216583251953,0.3125808537006378,1.1676231622695923,-5.5090012550354,2
932,-8.754793167114258,13.445215225219727,-6.873271942138672,0.2977229952812195,1.0598927736282349,-5.597749710083008,2
933,-12.391803741455078,25.389413833618164,-4.332338333129883,0.11572159081697464,0.9602989554405212,-5.673124313354492,2
934,-12.840890884399414,26.811704635620117,3.112859010696411,-0.22443106770515442,0.8146718740463257,-5.726354598999023,2
935,-4.280887603759766,29.393640518188477,10.689644813537598,-0.5422043800354004,0.7440518736839294,-5.715204238891602,2
936,11.06371784210205,23.437397003173828,18.283973693847656,-0.7261305451393127,0.5310394167900085,-5.597527027130127,2
937,25.988548278808594,14.747620582580566,22.7874755859375,-1.0293829441070557,0.7717353701591492,-5.437555313110352,2
938,33.02168655395508,-2.807316780090332,26.030620574951172,-1.1544147729873657,1.0260618925094604,-5.209967613220215,2
939,36.280982971191406,-25.772396087646484,24.887081146240234,-1.0784218311309814,1.2620106935501099,-4.951719284057617,2
940,36.16173553466797,-39.697486877441406,25.472021102905273,-0.6571850776672363,1.7662765979766846,-4.651514053344727,2
941,28.46044921875,-51.095943450927734,23.47434425354004,-0.28589263558387756,1.8192745447158813,-4.455651760101318,2
942,10.313070297241211,-42.28496170043945,20.555513381958008,0.2804388105869293,2.2428245544433594,-4.198734283447266,2
943,-10.651200294494629,-27.38161849975586,16.338808059692383,0.5895470976829529,2.364588499069214,-4.046387195587158,2
944,-30.35105323791504,5.146996021270752,13.184957504272461,0.8891685009002686,2.2126646041870117,-3.900156021118164,2
945,-47.475650787353516,33.59294891357422,10.248427391052246,0.7579173445701599,1.8131498098373413,-3.8287484645843506,2
946,-53.34015655517578,57.637088775634766,9.91627311706543,0.2411150336265564,1.2278923988342285,-3.81227707862854,2
947,-48.375511169433594,65.69569396972656,11.376314163208008,-0.1870720237493515,0.922656774520874,-3.6371707916259766,2
948,-37.83964538574219,54.14847183227539,12.043498039245605,-1.0176663398742676,0.40660595893859863,-3.5871076583862305,2
949,-25.896583557128906,27.737329483032227,14.058490753173828,-1.5674126148223877,0.20291076600551605,-3.4236974716186523,2
950,-17.545021057128906,0.6710878610610962,16.095773696899414,-1.9116315841674805,-0.1105404645204544,-3.2985665798187256,2
951,-2.3550803661346436,-28.34930419921875,18.184419631958008,-1.8012927770614624,-0.32135042548179626,-3.0950260162353516,2
952,3.5146050453186035,-50.59607696533203,19.793502807617188,-1.3271591663360596,-0.32484251260757446,-2.8273377418518066,2
953,11.245924949645996,-51.7045783996582,22.574188232421875,-0.903806746006012,-0.2884017527103424,-2.6411502361297607,2
954,16.912883758544922,-34.3664436340332,26.6241512298584,-0.24685423076152802,-0.13706980645656586,-2.3659579753875732,2
955,15.98873233795166,-12.366403579711914,30.539085388183594,-0.2716667056083679,-0.13239052891731262,-2.25488018989563,2
956,11.271203994750977,14.897308349609375,35.59413528442383,-0.08647893369197845,0.15164650976657867,-1.9208548069000244,2
957,11.441020965576172,31.37940216064453,37.98954391479492,-0.22984036803245544,0.16149814426898956,-1.6179379224777222,2
958,17.795385360717773,41.39667892456055,39.14885330200195,-0.6482826471328735,0.400317519903183,-1.24016273021698,2
959,27.335561752319336,37.40451431274414,39.58744812011719,-1.122353196144104,0.6649522185325623,-0.8413015007972717,2
960,41.0428352355957,22.03326416015625,38.936012268066406,-1.5853196382522583,0.8760029077529907,-0.47700679302215576,2
961,40.0418815612793,-8.65713119506836,41.37904357910156,-1.6319506168365479,1.2002270221710205,-0.06056647375226021,2
962,29.334440231323242,-27.76070785522461,44.02833938598633,-1.4491242170333862,1.5300713777542114,0.34880301356315613,2
963,7.777931213378906,-36.612510681152344,45.11488723754883,-1.0299948453903198,2.024787425994873,0.8714010715484619,2
964,-16.590227127075195,-43.62580871582031,45.00676727294922,-0.6848971843719482,1.9513462781906128,1.220475196838379,2
965,-31.705097198486328,-48.533409118652344,46.44912338256836,-0.2760835289955139,1.6403597593307495,1.5742591619491577,2
966,-35.82381057739258,-41.77703857421875,47.48476791381836,0.19253136217594147,1.370367169380188,2.023088216781616,2
967,-23.08476448059082,-24.745431900024414,46.87503433227539,0.748950719833374,0.9197766184806824,2.4921138286590576,2
968,-7.475351333618164,-6.437074661254883,45.56147384643555,0.8059861063957214,0.7168188691139221,2.8994667530059814,2
969,9.047085762023926,8.0040864944458,43.95463943481445,1.0111134052276611,0.6290878057479858,3.3940324783325195,2
970,19.447301864624023,24.395715713500977,42.05100631713867,0.7354367971420288,0.7924918532371521,3.791055202484131,2
971,24.38707733154297,38.69532775878906,38.7014274597168,0.43772178888320923,1.121599555015564,4.219964027404785,2
972,21.38166618347168,40.018856048583984,34.69248580932617,0.17475385963916779,1.2317651510238647,4.624690055847168,2
