,gyro.x,gyro.y,gyro.z,stabilizer.pitch,stabilizer.roll,stabilizer.yaw,label
0,-0.05168168246746063,0.035961996763944626,-0.3522886335849762,-0.47041216492652893,-1.050335168838501,-1.4254002571105957,2
1,0.03993671014904976,-0.055139388889074326,-0.291697233915329,-0.4699375331401825,-1.0498301982879639,-1.42741060256958,2
2,-0.008884341455996037,0.05856914818286896,-0.313984215259552,-0.4690757989883423,-1.0487974882125854,-1.428879976272583,2
3,-0.030108153820037842,0.005168790929019451,-0.3911551237106323,-0.46888285875320435,-1.0480140447616577,-1.4304102659225464,2
4,-0.018472885712981224,0.12829789519309998,-0.29563912749290466,-0.46833404898643494,-1.0471209287643433,-1.4328522682189941,2
5,0.01874915324151516,-0.05154662951827049,-0.17569255828857422,-0.46861162781715393,-1.0462185144424438,-1.43433678150177,2
6,0.032659560441970825,0.03604442998766899,-0.177698016166687,-0.34102848172187805,-1.0466203689575195,-1.4341349601745605,2
7,-0.008808626793324947,0.13634727895259857,-0.30574941635131836,-0.4353363513946533,-1.0471320152282715,-1.4354740381240845,2
8,0.014661635272204876,0.02128024771809578,-0.22249466180801392,-0.4443449378013611,-1.0475882291793823,-1.4372642040252686,2
9,-0.056648097932338715,0.06763780862092972,-0.29693394899368286,-0.4512888789176941,-1.0484403371810913,-1.4386485815048218,2
10,0.13137230277061462,0.0008755390881560743,-0.2734903395175934,-0.5196934938430786,-1.048698902130127,-1.4406224489212036,2
11,-0.08000253885984421,0.03310432285070419,-0.28911730647087097,-0.5076367855072021,-1.0489413738250732,-1.4418874979019165,2
12,-0.047791894525289536,0.08942527323961258,-0.26506507396698,-0.4359554350376129,-1.0504205226898193,-1.4426724910736084,2
13,0.06861022114753723,0.057290609925985336,-0.30502843856811523,-0.44551610946655273,-1.051125407218933,-1.4441078901290894,2
14,-0.011132427491247654,-0.07587165385484695,-0.28182661533355713,-0.4526074230670929,-1.0514525175094604,-1.445696473121643,2
15,0.10963192582130432,0.11150074005126953,-0.22003842890262604,-0.5212743282318115,-1.0514293909072876,-1.4476624727249146,2
16,-0.06486071646213531,0.03667581453919411,-0.2851724624633789,-0.510036826133728,-1.0511714220046997,-1.448491096496582,2
17,0.002709645079448819,0.08370673656463623,-0.2788501977920532,-0.5643004775047302,-1.051834225654602,-1.4503555297851562,2
18,0.05640798434615135,-0.0909661054611206,-0.28790295124053955,-0.478085994720459,-1.0517390966415405,-1.4511154890060425,2
19,-0.04138362780213356,0.0936795249581337,-0.4025295078754425,-0.47679823637008667,-1.0501617193222046,-1.4525779485702515,2
20,-0.09173621237277985,0.010728349909186363,-0.2939930856227875,-0.4125087559223175,-1.0510700941085815,-1.4543746709823608,2
21,0.03381326049566269,-0.051999952644109726,-0.3895342946052551,-0.4263290762901306,-1.051988124847412,-1.4561052322387695,2
22,-0.01654551923274994,0.03954862430691719,-0.24989767372608185,-0.4369383454322815,-1.0522425174713135,-1.4585072994232178,2
23,-0.056795455515384674,0.02863866090774536,-0.29919958114624023,-0.4452894628047943,-1.052750587463379,-1.4597653150558472,2
24,-0.0045865243300795555,0.03242309391498566,-0.3239665627479553,-0.4519493877887726,-1.0534080266952515,-1.4613709449768066,2
25,-0.004632854368537664,0.0019958855118602514,-0.27866798639297485,-0.45167994499206543,-1.0521973371505737,-1.4630401134490967,2
26,0.056304726749658585,0.04735245928168297,-0.20509789884090424,-0.3923598527908325,-1.0517401695251465,-1.4640685319900513,2
27,-0.03814975544810295,0.07977799326181412,-0.23932449519634247,-0.47465837001800537,-1.0514775514602661,-1.4654910564422607,2
28,0.05022597685456276,0.04987707734107971,-0.2416062206029892,-0.4751245379447937,-1.0506319999694824,-1.4665322303771973,2
29,-0.00011525301670189947,0.18985038995742798,-0.32561826705932617,-0.5384082794189453,-1.050501823425293,-1.4678831100463867,2
30,0.00831875205039978,-0.06777986884117126,-0.2882605195045471,-0.5221102237701416,-1.0509611368179321,-1.4693803787231445,2
31,-0.025226041674613953,0.08142318576574326,-0.23801085352897644,-0.5090816020965576,-1.0518207550048828,-1.4709912538528442,2
32,0.015268048271536827,-0.011638625524938107,-0.315530389547348,-0.4991507828235626,-1.0529779195785522,-1.4720016717910767,2
33,0.05080438405275345,-0.027129774913191795,-0.3500852584838867,-0.49032437801361084,-1.0543214082717896,-1.4733959436416626,2
34,-0.004606831353157759,-0.061726681888103485,-0.22440798580646515,-0.4829554557800293,-1.0549554824829102,-1.4751752614974976,2
35,0.07179190218448639,0.00581750413402915,-0.26673752069473267,-0.48226651549339294,-1.053836703300476,-1.4761300086975098,2
36,-0.07352688163518906,-0.015218965709209442,-0.24215655028820038,-0.4156232178211212,-1.054019570350647,-1.4766385555267334,2
37,-0.022612327709794044,0.038488905876874924,-0.16998788714408875,-0.42891526222229004,-1.0551773309707642,-1.4776591062545776,2
38,-0.09270628541707993,0.05246393010020256,-0.2677682936191559,-0.4395853579044342,-1.0567620992660522,-1.4783899784088135,2
39,-0.02703148126602173,-0.05654585734009743,-0.3298211991786957,-0.44712504744529724,-1.0581361055374146,-1.4793767929077148,2
40,-0.016477907076478004,0.019520005211234093,-0.2172805517911911,-0.4525226354598999,-1.0585180521011353,-1.4809552431106567,2
41,0.01748957298696041,0.0066826120018959045,-0.29265135526657104,-0.45228859782218933,-1.0572999715805054,-1.4819607734680176,2
42,-0.0761537030339241,-0.004605298861861229,-0.2842344045639038,-0.45170408487319946,-1.0559643507003784,-1.4837721586227417,2
43,0.03400493785738945,0.011719404719769955,-0.3113936185836792,-0.4516276717185974,-1.0555949211120605,-1.4852300882339478,2
44,-0.014101024717092514,-0.04343242943286896,-0.2672744393348694,-0.4511372745037079,-1.05418062210083,-1.4863859415054321,2
45,-0.019074559211730957,-0.05404797941446304,-0.31620821356773376,-0.4500724673271179,-1.0529584884643555,-1.4877279996871948,2
46,0.062178220599889755,-0.023570194840431213,-0.2781846225261688,-0.44922584295272827,-1.0519495010375977,-1.489344596862793,2
47,-0.022280273959040642,-0.016621531918644905,-0.2695329189300537,-0.5129026770591736,-1.0517234802246094,-1.4911103248596191,2
48,0.034521009773015976,0.09925056993961334,-0.30928897857666016,-0.5610067844390869,-1.1147398948669434,-1.493376612663269,2
49,-0.09260226041078568,0.030809827148914337,-0.23108290135860443,-0.471291184425354,-1.100105881690979,-1.4941350221633911,2
50,0.04619526118040085,-0.00042663223575800657,-0.2408570498228073,-0.46606507897377014,-1.0265860557556152,-1.4941431283950806,2
51,0.013198072090744972,-0.04328614100813866,-0.33600711822509766,-0.46235010027885437,-1.1600573062896729,-1.4965755939483643,2
52,0.07241028547286987,0.10270215570926666,-0.28262606263160706,-0.4601288437843323,-1.008387565612793,-1.4969223737716675,2
53,0.12153985351324081,0.03177127614617348,-0.43273746967315674,-0.395670086145401,-1.0193636417388916,-1.4981520175933838,2
54,0.05154202878475189,0.06705305725336075,-0.31170472502708435,-0.3473023772239685,-1.0278851985931396,-1.5003730058670044,2
55,-0.142534539103508,0.07649043202400208,-0.3540513515472412,-0.375043123960495,-1.0357331037521362,-1.5022910833358765,2
56,-0.03342455253005028,0.010797910392284393,-0.3603900372982025,-0.39639365673065186,-1.0427320003509521,-1.5044540166854858,2
57,-0.005436528939753771,0.07827479392290115,-0.3428453505039215,-0.47590240836143494,-1.0476990938186646,-1.507304072380066,2
58,-0.026617204770445824,0.08015700429677963,-0.31718894839286804,-0.47592616081237793,-1.0467395782470703,-1.5088220834732056,2
59,-0.06070307269692421,-0.06269263476133347,-0.32592448592185974,-0.47608497738838196,-1.0458861589431763,-1.5102908611297607,2
60,0.026206322014331818,0.03421561419963837,-0.24994872510433197,-0.47544047236442566,-1.0455764532089233,-1.511861801147461,2
61,0.0059770396910607815,0.1513543277978897,-0.2735421657562256,-0.4751998782157898,-1.0447583198547363,-1.5129382610321045,2
62,-0.158196821808815,0.04508470371365547,-0.2647572159767151,-0.4760279357433319,-1.043477177619934,-1.5138981342315674,2
63,-0.04797172546386719,0.15445011854171753,-0.29084670543670654,-0.4763443171977997,-0.9830901026725769,-1.514600396156311,2
64,-0.025488577783107758,0.08047392964363098,-0.26658451557159424,-0.6032419204711914,-1.1893795728683472,-1.5193573236465454,2
65,-0.0066020251251757145,0.05084976926445961,-0.3089538812637329,-0.5093172788619995,-1.0925145149230957,-1.5186651945114136,2
66,0.07307267189025879,0.10803448408842087,-0.37619560956954956,-0.501288115978241,-1.0816742181777954,-1.520423412322998,2
67,-0.0168125182390213,0.10643734037876129,-0.34994393587112427,-0.49540090560913086,-1.0100634098052979,-1.521898865699768,2
68,0.007928476668894291,0.011035073548555374,-0.3208627998828888,-0.49061283469200134,-1.019713044166565,-1.5237491130828857,2
69,0.054413240402936935,0.08229281008243561,-0.22623541951179504,-0.48642048239707947,-1.0267961025238037,-1.5254276990890503,2
70,0.0005005435668863356,0.020190348848700523,-0.16107891499996185,-0.41980281472206116,-1.0321168899536133,-1.5259003639221191,2
71,-0.007881449535489082,0.010368186980485916,-0.2687450647354126,-0.49534475803375244,-1.0367894172668457,-1.526969313621521,2
72,-0.007503238506615162,0.08828259259462357,-0.37563228607177734,-0.49493613839149475,-1.035765290260315,-1.5282695293426514,2
73,-0.057635288685560226,0.07807397097349167,-0.36355820298194885,-0.49499136209487915,-1.03488290309906,-1.5304455757141113,2
74,-0.04234650358557701,0.04366116225719452,-0.20522558689117432,-0.49504509568214417,-1.034556269645691,-1.5326380729675293,2
75,0.0032462384551763535,-0.0014037791406735778,-0.38885781168937683,-0.4294036030769348,-1.037041187286377,-1.5323853492736816,2
76,0.08650880306959152,-0.0015104990452528,-0.2893883287906647,-0.5056995749473572,-1.039109706878662,-1.534799337387085,2
77,-0.003489383030682802,0.03672533109784126,-0.2638034522533417,0.0,0.0,0.0,2
78,-0.050156861543655396,0.014430214650928974,-0.2562239170074463,-0.007867168635129929,-0.016782322898507118,-0.002853314857929945,2
79,0.06282852590084076,-0.0708007961511612,-0.3370422422885895,-0.02544800564646721,-0.060445018112659454,-0.005221160128712654,2
80,0.11421643942594528,0.006508973892778158,-0.26851415634155273,-0.06035535782575607,-0.1274692714214325,-0.008517063222825527,2
81,-0.07006455212831497,0.002385205589234829,-0.3318932056427002,-0.10468842834234238,-0.22245045006275177,-0.011274641379714012,2
82,0.016945909708738327,0.1306992471218109,-0.2980673313140869,-0.15504957735538483,-0.3210093080997467,-0.014836577698588371,2
83,0.03733450546860695,0.03672993928194046,-0.32806581258773804,-0.19797487556934357,-0.4149446487426758,-0.018476316705346107,2
84,0.05907091125845909,-0.051621902734041214,-0.242479607462883,-0.23207156360149384,-0.4992718994617462,-0.02205784246325493,2
85,0.03470446169376373,0.04468159005045891,-0.3180959224700928,-0.26639270782470703,-0.5745499134063721,-0.02480989508330822,2
86,0.04981205239892006,0.035559963434934616,-0.2934764325618744,0.15956135094165802,-0.6385147571563721,-0.028105469420552254,2
87,-0.0499747097492218,0.022307517006993294,-0.20870676636695862,-0.009649256244301796,-0.6947590708732605,-0.030880654230713844,2
88,-0.01171302143484354,-0.013714266940951347,-0.27080971002578735,-0.12902162969112396,-0.740305483341217,-0.03278099745512009,2
89,-0.008371246047317982,0.04070117324590683,-0.3406449556350708,-0.21600262820720673,-0.7786123752593994,-0.0348520465195179,2
90,0.03171312063932419,-0.015483131632208824,-0.2106209695339203,-0.6047929525375366,-0.8098376393318176,-0.036700036376714706,2
91,0.05214519053697586,0.03851638734340668,-0.22722359001636505,-0.5496644973754883,-0.8344276547431946,-0.03988480567932129,2
92,-0.03485001251101494,0.012747413478791714,-0.2705442011356354,-0.5118393898010254,-0.8589534163475037,-0.042425792664289474,2
93,0.08283510059118271,0.06560031324625015,-0.28358760476112366,-0.22434844076633453,-0.8774582147598267,-0.04713129624724388,2
94,-0.01863222010433674,-0.05694665014743805,-0.32521334290504456,-0.03421524539589882,-0.8953530192375183,-0.051658984273672104,2
95,0.027522429823875427,0.015257816761732101,-0.3057723045349121,-0.37605684995651245,-0.9102060198783875,-0.05172564089298248,2
96,0.045215949416160583,0.10393141210079193,-0.34892717003822327,-0.6098950505256653,-0.9226872324943542,-0.05257168412208557,2
97,0.016314638778567314,-0.041845664381980896,-0.3468951880931854,-0.5586110353469849,-0.9342743158340454,-0.056711550801992416,2
98,-0.037861768156290054,0.038425784558057785,-0.3091026246547699,-0.5220819115638733,-0.9461103677749634,-0.06093686819076538,2
99,-0.05082554742693901,-0.0786304920911789,-0.2603089213371277,-0.49376967549324036,-0.9556436538696289,-0.06435079127550125,2
100,0.039699893444776535,0.06511855125427246,-0.18570823967456818,-0.47517794370651245,-0.9632049798965454,-0.06739352643489838,2
101,0.05742679908871651,-0.05844224989414215,-0.3889504671096802,-0.46032676100730896,-0.9701244831085205,-0.06988640129566193,2
102,0.01848999597132206,0.03597576171159744,-0.250715970993042,-0.44988253712654114,-0.9770034551620483,-0.07370395213365555,2
103,-0.03469906374812126,-0.016066215932369232,-0.25864970684051514,-0.4424247741699219,-0.9834305644035339,-0.07674264907836914,2
104,0.0011683375341817737,0.04550189897418022,-0.2818036675453186,-0.43856117129325867,-0.9885326027870178,-0.07955674082040787,2
105,0.08566787838935852,0.016034232452511787,-0.22679546475410461,-0.14872203767299652,-0.9921349883079529,-0.08716512471437454,2
106,0.00401146337389946,0.047556858509778976,-0.33253929018974304,-0.36278364062309265,-0.996029794216156,-0.08610989898443222,2
107,-0.05479203909635544,0.10423135757446289,-0.26718804240226746,-0.3835137188434601,-1.0010464191436768,-0.0889158770442009,2
108,-0.02775205485522747,-0.00012657225306611508,-0.326083779335022,-0.5295476913452148,-1.0061687231063843,-0.0889764353632927,2
109,0.06121860444545746,-0.04087819531559944,-0.2540165185928345,-0.5062983632087708,-1.0091421604156494,-0.09269938617944717,2
110,-0.18769678473472595,0.0284949392080307,-0.44706597924232483,-0.6120662093162537,-1.1373059749603271,-0.09594792127609253,2
111,-0.005036159884184599,0.06157497316598892,-0.32117801904678345,-0.4486098289489746,-0.9915934801101685,-0.09999343007802963,2
112,0.009435517713427544,0.019608546048402786,-0.34624582529067993,-0.4458632469177246,-1.0018230676651,-0.10315771400928497,2
113,0.04011845216155052,0.0660543143749237,-0.27094194293022156,-0.4446052312850952,-1.0087910890579224,-0.10664544254541397,2
114,-0.0004042740329168737,0.06266636401414871,-0.32362818717956543,-0.4446355998516083,-1.0149424076080322,-0.10961287468671799,2
115,-0.09471872448921204,0.027674872428178787,-0.30228644609451294,-0.44437816739082336,-1.0210100412368774,-0.1131296157836914,2
116,0.10018831491470337,-0.027643322944641113,-0.2524780035018921,-0.3376321494579315,-0.9192294478416443,-0.11635026335716248,2
117,0.008113650605082512,0.039629977196455,-0.2527311146259308,-0.26116159558296204,-0.9497787356376648,-0.12023502588272095,2
118,0.05359698832035065,-0.038954541087150574,-0.3099389374256134,-0.5115194916725159,-0.9738175868988037,-0.11945154517889023,2
119,0.035618096590042114,0.025786004960536957,-0.3147152066230774,-0.39527902007102966,-0.9921144843101501,-0.12452743202447891,2
120,0.031243085861206055,0.04740503057837486,-0.2211180180311203,-0.5067574977874756,-1.0062512159347534,-0.12613408267498016,2
121,-0.038591835647821426,0.0745951384305954,-0.3310353457927704,-0.4928903877735138,-1.11455500125885,-0.13035497069358826,2
122,0.04541477933526039,0.10138966143131256,-0.23557257652282715,-0.38872507214546204,-1.0992717742919922,-0.13484729826450348,2
123,-0.015004277229309082,0.06313646584749222,-0.22276808321475983,-0.4056777358055115,-1.0880357027053833,-0.1369575411081314,2
124,-0.06858237832784653,0.08686144649982452,-0.3196384310722351,-0.4177950918674469,-1.0803217887878418,-0.13906443119049072,2
125,0.033820535987615585,-0.04053931310772896,-0.1470843404531479,-0.4255634546279907,-1.0741169452667236,-0.1419270783662796,2
126,0.048276834189891815,0.017591312527656555,-0.3766673505306244,-0.4310673475265503,-1.0687320232391357,-0.1434616595506668,2
127,0.050024427473545074,0.08659955114126205,-0.31009355187416077,-0.43088117241859436,-1.0670446157455444,-0.1467393934726715,2
128,0.012750654481351376,0.026991045102477074,-0.2956113815307617,-0.43098074197769165,-1.0655832290649414,-0.14967066049575806,2
129,0.014403263106942177,0.10999971628189087,-0.3373461663722992,-0.43067583441734314,-1.0644545555114746,-0.15212354063987732,2
130,0.07680319249629974,0.10033347457647324,-0.26225608587265015,-0.4310721158981323,-1.063338041305542,-0.15509387850761414,2
131,0.051371023058891296,0.04074753820896149,-0.3349011242389679,-0.43132734298706055,-1.0619397163391113,-0.15788497030735016,2
132,-0.12373662739992142,-0.05053473263978958,-0.29161420464515686,-0.43117496371269226,-1.0604490041732788,-0.16085997223854065,2
133,0.013033143244683743,0.14827796816825867,-0.373361736536026,-0.35138559341430664,-1.0608103275299072,-0.16508355736732483,2
134,-0.03826099634170532,0.0469096302986145,-0.30302226543426514,-0.45553821325302124,-1.0608283281326294,-0.16649194061756134,2
135,0.10467027872800827,0.061055418103933334,-0.2444176971912384,-0.5334723591804504,-1.060442328453064,-0.16823549568653107,2
136,0.021543461829423904,0.10567428916692734,-0.24423690140247345,-0.5121006369590759,-1.0601235628128052,-0.17114533483982086,2
137,0.02292024902999401,-0.07574209570884705,-0.2686864733695984,-0.49511900544166565,-1.0598256587982178,-0.17432016134262085,2
138,0.0658709853887558,-0.07383596897125244,-0.24080640077590942,-0.481380820274353,-1.0592519044876099,-0.17722979187965393,2
139,-0.025890860706567764,0.0738835483789444,-0.268251895904541,-0.4718724489212036,-1.0597939491271973,-0.17976504564285278,2
140,0.01829156093299389,0.056484002619981766,-0.3172215223312378,-0.46518367528915405,-1.0612770318984985,-0.18261156976222992,2
141,0.05790043622255325,-0.008018690161406994,-0.25793132185935974,-0.4595949649810791,-1.2153085470199585,-0.1882094144821167,2
142,0.022159883752465248,0.019704263657331467,-0.3108195960521698,-0.4559316039085388,-1.0272037982940674,-0.18747612833976746,2
143,-0.021936161443591118,0.14213968813419342,-0.3328161835670471,-0.5291258096694946,-1.038031816482544,-0.1894555687904358,2
144,-0.029430409893393517,0.002555679529905319,-0.3060222864151001,-0.4341667890548706,-1.0469452142715454,-0.19408302009105682,2
145,0.13831138610839844,-0.034276027232408524,-0.23325763642787933,-0.4366687536239624,-1.0518041849136353,-0.19692815840244293,2
146,0.017192630097270012,0.05932613089680672,-0.36338695883750916,-0.4362623691558838,-1.0498405694961548,-0.1994469314813614,2
147,-0.0728265792131424,0.045042939484119415,-0.3257824778556824,-0.4366692006587982,-1.0488353967666626,-0.20269130170345306,2
148,0.02502364292740822,-0.025131214410066605,-0.14923059940338135,-0.4365433156490326,-1.048672080039978,-0.20581170916557312,2
149,0.06955333799123764,-0.0009446315234526992,-0.3057890832424164,-0.4361186921596527,-1.0477970838546753,-0.2075183391571045,2
150,0.027968663722276688,0.03818729892373085,-0.30270814895629883,-0.43558838963508606,-1.0465697050094604,-0.21022950112819672,2
151,-0.029375562444329262,-0.0137595534324646,-0.22402745485305786,-0.43548181653022766,-1.0454380512237549,-0.21320001780986786,2
152,-0.031058216467499733,0.0366581529378891,-0.20685292780399323,-0.4350672960281372,-1.0445961952209473,-0.2152440994977951,2
153,-0.013678047806024551,-0.027365101501345634,-0.2673751711845398,-0.43514877557754517,-1.0440195798873901,-0.21728794276714325,2
154,0.04778140410780907,-0.07945476472377777,-0.2515370845794678,-0.4345735013484955,-1.0431915521621704,-0.21962064504623413,2
155,-0.010905029252171516,0.08059211820363998,-0.2866711914539337,-0.43362852931022644,-1.0417176485061646,-0.2216661125421524,2
156,0.10611892491579056,-0.03497547283768654,-0.2770126760005951,-0.4337608516216278,-1.0406125783920288,-0.2241273820400238,2
157,0.13924424350261688,0.05032636597752571,-0.280131459236145,-0.36500951647758484,-1.039702296257019,-0.2271447628736496,2
158,0.03636591136455536,0.032822128385305405,-0.26293110847473145,-0.3837648630142212,-1.0391721725463867,-0.22948162257671356,2
159,-0.030195040628314018,-0.041787244379520416,-0.3020092844963074,-0.39835765957832336,-1.0403814315795898,-0.2318134307861328,2
160,0.07416409254074097,0.004531795158982277,-0.1766817569732666,-0.40992626547813416,-1.0420300960540771,-0.23428954184055328,2
161,-0.09278269112110138,0.0660141110420227,-0.37927836179733276,-0.4191333055496216,-1.0439412593841553,-0.23600561916828156,2
162,0.07007917761802673,0.05114777013659477,-0.37634074687957764,-0.42680078744888306,-1.045361876487732,-0.23930750787258148,2
163,-0.012525028549134731,-0.017773889005184174,-0.27572667598724365,-0.4268389344215393,-1.0438108444213867,-0.2429068386554718,2
164,0.07813852280378342,0.041111625730991364,-0.35463690757751465,-0.4260962903499603,-1.042662501335144,-0.2455131709575653,2
165,0.047522276639938354,-0.017808718606829643,-0.3079538941383362,-0.42599961161613464,-1.041014313697815,-0.24840717017650604,2
166,-0.049782805144786835,0.050307828933000565,-0.22910135984420776,-0.4255383312702179,-1.039502739906311,-0.2511560022830963,2
167,0.07048864662647247,-0.05632688105106354,-0.3708498775959015,-0.49622419476509094,-1.040274977684021,-0.25333479046821594,2
168,0.013832693919539452,0.05337744578719139,-0.2471303939819336,-0.48206961154937744,-1.040479063987732,-0.25660377740859985,2
169,-0.015462523326277733,0.12149528414011002,-0.3232947885990143,-0.47174182534217834,-1.0414988994598389,-0.25891152024269104,2
170,0.05444326996803284,-0.02409932017326355,-0.2838374078273773,-0.4634782075881958,-1.042096734046936,-0.2615004777908325,2
171,0.12098964303731918,-0.029110755771398544,-0.345531702041626,-0.45637911558151245,-1.0418883562088013,-0.26430946588516235,2
172,0.005923671647906303,-0.06436047703027725,-0.30452120304107666,-0.45579856634140015,-1.0399233102798462,-0.26750797033309937,2
173,0.07878861576318741,-0.016207370907068253,-0.2729843556880951,-0.4547073245048523,-1.0383950471878052,-0.27033916115760803,2
174,0.04487597942352295,0.002090637804940343,-0.27912890911102295,-0.3853694796562195,-1.0388708114624023,-0.27319690585136414,2
175,0.010746563784778118,-0.04191615805029869,-0.26330652832984924,-0.3999078571796417,-1.0396214723587036,-0.27591681480407715,2
176,0.050819527357816696,0.10422097891569138,-0.23867620527744293,-0.41161149740219116,-1.0400264263153076,-0.27836874127388,2
177,-0.042491085827350616,-0.07845575362443924,-0.25935056805610657,-0.4209614098072052,-1.040727138519287,-0.2807837128639221,2
178,0.021158523857593536,-0.02968679927289486,-0.3038153648376465,-0.3619966208934784,-1.0418018102645874,-0.2832314074039459,2
179,0.0304170660674572,0.03212371841073036,-0.28497397899627686,-0.582021176815033,-1.0422859191894531,-0.2856835424900055,2
180,0.08513936400413513,0.00863588321954012,-0.24516819417476654,-0.4851279854774475,-1.042170524597168,-0.2883702516555786,2
181,-0.07689698785543442,0.03051953949034214,-0.24751067161560059,-0.47804853320121765,-1.04249906539917,-0.29056471586227417,2
182,0.022047800943255424,0.033435605466365814,-0.3171709179878235,-0.4778691828250885,-1.041652798652649,-0.2932794392108917,2
183,0.08948374539613724,0.0063162390142679214,-0.20927834510803223,-0.4081668555736542,-1.0413036346435547,-0.2959892153739929,2
184,-0.06940454244613647,-0.04561249911785126,-0.3663952052593231,-0.4205999970436096,-1.0418424606323242,-0.29788738489151,2
185,-0.04122325778007507,0.024959659203886986,-0.21602390706539154,-0.5604137182235718,-1.107906699180603,-0.3018117845058441,2
186,0.010939599014818668,0.1281004399061203,-0.3744693994522095,-0.5363175272941589,-1.026918888092041,-0.30309978127479553,2
187,0.014660499058663845,0.01966228522360325,-0.2829248607158661,-0.45255598425865173,-1.0306084156036377,-0.3064505159854889,2
188,0.0041852896101772785,-0.012379046529531479,-0.3108638823032379,-0.38886401057243347,-1.0335133075714111,-0.3092629611492157,2
189,0.010676132515072823,0.04173023998737335,-0.2804839313030243,-0.47138622403144836,-1.0361127853393555,-0.3121921122074127,2
190,0.07331959158182144,0.027326205745339394,-0.2889941334724426,-0.47123682498931885,-1.0349657535552979,-0.31466206908226013,2
191,0.02104315161705017,0.029741473495960236,-0.2947903573513031,-0.46980881690979004,-0.9714937210083008,-0.3168511688709259,2
192,0.13848699629306793,0.03072326071560383,-0.34558141231536865,-0.46904459595680237,-0.9881110191345215,-0.3196331262588501,2
193,-0.010359914042055607,0.056676559150218964,-0.3282657265663147,-0.4683237373828888,-1.0013319253921509,-0.3225991129875183,2
194,0.010710257105529308,0.0982331931591034,-0.269308865070343,-0.4683586359024048,-1.0122569799423218,-0.3255143165588379,2
195,0.06492365896701813,0.04863628000020981,-0.2693277597427368,-0.46865591406822205,-1.0852118730545044,-0.32910922169685364,2
196,-0.07209207862615585,0.03714853897690773,-0.2236122488975525,-0.46880173683166504,-1.0761346817016602,-0.33141735196113586,2
197,0.01598927192389965,-0.01223575696349144,-0.18784767389297485,-0.46845003962516785,-1.0700697898864746,-0.3334701359272003,2
198,0.060972750186920166,-0.06618844717741013,-0.38099297881126404,-0.3385695219039917,-1.064937949180603,-0.33496734499931335,2
199,-0.08585399389266968,0.09222646802663803,-0.13596414029598236,-0.4342347979545593,-1.0619664192199707,-0.3380913734436035,2
200,-0.11019128561019897,0.12099684774875641,-0.3425251543521881,-0.4433864951133728,-1.060858130455017,-0.3395194113254547,2
201,0.06493308395147324,0.12956000864505768,-0.31393861770629883,-0.4505508840084076,-1.0592787265777588,-0.34244269132614136,2
202,-0.002902701497077942,0.02352202869951725,-0.2883630394935608,-0.45127105712890625,-1.0577517747879028,-0.3453245162963867,2
203,-0.019811563193798065,0.03779452294111252,-0.2563953697681427,-0.4509841203689575,-1.0564327239990234,-0.34773898124694824,2
204,-0.050418514758348465,-0.05070400610566139,-0.37400713562965393,-0.4505559206008911,-1.0555411577224731,-0.3502071797847748,2
205,-0.043401144444942474,0.10497154295444489,-0.34835463762283325,-0.449500173330307,-1.0550798177719116,-0.3532453775405884,2
206,0.03611642122268677,-0.02101985737681389,-0.30400729179382324,-0.44964712858200073,-1.054394245147705,-0.35654547810554504,2
207,-0.017084525898098946,-0.11757639795541763,-0.33669334650039673,-0.513187825679779,-1.0539652109146118,-0.3591780364513397,2
208,0.04242531955242157,0.006438930984586477,-0.4583131670951843,-0.496221661567688,-1.0533373355865479,-0.3620602488517761,2
209,-0.05240656062960625,0.07371692359447479,-0.21538232266902924,-0.42040619254112244,-1.0537093877792358,-0.365938276052475,2
210,0.11909593641757965,-0.021271279081702232,-0.2564972937107086,-0.427300363779068,-1.0533435344696045,-0.3681933283805847,2
211,-0.026535658165812492,0.03223260119557381,-0.26707151532173157,-0.4272128939628601,-1.052532434463501,-0.3711363673210144,2
212,-0.10006347298622131,-0.04270205646753311,-0.3826526403427124,-0.4277938902378082,-1.0447864532470703,-0.3736903667449951,2
213,0.020131945610046387,0.302275687456131,-0.053832046687603,-0.42762237787246704,-1.0349558591842651,-0.3775484561920166,2
214,-0.23778241872787476,-0.015149462036788464,-0.5184307098388672,-0.4253811538219452,-1.0239719152450562,-0.37971794605255127,2
215,-0.5998115539550781,-0.28383517265319824,-0.6918995380401611,-0.35685914754867554,-1.0134401321411133,-0.3845440149307251,2
216,-0.17872796952724457,-0.2760871946811676,-0.5892817974090576,-0.4320560693740845,-0.9969004392623901,-0.3874084949493408,2
217,-0.3995824158191681,0.3667008578777313,-0.9986790418624878,-0.42452582716941833,-0.9811255931854248,-0.3811776638031006,2
218,-0.03940761461853981,0.37016913294792175,0.8869562149047852,-0.4215187132358551,-0.9695145487785339,-0.38755813241004944,2
219,0.18030446767807007,0.15956099331378937,0.08362006396055222,-0.41577133536338806,-0.9524293541908264,-0.37976109981536865,2
220,-0.6788305640220642,0.8676933646202087,0.5056331157684326,-0.4136647880077362,-0.936886191368103,-0.38065657019615173,2
221,0.8567108511924744,0.7849864959716797,-5.0953688621521,-0.4120337665081024,-0.9191775918006897,-0.37953823804855347,2
222,-1.894328236579895,-1.582795262336731,-10.753589630126953,-0.3929370939731598,-0.9058716297149658,-0.422182559967041,2
223,-2.684871196746826,4.822721481323242,-10.31039810180664,-0.2666398286819458,-0.9012050032615662,-0.5201927423477173,2
224,0.20583118498325348,0.9893447756767273,-6.231713771820068,-0.21462062001228333,-0.7267255783081055,-0.6215633153915405,2
225,1.7037988901138306,1.0629446506500244,0.3260048031806946,-0.18733924627304077,-0.505871593952179,-0.6890837550163269,2
226,-1.2165048122406006,-1.155868411064148,0.350531667470932,-0.08103886246681213,-0.16462694108486176,-0.6917423605918884,2
227,8.72734260559082,4.480228424072266,0.7208592295646667,-0.10996619611978531,0.03712566941976547,-0.6944258809089661,2
228,17.97281265258789,-6.498063087463379,0.910935640335083,-0.3075309991836548,0.6324175596237183,-0.7218208909034729,2
229,-7.71547269821167,-3.542088031768799,-2.4852004051208496,-0.4877650737762451,1.052838683128357,-0.7567269802093506,2
230,-22.401979446411133,16.44430160522461,1.3991342782974243,-0.593537449836731,1.0046721696853638,-0.805038571357727,2
231,-30.67738914489746,30.187763214111328,3.9193763732910156,-0.801971435546875,1.6954106092453003,-0.808728039264679,2
232,-10.905069351196289,5.060835361480713,10.137107849121094,-1.1727215051651,2.1583330631256104,-0.777557909488678,2
233,2.0238888263702393,4.511496543884277,12.718037605285645,-1.636326789855957,2.7511024475097656,-0.74860680103302,2
234,-0.5798099637031555,2.1455225944519043,11.43761920928955,-1.5718318223953247,2.9904046058654785,-0.5604529976844788,2
235,-16.975727081298828,-5.487070560455322,9.986052513122559,-2.087003469467163,3.5950241088867188,-0.5836338400840759,2
236,-46.183719635009766,-11.451969146728516,9.51135540008545,-1.995129942893982,3.487013578414917,-0.4538685977458954,2
237,-85.40866088867188,-14.731389999389648,8.930706024169922,-2.1649372577667236,3.763728141784668,-0.3540445566177368,2
238,-101.45155334472656,-32.233341217041016,7.849048137664795,-2.2529544830322266,3.829324960708618,-0.2578522861003876,2
239,-93.07084655761719,-51.008792877197266,7.687137126922607,-2.919137477874756,4.560805320739746,-0.42159414291381836,2
240,-72.76359558105469,-59.580291748046875,5.87086296081543,-3.010791778564453,4.3646559715271,-0.5650633573532104,2
241,-55.82845687866211,-66.77581024169922,4.754007816314697,-2.3980836868286133,3.4825375080108643,-0.6052335500717163,2
242,-43.25214385986328,-54.013946533203125,5.827727317810059,-2.0430593490600586,2.851008176803589,-0.8432157039642334,2
243,-34.01436996459961,-48.273006439208984,8.541839599609375,-1.0884398221969604,2.0284063816070557,-0.69041907787323,2
244,-33.05355453491211,-39.67568588256836,8.699167251586914,-0.21651116013526917,1.519689679145813,-0.42854732275009155,2
245,-47.94532012939453,-37.254005432128906,7.266271114349365,0.5500795841217041,0.5692131519317627,-0.25635290145874023,2
246,-58.41702651977539,-29.8463134765625,6.518989086151123,1.4195533990859985,-0.2423299252986908,0.022112656384706497,2
247,-59.941017150878906,-18.120765686035156,6.045722961425781,2.235727310180664,-1.8794463872909546,0.3366057276725769,2
248,-56.43410110473633,-1.93095862865448,5.3403639793396,2.0906968116760254,-3.178314208984375,0.46514156460762024,2
249,-44.17564010620117,15.173737525939941,7.865527153015137,2.219515085220337,-4.601377010345459,0.737502932548523,2
250,-18.629262924194336,29.674896240234375,12.3203706741333,2.1390726566314697,-5.220907688140869,0.8464341163635254,2
251,16.330900192260742,42.132450103759766,14.332818984985352,1.6638143062591553,-4.962596416473389,0.8450906276702881,2
252,44.8443489074707,54.74611282348633,17.113534927368164,0.5196946859359741,-4.786354064941406,1.2803828716278076,2
253,70.01846313476562,57.22829055786133,17.62824249267578,-0.1405133754014969,-3.4977121353149414,1.2031888961791992,2
254,86.31855010986328,42.045021057128906,16.426040649414062,-0.6207558512687683,-2.3305463790893555,1.1766241788864136,2
255,87.14093017578125,17.658130645751953,14.045852661132812,-1.198655605316162,-1.3443607091903687,1.3833280801773071,2
256,75.59831237792969,0.5356996655464172,11.216680526733398,-1.2187738418579102,0.04990380257368088,1.3773980140686035,2
257,49.687339782714844,-9.42431640625,9.786606788635254,-1.3380173444747925,1.212907075881958,1.4843922853469849,2
258,14.286970138549805,-16.426794052124023,6.961631774902344,-1.1596369743347168,1.1406692266464233,1.6072053909301758,2
259,-34.70830535888672,-28.165260314941406,4.55439567565918,-0.33407920598983765,0.5336887836456299,1.613506555557251,2
260,-71.5172119140625,-46.336769104003906,-0.6928422451019287,0.21201516687870026,-0.43395718932151794,1.614965558052063,2
261,-88.44758605957031,-55.499515533447266,-3.884289503097534,1.264175295829773,-0.9340137839317322,1.5967128276824951,2
262,-84.17896270751953,-52.211647033691406,-4.205100059509277,1.1533633470535278,-2.2999467849731445,1.6456279754638672,2
263,-59.90257263183594,-35.64015579223633,-2.8576135635375977,2.7478277683258057,-3.127074956893921,1.52399480342865,2
264,-20.23334503173828,-19.667482376098633,-0.09228353947401047,3.1971676349639893,-3.2891876697540283,1.4004125595092773,2
265,17.123912811279297,-0.9309846758842468,4.294933795928955,3.377498149871826,-4.275065898895264,1.6827082633972168,2
266,47.22172164916992,23.994823455810547,5.847677230834961,3.214021682739258,-4.012050628662109,1.7373894453048706,2
267,73.27403259277344,55.68962097167969,5.163546562194824,3.034945011138916,-3.9294281005859375,1.9099675416946411,2
268,88.75556182861328,80.86951446533203,5.0909881591796875,2.3085076808929443,-3.684628486633301,2.2372303009033203,2
269,87.95269775390625,95.26687622070312,3.520676374435425,1.8437755107879639,-3.3574607372283936,2.3314075469970703,2
270,76.25680541992188,95.38421630859375,3.9989054203033447,0.7765195369720459,-2.4638922214508057,2.3840465545654297,2
271,63.32855987548828,88.26007843017578,6.440103054046631,-0.07583501935005188,-2.2963225841522217,2.5383243560791016,2
272,59.36830520629883,62.45697784423828,7.650757789611816,-1.2288703918457031,-1.1976617574691772,2.6206612586975098,2
273,54.36153793334961,28.367021560668945,6.031484603881836,-1.5266032218933105,-1.5911874771118164,2.6648008823394775,2
274,44.566566467285156,-8.75229549407959,1.7609306573867798,-1.796583890914917,-0.727059006690979,2.7376537322998047,2
275,43.14270782470703,-35.62868881225586,-0.09253741055727005,-1.729893684387207,-0.3884960114955902,2.751725435256958,2
276,41.875003814697266,-50.83407211303711,2.6596152782440186,-1.4538886547088623,0.4977198541164398,2.855208158493042,2
277,36.87965774536133,-47.4453125,4.8983845710754395,-1.0300201177597046,0.9126017093658447,2.874013662338257,2
278,29.009103775024414,-27.345722198486328,8.976370811462402,-0.681469738483429,1.8297947645187378,3.0139243602752686,2
279,26.94146728515625,-3.9815170764923096,12.897664070129395,-0.5935221314430237,1.6158781051635742,2.981468439102173,2
280,27.86329460144043,20.368223190307617,18.45445442199707,-0.7473088502883911,2.1809568405151367,3.0928874015808105,2
281,41.009498596191406,35.180789947509766,23.35799789428711,-0.735307514667511,2.571747303009033,3.339446544647217,2
282,53.725440979003906,47.784488677978516,24.20500373840332,-1.411205530166626,3.179767370223999,3.4734866619110107,2
283,51.60573196411133,56.79903030395508,24.84259605407715,-1.5822138786315918,3.521306276321411,3.846651792526245,2
284,37.95158004760742,56.59250259399414,23.095579147338867,-2.3490102291107178,4.494392395019531,4.095414161682129,2
285,22.32505989074707,40.366756439208984,18.44179344177246,-2.7765581607818604,4.63657808303833,4.366839408874512,2
286,-8.053414344787598,10.93186092376709,13.820591926574707,-3.1885757446289062,5.058913707733154,4.635543346405029,2
287,-26.602474212646484,-13.922601699829102,11.277478218078613,-3.2375094890594482,4.905733585357666,4.817636966705322,2
288,-35.33022689819336,-29.530527114868164,9.785371780395508,-3.132840156555176,4.982061862945557,5.027490615844727,2
289,-32.09788131713867,-34.80841827392578,9.97850513458252,-2.6763548851013184,4.818597316741943,5.326295852661133,2
290,-20.455772399902344,-41.3052978515625,11.489921569824219,-2.2141571044921875,4.471715450286865,5.48766565322876,2
291,-3.7815325260162354,-41.73660659790039,13.953207015991211,-1.4711995124816895,5.2804765701293945,6.240997314453125,2
292,11.265839576721191,-40.46401596069336,13.927969932556152,-1.1171205043792725,5.221306800842285,6.265952110290527,2
293,15.191304206848145,-36.020103454589844,14.315102577209473,-0.643718957901001,5.556901931762695,6.4816107749938965,2
294,7.254831790924072,-29.857114791870117,16.387630462646484,-0.568811297416687,5.5601487159729,6.286523342132568,2
295,0.3664988875389099,-20.45110321044922,19.123306274414062,-0.2117864191532135,5.430508136749268,6.416860103607178,2
296,-15.322021484375,-2.6286916732788086,19.968801498413086,0.07066164165735245,5.409725666046143,6.634435653686523,2
297,-27.006696701049805,12.546087265014648,16.87866973876953,-0.03821897879242897,5.230587482452393,6.667510032653809,2
298,-33.589996337890625,29.480449676513672,13.056163787841797,0.09173087775707245,5.060441970825195,7.048057556152344,2
299,-41.8559455871582,43.45086669921875,7.9487833976745605,-0.39373186230659485,4.487191677093506,7.014057636260986,2
300,-51.85087966918945,50.907081604003906,4.46533203125,-0.9572879076004028,4.190554141998291,6.994501113891602,2
301,-65.03490447998047,43.42281723022461,3.5701963901519775,-1.3496689796447754,3.4860501289367676,7.155914306640625,2
302,-66.6113052368164,30.571962356567383,5.667300701141357,-1.9717429876327515,2.910957098007202,7.096634387969971,2
303,-54.4301872253418,11.727300643920898,9.05482006072998,-2.366748571395874,2.0869240760803223,7.0980095863342285,2
304,-31.208425521850586,-12.82888412475586,12.849771499633789,-2.520925283432007,1.6499850749969482,7.191999912261963,2
305,-2.741884469985962,-35.39111328125,11.998109817504883,-2.348085641860962,1.1890817880630493,7.307555675506592,2
306,13.60428524017334,-46.11022186279297,8.893691062927246,-2.5306334495544434,1.1202644109725952,7.239802837371826,2
307,17.92490577697754,-45.86127471923828,7.027124881744385,-1.9104125499725342,1.2606576681137085,7.373867511749268,2
308,26.952943801879883,-41.6029052734375,5.293490409851074,-1.8149518966674805,1.43087637424469,7.3587422370910645,2
309,25.692638397216797,-31.43475914001465,5.660269260406494,-1.273409366607666,1.6237787008285522,7.403962135314941,2
310,14.53357982635498,-21.408910751342773,6.421337604522705,-1.267738699913025,1.7755457162857056,7.380064010620117,2
311,-3.5963873863220215,-14.960487365722656,4.338929176330566,-0.8373724818229675,1.9405527114868164,7.459048748016357,2
312,-31.494354248046875,-13.266456604003906,-3.2695441246032715,-0.8976528644561768,1.8223494291305542,7.452441215515137,2
313,-65.95401763916016,-3.4892101287841797,-8.660489082336426,-0.609706699848175,1.4402201175689697,7.435666084289551,2
314,-86.68032836914062,1.841264009475708,-10.578527450561523,-1.03342604637146,1.166796088218689,7.324352264404297,2
315,-81.37487030029297,2.1467766761779785,-10.957762718200684,-0.8236912488937378,0.033049751073122025,7.216848373413086,2
316,-70.6546630859375,3.546574831008911,-10.030092239379883,-0.9964156746864319,-0.5797508358955383,7.118371486663818,2
317,-48.55812454223633,4.685571193695068,-10.670308113098145,-0.8955807685852051,-1.3805581331253052,7.000021934509277,2
318,-23.79580307006836,-4.882105350494385,-11.021018981933594,-1.1257106065750122,-1.8719782829284668,6.932872295379639,2
319,-2.1148173809051514,-24.13214683532715,-12.423844337463379,-0.8374559283256531,-2.25515079498291,6.755305290222168,2
320,17.59930992126465,-37.144317626953125,-10.510479927062988,-0.8508617877960205,-2.2740232944488525,6.720396995544434,2
321,38.392086029052734,-41.525020599365234,-10.063888549804688,-0.21330463886260986,-2.108139991760254,6.5058393478393555,2
322,57.62165451049805,-48.530399322509766,-9.322927474975586,-0.09030774235725403,-1.8483333587646484,6.552196502685547,2
323,67.12428283691406,-49.265377044677734,-8.062737464904785,0.4113527536392212,-1.1834436655044556,6.454891204833984,2
324,52.58721923828125,-44.817420959472656,-6.851727485656738,0.8357661962509155,-0.7996517419815063,6.441088676452637,2
325,25.82726287841797,-47.99298095703125,-4.3800177574157715,1.642582654953003,-0.23009496927261353,6.2279181480407715,2
326,0.612079918384552,-43.10814666748047,-2.7789695262908936,1.970864176750183,-0.013786629773676395,6.256991863250732,2
327,-15.313891410827637,-26.638612747192383,-3.690227508544922,2.6251375675201416,-0.1306437999010086,6.1984758377075195,2
328,-33.47292709350586,0.862245500087738,-8.614891052246094,2.5409412384033203,-0.17236101627349854,6.240303993225098,2
329,-48.271827697753906,31.48554801940918,-12.581343650817871,2.6731557846069336,-0.5570622086524963,6.166261672973633,2
330,-60.093448638916016,43.70348358154297,-14.532903671264648,2.384704828262329,-1.0341823101043701,6.050528526306152,2
331,-53.3210563659668,38.87666702270508,-13.22728157043457,2.017143726348877,-1.850130319595337,6.002971649169922,2
332,-27.962051391601562,35.72011184692383,-13.484395980834961,1.395867943763733,-1.8686301708221436,5.660625457763672,2
333,5.840158462524414,28.42754554748535,-17.378751754760742,0.900766134262085,-2.1299803256988525,5.539990425109863,2
334,26.954835891723633,10.081785202026367,-21.308839797973633,0.8429645895957947,-2.1969945430755615,5.317694664001465,2
335,43.4097900390625,-11.378957748413086,-21.668811798095703,0.9702256321907043,-1.647757887840271,4.8941426277160645,2
336,54.843170166015625,-26.56426429748535,-19.945968627929688,1.9359309673309326,0.32755225896835327,3.7361819744110107,2
337,52.32982635498047,-32.71533203125,-15.183992385864258,1.936266541481018,0.26090094447135925,3.864013671875,2
338,32.09617233276367,-29.640140533447266,-13.048310279846191,2.097229242324829,0.6661667227745056,3.80285906791687,2
339,6.357067584991455,-28.200971603393555,-13.072896003723145,2.2271642684936523,0.644903838634491,3.8724327087402344,2
340,-19.9752140045166,-11.847066879272461,-12.836775779724121,3.07692551612854,0.5861561894416809,3.706099271774292,2
341,-35.597015380859375,6.496579647064209,-11.945265769958496,3.4207091331481934,0.7648942470550537,3.371798515319824,2
342,-35.924957275390625,23.097816467285156,-11.307628631591797,3.218153476715088,-0.2661983370780945,3.641451597213745,2
343,-39.11338424682617,40.78248596191406,-11.699959754943848,2.7513492107391357,-1.996397852897644,4.308428764343262,2
344,-40.09369659423828,41.32326126098633,-15.798758506774902,2.1531927585601807,-2.3664183616638184,4.2120585441589355,2
345,-24.356151580810547,41.94486618041992,-15.327322006225586,1.2142117023468018,-2.5358970165252686,4.033978462219238,2
346,-1.4338303804397583,38.47011947631836,-15.06668472290039,0.699439287185669,-2.5997517108917236,3.7959799766540527,2
347,25.163768768310547,18.282018661499023,-14.999284744262695,0.1470518559217453,-2.4413366317749023,3.600250482559204,2
348,49.09355163574219,-19.3061466217041,-14.844832420349121,-0.24706940352916718,-2.157635450363159,3.4821360111236572,2
349,63.94464874267578,-52.40398406982422,-12.427047729492188,-0.08554230630397797,-1.564416527748108,3.298963785171509,2
350,72.763427734375,-69.3783950805664,-11.191753387451172,0.5153179168701172,-0.9573188424110413,3.1422371864318848,2
351,57.49543762207031,-67.97409057617188,-10.615203857421875,1.0965235233306885,-0.44017380475997925,3.105452537536621,2
352,27.317890167236328,-49.616825103759766,-12.301619529724121,1.8588083982467651,0.20376057922840118,2.960632085800171,2
353,-3.046200752258301,-31.37659454345703,-13.584749221801758,2.283731460571289,0.3786553740501404,2.8993303775787354,2
354,-22.286808013916016,1.4239044189453125,-15.515730857849121,2.664543390274048,0.4075999855995178,2.739097833633423,2
355,-19.575841903686523,35.1588249206543,-18.016077041625977,2.6538422107696533,0.29552513360977173,2.56058669090271,2
356,-10.29234504699707,57.26900863647461,-19.359586715698242,2.6915483474731445,0.1647004783153534,2.3185999393463135,2
357,3.283038854598999,52.35884094238281,-17.313230514526367,2.246114730834961,0.24692851305007935,2.0513763427734375,2
358,19.93193817138672,35.597808837890625,-13.731398582458496,1.626986026763916,0.3918088972568512,1.8420366048812866,2
359,32.29058074951172,24.45535659790039,-13.735998153686523,1.4357377290725708,-0.10185287892818451,1.9342436790466309,2
360,39.780418395996094,9.957257270812988,-12.666582107543945,1.1010631322860718,0.6182287335395813,1.6751728057861328,2
361,45.84046936035156,-2.1373133659362793,-11.78769302368164,0.9143503308296204,0.9904997944831848,1.5623807907104492,2
362,41.322296142578125,-0.08610644936561584,-11.386022567749023,0.8322865962982178,1.53239107131958,1.4171984195709229,2
363,26.360429763793945,-14.172643661499023,-9.589065551757812,0.7182296514511108,2.0630428791046143,1.272019386291504,2
364,6.930151462554932,-38.152442932128906,-6.997384071350098,0.9056302309036255,2.29805850982666,1.1800892353057861,2
365,-12.758724212646484,-41.30734634399414,-4.327263832092285,0.9267359972000122,2.2900102138519287,1.06591796875,2
366,-26.761463165283203,-27.929853439331055,-4.297627925872803,1.4197256565093994,2.1385631561279297,1.0270155668258667,2
367,-33.25853729248047,6.231675148010254,-3.10927152633667,1.3974934816360474,1.948814034461975,0.9000343680381775,2
368,-32.83988952636719,33.092620849609375,1.235464334487915,1.0685632228851318,1.5446290969848633,0.8124120831489563,2
369,-26.803434371948242,43.1136589050293,6.957563877105713,0.6824628114700317,1.5096445083618164,0.7657663822174072,2
370,-24.139196395874023,35.79045104980469,10.207154273986816,0.1147613674402237,1.1001949310302734,0.8281489014625549,2
371,-23.442716598510742,18.041868209838867,11.06799602508545,0.05004360154271126,0.865983247756958,1.0047986507415771,2
372,-17.062198638916016,-8.75928020477295,11.499622344970703,0.6021931171417236,0.6752789616584778,1.2725266218185425,2
373,-4.890744686126709,-32.95965576171875,10.386897087097168,0.9365065097808838,0.5445712208747864,1.429842233657837,2
374,8.454243659973145,-45.08174133300781,11.340497016906738,1.4833842515945435,0.47131413221359253,1.572189211845398,2
375,26.94429588317871,-36.31144332885742,14.365246772766113,1.6028300523757935,0.7068567276000977,1.6145274639129639,2
376,38.338836669921875,-16.849515914916992,17.863161087036133,2.222027540206909,1.3570805788040161,1.73922598361969,2
377,38.059932708740234,3.217988967895508,21.009740829467773,2.368411064147949,1.9350253343582153,1.8732366561889648,2
378,24.100341796875,15.118276596069336,25.120532989501953,2.1199333667755127,2.3942031860351562,2.02873158454895,2
379,8.689814567565918,22.03354835510254,28.415590286254883,1.932451605796814,2.876591920852661,2.222996473312378,2
380,-5.422233581542969,27.74664878845215,31.469457626342773,2.1113698482513428,2.1069624423980713,2.7845985889434814,2
381,-10.718441009521484,33.44668197631836,29.880420684814453,1.6185147762298584,1.863255262374878,3.091078042984009,2
382,-5.097754955291748,38.79538345336914,26.215898513793945,1.0486518144607544,2.071322441101074,3.2687137126922607,2
383,1.0511506795883179,32.57572555541992,23.31751823425293,0.49346646666526794,2.1322672367095947,3.474022150039673,2
384,-9.901041030883789,5.332152843475342,20.55707359313965,0.18619585037231445,1.6407839059829712,3.79864501953125,2
385,-26.921085357666016,-31.53952980041504,18.380321502685547,0.6185615658760071,0.8832868933677673,4.218362331390381,2
386,-35.725337982177734,-64.67200469970703,18.740583419799805,0.8870662450790405,0.9631612300872803,4.344430446624756,2
387,-39.592689514160156,-78.35778045654297,22.68288803100586,1.4397423267364502,0.41777709126472473,4.528726577758789,2
388,-28.37592887878418,-65.89476776123047,26.879852294921875,2.5889735221862793,-0.07591095566749573,4.84006929397583,2
389,-29.041088104248047,-39.165000915527344,26.246604919433594,3.3607335090637207,0.11194197833538055,5.036066055297852,2
390,-31.538679122924805,5.286151885986328,27.190858840942383,3.97633695602417,-0.35938093066215515,5.366860389709473,2
391,-30.15060043334961,51.493167877197266,25.457584381103516,3.798555374145508,-0.5734530091285706,5.586445331573486,2
392,-34.69414138793945,88.30908966064453,23.378276824951172,2.642648458480835,-1.2787320613861084,5.914151668548584,2
393,-38.81126022338867,100.51371002197266,21.953405380249023,1.1438820362091064,-1.9289964437484741,6.207197189331055,2
394,-32.47614288330078,86.81637573242188,22.059825897216797,-0.22824378311634064,-2.4167797565460205,6.430474281311035,2
395,-4.920365333557129,46.526248931884766,21.870210647583008,-1.363797903060913,-2.7521886825561523,6.633096218109131,2
396,39.39301300048828,7.059511184692383,18.6650333404541,-1.848284363746643,-2.3743784427642822,6.765603542327881,2
397,81.7845687866211,-33.87258529663086,16.6057071685791,-1.777666449546814,-1.5013847351074219,6.888441562652588,2
398,102.15666198730469,-80.36262512207031,18.448759078979492,-0.9103060960769653,-0.11540313810110092,6.933764457702637,2
399,99.51963806152344,-113.83610534667969,19.847225189208984,0.4424634575843811,0.8450596332550049,6.968682289123535,2
400,88.45802307128906,-130.81275939941406,23.38274383544922,1.587724208831787,3.7122647762298584,7.179665565490723,2
401,67.32678985595703,-122.04637145996094,26.281627655029297,3.036033868789673,4.456275463104248,7.296470642089844,2
402,31.330347061157227,-93.88397216796875,31.08295249938965,3.6926591396331787,4.669251918792725,7.512514591217041,2
403,-11.153570175170898,-62.29714584350586,30.8332576751709,4.675128936767578,4.739891529083252,7.766835689544678,2
404,-50.94097900390625,-27.879297256469727,23.087915420532227,5.211706161499023,4.160676002502441,8.101296424865723,2
405,-71.92292785644531,6.929153919219971,15.418207168579102,5.289488792419434,3.431530475616455,8.338085174560547,2
406,-67.15670013427734,57.732948303222656,4.092636585235596,5.12174129486084,2.3689351081848145,8.583601951599121,2
407,-41.45572280883789,102.7635726928711,-5.459914207458496,4.175394535064697,1.6252678632736206,8.571248054504395,2
408,-20.935672760009766,140.0186767578125,-9.644700050354004,2.5090270042419434,1.3177448511123657,8.32982349395752,2
409,-2.4762516021728516,139.89256286621094,-9.928078651428223,1.0110018253326416,0.9978286623954773,8.267934799194336,2
410,-2.517228126525879,120.0859603881836,-12.371756553649902,-0.5435847043991089,0.8733636140823364,8.186726570129395,2
411,-2.967486619949341,93.57244873046875,-15.17428207397461,-1.8245974779129028,0.7044020295143127,8.111370086669922,2
412,0.4723648726940155,49.64156723022461,-16.14673614501953,-2.780716896057129,0.5613228678703308,7.992886066436768,2
413,0.6377344727516174,-3.525094747543335,-20.063339233398438,-3.3463869094848633,0.4560089111328125,7.839656352996826,2
414,-4.068453311920166,-39.598777770996094,-22.629011154174805,-3.1815505027770996,0.40467992424964905,7.675659656524658,2
415,-7.394558429718018,-66.31912231445312,-23.152673721313477,-2.9362637996673584,0.29214346408843994,7.431704044342041,2
416,-5.629513740539551,-82.28440856933594,-22.736690521240234,-2.2167632579803467,0.09540560841560364,7.189387798309326,2
417,-4.75101900100708,-86.39222717285156,-22.708206176757812,-1.3659552335739136,-0.006440300960093737,6.959434986114502,2
418,3.6135880947113037,-69.86376190185547,-23.66242790222168,-0.414299339056015,-0.045309506356716156,6.741253852844238,2
419,7.7472615242004395,-44.889366149902344,-23.132966995239258,0.12183643877506256,-0.11937987059354782,6.481076717376709,2
420,2.1919968128204346,-11.668116569519043,-20.164194107055664,0.40623393654823303,-0.024884840473532677,6.251281261444092,2
421,-4.330561637878418,17.059412002563477,-17.792940139770508,0.4857853949069977,-0.14165936410427094,6.0185723304748535,2
422,-11.256767272949219,33.316436767578125,-14.46888256072998,0.2533760070800781,-0.214746356010437,5.832668781280518,2
423,-10.106148719787598,43.41510009765625,-11.807222366333008,-0.14207887649536133,-0.3495684564113617,5.67790412902832,2
424,-2.2004079818725586,47.53832244873047,-9.457144737243652,-0.7310332655906677,-0.4415114223957062,5.561775207519531,2
425,1.8367588520050049,35.658180236816406,-8.509941101074219,-1.1122145652770996,-0.5812315344810486,5.43556022644043,2
426,2.953477621078491,9.57154369354248,-6.881586074829102,-1.4400341510772705,-0.5864397287368774,5.340149879455566,2
427,13.911332130432129,-22.607439041137695,-8.177427291870117,-1.2922029495239258,-0.45505577325820923,5.267480373382568,2
428,31.80131721496582,-51.22243118286133,-9.374889373779297,-0.8557040095329285,-0.1796538382768631,5.201003074645996,2
429,44.38679122924805,-73.56200408935547,-11.127486228942871,1.1922764778137207,0.9877191781997681,5.137458801269531,2
430,37.66790771484375,-85.9343032836914,-9.706747055053711,2.1404545307159424,1.5959831476211548,5.021502494812012,2
431,17.188486099243164,-84.66157531738281,-5.22111701965332,3.124202013015747,1.5635323524475098,4.8252739906311035,2
432,-1.1774288415908813,-59.2493782043457,-0.44190713763237,4.173713684082031,2.0578975677490234,4.753477096557617,2
433,-20.19399642944336,-11.176435470581055,3.0041298866271973,4.574028491973877,1.8330837488174438,4.729511737823486,2
434,-37.76982879638672,32.425270080566406,2.817168712615967,4.570575714111328,1.2125719785690308,4.7784576416015625,2
435,-55.741798400878906,65.66544342041016,3.5751383304595947,3.968217611312866,0.5248366594314575,4.85131311416626,2
436,-66.54979705810547,92.15460205078125,5.419081211090088,3.000077486038208,0.0005354909226298332,4.885324954986572,2
437,-65.24950408935547,105.04727172851562,10.082303047180176,1.8174853324890137,-2.632214069366455,5.261031627655029,2
438,-52.32535171508789,104.01361846923828,14.077335357666016,0.44681650400161743,-3.384288787841797,5.3278489112854,2
439,-27.27493667602539,100.05529022216797,16.9079532623291,-0.688432514667511,-3.711315393447876,5.378664970397949,2
440,14.53149127960205,79.13507843017578,18.4154052734375,-1.6068987846374512,-3.7865846157073975,5.442028999328613,2
441,49.92680740356445,54.30874252319336,17.01554298400879,-2.544703483581543,-3.6153202056884766,5.585443496704102,2
442,86.34273529052734,23.291086196899414,14.392632484436035,-3.1652474403381348,-2.7114460468292236,5.745828628540039,2
443,106.4185791015625,-9.668664932250977,10.042776107788086,-3.27711820602417,-1.8087958097457886,5.844757556915283,2
444,106.32762145996094,-33.82441711425781,8.506203651428223,-3.2474002838134766,-0.806546688079834,5.954934120178223,2
445,87.65603637695312,-44.685394287109375,8.391667366027832,-2.804097890853882,0.5297154188156128,6.056516647338867,2
446,64.38652038574219,-56.22679901123047,8.305086135864258,-2.2989635467529297,1.1936246156692505,6.06263542175293,2
447,33.5350227355957,-65.38238525390625,7.22065544128418,-1.4443074464797974,1.993945598602295,6.084872722625732,2
448,6.204766273498535,-69.24929809570312,6.630229473114014,-1.0843474864959717,2.18770170211792,6.153095245361328,2
449,-13.770054817199707,-62.887367248535156,4.0161662101745605,-0.2826262414455414,2.1863975524902344,6.148509502410889,2
450,-19.776376724243164,-44.42251968383789,1.4252017736434937,0.41408950090408325,1.9335013628005981,6.12563943862915,2
451,-13.096317291259766,-21.680612564086914,-1.257632851600647,0.6659224629402161,1.982862114906311,6.203775882720947,2
452,0.2583569884300232,11.034444808959961,-5.577564239501953,0.6550099849700928,1.8779371976852417,6.2128376960754395,2
453,15.931486129760742,35.77870559692383,-8.589385986328125,0.460568904876709,2.0594642162323,6.207226753234863,2
454,28.729541778564453,48.10920333862305,-9.547089576721191,0.0608258917927742,2.2555384635925293,6.148811340332031,2
455,29.548429489135742,51.021610260009766,-11.956490516662598,-0.4992593824863434,2.721832752227783,6.107922554016113,2
456,22.607419967651367,42.841514587402344,-14.369437217712402,-1.114693522453308,2.952300548553467,6.002810001373291,2
457,4.124211311340332,14.678277969360352,-14.610109329223633,-1.493357539176941,2.9438867568969727,5.842287540435791,2
458,-15.2657470703125,-11.289851188659668,-15.536113739013672,-1.5870555639266968,2.9271445274353027,5.69689416885376,2
459,-24.694278717041016,-35.28034591674805,-16.803707122802734,-1.3580429553985596,2.8683266639709473,5.571835994720459,2
460,-23.569612503051758,-56.561763763427734,-19.613157272338867,-0.743770182132721,2.553708553314209,5.4100236892700195,2
461,-12.86527156829834,-69.7681655883789,-20.209291458129883,-0.32990288734436035,2.303359270095825,5.172159194946289,2
462,0.988556444644928,-64.51073455810547,-18.951683044433594,0.35400497913360596,2.3732526302337646,4.993512153625488,2
463,16.54543685913086,-51.8878173828125,-18.387561798095703,0.855550229549408,2.4434854984283447,4.763637542724609,2
464,29.00765609741211,-34.04609680175781,-17.940040588378906,1.348116159439087,2.679016351699829,4.564929962158203,2
465,37.200904846191406,-20.206785202026367,-16.578187942504883,1.8575456142425537,2.953221321105957,4.397294998168945,2
466,36.00130844116211,-0.9524799585342407,-14.886744499206543,2.1485116481781006,3.3788249492645264,4.244009017944336,2
467,23.562835693359375,21.68087387084961,-14.853926658630371,2.1111867427825928,3.723890542984009,4.0785298347473145,2
468,3.8818836212158203,37.527679443359375,-15.978290557861328,1.748199462890625,3.901503324508667,3.901390552520752,2
469,-22.24786949157715,46.69047927856445,-16.394737243652344,1.1551326513290405,3.8010470867156982,3.7066311836242676,2
470,-42.36551284790039,42.63502502441406,-16.275510787963867,0.7253891229629517,3.66968035697937,3.5832314491271973,2
471,-54.41853332519531,30.15191078186035,-16.196014404296875,0.2517317831516266,2.9618618488311768,3.430575132369995,2
472,-57.54593276977539,13.363082885742188,-16.293636322021484,0.07455647736787796,2.672373056411743,3.3354387283325195,2
473,-52.468231201171875,-1.810600996017456,-15.848692893981934,-0.0037882018368691206,2.0046825408935547,3.205263614654541,2
474,-37.92107009887695,-12.672346115112305,-15.033567428588867,0.14202480018138885,1.605363130569458,3.0998635292053223,2
475,-15.412378311157227,-28.83009910583496,-13.540116310119629,0.4182066023349762,1.116890549659729,2.9955968856811523,2
476,9.777807235717773,-38.008544921875,-12.532837867736816,0.6897983551025391,1.0095860958099365,2.8571619987487793,2
477,28.93599510192871,-39.635562896728516,-11.192244529724121,1.2191253900527954,1.266099214553833,2.7705183029174805,2
478,34.84891891479492,-29.586023330688477,-9.217035293579102,1.6944842338562012,1.5455912351608276,2.6713225841522217,2
479,28.72106170654297,-17.536705017089844,-8.589079856872559,1.8529267311096191,1.8627668619155884,2.5364208221435547,2
480,15.804354667663574,-2.314284324645996,-7.279061794281006,2.00803279876709,2.1155920028686523,2.4423346519470215,2
481,-2.9762394428253174,10.20154857635498,-7.53101921081543,2.0058016777038574,2.1257376670837402,2.369927167892456,2
482,-23.6361141204834,16.12681770324707,-7.837483882904053,1.843093752861023,2.037005662918091,2.2870445251464844,2
483,-33.97873306274414,17.05071449279785,-7.71444845199585,1.673305630683899,1.8128482103347778,2.2141642570495605,2
484,-30.254833221435547,21.125459671020508,-5.766775608062744,1.4599132537841797,1.5002148151397705,2.1376025676727295,2
485,-23.8221492767334,22.770442962646484,-3.3098692893981934,1.3486794233322144,1.118393898010254,2.113893747329712,2
486,-12.377374649047852,18.373722076416016,-0.7160183191299438,1.1143280267715454,0.8172754049301147,2.089729070663452,2
487,-1.8241534233093262,17.980300903320312,2.049549102783203,0.8516028523445129,0.7604204416275024,2.0656158924102783,2
488,10.361793518066406,14.453316688537598,4.447440147399902,0.7676582336425781,0.8157358169555664,2.0956497192382812,2
489,23.69160270690918,20.723329544067383,6.474396705627441,0.7987241148948669,1.0665900707244873,2.154428720474243,2
490,37.359214782714844,36.536624908447266,6.519821643829346,0.5832799077033997,1.45206618309021,2.2080936431884766,2
491,44.050209045410156,56.76289367675781,6.6930928230285645,0.22385253012180328,1.865225076675415,2.28024959564209,2
492,41.952884674072266,73.72999572753906,5.194135665893555,-0.6617665886878967,2.386573076248169,2.3238401412963867,2
493,29.68169593811035,74.31394958496094,4.0939717292785645,-0.9427013993263245,2.593224287033081,2.4783151149749756,2
494,9.638992309570312,54.75522232055664,1.6212682723999023,-1.8211567401885986,2.7086875438690186,2.5444934368133545,2
495,-8.520248413085938,25.05339241027832,-1.7335107326507568,-2.0085842609405518,2.884044885635376,2.638935089111328,2
496,-24.958518981933594,-10.484281539916992,-6.366611003875732,-2.176661491394043,2.764662027359009,2.6343376636505127,2
497,-39.00221252441406,-39.70426940917969,-12.139575004577637,-1.9130349159240723,2.453183650970459,2.5819432735443115,2
498,-50.734092712402344,-56.686485290527344,-16.641714096069336,-1.3633043766021729,1.724311351776123,2.439314365386963,2
499,-59.178611755371094,-57.78838348388672,-19.01373863220215,-0.9273639917373657,1.6140987873077393,2.29451060295105,2
500,-60.38899612426758,-40.93726348876953,-19.377761840820312,-0.22264793515205383,0.7511587142944336,2.085923671722412,2
501,-59.122440338134766,-11.575632095336914,-18.880220413208008,0.22396813333034515,0.3263711929321289,1.9177912473678589,2
502,-47.718448638916016,24.937742233276367,-15.605286598205566,0.11714474111795425,-0.23565034568309784,1.697295904159546,2
503,-30.63758659362793,52.1702880859375,-12.810701370239258,-0.23814083635807037,-0.5855700969696045,1.5385549068450928,2
504,-6.8276872634887695,72.58157348632812,-10.063061714172363,-0.9511929154396057,-0.9727236032485962,1.3794642686843872,2
505,17.910572052001953,76.63915252685547,-8.199583053588867,-1.4517854452133179,-0.82712322473526,1.3049625158309937,2
506,34.70906066894531,62.522377014160156,-6.643410682678223,-2.323676824569702,-0.48018670082092285,1.2404463291168213,2
507,41.28858184814453,36.363895416259766,-5.705811023712158,-3.1515538692474365,-0.011871195398271084,1.204391598701477,2
508,36.6844367980957,12.978568077087402,-4.603339672088623,-2.8730509281158447,0.12561331689357758,1.0611647367477417,2
509,20.9154052734375,-11.398563385009766,-3.425532579421997,-2.948009490966797,0.27728188037872314,0.9619887471199036,2
510,-1.1587032079696655,-35.16864013671875,-3.203068256378174,-2.6420793533325195,0.5041788220405579,0.9225785732269287,2
511,-21.094758987426758,-51.00657272338867,-4.933068752288818,-2.3660006523132324,0.6046326756477356,0.9243510961532593,2
512,-37.04022979736328,-55.95396423339844,-6.532402038574219,-1.5530552864074707,0.11064033955335617,0.7605816721916199,2
513,-44.04991149902344,-51.963558197021484,-7.63911771774292,-1.1393885612487793,-0.2691677212715149,0.7021808624267578,2
514,-44.27177429199219,-35.937191009521484,-8.581695556640625,-0.6438556909561157,-0.5888153314590454,0.6681645512580872,2
515,-35.9532356262207,-16.53359603881836,-9.943405151367188,-0.2666657567024231,-0.9377952814102173,0.6178469657897949,2
516,-22.284082412719727,1.0854098796844482,-10.854028701782227,-0.10960952937602997,-1.409514307975769,0.5029288530349731,2
517,-5.113672733306885,15.79518985748291,-10.960551261901855,-0.1577858328819275,-1.703649878501892,0.3899165689945221,2
518,11.350859642028809,31.657573699951172,-10.762552261352539,-0.39079126715660095,-1.7248228788375854,0.30185455083847046,2
519,21.78103256225586,45.23106384277344,-11.30218505859375,-0.9272950291633606,-1.5226037502288818,0.2594289481639862,2
520,26.120920181274414,46.32487869262695,-13.193422317504883,-1.3750241994857788,-1.192139983177185,0.171121284365654,2
521,20.05095672607422,43.39159393310547,-15.462207794189453,-1.7593456506729126,-0.8533974289894104,0.037217315286397934,2
522,7.938967704772949,37.98761749267578,-17.039581298828125,-2.086191415786743,-0.6433063745498657,-0.14504100382328033,2
523,-11.00625991821289,24.39356231689453,-18.156198501586914,-2.561692714691162,-0.6715210676193237,-0.3228367567062378,2
524,-28.916568756103516,4.155791282653809,-19.212045669555664,-2.7675254344940186,-0.8482389450073242,-0.5416136980056763,2
525,-43.38908767700195,-19.675189971923828,-19.494535446166992,-2.5692973136901855,-1.2802228927612305,-0.849065363407135,2
526,-55.44768524169922,-28.88642120361328,-19.60358428955078,-2.31044864654541,-1.7802211046218872,-1.0888299942016602,2
527,-60.59385681152344,-26.732513427734375,-17.548383712768555,-1.8779234886169434,-2.2243106365203857,-1.283315896987915,2
528,-56.46734619140625,-21.798677444458008,-14.488909721374512,-1.6246132850646973,-2.842933177947998,-1.442685842514038,2
529,-35.0499153137207,-23.49629783630371,-9.758098602294922,-1.2544223070144653,-3.5684070587158203,-1.6653268337249756,2
530,-13.12741756439209,-14.28024959564209,-4.865276336669922,-1.018852949142456,-3.736445426940918,-1.6850333213806152,2
531,6.100940227508545,10.012040138244629,0.012432287447154522,-1.0261495113372803,-3.8464789390563965,-1.6550623178482056,2
532,15.972021102905273,38.02779769897461,4.782011032104492,-1.2261757850646973,-3.9094109535217285,-1.650149941444397,2
533,29.32608413696289,52.98174285888672,7.864744186401367,-1.7174105644226074,-3.569289207458496,-1.5237908363342285,2
534,47.42835235595703,47.85411071777344,4.278362274169922,-2.2625656127929688,-3.151689052581787,-1.4282712936401367,2
535,55.078643798828125,35.664710998535156,0.548823356628418,-2.830033540725708,-2.5774240493774414,-1.328066349029541,2
536,42.47927474975586,19.001550674438477,-2.2544376850128174,-2.9609901905059814,-2.1955671310424805,-1.50332510471344,2
537,21.415327072143555,-0.9083360433578491,-5.610357284545898,-3.1155354976654053,-1.6687554121017456,-1.5330575704574585,2
538,-8.326287269592285,-11.951117515563965,-9.025415420532227,-3.005657911300659,-1.7410002946853638,-1.7645128965377808,2
539,-36.44087219238281,-12.314983367919922,-10.335090637207031,-2.8321850299835205,-1.9678537845611572,-1.9499542713165283,2
540,-54.728370666503906,-5.430292129516602,-9.366844177246094,-2.6734163761138916,-2.377345323562622,-2.093543529510498,2
541,-60.43940734863281,4.812647342681885,-4.970398902893066,-2.6336934566497803,-3.092129945755005,-2.240381956100464,2
542,-45.59804153442383,12.574515342712402,-0.6097372770309448,-2.7410171031951904,-3.502434492111206,-2.1925435066223145,2
543,-11.435690879821777,19.01978302001953,1.4795112609863281,-2.8900811672210693,-3.8065712451934814,-2.129187822341919,2
544,27.757230758666992,24.024429321289062,1.4306238889694214,-3.212700843811035,-3.7478628158569336,-1.9701406955718994,2
545,65.2185287475586,23.585783004760742,-3.494854211807251,-3.4274868965148926,-3.3656039237976074,-1.9212735891342163,2
546,78.87590789794922,18.690635681152344,-6.705533027648926,-3.535719633102417,-3.020763397216797,-2.1309654712677,2
547,80.45018768310547,9.666748046875,-9.370922088623047,-3.687776803970337,-2.044450283050537,-2.1369032859802246,2
548,63.732025146484375,-2.7378251552581787,-7.78529691696167,-3.7511751651763916,-1.565071702003479,-2.39031982421875,2
549,30.15161895751953,-16.776811599731445,-4.527698040008545,-3.610438585281372,-0.90752112865448,-2.5413458347320557,2
550,-7.985851287841797,-26.380966186523438,-1.7009762525558472,-3.4874892234802246,-0.6493189334869385,-2.6224327087402344,2
551,-38.34760284423828,-33.450103759765625,-0.6280192136764526,-3.140167236328125,-0.8383410573005676,-2.766634225845337,2
552,-58.66643142700195,-36.54304504394531,1.668910026550293,-2.694650173187256,-1.3921979665756226,-2.911341667175293,2
553,-57.54688262939453,-39.08816909790039,4.22088623046875,-2.271226644515991,-2.2102768421173096,-3.0255298614501953,2
554,-40.32386779785156,-35.10054016113281,7.408205509185791,-2.278528928756714,-2.627798318862915,-2.7372891902923584,2
555,-9.674919128417969,-26.226318359375,9.356725692749023,-1.7085151672363281,-2.984689235687256,-2.7183125019073486,2
556,29.589689254760742,-21.321359634399414,9.851161003112793,-1.3431464433670044,-3.0214767456054688,-2.618788957595825,2
557,70.05833435058594,-19.845918655395508,10.728856086730957,-1.2012991905212402,-2.3583858013153076,-2.3336856365203857,2
558,107.49958801269531,-24.930246353149414,10.200723648071289,-0.8140931129455566,-1.6361788511276245,-2.2854504585266113,2
559,130.16378784179688,-29.72901153564453,10.755866050720215,-0.5711652040481567,-0.7551530003547668,-2.225034475326538,2
560,138.22344970703125,-24.08753776550293,12.986265182495117,-0.24624159932136536,1.0477555990219116,-1.9805669784545898,2
561,128.04946899414062,-15.849029541015625,13.273111343383789,-0.080793596804142,1.890030860900879,-1.9647912979125977,2
562,101.05596923828125,-8.726635932922363,13.564419746398926,0.04547511041164398,3.578261137008667,-1.7344169616699219,2
563,62.7016487121582,4.681131839752197,12.268094062805176,0.17031455039978027,4.069852352142334,-1.72126042842865,2
564,17.986778259277344,14.132797241210938,9.96802043914795,0.04892744868993759,4.848082542419434,-1.5574697256088257,2
565,-18.31296157836914,11.63352108001709,6.891379356384277,-0.17439450323581696,4.462362766265869,-1.5214495658874512,2
566,-42.54214859008789,9.812775611877441,4.628301620483398,-0.24519439041614532,4.2044219970703125,-1.454681634902954,2
567,-50.038368225097656,-0.19831053912639618,5.741004943847656,-0.29330116510391235,3.6905717849731445,-1.408530831336975,2
568,-37.65913391113281,-8.295897483825684,6.636104106903076,-0.29023033380508423,3.2901451587677,-1.342757225036621,2
569,-13.259818077087402,-4.7777252197265625,6.999264240264893,-0.21911750733852386,2.9473772048950195,-1.2776155471801758,2
570,15.49345588684082,7.431403636932373,6.510203838348389,-0.16802223026752472,3.008100986480713,-1.202256441116333,2
571,41.1664924621582,22.068716049194336,6.539262771606445,-0.3059599995613098,3.0590827465057373,-1.1511826515197754,2
572,58.25779342651367,28.612972259521484,7.167908668518066,-0.6280692219734192,3.7668700218200684,-1.0984665155410767,2
573,61.02919006347656,32.790218353271484,8.262259483337402,-0.962414562702179,4.025339603424072,-1.0276868343353271,2
574,49.625545501708984,26.297258377075195,8.569047927856445,-1.224570631980896,4.762532711029053,-0.9097298383712769,2
575,27.712926864624023,8.745928764343262,8.33758544921875,-1.3438270092010498,5.388354778289795,-0.7596427202224731,2
576,-0.8021526336669922,-14.335869789123535,6.6788763999938965,-1.33834969997406,5.760446548461914,-0.619278073310852,2
577,-27.720579147338867,-38.20013427734375,4.065258502960205,-1.2353001832962036,5.601730823516846,-0.564223051071167,2
578,-49.598880767822266,-54.50893020629883,0.9681792855262756,-0.605524480342865,5.107813358306885,-0.43875983357429504,2
579,-57.6962776184082,-51.236637115478516,-2.162553548812866,-0.13844998180866241,4.339639186859131,-0.4997374415397644,2
580,-50.160335540771484,-32.489646911621094,-4.706698894500732,0.6237615942955017,3.667189836502075,-0.41321930289268494,2
581,-29.289491653442383,-5.0821733474731445,-6.329941272735596,0.6666959524154663,3.470287561416626,-0.6486590504646301,2
582,-1.4288341999053955,16.59141731262207,-5.45147180557251,0.630346953868866,3.188819408416748,-0.7815693020820618,2
583,23.99428367614746,36.00293731689453,-4.906332492828369,0.3925952911376953,3.342653512954712,-0.8990639448165894,2
584,41.452369689941406,44.861263275146484,-7.470974922180176,-0.11658645421266556,3.6297271251678467,-1.0221240520477295,2
585,45.61322784423828,39.17606735229492,-10.27988338470459,-0.5603237748146057,4.048847675323486,-1.0541292428970337,2
586,35.983245849609375,21.788902282714844,-12.855718612670898,-0.8415395021438599,4.755183219909668,-1.0748045444488525,2
587,16.609485626220703,-1.030835747718811,-14.568241119384766,-1.023082971572876,4.684394359588623,-1.106950283050537,2
588,-11.672240257263184,-18.546478271484375,-14.850537300109863,-0.8802807927131653,4.841936111450195,-1.1475143432617188,2
589,-39.35457229614258,-28.86564064025879,-15.913684844970703,-0.7941026091575623,4.683989524841309,-1.3408126831054688,2
590,-56.690399169921875,-29.217514038085938,-16.686891555786133,-0.3139817416667938,4.191450595855713,-1.3694053888320923,2
591,-60.39556121826172,-27.1468563079834,-17.36615753173828,-0.059238746762275696,3.9789435863494873,-1.5940195322036743,2
592,-52.243988037109375,-19.19593620300293,-17.91199493408203,0.19985200464725494,3.1788265705108643,-1.7558667659759521,2
593,-39.64805603027344,-13.169891357421875,-17.02335548400879,0.4412860870361328,2.679748058319092,-1.9207316637039185,2
594,-23.942768096923828,-9.309403419494629,-15.75175666809082,0.6687310934066772,2.12336802482605,-2.0252187252044678,2
595,-10.266295433044434,-7.238061904907227,-14.46762752532959,0.6959787607192993,2.096499443054199,-2.260762929916382,2
596,0.9625803232192993,-5.830630779266357,-12.717779159545898,0.7559971809387207,1.9768848419189453,-2.4124038219451904,2
597,6.430160045623779,2.9577860832214355,-11.465697288513184,0.8243983387947083,2.14768123626709,-2.5652496814727783,2
598,6.029658317565918,15.730045318603516,-10.528120040893555,0.744750440120697,2.1577517986297607,-2.707529067993164,2
599,-1.6206010580062866,26.527706146240234,-11.462847709655762,0.46219348907470703,2.1945035457611084,-2.8723344802856445,2
600,-13.087747573852539,27.7149658203125,-12.924027442932129,0.29107412695884705,2.3673460483551025,-2.9728028774261475,2
601,-24.338796615600586,24.318557739257812,-13.30038070678711,0.04889847710728645,2.0622506141662598,-3.04563570022583,2
602,-33.823646545410156,19.11712074279785,-13.872679710388184,-0.13021665811538696,1.8727903366088867,-3.156010150909424,2
603,-38.77883529663086,6.502437591552734,-14.013877868652344,-0.3384913504123688,1.547316312789917,-3.299832344055176,2
604,-37.42089080810547,-10.765308380126953,-15.02881908416748,-0.3332507014274597,1.3108559846878052,-3.429548978805542,2
605,-32.45075225830078,-26.743328094482422,-15.517788887023926,-0.07576365023851395,0.9544572234153748,-3.515042781829834,2
606,-25.21068000793457,-30.277143478393555,-15.627779960632324,0.28896820545196533,0.5447666049003601,-3.613483190536499,2
607,-17.637365341186523,-18.81117820739746,-16.380722045898438,0.5021122694015503,0.26272571086883545,-3.7961771488189697,2
608,-9.696745872497559,1.5123348236083984,-15.182433128356934,0.7181767821311951,-0.035444069653749466,-3.937150478363037,2
609,0.023361457511782646,14.651653289794922,-13.752044677734375,0.6589958667755127,-0.036476463079452515,-4.129881381988525,2
610,6.928074359893799,22.112943649291992,-11.23371410369873,0.4032662510871887,-0.04296850040555,-4.293800354003906,2
611,9.6504487991333,32.83768844604492,-9.127127647399902,0.28093117475509644,-0.17077629268169403,-4.351920127868652,2
612,6.284587383270264,39.687225341796875,-7.776496887207031,-0.21098840236663818,-0.05633876472711563,-4.474106311798096,2
613,4.711447715759277,38.429832458496094,-6.479101657867432,-0.5466930866241455,0.22354528307914734,-4.581470012664795,2
614,7.438856601715088,27.235631942749023,-4.831281661987305,-1.0146868228912354,0.4123575687408447,-4.674651145935059,2
615,8.220317840576172,10.145679473876953,-2.2474286556243896,-1.3288843631744385,0.47693830728530884,-4.723751068115234,2
616,3.2735416889190674,-9.438858032226562,1.3393429517745972,-1.3594989776611328,0.45475712418556213,-4.7290215492248535,2
617,-1.2502471208572388,-17.34860610961914,3.838319778442383,-1.1524231433868408,0.6539077758789062,-4.73275089263916,2
618,-1.0170230865478516,-17.870851516723633,4.218355178833008,-0.857771098613739,0.6489555239677429,-4.698943138122559,2
619,-1.9390308856964111,-12.65927505493164,4.092156887054443,-0.5919584035873413,0.6308802366256714,-4.657268524169922,2
620,-7.513431072235107,-0.14283762872219086,3.8922183513641357,-0.5107372403144836,0.5048006772994995,-4.609152793884277,2
621,-18.369117736816406,14.738968849182129,3.244534492492676,-0.4848214089870453,0.47992125153541565,-4.574446678161621,2
622,-27.253154754638672,21.050146102905273,3.4156689643859863,-0.6616017818450928,0.2202749401330948,-4.533586025238037,2
623,-31.702247619628906,29.475727081298828,4.110080718994141,-0.9738503694534302,-0.30107611417770386,-4.4825639724731445,2
624,-30.60976791381836,31.802806854248047,4.990921974182129,-1.295707106590271,-0.13776692748069763,-4.471807956695557,2
625,-21.262365341186523,32.21808624267578,4.883306503295898,-1.6578117609024048,-0.5850439071655273,-4.420195579528809,2
626,-11.443483352661133,32.438350677490234,4.573205471038818,-1.9465923309326172,-0.6618553996086121,-4.380159854888916,2
627,-5.121015548706055,30.244531631469727,3.9000375270843506,-2.358851671218872,-0.820218563079834,-4.32928466796875,2
628,-3.0731334686279297,27.844697952270508,3.751635789871216,-2.656759262084961,-0.961459219455719,-4.298949241638184,2
629,-4.769996166229248,25.024948120117188,4.0016279220581055,-2.927152633666992,-1.0784871578216553,-4.27674674987793,2
630,-5.437673091888428,10.625412940979004,4.805473327636719,-3.234815835952759,-0.9935206770896912,-4.223448753356934,2
631,-7.170204162597656,-2.64805269241333,5.765324115753174,-3.238734006881714,-1.0789551734924316,-4.206925392150879,2
632,-8.223986625671387,-13.429140090942383,5.883453845977783,-3.10206937789917,-0.9025078415870667,-4.132574081420898,2
633,-8.805182456970215,-22.199003219604492,5.80054235458374,-2.946342945098877,-1.0390663146972656,-4.0893473625183105,2
634,-10.483708381652832,-30.27985191345215,4.929159164428711,-2.7132179737091064,-1.1177949905395508,-4.026928901672363,2
635,-7.141427040100098,-37.84537124633789,3.3055970668792725,-2.217050313949585,-1.2640925645828247,-4.030566692352295,2
636,-6.849203586578369,-40.70254135131836,2.135215997695923,-1.635655403137207,-1.377162218093872,-4.050419807434082,2
637,-8.216825485229492,-32.5903205871582,1.6213037967681885,-1.420681118965149,-1.5513440370559692,-3.9901604652404785,2
638,-10.09372615814209,-15.953402519226074,1.0687792301177979,-1.1435188055038452,-1.5331928730010986,-3.9227418899536133,2
639,-6.27903413772583,-5.058409690856934,0.26570844650268555,-1.081257939338684,-1.5174397230148315,-3.84299635887146,2
640,-1.939913272857666,7.217257499694824,0.591087818145752,-1.005902647972107,-1.5915522575378418,-3.8416926860809326,2
641,-0.14603480696678162,10.80184268951416,0.5570334792137146,-1.06771981716156,-1.60856032371521,-3.8325932025909424,2
642,1.0181448459625244,17.824493408203125,1.4191187620162964,-1.226182222366333,-1.5927091836929321,-3.8106954097747803,2
643,-0.9093726277351379,23.706890106201172,2.1343796253204346,-1.3429516553878784,-1.644940733909607,-3.8346104621887207,2
644,-1.6019155979156494,18.76932716369629,3.3624467849731445,-1.6516913175582886,-1.7125498056411743,-3.8085336685180664,2
645,0.8258148431777954,14.838157653808594,3.490180253982544,-1.7582184076309204,-1.7729460000991821,-3.827333927154541,2
646,3.81974196434021,7.338576793670654,3.299760103225708,-1.9113454818725586,-1.7896091938018799,-3.7991743087768555,2
647,5.7049126625061035,-1.3044464588165283,3.4289867877960205,-1.9352259635925293,-1.7566198110580444,-3.7913386821746826,2
648,5.332266330718994,-7.101001739501953,4.493156909942627,-1.831782579421997,-1.7010366916656494,-3.7960784435272217,2
649,4.016158580780029,-9.302101135253906,4.862212657928467,-1.855397343635559,-1.6479326486587524,-3.71158766746521,2
650,3.3472483158111572,-16.493301391601562,4.879446029663086,-1.6601130962371826,-1.6111644506454468,-3.698106288909912,2
651,4.832025051116943,-17.770214080810547,5.411560535430908,-1.4013330936431885,-1.5725854635238647,-3.6866371631622314,2
652,7.3642401695251465,-18.529632568359375,5.980274200439453,-1.2454304695129395,-1.508744239807129,-3.6091256141662598,2
653,10.913357734680176,-16.98260498046875,5.257382869720459,-0.9558331370353699,-1.3984676599502563,-3.5790984630584717,2
654,14.000078201293945,-16.146793365478516,3.905428171157837,-0.7601785659790039,-1.234123945236206,-3.5188777446746826,2
655,14.08549690246582,-13.580448150634766,2.4658873081207275,-0.5945140719413757,-1.0365581512451172,-3.4671311378479004,2
656,12.855011940002441,-11.632875442504883,0.7929009199142456,-0.4654240608215332,-0.842743992805481,-3.4289119243621826,2
657,10.83389949798584,-12.56124210357666,-0.31623080372810364,-0.5760093331336975,-0.8180699348449707,-3.339956760406494,2
658,6.361485481262207,-12.736757278442383,-1.1275209188461304,-0.3351665139198303,-0.7668625712394714,-3.400615930557251,2
659,2.304971694946289,-15.033979415893555,-1.6425095796585083,-0.21746118366718292,-0.7070158123970032,-3.4114558696746826,2
660,0.8774560689926147,-18.62600326538086,-2.6253340244293213,0.036091145128011703,-0.6910386085510254,-3.4620349407196045,2
661,-1.6838668584823608,-22.4544677734375,-3.2923028469085693,0.34602490067481995,-0.7817670106887817,-3.529921293258667,2
662,-9.79053783416748,-24.846580505371094,-2.89615797996521,0.7722306847572327,-0.862299919128418,-3.625206708908081,2
663,-19.701740264892578,-23.196706771850586,-3.8448336124420166,0.4903113543987274,-1.0817362070083618,-3.477266788482666,2
664,-25.216758728027344,-16.3148250579834,-6.489041805267334,0.8931628465652466,-1.1371703147888184,-3.5680596828460693,2
665,-20.63919448852539,-1.5984337329864502,-7.550018787384033,0.9096636176109314,-1.4409689903259277,-3.574357032775879,2
666,-12.218008995056152,17.69578742980957,-7.767627239227295,0.8895099759101868,-1.5062415599822998,-3.647326707839966,2
667,-3.5974690914154053,37.55246353149414,-6.558538436889648,0.7028949856758118,-1.6595771312713623,-3.714994430541992,2
668,7.701186656951904,48.636539459228516,-6.2019453048706055,0.19125573337078094,-1.6535130739212036,-3.744375228881836,2
669,21.448558807373047,43.37275695800781,-6.754139423370361,-0.2645908296108246,-1.5227299928665161,-3.832000494003296,2
670,31.050203323364258,30.167152404785156,-7.352072238922119,-0.6713762879371643,-1.3374475240707397,-3.915576934814453,2
671,31.963748931884766,16.12543296813965,-6.781681537628174,-1.009021282196045,-0.90581876039505,-4.001004695892334,2
672,21.403480529785156,4.589271545410156,-5.728696823120117,-1.1322808265686035,-0.6069315671920776,-4.085075378417969,2
673,3.9518165588378906,-0.8025827407836914,-4.338885307312012,-1.1172361373901367,-0.36317557096481323,-4.167695045471191,2
674,-11.849318504333496,-1.7788509130477905,-3.4255266189575195,-1.0358086824417114,-0.3910316228866577,-4.228325843811035,2
675,-21.41694450378418,-3.83632493019104,-2.500603675842285,-0.9911624193191528,-0.631973385810852,-4.2589216232299805,2
676,-23.728673934936523,-4.481544017791748,-1.5992668867111206,-0.9213636517524719,-0.9055107831954956,-4.284928798675537,2
677,-18.86717414855957,-1.2008626461029053,-0.3305701017379761,-0.8714503645896912,-1.2407363653182983,-4.294553756713867,2
678,-7.4122161865234375,6.642723560333252,0.9468217492103577,-0.8896076679229736,-1.1732451915740967,-4.304536819458008,2
679,6.819826602935791,15.400590896606445,2.417607069015503,-0.8955385088920593,-1.207222580909729,-4.311461925506592,2
680,14.9855318069458,21.08574104309082,3.3622255325317383,-1.1070324182510376,-1.122220754623413,-4.278623580932617,2
681,16.135610580444336,21.049516677856445,4.452717304229736,-1.3708012104034424,-1.0161380767822266,-4.236672878265381,2
682,9.55604362487793,18.29252815246582,5.508563041687012,-1.5469568967819214,-0.7917037010192871,-4.206727504730225,2
683,-1.5952967405319214,15.792630195617676,7.036867618560791,-1.7525949478149414,-0.8379021286964417,-4.151175498962402,2
684,-14.857571601867676,13.690678596496582,8.953747749328613,-1.985003113746643,-0.9221234917640686,-4.071197509765625,2
685,-21.662281036376953,9.923135757446289,11.195622444152832,-2.0945754051208496,-1.1022521257400513,-3.9932494163513184,2
686,-19.8884220123291,5.067352771759033,14.287675857543945,-2.1411783695220947,-1.2699034214019775,-3.8939645290374756,2
687,-6.940131664276123,-2.6133265495300293,16.886484146118164,-2.0971288681030273,-1.3455291986465454,-3.767002820968628,2
688,9.009440422058105,-8.447153091430664,19.42571258544922,-2.017568826675415,-1.3466914892196655,-3.6076087951660156,2
689,25.68792152404785,-8.41832160949707,21.9237117767334,-2.090723752975464,-1.2275433540344238,-3.3819992542266846,2
690,39.51693344116211,-2.3355891704559326,23.092294692993164,-1.9745819568634033,-0.9264578819274902,-3.166844606399536,2
691,44.85752868652344,9.047586441040039,22.753955841064453,-1.9146517515182495,-0.3157661259174347,-2.9184982776641846,2
692,34.66221237182617,23.111177444458008,21.46507453918457,-2.0366718769073486,-0.002049554605036974,-2.7010340690612793,2
693,16.762271881103516,33.8373908996582,19.30968475341797,-2.358922004699707,0.3973211348056793,-2.4604249000549316,2
694,-6.725266456604004,38.18483352661133,18.453929901123047,-2.8191277980804443,0.4077870845794678,-2.2774276733398438,2
695,-27.107149124145508,33.871097564697266,18.471721649169922,-3.2894625663757324,0.28786614537239075,-2.0976126194000244,2
696,-41.93013381958008,14.737075805664062,18.964941024780273,-3.5945017337799072,-0.1322321891784668,-1.9539248943328857,2
697,-45.66183090209961,-17.84181022644043,17.003690719604492,-3.451240301132202,-0.6383943557739258,-1.8199840784072876,2
698,-27.146373748779297,-52.37089920043945,13.00669002532959,-2.941643476486206,-0.7830998301506042,-1.5985782146453857,2
699,-4.0905375480651855,-79.46686553955078,8.697596549987793,-2.5543618202209473,-1.141971230506897,-1.4716448783874512,2
700,12.176953315734863,-87.77215576171875,8.360747337341309,-1.9178476333618164,-1.181767225265503,-1.3470697402954102,2
701,26.586118698120117,-82.71355438232422,8.3038911819458,-0.775296151638031,-0.948480486869812,-1.2391610145568848,2
702,38.1121826171875,-64.31610107421875,8.448342323303223,-0.07828269153833389,-0.7856789231300354,-1.1555207967758179,2
703,41.569278717041016,-34.46846389770508,8.269512176513672,0.409263014793396,-0.271744966506958,-1.022059440612793,2
704,38.87685775756836,-1.5654942989349365,7.265578746795654,0.7003129124641418,0.04971470311284065,-0.9459657669067383,2
705,24.224998474121094,29.00117301940918,5.860789775848389,0.5529321432113647,0.328551709651947,-0.8715024590492249,2
706,6.519958972930908,50.53152847290039,5.589358806610107,0.17145153880119324,0.7862168550491333,-0.7863581776618958,2
707,-16.66633415222168,54.70909881591797,6.570744514465332,-0.37676897644996643,0.7703381180763245,-0.7269402742385864,2
708,-38.05562210083008,40.83799743652344,8.956594467163086,-0.8823397159576416,0.404809832572937,-0.6672657132148743,2
709,-49.898014068603516,19.368297576904297,11.573592185974121,-1.2703008651733398,-0.16503529250621796,-0.5877605676651001,2
710,-45.732749938964844,-7.37108039855957,12.715795516967773,-1.4260311126708984,-0.5391659736633301,-0.46816807985305786,2
711,-25.60505485534668,-31.58917999267578,12.061448097229004,-1.239073634147644,-1.0407400131225586,-0.34201112389564514,2
712,13.29543685913086,-46.32623291015625,11.168867111206055,-0.5896434783935547,-1.18366277217865,-0.20409198105335236,2
713,57.4394416809082,-41.39854431152344,9.557750701904297,-0.39732736349105835,-0.8587590456008911,-0.07226572185754776,2
714,88.87673950195312,-27.930940628051758,8.135334014892578,0.11060167104005814,-0.11628337949514389,0.0303901806473732,2
715,102.365234375,-13.13839340209961,7.943066120147705,0.3310372531414032,0.6166120767593384,0.11332063376903534,2
716,92.03022766113281,5.262054443359375,7.332860469818115,0.5684735774993896,1.7927730083465576,0.18256346881389618,2
717,69.01146697998047,25.00841522216797,4.905472278594971,0.3489294648170471,2.448268175125122,0.2681552767753601,2
718,39.618797302246094,37.34175491333008,1.834057092666626,0.019496086984872818,3.078629970550537,0.3308463990688324,2
719,9.2555513381958,41.94658660888672,-1.5146172046661377,-0.4619680345058441,3.5122013092041016,0.3601682484149933,2
720,-20.239055633544922,39.51850128173828,-4.8561110496521,-0.8293298482894897,3.5225167274475098,0.38811734318733215,2
721,-36.52387619018555,25.634632110595703,-7.617216110229492,-1.2268376350402832,3.216752052307129,0.3709571659564972,2
722,-40.151248931884766,1.3021520376205444,-9.900857925415039,-1.358695149421692,2.6442861557006836,0.35702818632125854,2
723,-35.16792678833008,-30.032018661499023,-12.29351806640625,-1.4190338850021362,2.6227612495422363,0.23497100174427032,2
724,-21.22829246520996,-58.186912536621094,-14.348862648010254,-0.8548929691314697,2.0709691047668457,0.20001979172229767,2
725,-11.495190620422363,-81.64559173583984,-15.850836753845215,-0.30062299966812134,1.8626631498336792,0.03660329803824425,2
726,-10.015504837036133,-98.86955261230469,-17.422090530395508,0.7901248931884766,1.692640781402588,-0.03728431463241577,2
727,-15.791275978088379,-100.85823059082031,-18.68952178955078,1.624311089515686,1.9291619062423706,-0.3071809411048889,2
728,-20.371334075927734,-89.43936157226562,-19.153873443603516,2.6549606323242188,1.577959418296814,-0.4869932532310486,2
729,-28.463485717773438,-63.941932678222656,-19.858083724975586,3.3492228984832764,1.4324501752853394,-0.7790070176124573,2
730,-34.993507385253906,-32.87237548828125,-20.30746841430664,4.040436267852783,1.0233855247497559,-0.9416340589523315,2
731,-35.63733673095703,3.1234278678894043,-20.803129196166992,4.269460678100586,0.8360874652862549,-1.2391152381896973,2
732,-28.05773162841797,40.74835968017578,-19.50521469116211,4.128599643707275,0.31751424074172974,-1.4339041709899902,2
733,-16.41680908203125,61.09030532836914,-18.467025756835938,3.565537452697754,0.16586366295814514,-1.7461814880371094,2
734,1.181386947631836,68.64737701416016,-17.619518280029297,2.86973237991333,-0.12084091454744339,-1.9020875692367554,2
735,18.15509605407715,61.30304718017578,-16.882892608642578,2.142108678817749,0.007217280101031065,-2.153825044631958,2
736,32.215911865234375,45.29936599731445,-16.761077880859375,1.4328279495239258,0.37935754656791687,-2.4431092739105225,2
737,42.278289794921875,19.639400482177734,-15.507120132446289,0.9847509264945984,0.8005317449569702,-2.6572890281677246,2
738,38.32542037963867,-2.5830883979797363,-13.374866485595703,1.0623276233673096,1.2867368459701538,-2.7763822078704834,2
739,26.155597686767578,-16.871850967407227,-12.120676040649414,1.0104289054870605,1.6734081506729126,-2.9249143600463867,2
740,9.5961275100708,-27.0692081451416,-11.546305656433105,1.37778902053833,1.9827231168746948,-3.01344633102417,2
741,-10.126462936401367,-27.359153747558594,-11.067450523376465,1.6158804893493652,2.0071113109588623,-3.0999717712402344,2
742,-29.734081268310547,-27.998764038085938,-10.604768753051758,2.157036542892456,1.7787611484527588,-3.0810158252716064,2
743,-43.85141372680664,-20.84940528869629,-10.775843620300293,2.2318851947784424,1.4323819875717163,-3.2180299758911133,2
744,-52.265560150146484,-8.513861656188965,-10.045121192932129,2.1868224143981934,0.7525455355644226,-3.281858444213867,2
745,-49.67141342163086,-2.7624313831329346,-8.491538047790527,2.2770040035247803,0.3625297546386719,-3.443859577178955,2
746,-34.977195739746094,-0.8282223343849182,-6.124537944793701,2.421984910964966,-0.36051812767982483,-3.3901069164276123,2
747,-13.398037910461426,-2.202420234680176,-4.724871635437012,2.3974640369415283,-0.443816214799881,-3.6042051315307617,2
748,7.328921318054199,3.0590407848358154,-2.5872437953948975,2.4044172763824463,-0.4924302101135254,-3.7068681716918945,2
749,20.859107971191406,7.4384942054748535,-0.6515683531761169,2.335315227508545,-0.4681813716888428,-3.7294435501098633,2
750,25.732534408569336,17.216066360473633,1.899619698524475,2.2305920124053955,-0.12560193240642548,-3.819843292236328,2
751,20.661449432373047,29.1924991607666,4.414467811584473,2.0360021591186523,0.15948586165905,-3.8270649909973145,2
752,7.621318817138672,36.84981155395508,6.547713279724121,1.5921475887298584,0.2444726526737213,-3.7444443702697754,2
753,-7.6769280433654785,29.474361419677734,7.7013654708862305,1.2774029970169067,0.2607806324958801,-3.6384470462799072,2
754,-16.526531219482422,11.640767097473145,8.1505126953125,0.9870855212211609,0.08949761092662811,-3.505472421646118,2
755,-18.28836441040039,-2.5549328327178955,7.619882106781006,1.0279560089111328,-0.18970337510108948,-3.348799705505371,2
756,-14.49485969543457,-14.119832992553711,6.177830696105957,1.0578111410140991,-0.24624218046665192,-3.3270463943481445,2
757,-8.259095191955566,-25.412273406982422,5.0846147537231445,1.4150660037994385,-0.3164520263671875,-3.2762906551361084,2
758,0.7158410549163818,-31.776077270507812,5.505053997039795,1.488535761833191,-0.21149131655693054,-3.3219962120056152,2
759,8.96173095703125,-22.23187828063965,6.670306205749512,1.8789498805999756,-0.13041266798973083,-3.305723190307617,2
760,11.694803237915039,-1.3531546592712402,7.722834587097168,1.9964392185211182,-0.08741885423660278,-3.233725070953369,2
761,9.496089935302734,18.543533325195312,7.6435465812683105,2.025407552719116,0.12780730426311493,-3.203263759613037,2
762,2.0779685974121094,38.74989318847656,6.979734420776367,1.9488316774368286,0.13826648890972137,-3.0825488567352295,2
763,-7.734151363372803,46.82451248168945,6.432269096374512,1.4697418212890625,0.10265915095806122,-2.98186993598938,2
764,-18.301362991333008,48.32868576049805,5.101431846618652,0.946510374546051,-0.012793781235814095,-2.8910934925079346,2
765,-26.461761474609375,35.73286056518555,4.334133148193359,0.46143507957458496,-0.2891053259372711,-2.7945547103881836,2
766,-30.349224090576172,20.669445037841797,2.936979055404663,0.21761834621429443,-0.4619383215904236,-2.779585361480713,2
767,-26.56212615966797,-0.08254070580005646,1.6572587490081787,0.17171610891819,-0.6689003109931946,-2.778857469558716,2
768,-17.5526180267334,-20.354917526245117,0.8708745241165161,0.15325210988521576,-1.0891392230987549,-2.7171778678894043,2
769,-7.13041353225708,-27.95421600341797,0.7029435634613037,0.38849854469299316,-1.3546792268753052,-2.688826560974121,2
770,5.6916303634643555,-22.810651779174805,1.2179157733917236,0.7766298651695251,-1.0756009817123413,-2.778090238571167,2
771,14.810650825500488,-15.068180084228516,2.5124449729919434,1.0140470266342163,-0.9860051870346069,-2.777369737625122,2
772,16.89917755126953,0.9072587490081787,3.388798475265503,1.1543586254119873,-0.7839294075965881,-2.7686336040496826,2
773,12.257311820983887,13.28830337524414,3.134629249572754,1.0790879726409912,-0.5693755149841309,-2.734372854232788,2
774,3.343255043029785,20.401897430419922,2.3948841094970703,1.0314269065856934,-0.7210091948509216,-2.6391167640686035,2
775,-9.411300659179688,21.169376373291016,1.7481486797332764,0.7381523251533508,-0.534196674823761,-2.6391735076904297,2
776,-18.809968948364258,17.082168579101562,2.076080083847046,0.4554375112056732,-0.6800748705863953,-2.5999581813812256,2
777,-23.23043441772461,15.422765731811523,2.954834222793579,0.35813435912132263,-0.9513717889785767,-2.571829319000244,2
778,-20.378446578979492,7.859524726867676,3.789689540863037,0.18744054436683655,-1.0461236238479614,-2.568274974822998,2
779,-12.83578872680664,7.136157035827637,4.1915788650512695,0.08837006241083145,-1.365647315979004,-2.5151631832122803,2
780,-4.3326921463012695,8.283015251159668,4.579180717468262,0.001904873177409172,-1.5520386695861816,-2.4685657024383545,2
781,5.637718200683594,6.227328777313232,4.742550849914551,-0.08367206901311874,-1.5880005359649658,-2.4285941123962402,2
782,15.214079856872559,13.37757396697998,5.180371284484863,-0.05693300440907478,-1.4678376913070679,-2.409447193145752,2
783,23.8399658203125,26.164602279663086,4.5085296630859375,-0.30491745471954346,-1.2014403343200684,-2.350834608078003,2
784,23.15418243408203,40.48383712768555,4.178593635559082,-0.6165346503257751,-0.9922289848327637,-2.2962100505828857,2
785,18.659942626953125,50.102474212646484,4.084044933319092,-1.2028499841690063,-0.7277084589004517,-2.2234792709350586,2
786,10.624537467956543,47.69751739501953,4.12837553024292,-1.3188046216964722,-0.48306629061698914,-2.2625768184661865,2
787,-0.8854460716247559,37.775020599365234,5.650907039642334,-1.8859145641326904,-0.7395656108856201,-2.2232067584991455,2
788,-8.900079727172852,19.082462310791016,7.533127784729004,-2.2224249839782715,-0.4977046549320221,-2.169748306274414,2
789,-8.162581443786621,-4.745469093322754,9.266050338745117,-2.383044481277466,-0.6352460980415344,-2.1173343658447266,2
790,-1.8081531524658203,-26.703420639038086,11.10426139831543,-2.259389638900757,-0.948054850101471,-2.0824100971221924,2
791,6.211811065673828,-43.178279876708984,12.681488037109375,-2.041569948196411,-0.9398305416107178,-1.966166377067566,2
792,17.509870529174805,-47.638065338134766,14.446187973022461,-1.4811445474624634,-0.6524165272712708,-1.818235158920288,2
793,24.270111083984375,-39.92949676513672,16.853105545043945,-0.944165825843811,-0.3631271421909332,-1.6553454399108887,2
794,25.555551528930664,-19.15709114074707,18.602752685546875,-0.7260175347328186,-0.20080053806304932,-1.471925973892212,2
795,17.94198226928711,2.6595535278320312,17.127992630004883,-0.8852285146713257,0.15820720791816711,-1.2019238471984863,2
796,4.425055980682373,17.596773147583008,15.959077835083008,-0.901768684387207,0.3790547847747803,-1.0160608291625977,2
797,-12.324156761169434,19.409547805786133,16.475534439086914,-0.9347141981124878,0.3796563446521759,-0.8850240111351013,2
798,-28.353731155395508,13.216828346252441,17.79340934753418,-1.1151059865951538,0.11475444585084915,-0.7628576755523682,2
799,-35.12518310546875,7.15511417388916,18.97566032409668,-1.2309247255325317,0.06456722319126129,-0.5403202772140503,2
800,-30.898088455200195,-6.839012622833252,20.12217903137207,-1.1530126333236694,-0.48398908972740173,-0.42686840891838074,2
801,-19.246200561523438,-24.014511108398438,20.22136116027832,-1.0167075395584106,-0.9335907697677612,-0.2724513113498688,2
802,1.367348313331604,-30.748991012573242,19.11492347717285,-0.8043228387832642,-1.0777091979980469,-0.051738884299993515,2
803,25.794811248779297,-27.87578773498535,17.099822998046875,-0.42624518275260925,-0.9416374564170837,0.17643551528453827,2
804,42.64885711669922,-12.192349433898926,13.511119842529297,-0.15450547635555267,-0.4810619354248047,0.41963112354278564,2
805,49.372398376464844,0.6489425301551819,8.026611328125,0.1188390851020813,-0.07717166095972061,0.5531050562858582,2
806,42.86588668823242,11.929059982299805,3.94437313079834,0.11631359159946442,0.518319308757782,0.6706580519676208,2
807,18.154603958129883,25.89283561706543,1.364506721496582,-0.3012330234050751,0.7748172879219055,0.7035167813301086,2
808,-18.599449157714844,35.183868408203125,-0.8466976881027222,-0.490148663520813,0.902850329875946,0.7037266492843628,2
809,-58.13722229003906,28.32866859436035,-0.5603093504905701,-0.949422299861908,0.563789963722229,0.6674111485481262,2
810,-86.79010772705078,9.257974624633789,-1.1814720630645752,-1.2353758811950684,-0.13624003529548645,0.6259515881538391,2
811,-101.17513275146484,-12.19562816619873,-1.109018325805664,-1.2316194772720337,-1.1497291326522827,0.5730788111686707,2
812,-98.673095703125,-34.12529373168945,0.038602981716394424,-0.8998578190803528,-2.17767596244812,0.5528187155723572,2
813,-75.67652893066406,-52.446346282958984,1.7703866958618164,-0.6032220721244812,-3.145634174346924,0.5697020888328552,2
814,-37.594329833984375,-53.23429489135742,3.3696529865264893,-0.011012730188667774,-3.6137969493865967,0.6772932410240173,2
815,4.601508140563965,-40.501895904541016,7.5217485427856445,0.4804922044277191,-3.9878933429718018,0.765923798084259,2
816,41.25503921508789,-16.570104598999023,12.3483247756958,1.0198907852172852,-3.7944695949554443,0.8886459469795227,2
817,64.42535400390625,13.74889850616455,17.254453659057617,1.0556548833847046,-3.4862802028656006,1.0470421314239502,2
818,71.64786529541016,32.59639358520508,20.123014450073242,0.8864670991897583,-2.7014787197113037,1.245448350906372,2
819,64.30513763427734,37.600318908691406,19.574405670166016,0.3391413688659668,-2.350295066833496,1.4638152122497559,2
820,45.74601364135742,34.09320831298828,20.158796310424805,-0.1200263723731041,-1.4290052652359009,1.6914653778076172,2
821,30.215471267700195,25.45386505126953,19.902374267578125,-0.577289879322052,-1.2072982788085938,1.8878910541534424,2
822,13.167911529541016,0.38062718510627747,19.933794021606445,-0.6612175107002258,-0.8179976344108582,2.032594680786133,2
823,-4.950189590454102,-29.29463768005371,22.687664031982422,-0.8316286206245422,-0.7153320908546448,2.256071090698242,2
824,-13.995736122131348,-46.09788131713867,26.78889274597168,-0.3221313953399658,-0.776092529296875,2.4010541439056396,2
825,-14.49409008026123,-55.786224365234375,29.785587310791016,-0.2732760012149811,-0.9550312757492065,2.742764949798584,2
826,-2.783982992172241,-55.39082717895508,30.205387115478516,0.4846065938472748,-1.1476359367370605,2.9862537384033203,2
827,19.419992446899414,-51.20643615722656,31.837379455566406,0.8646601438522339,-1.2776494026184082,3.3336007595062256,2
828,41.60856628417969,-34.467437744140625,32.93622970581055,1.5997157096862793,-0.8343586325645447,3.623723030090332,2
829,59.56718826293945,-17.684114456176758,32.71471405029297,2.0838441848754883,-0.2096315324306488,3.9363155364990234,2
830,61.35542297363281,11.721220016479492,33.20735168457031,2.0288124084472656,0.11805856227874756,4.319253921508789,2
831,51.249977111816406,45.04050827026367,30.303613662719727,1.787420392036438,0.7288609147071838,4.681511402130127,2
832,41.43955993652344,69.99624633789062,25.750919342041016,1.151310920715332,1.1988041400909424,5.042340278625488,2
833,31.5084228515625,81.21533203125,21.73240852355957,0.2418186515569687,1.714759111404419,5.347007751464844,2
834,24.20370101928711,79.47026824951172,19.803499221801758,-0.5529326796531677,1.6764041185379028,5.625725746154785,2
835,17.960145950317383,70.89019775390625,16.663150787353516,-1.5368040800094604,1.9483447074890137,5.857275485992432,2
836,14.940611839294434,52.87606430053711,14.162747383117676,-2.1283228397369385,2.060497760772705,6.057622909545898,2
837,18.366806030273438,29.557708740234375,10.369393348693848,-2.767979383468628,2.310661554336548,6.228617191314697,2
838,22.142221450805664,2.030216932296753,5.475346565246582,-2.9177494049072266,2.6729238033294678,6.379789352416992,2
839,21.613323211669922,-30.804555892944336,1.1274456977844238,-2.832256555557251,2.841488838195801,6.463929176330566,2
840,17.39996910095215,-58.62178421020508,-2.7812657356262207,-2.3986690044403076,3.0570015907287598,6.505598068237305,2
841,5.093169212341309,-78.1872329711914,-6.055487155914307,-1.553686261177063,3.0238447189331055,6.4773783683776855,2
842,-11.416285514831543,-81.95763397216797,-8.211275100708008,-0.6266460418701172,3.0807015895843506,6.4231343269348145,2
843,-20.740955352783203,-76.12300109863281,-7.81884765625,0.035287074744701385,2.8274383544921875,6.224350929260254,2
844,-27.595970153808594,-53.1518669128418,-6.301922798156738,0.6605520248413086,2.571641683578491,6.051607131958008,2
845,-31.90635871887207,-31.26656723022461,-6.71198844909668,1.3702094554901123,2.3563013076782227,6.02121114730835,2
846,-28.291698455810547,-8.247905731201172,-8.657382011413574,1.4107403755187988,1.9691214561462402,5.82996940612793,2
847,-20.172182083129883,13.74683666229248,-9.213239669799805,1.5304358005523682,1.8060065507888794,5.757591247558594,2
848,-12.252114295959473,26.070781707763672,-9.515140533447266,1.3442018032073975,1.547635555267334,5.641097545623779,2
849,-9.905837059020996,36.518463134765625,-11.297204971313477,1.1102463006973267,1.4546126127243042,5.560755252838135,2
850,-5.2222466468811035,40.083866119384766,-12.923256874084473,0.5950145721435547,1.351642370223999,5.398725986480713,2
851,2.89841890335083,43.794281005859375,-14.61097240447998,0.018272532150149345,1.332023024559021,5.219336986541748,2
852,12.642986297607422,32.31761932373047,-16.071882247924805,-0.2121015340089798,1.5218935012817383,5.162395477294922,2
853,18.618881225585938,19.42620086669922,-17.36068344116211,-0.5610674619674683,1.7665826082229614,5.007945537567139,2
854,15.556657791137695,-0.6304749846458435,-19.49075698852539,-0.6433064937591553,1.9683195352554321,4.886444568634033,2
855,6.9087677001953125,-24.79071807861328,-21.02181053161621,-0.5442999601364136,2.1621639728546143,4.74200963973999,2
856,-2.155071496963501,-44.354366302490234,-21.49679183959961,-0.3088776171207428,2.2156713008880615,4.534762859344482,2
857,-11.53392219543457,-46.7464714050293,-20.895923614501953,0.35775822401046753,2.1128878593444824,4.4025983810424805,2
858,-20.703258514404297,-46.22918701171875,-22.714677810668945,0.6853454113006592,2.229978084564209,4.126130104064941,2
859,-29.589290618896484,-34.05508041381836,-23.416440963745117,1.070285439491272,1.8181887865066528,3.8676047325134277,2
860,-37.603912353515625,-5.421663284301758,-25.43462371826172,1.3331999778747559,1.6395524740219116,3.5839741230010986,2
861,-44.11022186279297,22.463064193725586,-25.754507064819336,1.3713207244873047,1.0489979982376099,3.3234081268310547,2
862,-54.14628219604492,39.52045822143555,-24.887767791748047,1.093108892440796,0.9764176607131958,3.012011766433716,2
863,-62.53901290893555,47.74946212768555,-21.74325942993164,0.581675112247467,0.24167630076408386,2.7347817420959473,2
864,-69.17223358154297,34.55571746826172,-16.47562599182129,0.285767138004303,-0.2702038288116455,2.569046974182129,2
865,-69.5040283203125,7.504254341125488,-10.461590766906738,0.04350665956735611,-1.0659250020980835,2.444814682006836,2
866,-57.2209358215332,-13.907498359680176,-5.838280200958252,-0.02636617049574852,-1.573442816734314,2.32906436920166,2
867,-36.610347747802734,-29.17807388305664,0.9120142459869385,0.21386995911598206,-2.280853033065796,2.30948543548584,2
868,-7.737798690795898,-42.26852035522461,9.040993690490723,0.6885493993759155,-2.594465732574463,2.3525197505950928,2
869,25.38712501525879,-41.707862854003906,15.9627685546875,1.0585874319076538,-2.5641093254089355,2.438068151473999,2
870,49.72684860229492,-21.54622459411621,21.255990982055664,1.590067982673645,-2.140073776245117,2.5915110111236572,2
871,60.047733306884766,-3.495243787765503,25.205623626708984,1.3495769500732422,-1.7532227039337158,2.816380023956299,2
872,55.737030029296875,18.096162796020508,27.417757034301758,1.3680858612060547,-1.126801609992981,3.057521104812622,2
873,42.66773986816406,38.7993049621582,28.34994125366211,1.0622467994689941,-0.6100993752479553,3.3437061309814453,2
874,25.365928649902344,50.612144470214844,27.24244499206543,0.47977983951568604,-0.38726139068603516,3.672013759613037,2
875,4.292282581329346,57.807464599609375,26.097200393676758,0.005603916011750698,-0.08551725000143051,3.9367902278900146,2
876,-13.156620979309082,54.214332580566406,23.78725814819336,-0.7140690684318542,-0.09763071686029434,4.2209086418151855,2
877,-22.471630096435547,42.671443939208984,20.878963470458984,-1.3379625082015991,-0.3297177851200104,4.478689193725586,2
878,-24.476163864135742,19.265865325927734,16.68263053894043,-1.8039404153823853,-0.5361289978027344,4.6921844482421875,2
879,-10.826617240905762,0.9180249571800232,8.657571792602539,-1.9363399744033813,-0.7816830277442932,4.851776599884033,2
880,12.335332870483398,-13.988837242126465,-0.2879219353199005,-1.7897801399230957,-0.7844926714897156,4.938994407653809,2
881,28.2958927154541,-32.971805572509766,-8.337882041931152,-1.5751678943634033,-0.6792537569999695,4.943060874938965,2
882,37.76557922363281,-35.286197662353516,-13.33480167388916,-1.0827243328094482,-0.1899305284023285,4.869747161865234,2
883,36.940860748291016,-26.18011474609375,-18.100391387939453,-0.6144537329673767,0.17548337578773499,4.730017185211182,2
884,24.017744064331055,-22.24359130859375,-22.03285789489746,-0.3878737688064575,0.6193943619728088,4.572017192840576,2
885,-1.025803804397583,-13.100253105163574,-25.65473747253418,-0.255328506231308,0.739463210105896,4.350809574127197,2
886,-28.55094337463379,1.592917799949646,-30.439546585083008,-0.1424179971218109,0.6109455823898315,4.0930867195129395,2
887,-43.75339889526367,14.848711013793945,-29.036943435668945,-0.3845263421535492,0.4534832239151001,3.8211209774017334,2
888,-45.019142150878906,22.872272491455078,-26.060575485229492,-0.46163734793663025,-0.18656061589717865,3.507014036178589,2
889,-38.34721374511719,28.885332107543945,-23.8798770904541,-0.8077843189239502,-0.46148234605789185,3.2668511867523193,2
890,-29.071197509765625,24.741100311279297,-19.5731258392334,-1.0521754026412964,-0.7715893983840942,3.0305089950561523,2
891,-20.39977264404297,14.3840913772583,-14.088595390319824,-1.3514975309371948,-1.0097758769989014,2.8348536491394043,2
892,-11.545058250427246,-2.557499408721924,-8.641620635986328,-1.390676736831665,-1.2603614330291748,2.66633677482605,2
893,-1.2017619609832764,-27.67533302307129,-4.008986949920654,-1.4085122346878052,-1.2872029542922974,2.586883306503296,2
894,9.897830963134766,-47.630313873291016,0.4718676209449768,-0.8381171226501465,-1.283681035041809,2.513629913330078,2
895,20.667003631591797,-60.63725280761719,4.342306613922119,-0.7617627382278442,-1.2384977340698242,2.5607926845550537,2
896,26.664653778076172,-65.19632720947266,8.047296524047852,0.0724511668086052,-1.1147593259811401,2.5593700408935547,2
897,27.68163299560547,-59.3591194152832,11.911815643310547,0.4333181083202362,-0.8351388573646545,2.691729784011841,2
898,25.03546714782715,-49.648704528808594,12.559586524963379,1.2048795223236084,-0.48256543278694153,2.794661283493042,2
899,22.036636352539062,-34.702293395996094,11.516413688659668,1.5628019571304321,-0.3163035809993744,2.938220739364624,2
900,19.89598274230957,-10.574386596679688,9.689038276672363,1.935198187828064,-0.04246658459305763,3.0575058460235596,2
901,19.10657501220703,7.392829895019531,7.420045852661133,2.0431599617004395,0.06184886768460274,3.1627838611602783,2
902,16.17768096923828,23.496320724487305,3.7091526985168457,1.982824683189392,0.2754628658294678,3.240206003189087,2
903,16.336965560913086,32.32246017456055,-0.9877691864967346,1.6999038457870483,0.3951822519302368,3.3017570972442627,2
904,16.872318267822266,29.781997680664062,-3.6815598011016846,1.3207619190216064,0.6488456130027771,3.299487352371216,2
905,19.74368667602539,22.614194869995117,-6.707052230834961,0.9861839413642883,0.8495118021965027,3.268216609954834,2
906,20.695650100708008,23.48066520690918,-9.719544410705566,0.7239462733268738,1.0227769613265991,3.2136011123657227,2
907,17.24236297607422,20.96123695373535,-13.47739028930664,0.48870956897735596,1.2629972696304321,3.1237661838531494,2
908,7.656905174255371,5.588310241699219,-15.635263442993164,0.34490758180618286,1.208763837814331,3.0272555351257324,2
909,-7.006228923797607,-4.086479187011719,-17.92861557006836,0.3332952558994293,1.1997426748275757,2.8871428966522217,2
910,-24.1995849609375,-6.240328788757324,-20.198772430419922,0.44866710901260376,1.0202831029891968,2.728855609893799,2
911,-37.77950668334961,-13.089548110961914,-21.906639099121094,0.554932177066803,0.7390366196632385,2.5403008460998535,2
912,-43.985260009765625,-22.923126220703125,-22.665454864501953,0.6310860514640808,0.41510576009750366,2.323152542114258,2
913,-43.73820877075195,-30.908226013183594,-22.433509826660156,0.8562994599342346,-0.12755995988845825,2.1125664710998535,2
914,-40.98843002319336,-29.135459899902344,-21.8370418548584,1.16609787940979,-0.23742200434207916,1.8479169607162476,2
915,-38.54835891723633,-29.17249870300293,-20.93877410888672,1.474395751953125,-0.8158372640609741,1.6550939083099365,2
916,-38.46326446533203,-28.61334991455078,-19.00458335876465,1.7071852684020996,-1.1456348896026611,1.4423190355300903,2
917,-32.09512710571289,-24.394901275634766,-16.12076187133789,1.9154601097106934,-1.6421042680740356,1.2747429609298706,2
918,-19.975370407104492,-26.079153060913086,-13.202771186828613,2.2363526821136475,-1.736542820930481,1.0695528984069824,2
919,-7.202744007110596,-22.073246002197266,-8.175769805908203,2.5213568210601807,-2.0000603199005127,0.9490407705307007,2
920,7.805076599121094,-18.31062889099121,-1.7095363140106201,2.6877405643463135,-2.0439891815185547,0.8552939295768738,2
921,22.875408172607422,-10.2004976272583,3.094759225845337,3.04481840133667,-1.9146288633346558,0.7967135906219482,2
922,32.32644271850586,-8.591753005981445,9.235564231872559,2.830976963043213,-1.6425915956497192,0.8410619497299194,2
923,34.52187728881836,-2.430161714553833,14.220545768737793,2.9794132709503174,-1.395565390586853,0.9337471127510071,2
924,30.871706008911133,3.6602301597595215,18.221879959106445,3.0283331871032715,-0.9948731064796448,1.0450690984725952,2
925,29.145814895629883,18.24724769592285,20.759634017944336,2.8365273475646973,-0.7134596109390259,1.2535734176635742,2
926,20.49880599975586,24.642173767089844,20.371767044067383,2.687469720840454,-0.7069705128669739,1.5609275102615356,2
927,9.747902870178223,20.94920539855957,20.580760955810547,2.4030022621154785,-0.52962327003479,1.7850676774978638,2
928,2.005927085876465,13.738687515258789,20.751829147338867,2.196074962615967,-0.4290276765823364,1.9949625730514526,2
929,-7.374838352203369,6.063436508178711,22.251468658447266,2.1044349670410156,-0.4079095423221588,2.196129083633423,2
930,-11.984284400939941,-1.9425584077835083,24.554611206054688,1.9756274223327637,-0.5100710988044739,2.4374959468841553,2
931,-8.465058326721191,-6.725016117095947,26.6816463470459,1.9530651569366455,-0.6541932821273804,2.688108205795288,2
932,3.7361414432525635,-6.8233418464660645,28.946645736694336,2.068430185317993,-0.7062458992004395,2.916973829269409,2
933,21.996427536010742,-5.4841742515563965,31.218910217285156,2.1205954551696777,-0.6151926517486572,3.1639952659606934,2
934,42.931949615478516,-2.32424259185791,33.55425262451172,2.3397693634033203,-0.5081948637962341,3.4725120067596436,2
935,56.02920913696289,7.544712066650391,34.47783279418945,2.324831008911133,-0.033776719123125076,3.765681505203247,2
936,60.39715576171875,13.883213996887207,33.52162551879883,2.119976758956909,0.40536555647850037,4.164936542510986,2
937,50.716407775878906,15.280540466308594,30.16779899597168,1.9782572984695435,1.1439679861068726,4.447000026702881,2
938,36.96174240112305,17.74894905090332,26.93701171875,1.79517662525177,1.4302231073379517,4.859777450561523,2
939,21.385265350341797,20.011075973510742,21.651342391967773,1.657505750656128,1.8614742755889893,5.12209939956665,2
940,7.248627185821533,15.50192642211914,15.905791282653809,1.4473909139633179,2.1108522415161133,5.35124397277832,2
941,-4.701171398162842,5.127991676330566,10.171584129333496,1.2546885013580322,2.206467628479004,5.5262837409973145,2
942,-12.938802719116211,1.9623702764511108,4.6273274421691895,1.2485616207122803,2.125612735748291,5.661962032318115,2
943,-14.222684860229492,-1.3536137342453003,-0.16517288982868195,1.3065317869186401,1.9427077770233154,5.745095729827881,2
944,-9.408793449401855,-2.820739984512329,-3.8805601596832275,1.2559913396835327,1.76362943649292,5.758825302124023,2
945,-0.7571434378623962,4.992046356201172,-7.169349193572998,1.2515732049942017,1.8188427686691284,5.672211170196533,2
946,10.720759391784668,13.25913143157959,-10.4381742477417,1.1341979503631592,1.7987381219863892,5.5951924324035645,2
947,15.859771728515625,13.53287124633789,-13.510668754577637,1.0037908554077148,1.925879955291748,5.487977981567383,2
948,14.575285911560059,16.21944808959961,-16.997682571411133,0.8285106420516968,2.1765077114105225,5.333584308624268,2
949,9.166261672973633,14.216156959533691,-20.181602478027344,0.6456912159919739,2.386981248855591,5.159438133239746,2
950,-0.11377933621406555,11.37922477722168,-22.129337310791016,0.5554459691047668,2.4937663078308105,4.987682342529297,2
951,-13.765081405639648,0.07631109654903412,-23.543148040771484,0.4944570064544678,2.427950620651245,4.809906005859375,2
952,-28.28770637512207,-4.261451721191406,-24.783414840698242,0.5568674802780151,2.1501197814941406,4.639399528503418,2
953,-35.79982376098633,-7.53709077835083,-26.67108726501465,0.6207130551338196,1.958692193031311,4.396674156188965,2
954,-34.460880279541016,-5.446449279785156,-27.81060218811035,0.7013612985610962,1.5252066850662231,4.151163578033447,2
955,-22.58677101135254,0.5910789966583252,-29.34063720703125,0.7361716628074646,1.2326679229736328,3.8586113452911377,2
956,-7.099511623382568,-0.8380324244499207,-29.964744567871094,0.7937203645706177,0.9909103512763977,3.584129571914673,2
957,8.517571449279785,-8.669038772583008,-30.152904510498047,0.7487927675247192,0.9314219355583191,3.2696025371551514,2
958,18.994291305541992,-8.215645790100098,-30.081809997558594,0.9298002123832703,1.096851110458374,2.9905364513397217,2
959,20.479150772094727,-2.0468039512634277,-30.80255699157715,1.0058170557022095,1.3887388706207275,2.6768908500671387,2
960,13.011873245239258,4.13637638092041,-32.254520416259766,0.9158984422683716,1.6588547229766846,2.3302695751190186,2
961,-2.199092388153076,23.210594177246094,-33.39617156982422,0.8572274446487427,1.7685904502868652,2.009935140609741,2
962,-18.212482452392578,39.654502868652344,-34.27744674682617,0.5906152725219727,1.6349374055862427,1.6794137954711914,2
963,-34.15545654296875,54.68765640258789,-33.35921096801758,0.05976847931742668,1.2516928911209106,1.3173567056655884,2
964,-43.50965118408203,57.975337982177734,-32.350990295410156,-0.695945680141449,1.0103217363357544,0.9244381785392761,2
965,-45.86482620239258,46.61825942993164,-30.461223602294922,-0.9275968670845032,0.698526918888092,0.7130986452102661,2
966,-41.82273864746094,19.711082458496094,-28.6921329498291,-1.4981985092163086,0.15905630588531494,0.3856753706932068,2
967,-40.8331413269043,-0.10253916680812836,-27.25822639465332,-1.6176018714904785,-0.3403613865375519,0.1257970929145813,2
968,-40.0328483581543,-20.458721160888672,-26.250629425048828,-1.4534730911254883,-0.6695554852485657,-0.09236140549182892,2
969,-34.27956008911133,-45.265018463134766,-25.24617576599121,-1.0908805131912231,-0.893387496471405,-0.2853435277938843,2
970,-28.27643585205078,-60.04603576660156,-24.108091354370117,-0.5427636504173279,-1.3156776428222656,-0.5214481353759766,2
971,-21.251127243041992,-60.80339050292969,-20.51736068725586,-0.2496960461139679,-1.5482927560806274,-0.7715632319450378,2
972,-15.95644760131836,-50.29619598388672,-15.670866012573242,0.5825196504592896,-1.7583410739898682,-0.9429760575294495,2
973,-12.733757019042969,-30.578157424926758,-9.158534049987793,1.121783971786499,-1.8879863023757935,-1.082175850868225,2
974,-12.092836380004883,1.2296388149261475,-2.331646680831909,1.3366522789001465,-2.1166131496429443,-1.184131383895874,2
975,-9.935479164123535,34.42988204956055,6.173427581787109,1.2762494087219238,-2.1744954586029053,-1.2027355432510376,2
976,-7.653958320617676,50.718544006347656,13.315032958984375,0.7833572626113892,-2.3461639881134033,-1.154744267463684,2
977,-8.53795051574707,49.80280303955078,17.37645721435547,0.24952581524848938,-2.488661289215088,-1.0548484325408936,2
978,-6.973047256469727,35.771358489990234,20.483840942382812,-0.37460315227508545,-2.5492448806762695,-0.8885913491249084,2
979,-3.4780473709106445,17.597156524658203,22.651016235351562,-0.6184482574462891,-2.6542539596557617,-0.7448856830596924,2
980,6.843105792999268,6.684708595275879,23.923385620117188,-0.8316451907157898,-2.649305582046509,-0.5270052552223206,2
981,23.528362274169922,-6.681021690368652,23.901119232177734,-0.8324699401855469,-2.453702449798584,-0.2968081831932068,2
982,37.49420166015625,-14.643327713012695,23.659130096435547,-0.7353756427764893,-2.228419542312622,-0.07467816770076752,2
