,timestamp_start,timestamp_end,acc.x,acc.y,acc.z,gyro.x,gyro.y,gyro.z,mag.x,mag.y,mag.z,stabilizer.pitch,stabilizer.roll,stabilizer.yaw
0,118399,118401,0.009409368969500065,-0.17281025648117065,1.045601487159729,-74.07382202148438,48.114349365234375,-4.364627838134766,-0.6794660091400146,1.6274186372756958,0.3404829800128937,1.8715649843215942,1.1095143556594849,2.4513747692108154
1,118409,118411,0.06920289248228073,-0.1746554672718048,0.9418008327484131,-92.994873046875,57.129791259765625,1.3154162168502808,-0.676466166973114,1.6304184198379517,0.3494825065135956,1.3464657068252563,0.6272786259651184,2.322117328643799
2,118419,118421,0.035201892256736755,-0.11533427983522415,1.001011848449707,-94.77179718017578,58.15696716308594,6.225180149078369,-0.6779661178588867,1.6439177989959717,0.33598318696022034,0.8262711763381958,-0.7695308923721313,2.5019118785858154
3,118429,118431,0.022080089896917343,-0.12720835208892822,1.0257407426834106,-74.8402099609375,42.99049758911133,5.401743412017822,-0.676466166973114,1.648417592048645,0.33448326587677,0.30713921785354614,-1.4799331426620483,2.4763283729553223
4,118439,118441,0.028153860941529274,-0.1455172598361969,1.0641099214553833,-24.186370849609375,11.65226936340332,7.980769634246826,-0.6674666404724121,1.6214189529418945,0.3224838674068451,-0.23840342462062836,-2.198406219482422,2.4850687980651855
5,118449,118451,0.008762037381529808,-0.14390714466571808,1.046496868133545,27.023393630981445,-22.870027542114258,8.96585750579834,-0.6779661178588867,1.6169191598892212,0.32998350262641907,-0.2932398319244385,-2.413783550262451,2.521491289138794
6,118459,118461,0.029295625165104866,-0.0033980016596615314,0.9955834746360779,60.5924186706543,-60.58441925048828,7.536951065063477,-0.6749662160873413,1.6169191598892212,0.341982901096344,-0.11797849088907242,-2.1717844009399414,2.598013401031494
7,118469,118471,0.0021489288192242384,0.09112651646137238,1.0359216928482056,82.03550720214844,-80.62751770019531,8.022359848022461,-0.6629668474197388,1.6169191598892212,0.3509824573993683,0.5578075051307678,-1.4696283340454102,2.6600372791290283
8,118479,118481,0.019582228735089302,-0.050245847553014755,1.0114904642105103,101.75385284423828,-77.41620635986328,9.901322364807129,-0.6719663739204407,1.61091947555542,0.3599819839000702,1.2423404455184937,-0.6939018368721008,2.759798288345337
9,118489,118491,0.016399472951889038,-0.19595740735530853,0.9986351728439331,97.32884216308594,-68.32669830322266,8.488785743713379,-0.6704664826393127,1.6004199981689453,0.34648266434669495,2.1496098041534424,0.48551878333091736,2.801903009414673
10,118499,118501,0.0002679874305613339,-0.1437090039253235,0.9091851711273193,67.93225860595703,-48.98657989501953,2.4878857135772705,-0.6509674191474915,1.5869206190109253,0.36598169803619385,2.712228775024414,1.1731619834899902,2.9515411853790283
11,118509,118511,-0.10464993119239807,-0.2664678394794464,0.9981104731559753,24.609695434570312,-26.43242645263672,-6.435447692871094,-0.6434678435325623,1.5554221868515015,0.3434828221797943,3.1949098110198975,1.874671220779419,2.9909298419952393
12,118519,118521,-0.035653140395879745,-0.09691330790519714,0.9543895721435547,-26.906810760498047,-0.40903738141059875,-12.912419319152832,-0.6539672613143921,1.5869206190109253,0.32998350262641907,3.361402988433838,2.248232841491699,2.9205493927001953
13,118529,118531,-0.05567136034369469,-0.11470935493707657,1.0233087539672852,-81.68048858642578,26.428796768188477,-14.395482063293457,-0.6719663739204407,1.6019198894500732,0.32698363065719604,3.419384717941284,1.7765405178070068,2.903843402862549
14,118539,118541,-0.02014622837305069,0.024420343339443207,0.9255947470664978,-96.25079345703125,52.479736328125,-11.626235961914062,-0.66896653175354,1.6169191598892212,0.3599819839000702,3.021423578262329,1.0919033288955688,2.7476894855499268
15,118549,118551,0.007951471954584122,0.08337374031543732,0.9911459684371948,-71.81181335449219,72.5654525756836,-5.443053245544434,-0.6569671630859375,1.6259186267852783,0.3509824573993683,2.7575788497924805,0.32248303294181824,2.5921108722686768
16,118559,118561,0.008959759026765823,-0.09124401956796646,1.0084643363952637,-27.777069091796875,87.33824157714844,-0.5370888113975525,-0.6734663248062134,1.6244187355041504,0.3494825065135956,1.7409542798995972,-0.5395385026931763,2.5333778858184814
17,118569,118571,-0.07052430510520935,-0.09523767977952957,1.0843037366867065,5.444832801818848,90.3748550415039,1.4447112083435059,-0.6869656443595886,1.6289185285568237,0.3539822995662689,1.2078696489334106,-0.9585651159286499,2.5514628887176514
18,118579,118581,-0.039980482310056686,-0.0901733934879303,1.0389033555984497,23.595327377319336,67.20468139648438,2.9574763774871826,-0.6854656934738159,1.5974200963974,0.3404829800128937,0.10926370322704315,-0.8653223514556885,2.5048439502716064
19,118589,118591,-0.004513471852988005,-0.11616548895835876,0.9749314785003662,29.342931747436523,33.041019439697266,3.8579719066619873,-0.6824658513069153,1.5914204120635986,0.3524823784828186,-0.49179258942604065,-0.7511616945266724,2.5510566234588623
20,118599,118601,0.005713087972253561,-0.11561793833971024,0.9784907102584839,21.949077606201172,-1.0899333953857422,4.876218318939209,-0.6659666895866394,1.5749212503433228,0.341982901096344,-0.8953022956848145,-0.28393876552581787,2.5431482791900635
21,118609,118611,0.013939385302364826,0.010839437134563923,1.011446475982666,7.565221786499023,-33.57575225830078,5.290274620056152,-0.6704664826393127,1.5854207277297974,0.3404829800128937,-0.6678855419158936,-0.15470105409622192,2.6079607009887695
22,118619,118621,-0.007233100011944771,-0.1265634447336197,1.0220633745193481,-0.4186801314353943,-51.90293502807617,4.723906993865967,-0.6749662160873413,1.5869206190109253,0.33598318696022034,-0.34280839562416077,-0.08565212041139603,2.664379596710205
23,118629,118631,-0.04777895659208298,-0.2523558437824249,0.943368136882782,-1.5366578102111816,-56.09950637817383,4.5486345291137695,-0.6539672613143921,1.5869206190109253,0.34798258543014526,0.04583579674363136,-0.07278240472078323,2.710758686065674
24,118639,118641,-0.03213787451386452,-0.2783754765987396,0.9371235966682434,4.6728973388671875,-61.443328857421875,1.0468941926956177,-0.6599670052528381,1.5749212503433228,0.34498274326324463,0.5381166338920593,-0.07034601271152496,2.7524147033691406
25,118649,118651,-0.003599482588469982,-0.14390824735164642,1.0083669424057007,6.383105278015137,-60.26561737060547,-4.123228073120117,-0.6494675278663635,1.5914204120635986,0.3494825065135956,1.2479583024978638,0.0809117779135704,2.756700038909912
26,118659,118661,0.01191212423145771,-0.05364151671528816,0.9638651013374329,13.283661842346191,-40.722381591796875,-8.323237419128418,-0.6569671630859375,1.595920205116272,0.33898305892944336,1.576072096824646,0.015469498932361603,2.7455241680145264
27,118669,118671,-0.05001620948314667,0.009460934437811375,0.9916303157806396,17.15907859802246,-8.06623363494873,-13.341442108154297,-0.6554672122001648,1.5734213590621948,0.3434828221797943,1.9561009407043457,0.2598026990890503,2.6563496589660645
28,118679,118681,-0.011575483717024326,-0.023367108777165413,1.1164143085479736,21.586820602416992,25.859172821044922,-16.99595832824707,-0.66896653175354,1.5869206190109253,0.34498274326324463,2.078446626663208,0.48509666323661804,2.5269265174865723
29,118689,118691,0.053735896944999695,-0.07368850708007812,1.021096110343933,23.686925888061523,56.14284896850586,-17.769695281982422,-0.676466166973114,1.6004199981689453,0.3434828221797943,1.8012573719024658,0.5710902214050293,2.3824198246002197
30,118699,118701,0.017625175416469574,-0.06650219112634659,0.9041249752044678,18.467952728271484,75.95709228515625,-14.06768798828125,-0.6854656934738159,1.6094194650650024,0.3494825065135956,1.2751870155334473,0.9665213227272034,2.187852144241333
31,118709,118711,-0.037612948566675186,0.039296820759773254,0.9555066227912903,8.313507080078125,79.55841064453125,-10.789616584777832,-0.6944652795791626,1.6034197807312012,0.3494825065135956,0.24211682379245758,1.059586763381958,2.0649802684783936
32,118719,118721,0.01518749538809061,0.033985260874032974,1.0262906551361084,-0.3644930124282837,64.36270141601562,-9.839580535888672,-0.6779661178588867,1.595920205116272,0.35698214173316956,-0.007822073996067047,1.2032556533813477,1.9801636934280396
33,118729,118731,0.07174573838710785,-0.05192863568663597,1.0686811208724976,-3.404860734939575,30.058767318725586,-9.771471977233887,-0.6779661178588867,1.595920205116272,0.35698214173316956,-0.7890833020210266,1.205812692642212,1.8931398391723633
34,118739,118741,0.01509979646652937,-0.04203087463974953,1.0147844552993774,-6.016388416290283,-11.551980018615723,-10.95373249053955,-0.6779661178588867,1.595920205116272,0.35698214173316956,-1.177273154258728,1.154660940170288,1.8021656274795532
35,118749,118751,-0.053368791937828064,-0.14962896704673767,0.9611063003540039,-4.476627349853516,-37.00624084472656,-12.575997352600098,-0.6779661178588867,1.595920205116272,0.35698214173316956,-1.0615391731262207,1.0125033855438232,1.7039999961853027
36,118759,118761,-0.009637010283768177,-0.09403181076049805,1.0497950315475464,-6.015788555145264,-54.184043884277344,-16.750587463378906,-0.6659666895866394,1.5749212503433228,0.33598318696022034,-0.533256471157074,1.0050909519195557,1.5954840183258057
37,118769,118771,0.01308261975646019,-0.04537937790155411,1.0424515008926392,-6.865843772888184,-58.94467544555664,-18.46224594116211,-0.6584670543670654,1.5854207277297974,0.34648266434669495,-0.20461505651474,0.8457630276679993,1.410833477973938
38,118779,118781,0.008906451985239983,-0.04402608796954155,1.027809977531433,-9.560383796691895,-52.80238723754883,-13.675822257995605,-0.6584670543670654,1.5554221868515015,0.3434828221797943,0.6042264699935913,0.7440559267997742,1.240839958190918
39,118789,118791,-0.026779012754559517,-0.10049855709075928,0.955734372138977,-15.085419654846191,-47.6286735534668,-11.2354736328125,-0.6629668474197388,1.565921664237976,0.33598318696022034,0.7603940367698669,0.593913733959198,1.0504480600357056
40,118799,118801,0.0032172370702028275,-0.08902476727962494,0.9552398920059204,-19.065290451049805,-35.72277069091797,-10.050728797912598,-0.6449677348136902,1.5749212503433228,0.33898305892944336,1.390936017036438,0.36628440022468567,0.9470502734184265
41,118809,118811,-0.018332751467823982,-0.06246466189622879,1.0032107830047607,-10.991939544677734,-8.664706230163574,-7.023301601409912,-0.6374680995941162,1.5584220886230469,0.3494825065135956,1.5918508768081665,0.18141309916973114,0.8259156942367554
42,118819,118821,-0.02161736972630024,-0.05785980075597763,0.9782703518867493,-5.406630992889404,24.79523468017578,-2.571690320968628,-0.6419678926467896,1.5719213485717773,0.341982901096344,1.6947355270385742,0.020996466279029846,0.7497012615203857
43,118829,118831,0.015104916878044605,-0.06770585477352142,0.9890696406364441,-3.681671619415283,44.90073776245117,4.205368995666504,-0.6509674191474915,1.5779210329055786,0.341982901096344,1.3029459714889526,-0.0421055443584919,0.7004364132881165
44,118839,118841,0.015912529081106186,-0.10714158415794373,0.9761776924133301,1.8781909942626953,58.10803985595703,8.951315879821777,-0.6524673700332642,1.5884205102920532,0.3404829800128937,0.8752092123031616,-0.06486892700195312,0.731073260307312
45,118849,118851,-0.058376461267471313,-0.1262047439813614,0.9979159235954285,15.283441543579102,59.164039611816406,8.298503875732422,-0.6509674191474915,1.5839207172393799,0.33898305892944336,0.12349297851324081,0.004964107647538185,0.7960095405578613
46,118859,118861,-0.08171955496072769,-0.16935984790325165,1.0117182731628418,30.149566650390625,35.27225112915039,2.4348034858703613,-0.6614668965339661,1.5854207277297974,0.3314834237098694,-0.3393670320510864,0.07618103921413422,0.8897448182106018
47,118869,118871,-0.013368714600801468,-0.07380279898643494,1.0502806901931763,38.11996078491211,3.0449378490448,-5.520773887634277,-0.6749662160873413,1.580920934677124,0.34798258543014526,-0.859367847442627,0.574177086353302,0.9250122308731079
48,118879,118881,0.04993874952197075,-0.014661269262433052,1.0332764387130737,39.07157516479492,-32.32307815551758,-10.798437118530273,-0.66896653175354,1.5689215660095215,0.33598318696022034,-0.7700930833816528,0.9093406200408936,0.8955287933349609
49,118889,118891,0.0006785675068385899,-0.06725313514471054,0.9836893081665039,30.657756805419922,-53.44561767578125,-13.69072151184082,-0.6554672122001648,1.5644217729568481,0.33748310804367065,-0.34930962324142456,1.1184055805206299,0.7973647713661194
50,118899,118901,0.0004929901333525777,-0.1307917684316635,0.9118010997772217,5.732690334320068,-50.04834747314453,-13.099554061889648,-0.6434678435325623,1.5644217729568481,0.3494825065135956,0.16091816127300262,1.3758257627487183,0.6498164534568787
51,118909,118911,-0.03445173799991608,-0.1289064735174179,0.8799688816070557,-19.74750328063965,-26.05754280090332,-9.52015209197998,-0.6539672613143921,1.5599219799041748,0.32998350262641907,0.4558423161506653,1.4409531354904175,0.48920828104019165
52,118919,118921,0.025111502036452293,-0.0012768940068781376,0.8884865045547485,-35.882816314697266,-1.1071661710739136,-4.767704010009766,-0.6614668965339661,1.5614218711853027,0.33448326587677,0.7039166688919067,1.1482428312301636,0.36876481771469116
53,118929,118931,0.0037555359303951263,-0.07338555157184601,0.9493709206581116,-43.00343704223633,12.634993553161621,0.4615454077720642,-0.6509674191474915,1.5719213485717773,0.3329833447933197,0.6953120827674866,0.8791173100471497,0.3101678490638733
54,118939,118941,-0.020671166479587555,-0.11771029233932495,0.968698263168335,-43.482845306396484,17.639183044433594,3.17916202545166,-0.6584670543670654,1.579421043395996,0.33448326587677,0.5416950583457947,0.3552854061126709,0.29832494258880615
55,118949,118951,-0.0006988405948504806,-0.20721182227134705,0.970607578754425,-41.21992492675781,15.070913314819336,-0.7138382196426392,-0.6434678435325623,1.5884205102920532,0.3404829800128937,0.3049951493740082,-0.040335480123758316,0.31865379214286804
56,118959,118961,0.01714722439646721,-0.2319074273109436,0.9615519642829895,-21.79730987548828,-1.4512760639190674,-5.786232948303223,-0.6419678926467896,1.580920934677124,0.32698363065719604,0.12414395064115524,-0.3059788644313812,0.32257500290870667
57,118969,118971,-0.014333494938910007,-0.10901971161365509,0.9755012392997742,14.332620620727539,-21.292003631591797,-5.533671855926514,-0.6599670052528381,1.5749212503433228,0.33898305892944336,0.30095091462135315,-0.5812292098999023,0.28869062662124634
58,118979,118981,-1.8451566575095057e-05,-0.09985357522964478,1.0302519798278809,46.4533805847168,-29.75319480895996,0.14026935398578644,-0.6599670052528381,1.5749212503433228,0.33898305892944336,0.6053640842437744,-0.32212984561920166,0.24624207615852356
59,118989,118991,0.0077472166158258915,-0.07202891260385513,1.0571669340133667,58.007938385009766,-27.088422775268555,5.501827239990234,-0.6509674191474915,1.580920934677124,0.3329833447933197,0.75325608253479,0.20314228534698486,0.23147138953208923
60,118999,119001,0.06251343339681625,-0.02590809017419815,0.9983413219451904,53.655399322509766,-19.808570861816406,7.244035243988037,-0.6569671630859375,1.5869206190109253,0.32998350262641907,0.9548428654670715,0.769408106803894,0.26978644728660583
61,119009,119011,-0.01832585595548153,-0.10125371068716049,0.9376035332679749,29.596336364746094,-11.919411659240723,6.164681434631348,-0.6509674191474915,1.5779210329055786,0.34498274326324463,1.3040966987609863,1.1741082668304443,0.3397758901119232
62,119019,119021,-0.06555087119340897,-0.1774367392063141,1.0234887599945068,-6.594809055328369,-5.540044784545898,4.187517166137695,-0.6524673700332642,1.5704214572906494,0.3404829800128937,1.515620231628418,1.2862743139266968,0.40532785654067993
63,119029,119031,0.024469276890158653,-0.15027208626270294,0.9860982298851013,-35.29072189331055,1.1971690654754639,2.7404911518096924,-0.6434678435325623,1.5614218711853027,0.33448326587677,1.4778324365615845,1.339525818824768,0.44254207611083984
64,119039,119041,0.04356103762984276,-0.0820830911397934,0.9461826682090759,-54.465545654296875,10.883767127990723,3.239142417907715,-0.6434678435325623,1.567421555519104,0.3254837095737457,1.5401663780212402,1.1844358444213867,0.47255739569664
65,119049,119051,0.008519059047102928,-0.053922563791275024,0.9681392312049866,-52.97901153564453,24.48563003540039,2.976055383682251,-0.6524673700332642,1.5764211416244507,0.3254837095737457,1.5725135803222656,0.4628807306289673,0.5209406614303589
66,119059,119061,-0.005587275139987469,0.00979076512157917,0.90607750415802,-35.07284164428711,28.968185424804688,-1.1389607191085815,-0.6509674191474915,1.5749212503433228,0.34498274326324463,1.1952553987503052,0.061529409140348434,0.5323839783668518
67,119069,119071,0.027947358787059784,-0.041797783225774765,0.8917263746261597,-12.567495346069336,21.654708862304688,-8.423822402954102,-0.6494675278663635,1.5854207277297974,0.33448326587677,0.9846984148025513,-0.4752833843231201,0.5457122921943665
68,119079,119081,0.05887017771601677,-0.03805528208613396,0.952396035194397,18.773038864135742,3.8619508743286133,-6.278625965118408,-0.6479675769805908,1.5719213485717773,0.3329833447933197,0.6699526906013489,-0.35541975498199463,0.449863076210022
69,119089,119091,0.018589073792099953,-0.09324268996715546,0.9683859348297119,53.50548553466797,-15.593960762023926,-4.535214424133301,-0.6644667387008667,1.5854207277297974,0.3404829800128937,0.6324788331985474,-0.1103745847940445,0.3744669556617737
70,119099,119101,0.024111729115247726,-0.11832410097122192,0.9512696266174316,78.44871520996094,-30.726917266845703,-5.228694438934326,-0.6614668965339661,1.582420825958252,0.3404829800128937,0.9750182032585144,0.49279844760894775,0.3279655873775482
71,119109,119111,-0.044782161712646484,-0.047533079981803894,0.9949620366096497,76.23013305664062,-33.48686218261719,-4.78672456741333,-0.6614668965339661,1.5854207277297974,0.34648266434669495,1.1113262176513672,1.1710689067840576,0.2745608687400818
72,119119,119121,0.056673165410757065,-0.010736706666648388,1.1223746538162231,56.55207824707031,-19.352310180664062,-1.7363812923431396,-0.6554672122001648,1.5884205102920532,0.34648266434669495,1.431955337524414,2.0139663219451904,0.21277740597724915
73,119129,119131,0.009244883432984352,-0.08466801047325134,0.9814255237579346,23.233917236328125,13.430901527404785,-1.065818190574646,-0.6539672613143921,1.5869206190109253,0.34798258543014526,1.6857435703277588,2.3730828762054443,0.19569547474384308
74,119139,119141,-0.05763089656829834,-0.2661544382572174,0.9932228922843933,-28.17565155029297,31.302574157714844,-2.8477935791015625,-0.6494675278663635,1.5734213590621948,0.3494825065135956,1.5358918905258179,2.684443950653076,0.18279381096363068
75,119149,119151,0.04066521301865578,-0.12644506990909576,0.8984434008598328,-76.57006072998047,29.831645965576172,-6.931913375854492,-0.6524673700332642,1.5764211416244507,0.35548222064971924,1.197261929512024,2.545835494995117,0.16599290072917938
76,119159,119161,0.03721614554524422,0.07546515017747879,0.865170419216156,-92.90800476074219,31.276103973388672,-7.26203727722168,-0.6584670543670654,1.582420825958252,0.3494825065135956,0.8103321194648743,1.4555609226226807,0.14323414862155914
77,119169,119171,-0.0836462527513504,-0.04263387992978096,0.980290412902832,-86.18785095214844,32.76988983154297,-3.985522747039795,-0.6584670543670654,1.6124193668365479,0.3494825065135956,0.5443570017814636,0.9477516412734985,0.05004098266363144
78,119179,119181,-0.002242123708128929,-0.08690417557954788,0.9827320575714111,-51.806514739990234,35.08134078979492,0.19379760324954987,-0.6704664826393127,1.6034197807312012,0.3434828221797943,0.4934401512145996,0.2989150285720825,0.0252364594489336
79,119189,119191,0.009787125512957573,-0.1814887523651123,1.0457684993743896,-24.244190216064453,26.140233993530273,0.4882822632789612,-0.6629668474197388,1.604919672012329,0.34498274326324463,0.08513586968183517,-0.322358101606369,0.017663821578025818
80,119199,119201,-0.008571319282054901,-0.1296115666627884,1.008520483970642,-7.29965353012085,6.976195335388184,2.8973846435546875,-0.6554672122001648,1.5974200963974,0.33448326587677,-0.21543265879154205,-0.650263249874115,0.019975075498223305
81,119209,119211,0.02080635167658329,-0.08691012114286423,0.9795573949813843,-6.902170658111572,-5.369701862335205,2.593174934387207,-0.6599670052528381,1.595920205116272,0.32998350262641907,-0.3288861811161041,-0.6701453924179077,0.04183864966034889
82,119219,119221,0.12563636898994446,-0.045187272131443024,0.9474669098854065,-17.726673126220703,-7.010735034942627,5.912343502044678,-0.6629668474197388,1.6079195737838745,0.341982901096344,-0.24829305708408356,-0.770602285861969,0.07389537245035172
83,119229,119231,0.0761304497718811,-0.044189855456352234,0.9364495873451233,-29.025596618652344,-6.351986885070801,11.022294044494629,-0.6719663739204407,1.5869206190109253,0.33598318696022034,-0.12338019907474518,-0.9694070816040039,0.12800568342208862
84,119239,119241,0.04844726249575615,-0.06612108647823334,0.9380844235420227,-35.271602630615234,-3.4682374000549316,16.039674758911133,-0.6659666895866394,1.6139192581176758,0.33898305892944336,0.0431700125336647,-1.1925418376922607,0.23287659883499146
85,119249,119251,0.05063236504793167,-0.08984248340129852,0.9446542859077454,-27.730798721313477,4.720864295959473,21.10773277282715,-0.6674666404724121,1.5974200963974,0.33748310804367065,-0.06450995802879333,-1.636245846748352,0.38116297125816345
86,119259,119261,0.03765859454870224,-0.04665049538016319,0.948275625705719,-13.867764472961426,8.074217796325684,25.36726951599121,-0.6599670052528381,1.6019198894500732,0.3239837884902954,-0.14281782507896423,-1.8059169054031372,0.5845482349395752
87,119269,119271,-0.003596468595787883,-0.08805077522993088,0.9458400011062622,7.311183929443359,8.657485961914062,28.588481903076172,-0.66896653175354,1.6079195737838745,0.32698363065719604,-0.1400434523820877,-2.0243916511535645,0.8216281533241272
88,119279,119281,0.013808174058794975,-0.10722169280052185,0.951973021030426,27.525848388671875,-2.0513391494750977,31.387968063354492,-0.6674666404724121,1.6184190511703491,0.3434828221797943,-0.2669393718242645,-1.9115344285964966,1.1024634838104248
89,119289,119291,0.06742946058511734,-0.04822889342904091,0.9372508525848389,45.6647834777832,-10.170177459716797,33.79619216918945,-0.6734663248062134,1.6244187355041504,0.3434828221797943,-0.2373962253332138,-1.6067008972167969,1.4082874059677124
90,119299,119301,0.053181059658527374,-0.01777391880750656,0.9200541973114014,44.68897247314453,-8.857162475585938,36.305728912353516,-0.6704664826393127,1.6184190511703491,0.33448326587677,-0.16951411962509155,-0.9884463548660278,1.7580323219299316
91,119309,119311,-0.010452399961650372,-0.0833568423986435,0.9389613270759583,34.69002914428711,-8.576309204101562,36.50981521606445,-0.683965802192688,1.6229188442230225,0.3509824573993683,0.03343362361192703,-0.8777762651443481,2.076850652694702
92,119319,119321,0.019367780536413193,-0.05761190876364708,0.9252462983131409,19.393512725830078,-7.863981246948242,33.71665954589844,-0.6779661178588867,1.6229188442230225,0.34798258543014526,0.14498382806777954,-0.47261834144592285,2.4402620792388916
93,119329,119331,-0.005563334096223116,-0.07927326112985611,0.9433245062828064,-0.016373632475733757,-6.717593193054199,29.098400115966797,-0.6824658513069153,1.6004199981689453,0.34648266434669495,0.252200186252594,-0.20230472087860107,2.780343770980835
94,119339,119341,-0.06229632347822189,-0.09615141898393631,1.0729269981384277,-17.32523536682129,-2.215454339981079,25.1556396484375,-0.6779661178588867,1.6139192581176758,0.3509824573993683,0.3194189965724945,-0.32710590958595276,3.064222812652588
95,119349,119351,-0.03557207062840462,-0.1721867471933365,1.0854324102401733,-22.543453216552734,-3.7178609371185303,22.019821166992188,-0.6794660091400146,1.6214189529418945,0.35548222064971924,0.40917086601257324,-0.619117796421051,3.301480293273926
96,119359,119361,-0.010747192427515984,-0.08492836356163025,1.0568536520004272,-21.641206741333008,-10.461654663085938,17.772844314575195,-0.6659666895866394,1.619918942451477,0.3509824573993683,0.5206491947174072,-0.8438879251480103,3.512742519378662
97,119369,119371,0.02363182045519352,-0.017215300351381302,1.0630676746368408,-17.295127868652344,-3.690730094909668,14.114755630493164,-0.6809659600257874,1.619918942451477,0.34498274326324463,0.5681503415107727,-1.0462145805358887,3.7040486335754395
98,119379,119381,0.029847094789147377,-0.1940520852804184,1.0234256982803345,-1.6370277404785156,6.8615827560424805,9.848663330078125,-0.6719663739204407,1.6139192581176758,0.341982901096344,0.7181586027145386,-1.297071933746338,3.8313708305358887
99,119389,119391,-0.003685588715597987,-0.07253727316856384,1.073642373085022,14.213944435119629,14.16202449798584,5.631258010864258,-0.6644667387008667,1.6244187355041504,0.3434828221797943,0.5544673800468445,-1.3021249771118164,3.9503591060638428
100,119399,119401,0.0010004622163251042,-0.03127302601933479,1.0038647651672363,29.952598571777344,16.079565048217773,-2.8139381408691406,-0.6794660091400146,1.6184190511703491,0.33748310804367065,0.28244468569755554,-1.2438256740570068,4.027424335479736
101,119409,119411,0.002387857995927334,-0.06478286534547806,1.0540422201156616,23.43058204650879,7.309517860412598,-10.991109848022461,-0.6869656443595886,1.619918942451477,0.34498274326324463,0.08761095255613327,-0.6962977051734924,4.027164459228516
102,119419,119421,-0.05581124871969223,-0.08233530074357986,1.071223497390747,7.413527965545654,-3.2402243614196777,-15.869606971740723,-0.6794660091400146,1.6064196825027466,0.3434828221797943,-0.03298056498169899,-0.41905632615089417,3.9341089725494385
103,119429,119431,-0.08436668664216995,-0.09102868288755417,1.12240469455719,-7.001346588134766,-9.50808334350586,-16.367576599121094,-0.6854656934738159,1.6004199981689453,0.3494825065135956,-0.058248329907655716,-0.39532020688056946,3.7868573665618896
104,119439,119441,-0.015336781740188599,-0.11347825825214386,1.0886318683624268,-23.095869064331055,-14.520289421081543,-13.988409996032715,-0.6824658513069153,1.6124193668365479,0.3314834237098694,0.09180134534835815,-0.5412392616271973,3.607753038406372
105,119449,119451,-0.02814546413719654,-0.08340946584939957,1.1032577753067017,-32.14008331298828,-3.1125576496124268,-14.782605171203613,-0.676466166973114,1.6094194650650024,0.3404829800128937,0.2769508957862854,-0.8575076460838318,3.4511044025421143
106,119459,119461,-0.029875999316573143,-0.10560330003499985,1.0722885131835938,-20.608015060424805,13.380003929138184,-15.413339614868164,-0.683965802192688,1.61091947555542,0.3329833447933197,0.34591567516326904,-1.1860010623931885,3.305488109588623
107,119469,119471,-0.016087226569652557,-0.1289314180612564,1.0398677587509155,-8.063902854919434,21.720951080322266,-11.43179702758789,-0.6959651708602905,1.61091947555542,0.34498274326324463,0.10076264292001724,-1.3261537551879883,3.1797854900360107
108,119479,119481,-0.0099633252248168,-0.08238335698843002,1.0642539262771606,-2.3614039421081543,28.29943084716797,-10.212712287902832,-0.676466166973114,1.6184190511703491,0.33448326587677,-0.2679673433303833,-1.4345933198928833,3.080167770385742
109,119489,119491,0.0011391111183911562,-0.07719050347805023,1.0785428285598755,-7.173484802246094,38.606285095214844,-6.112046241760254,-0.676466166973114,1.6244187355041504,0.3434828221797943,-0.5421156883239746,-1.2632124423980713,2.989192008972168
110,119499,119501,-0.007797363679856062,-0.09250117838382721,1.0936108827590942,-12.109954833984375,25.762847900390625,-6.825146198272705,-0.6854656934738159,1.633418321609497,0.34648266434669495,-0.6380338072776794,-1.3816295862197876,2.8600594997406006
111,119509,119511,0.0573822520673275,-0.0972323790192604,1.0825309753417969,-9.982260704040527,2.0254456996917725,-9.212738037109375,-0.6779661178588867,1.619918942451477,0.3539822995662689,-0.6947954893112183,-1.6313974857330322,2.734963893890381
112,119519,119521,-0.002675817348062992,-0.05377884581685066,1.110863208770752,8.671838760375977,-11.532611846923828,-9.253195762634277,-0.6734663248062134,1.6184190511703491,0.34648266434669495,-0.7358450293540955,-1.726906657218933,2.643138885498047
113,119529,119531,0.004162972792983055,-0.06704135239124298,1.1151511669158936,30.872695922851562,-8.564645767211914,-8.400110244750977,-0.6959651708602905,1.6229188442230225,0.3539822995662689,-0.7339792251586914,-1.5215648412704468,2.5939435958862305
114,119539,119541,-0.012993449345231056,-0.10206577926874161,1.0740330219268799,23.436447143554688,-9.30131721496582,-9.215184211730957,-0.6794660091400146,1.6214189529418945,0.33748310804367065,-0.6157516837120056,-1.3175525665283203,2.498389959335327
115,119549,119551,-0.0699174627661705,-0.1471298784017563,1.1021878719329834,-1.9769479036331177,-11.646777153015137,-6.329946041107178,-0.6824658513069153,1.6124193668365479,0.34648266434669495,-0.5467060208320618,-1.0283194780349731,2.4215087890625
116,119559,119561,-0.04190095514059067,-0.12397515773773193,1.0103294849395752,-17.233182907104492,6.528305530548096,-0.6309217810630798,-0.6854656934738159,1.6034197807312012,0.3434828221797943,-0.4972074329853058,-1.0573254823684692,2.3648805618286133
117,119569,119571,-0.014283698983490467,-0.10953449457883835,0.9892879128456116,-32.64440155029297,21.396526336669922,1.5997953414916992,-0.6779661178588867,1.604919672012329,0.3539822995662689,-0.6395256519317627,-1.3264434337615967,2.357858896255493
118,119579,119581,0.02704840898513794,-0.05080720782279968,0.9932724237442017,-25.441650390625,28.046825408935547,1.4006634950637817,-0.6779661178588867,1.619918942451477,0.341982901096344,-0.7775701284408569,-1.6617869138717651,2.350325584411621
119,119589,119591,0.0016686299350112677,-0.07810544222593307,1.0555449724197388,2.7906830310821533,32.385440826416016,1.4409449100494385,-0.6629668474197388,1.6259186267852783,0.33898305892944336,-1.2544227838516235,-1.828604817390442,2.4173378944396973
120,119599,119601,0.02458106353878975,-0.05470363795757294,1.1283185482025146,37.93821716308594,16.87955665588379,0.2818167805671692,-0.6824658513069153,1.6124193668365479,0.33748310804367065,-1.463180422782898,-1.8427950143814087,2.3989574909210205
121,119609,119611,0.009321918711066246,-0.09544876217842102,1.0799082517623901,59.36937713623047,-0.34284406900405884,-0.6491795778274536,-0.6854656934738159,1.6184190511703491,0.34648266434669495,-1.7034248113632202,-1.2315536737442017,2.4625463485717773
122,119619,119621,0.012825286947190762,-0.07822272926568985,1.0679692029953003,62.04358673095703,-16.8323917388916,0.8700599670410156,-0.6854656934738159,1.6034197807312012,0.32848358154296875,-1.5308104753494263,-0.8345291614532471,2.376711368560791
123,119629,119631,-0.0030601455364376307,-0.012707496993243694,1.0810589790344238,65.31201934814453,-32.899658203125,4.976834774017334,-0.676466166973114,1.6034197807312012,0.3494825065135956,-1.3192578554153442,-0.005023585632443428,2.414238691329956
124,119639,119641,0.0076051391661167145,0.01249019242823124,1.0999587774276733,64.7953109741211,-41.437530517578125,3.561021566390991,-0.6944652795791626,1.5974200963974,0.3434828221797943,-0.9391613006591797,0.6578630805015564,2.442967176437378
125,119649,119651,0.06658397614955902,-0.09617645293474197,1.0508008003234863,28.690616607666016,-46.731781005859375,0.8316388726234436,-0.6704664826393127,1.5944201946258545,0.3434828221797943,-0.7760568857192993,1.0468603372573853,2.4602625370025635
126,119659,119661,0.09798440337181091,-0.08337276428937912,0.8097376823425293,-32.1511344909668,-47.70109176635742,0.32412225008010864,-0.6674666404724121,1.5884205102920532,0.3584820628166199,-0.37157559394836426,1.5035033226013184,2.4858224391937256
127,119669,119671,0.05649218335747719,0.03309665247797966,0.8839512467384338,-80.72872924804688,-36.95436096191406,-0.30591681599617004,-0.6584670543670654,1.5884205102920532,0.3434828221797943,0.3304790258407593,1.0123172998428345,2.3845913410186768
128,119679,119681,0.010414572432637215,-0.017185712233185768,0.9556028842926025,-105.7193832397461,-15.011906623840332,3.4042928218841553,-0.6554672122001648,1.6004199981689453,0.3434828221797943,0.6078494787216187,0.17385579645633698,2.3661372661590576
129,119689,119691,-0.022600442171096802,-0.08774527162313461,0.9468479156494141,-92.46141052246094,5.8972320556640625,7.334548473358154,-0.6704664826393127,1.6214189529418945,0.3524823784828186,0.6208343505859375,-0.7357168793678284,2.4212586879730225
130,119699,119701,0.011259123682975769,-0.06766808032989502,1.001545786857605,-46.14338684082031,26.37779426574707,7.508410930633545,-0.6794660091400146,1.633418321609497,0.36748161911964417,0.5103621482849121,-1.7506593465805054,2.4872331619262695
131,119709,119711,-0.004275814164429903,-0.06273333728313446,1.0127614736557007,11.536166191101074,34.30559158325195,0.17393560707569122,-0.6719663739204407,1.619918942451477,0.3329833447933197,0.24475735425949097,-2.128221273422241,2.583404302597046
132,119719,119721,-0.01553344912827015,-0.07440400868654251,0.9958932399749756,72.15995025634766,24.86175537109375,-7.334163188934326,-0.6674666404724121,1.6214189529418945,0.33748310804367065,-0.12578780949115753,-1.806289792060852,2.6317315101623535
133,119729,119731,0.028743382543325424,-0.2126387655735016,0.9995554089546204,102.48859405517578,9.163681983947754,-11.962059020996094,-0.6809659600257874,1.6289185285568237,0.3509824573993683,-0.42252984642982483,-1.1106271743774414,2.580477476119995
134,119739,119741,0.03673427179455757,-0.14495405554771423,1.0057035684585571,108.18433380126953,-3.6175696849823,-12.948410987854004,-0.683965802192688,1.6289185285568237,0.3539822995662689,-0.5358618497848511,-0.35244372487068176,2.439666271209717
135,119749,119751,-0.03107532672584057,-0.1028081476688385,1.033052682876587,89.02616119384766,-7.275274276733398,-14.88256549835205,-0.6869656443595886,1.6139192581176758,0.3509824573993683,-0.45199719071388245,0.9702780246734619,2.335129976272583
136,119759,119761,0.03109843097627163,-0.08465456962585449,1.0342471599578857,56.150394439697266,-4.683174133300781,-18.09923553466797,-0.6929653286933899,1.6079195737838745,0.3599819839000702,-0.31319043040275574,1.681225299835205,2.153815507888794
137,119769,119771,-0.05222135782241821,-0.11162697523832321,1.0241180658340454,14.868318557739258,-2.198366641998291,-19.67397117614746,-0.6659666895866394,1.5839207172393799,0.3539822995662689,-0.2823849320411682,2.424377202987671,1.9940199851989746
138,119779,119781,0.06518919765949249,0.020417561754584312,0.9688680768013,-15.365828514099121,-2.3389110565185547,-19.34286880493164,-0.6704664826393127,1.5764211416244507,0.33448326587677,-0.2961592674255371,2.6163859367370605,1.7960124015808105
139,119789,119791,-0.0204588882625103,-0.10791780054569244,0.9989051818847656,-36.44859313964844,-2.5504069328308105,-18.462127685546875,-0.6674666404724121,1.5764211416244507,0.3524823784828186,-0.26237374544143677,2.303542375564575,1.5747222900390625
140,119799,119801,0.0015823919093236327,-0.09135501086711884,1.0532816648483276,-45.93180847167969,-6.063116073608398,-16.371124267578125,-0.6704664826393127,1.582420825958252,0.34648266434669495,-0.13715676963329315,1.951592206954956,1.3920825719833374
141,119809,119811,-0.018531588837504387,-0.1150033101439476,0.9606683254241943,-50.05390167236328,-6.120413303375244,-12.062714576721191,-0.6659666895866394,1.5929203033447266,0.3539822995662689,-0.1755911111831665,1.4535894393920898,1.2103118896484375
142,119819,119821,-0.021161671727895737,-0.12392386049032211,0.9491251111030579,-55.087127685546875,-1.1351304054260254,-8.357071876525879,-0.6629668474197388,1.5869206190109253,0.3539822995662689,-0.20901645720005035,1.0795193910598755,1.0830683708190918
143,119829,119831,-0.023163892328739166,-0.06584607064723969,1.0200213193893433,-46.63535690307617,5.121488094329834,-5.823967456817627,-0.6584670543670654,1.5944201946258545,0.34648266434669495,-0.04612179845571518,0.7922465205192566,1.038128137588501
144,119839,119841,-0.06048661097884178,-0.11705619096755981,1.060075044631958,-33.050357818603516,6.264040470123291,-2.2065274715423584,-0.6704664826393127,1.5884205102920532,0.33748310804367065,-0.04539382830262184,0.04587055370211601,0.9547675251960754
145,119849,119851,-0.0074724843725562096,-0.09248407185077667,1.0005290508270264,-14.495682716369629,9.405134201049805,0.6850524544715881,-0.6569671630859375,1.5989199876785278,0.3329833447933197,-0.2119818925857544,-0.0890362337231636,0.9345338344573975
146,119859,119861,-0.012825766578316689,-0.18088550865650177,1.000393033027649,0.006414017640054226,14.819972038269043,3.0305871963500977,-0.6674666404724121,1.5974200963974,0.3494825065135956,-0.29329851269721985,-0.32448211312294006,0.9326077699661255
147,119869,119871,-0.024560213088989258,-0.20403219759464264,1.0263581275939941,13.044455528259277,7.720016002655029,5.794759273529053,-0.6704664826393127,1.5974200963974,0.32848358154296875,-0.49316343665122986,-0.44598090648651123,0.9410524368286133
148,119879,119881,-0.05882706865668297,-0.20515108108520508,1.061026930809021,24.691143035888672,-1.2727704048156738,2.92763614654541,-0.6719663739204407,1.595920205116272,0.33898305892944336,-0.5224049091339111,-0.28157681226730347,1.005301594734192
149,119889,119891,-0.04056958481669426,-0.24276643991470337,1.0228989124298096,30.82561492919922,-11.960307121276855,0.26117831468582153,-0.6674666404724121,1.5974200963974,0.33748310804367065,-0.47680944204330444,0.05366038158535957,1.0589193105697632
150,119899,119901,-0.045157093554735184,-0.24083088338375092,1.047054409980774,34.60703659057617,-27.621736526489258,1.144660472869873,-0.6659666895866394,1.5869206190109253,0.34798258543014526,-0.25390708446502686,0.5554828643798828,1.0961819887161255
151,119909,119911,0.03772500902414322,-0.1708238422870636,1.0359596014022827,36.302894592285156,-42.64870071411133,2.0903024673461914,-0.6644667387008667,1.5884205102920532,0.3314834237098694,0.07353125512599945,0.6893476843833923,1.0888983011245728
152,119919,119921,0.036430034786462784,-0.059623222798109055,0.9818711876869202,27.83641815185547,-48.240821838378906,6.821822166442871,-0.6509674191474915,1.580920934677124,0.3509824573993683,0.353109747171402,0.9887048602104187,1.085230827331543
153,119929,119931,-0.04678310826420784,0.07795139402151108,1.1302542686462402,12.39983081817627,-36.557472229003906,9.754162788391113,-0.6524673700332642,1.5884205102920532,0.3524823784828186,0.9739120602607727,1.4271807670593262,1.1566050052642822
154,119939,119941,-0.03493387997150421,-0.032639745622873306,1.0640612840652466,-6.143530368804932,-21.992454528808594,11.2676420211792,-0.6389680504798889,1.565921664237976,0.341982901096344,1.2115658521652222,1.5407313108444214,1.220861792564392
155,119949,119951,0.007376641966402531,-0.08086180686950684,0.9980069398880005,-28.566875457763672,1.094420313835144,8.708104133605957,-0.6479675769805908,1.5689215660095215,0.34498274326324463,1.4076437950134277,1.3220798969268799,1.3146549463272095
156,119959,119961,-0.03005991317331791,-0.10935941338539124,0.9765735864639282,-39.71467590332031,16.26068878173828,7.421600341796875,-0.6509674191474915,1.5689215660095215,0.32998350262641907,1.3870477676391602,1.0629481077194214,1.397808313369751
157,119969,119971,0.034559860825538635,-0.07717068493366241,1.0290943384170532,-51.33264923095703,27.90968132019043,6.737452507019043,-0.6464676856994629,1.5734213590621948,0.33448326587677,1.1775895357131958,0.39537325501441956,1.4695385694503784
158,119979,119981,0.0025630739983171225,-0.19945944845676422,1.0610061883926392,-58.20347595214844,39.25693130493164,7.22127628326416,-0.6539672613143921,1.580920934677124,0.3509824573993683,0.9346405863761902,-0.14246080815792084,1.5422883033752441
159,119989,119991,-0.0219718124717474,-0.2311595380306244,1.047877550125122,-56.00103759765625,38.158138275146484,9.376330375671387,-0.6539672613143921,1.595920205116272,0.34498274326324463,0.39049002528190613,-0.8343474864959717,1.5894945859909058
160,119999,120001,-0.0738421231508255,-0.16681009531021118,0.9925322532653809,-43.34439468383789,18.128690719604492,8.549044609069824,-0.6659666895866394,1.5929203033447266,0.33598318696022034,0.18136543035507202,-0.9997855424880981,1.6800751686096191
161,120009,120011,-0.02097311243414879,-0.09775976836681366,0.9316805005073547,-19.51645851135254,-3.848564386367798,4.871372222900391,-0.6464676856994629,1.5854207277297974,0.32848358154296875,0.08610478788614273,-1.4292588233947754,1.7739521265029907
162,120019,120021,0.03996090218424797,0.042835891246795654,0.962827205657959,-3.2204689979553223,-17.92953109741211,2.4012365341186523,-0.6494675278663635,1.5644217729568481,0.3224838674068451,0.09696824103593826,-1.7855385541915894,1.8342205286026
163,120029,120031,0.008834716863930225,-0.0440838448703289,0.9363686442375183,10.903390884399414,-21.58945655822754,-1.381248950958252,-0.6554672122001648,1.5764211416244507,0.33448326587677,0.24936893582344055,-1.7839570045471191,1.8637197017669678
164,120039,120041,0.012860172428190708,-0.06636692583560944,0.9369267225265503,23.62105369567871,-24.199565887451172,-5.348020553588867,-0.6599670052528381,1.5749212503433228,0.3329833447933197,0.6030942797660828,-1.5548750162124634,1.858838677406311
165,120049,120051,0.04561183229088783,-0.06608329713344574,0.9897979497909546,18.262248992919922,-25.966550827026367,-10.493983268737793,-0.6599670052528381,1.5839207172393799,0.341982901096344,0.7840420603752136,-1.3181177377700806,1.8171602487564087
166,120059,120061,0.03239792585372925,-0.10384108126163483,0.8991329669952393,6.2210235595703125,-20.823640823364258,-13.296533584594727,-0.6599670052528381,1.5839207172393799,0.341982901096344,1.129800796508789,-1.18017578125,1.7257639169692993
167,120069,120071,0.014383840374648571,-0.05435534194111824,0.8993767499923706,-4.247013568878174,-7.20228385925293,-13.078804969787598,-0.6599670052528381,1.5839207172393799,0.341982901096344,1.303849697113037,-1.1401705741882324,1.6047141551971436
168,120079,120081,0.036140326410532,-0.15738297998905182,0.9042350649833679,-19.82035255432129,17.215696334838867,-10.892120361328125,-0.6599670052528381,1.5839207172393799,0.341982901096344,1.3831684589385986,-1.2120351791381836,1.479602575302124
169,120089,120091,0.09281065315008163,-0.23385658860206604,0.9449324011802673,-30.5223388671875,48.584014892578125,-7.9796600341796875,-0.6569671630859375,1.580920934677124,0.3329833447933197,1.0550613403320312,-1.4448026418685913,1.3811978101730347
170,120099,120101,0.04286031797528267,-0.09708055108785629,0.943706750869751,-16.352243423461914,69.13374328613281,-0.8710458278656006,-0.6599670052528381,1.5929203033447266,0.32998350262641907,0.7074828147888184,-1.7377374172210693,1.2797129154205322
171,120109,120111,0.012158868834376335,-0.06441259384155273,0.9236771464347839,20.903810501098633,59.965824127197266,1.6686149835586548,-0.676466166973114,1.6064196825027466,0.32848358154296875,-0.10799267888069153,-1.8894503116607666,1.2468246221542358
172,120119,120121,0.02333313226699829,-0.060173094272613525,0.908409833908081,53.01646041870117,41.125057220458984,4.802769184112549,-0.6749662160873413,1.6079195737838745,0.34498274326324463,-0.409049391746521,-1.683634877204895,1.2040867805480957
173,120129,120131,0.043930865824222565,-0.060357268899679184,0.9358134865760803,64.60069274902344,24.02436637878418,10.720054626464844,-0.6749662160873413,1.61091947555542,0.33898305892944336,-0.9928120374679565,-1.0685633420944214,1.2426259517669678
174,120139,120141,0.03267849236726761,-0.04274453595280647,0.9379404187202454,54.06163787841797,7.3286824226379395,16.261981964111328,-0.6899654865264893,1.5989199876785278,0.341982901096344,-1.2099682092666626,-0.7315354943275452,1.3456085920333862
175,120149,120151,0.043660931289196014,0.049967385828495026,0.9635130167007446,40.44037628173828,-1.4421178102493286,17.720745086669922,-0.6704664826393127,1.6034197807312012,0.3494825065135956,-1.2684303522109985,-0.10262550413608551,1.491884708404541
176,120159,120161,0.023774469271302223,0.008133791387081146,0.9648324847221375,29.0078067779541,-9.577829360961914,15.716224670410156,-0.6719663739204407,1.5779210329055786,0.341982901096344,-1.2936841249465942,0.15852276980876923,1.6702790260314941
177,120169,120171,0.0298677496612072,-0.06827843934297562,0.9361487030982971,15.978554725646973,-8.551061630249023,12.179006576538086,-0.6734663248062134,1.5854207277297974,0.3314834237098694,-1.1468435525894165,0.654646098613739,1.8277931213378906
178,120179,120181,-0.05404488369822502,0.03310741111636162,0.947651207447052,17.5956974029541,-20.321014404296875,9.214778900146484,-0.6794660091400146,1.579421043395996,0.36448177695274353,-1.054917573928833,0.5786428451538086,1.9410935640335083
179,120189,120191,-0.00330284028314054,-0.03800520673394203,0.9478399157524109,-6.539941787719727,-44.427249908447266,7.049160003662109,-0.6749662160873413,1.5929203033447266,0.3509824573993683,-0.9555972814559937,0.7790879011154175,2.042712926864624
180,120199,120201,0.011614338494837284,-0.046392109245061874,0.9898325800895691,-39.86957931518555,-55.90338134765625,4.762826442718506,-0.683965802192688,1.5839207172393799,0.3539822995662689,-0.3674642741680145,0.6644919514656067,2.0942771434783936
181,120209,120211,-0.02318103425204754,-0.06074199080467224,1.020865797996521,-60.7486457824707,-35.57794189453125,0.8903400897979736,-0.6584670543670654,1.5914204120635986,0.3434828221797943,0.18458424508571625,0.18042349815368652,2.128687620162964
182,120219,120221,-0.04238592088222504,-0.10722749680280685,1.0448678731918335,-61.37627029418945,-24.759296417236328,-0.7923448085784912,-0.6674666404724121,1.5974200963974,0.3404829800128937,0.45995062589645386,-0.521258533000946,2.1395769119262695
183,120229,120231,0.0013147540157660842,-0.025652654469013214,0.9842500686645508,-34.39932632446289,-29.75473403930664,0.4502204656600952,-0.66896653175354,1.61091947555542,0.33898305892944336,0.7352686524391174,-1.0395722389221191,2.14133882522583
184,120239,120241,-0.007416536565870047,-0.15919102728366852,1.1095463037490845,4.421288013458252,-36.329654693603516,0.22413042187690735,-0.6659666895866394,1.6169191598892212,0.34798258543014526,1.0096709728240967,-1.4610711336135864,2.1482927799224854
185,120249,120251,-0.05057807266712189,-0.029965311288833618,0.9285460710525513,54.80162811279297,-28.15727424621582,3.3253209590911865,-0.6539672613143921,1.619918942451477,0.35698214173316956,1.2933131456375122,-1.2258200645446777,2.1639046669006348
186,120259,120261,0.0010289910715073347,-0.27617838978767395,1.0782500505447388,95.48509216308594,0.5733027458190918,2.845127582550049,-0.6569671630859375,1.6169191598892212,0.34498274326324463,1.7017334699630737,-0.49571675062179565,2.1882526874542236
187,120269,120271,-0.03384407237172127,-0.09049256891012192,1.072130799293518,118.63593292236328,45.391178131103516,3.138666868209839,-0.6809659600257874,1.6229188442230225,0.3599819839000702,1.4383677244186401,0.3876682221889496,2.2387940883636475
188,120279,120281,0.013023902662098408,-0.0003021559095941484,1.0246937274932861,112.69808197021484,83.23670959472656,1.6742315292358398,-0.6899654865264893,1.6079195737838745,0.3599819839000702,0.9375393390655518,1.7926666736602783,2.2747344970703125
189,120289,120291,-0.022228019312024117,-0.014272231608629227,1.0423847436904907,77.33161926269531,107.3680648803711,2.8654916286468506,-0.6809659600257874,1.6289185285568237,0.3629818558692932,0.5492845773696899,2.429581642150879,2.335732936859131
190,120299,120301,-0.04877794161438942,-0.23960766196250916,1.0184764862060547,37.60650634765625,117.86665344238281,7.274378776550293,-0.6989650130271912,1.6139192581176758,0.3719813823699951,-0.24420695006847382,2.8986191749572754,2.428307056427002
191,120309,120311,-0.011894265189766884,-0.13850978016853333,1.0163551568984985,3.0061357021331787,100.8594741821289,14.174004554748535,-0.7034648060798645,1.6094194650650024,0.36448177695274353,-1.7885760068893433,3.460319757461548,2.5390126705169678
192,120319,120321,0.0493304468691349,-0.22410649061203003,1.0435612201690674,-19.96592903137207,69.4891357421875,17.58534812927246,-0.7049647569656372,1.619918942451477,0.36598169803619385,-2.596466541290283,3.4049227237701416,2.752958297729492
193,120329,120331,0.1201741173863411,-0.20739305019378662,1.1140316724777222,-25.876096725463867,29.932172775268555,16.891868591308594,-0.7034648060798645,1.6004199981689453,0.34648266434669495,-3.457838296890259,3.1643123626708984,2.943577527999878
194,120339,120341,0.015084772370755672,-0.1040143072605133,1.0598373413085938,-24.077051162719727,-9.632895469665527,13.526241302490234,-0.7094644904136658,1.5914204120635986,0.34648266434669495,-3.6457901000976562,2.901171922683716,3.1558659076690674
195,120349,120351,0.008824930526316166,-0.030363641679286957,1.0782402753829956,-20.36229705810547,-41.326045989990234,11.788448333740234,-0.6959651708602905,1.5899205207824707,0.3599819839000702,-3.4377918243408203,2.593801975250244,3.308621883392334
196,120359,120361,-0.004352280404418707,-0.03282541781663895,1.0653812885284424,-8.930716514587402,-68.86981964111328,12.872567176818848,-0.6974651217460632,1.5914204120635986,0.3524823784828186,-3.0020270347595215,2.5791964530944824,3.461387872695923
197,120369,120371,-0.013603082858026028,-0.0650060847401619,1.0115959644317627,0.1312990039587021,-81.869140625,11.737898826599121,-0.7034648060798645,1.5914204120635986,0.3584820628166199,-2.073029041290283,2.5056793689727783,3.6309757232666016
198,120379,120381,-0.040964625775814056,0.003544615348801017,1.0070841312408447,2.9651846885681152,-76.6357192993164,10.378840446472168,-0.7034648060798645,1.6064196825027466,0.3584820628166199,-1.4810445308685303,2.4253714084625244,3.6362457275390625
199,120389,120391,-0.0256727933883667,-0.07219980657100677,1.0131338834762573,5.527655124664307,-49.29384994506836,10.754701614379883,-0.6824658513069153,1.582420825958252,0.3524823784828186,-0.9497925043106079,2.40704345703125,3.6251256465911865
200,120399,120401,0.0079873725771904,-0.05974791571497917,1.1413120031356812,-6.102060794830322,-21.528076171875,10.09080982208252,-0.6719663739204407,1.5869206190109253,0.3539822995662689,-0.2507419288158417,2.5372273921966553,3.779214859008789
201,120409,120411,-0.06059080734848976,-0.15904591977596283,1.0342528820037842,-15.74611759185791,-1.344222903251648,8.777384757995605,-0.6719663739204407,1.595920205116272,0.3509824573993683,-0.20775173604488373,2.405811309814453,3.7813162803649902
202,120419,120421,0.051457472145557404,-0.06914914399385452,1.0131906270980835,-16.0653076171875,15.174049377441406,10.412877082824707,-0.6794660091400146,1.5944201946258545,0.35548222064971924,-0.193578839302063,2.1387338638305664,3.837803363800049
203,120429,120431,0.06202555075287819,-0.08575082570314407,1.029189109802246,-17.479785919189453,20.8830623626709,10.543917655944824,-0.691465437412262,1.5974200963974,0.3494825065135956,-0.422231525182724,1.9336260557174683,3.901960611343384
204,120439,120441,0.01611424796283245,-0.019921844825148582,1.077915906906128,-11.14340877532959,18.87586212158203,8.026966094970703,-0.6794660091400146,1.579421043395996,0.35548222064971924,-0.5182397365570068,1.8008912801742554,4.054133892059326
205,120449,120451,0.02773144654929638,-0.020490340888500214,1.0012837648391724,-5.356790542602539,6.421443939208984,4.251006126403809,-0.6944652795791626,1.5914204120635986,0.35548222064971924,-0.780685544013977,1.6908292770385742,4.116096019744873
206,120459,120461,0.004029393661767244,0.020596984773874283,1.0131367444992065,-5.935620307922363,-11.862641334533691,-0.2716507315635681,-0.6929653286933899,1.61091947555542,0.35698214173316956,-0.8338959813117981,1.6520110368728638,4.176619529724121
207,120469,120471,-0.017055869102478027,-0.059008970856666565,1.0107958316802979,-6.992504596710205,-33.983741760253906,-3.4359290599823,-0.6869656443595886,1.5929203033447266,0.34798258543014526,-0.6513893008232117,1.5967881679534912,4.201992988586426
208,120479,120481,0.01801273599267006,-0.10886533558368683,1.120290994644165,-10.721307754516602,-47.40500259399414,-6.474103927612305,-0.6869656443595886,1.5929203033447266,0.34498274326324463,-0.5631595849990845,1.5190701484680176,4.087260723114014
209,120489,120491,-0.028361806645989418,-0.09094022214412689,1.0850176811218262,-11.911349296569824,-52.285430908203125,-6.8293681144714355,-0.6719663739204407,1.6139192581176758,0.36598169803619385,0.039480675011873245,1.407146692276001,4.063107967376709
210,120499,120501,-0.0026756436564028263,-0.053597208112478256,1.0534816980361938,-17.394853591918945,-41.506072998046875,-10.241658210754395,-0.6929653286933899,1.5929203033447266,0.3539822995662689,0.4742131233215332,1.254875898361206,3.951659917831421
211,120509,120511,0.006803944241255522,-0.0799960345029831,1.1009989976882935,-24.717971801757812,-21.55891990661621,-14.1553955078125,-0.6644667387008667,1.6094194650650024,0.3584820628166199,1.0711864233016968,1.006570816040039,3.8874027729034424
212,120519,120521,-0.041888196021318436,-0.006235142238438129,1.0656393766403198,-30.177186965942383,3.7442119121551514,-18.151880264282227,-0.6674666404724121,1.6094194650650024,0.35548222064971924,1.0235592126846313,0.7984483242034912,3.6637589931488037
213,120529,120531,0.0040496764704585075,-0.10691460222005844,1.1326260566711426,-41.38412857055664,17.101787567138672,-21.861083984375,-0.6644667387008667,1.6154191493988037,0.3494825065135956,1.0415115356445312,0.4089580774307251,3.49249005317688
214,120539,120541,0.02769235149025917,-0.11059378832578659,0.9848018884658813,-49.1809196472168,20.397520065307617,-21.38749885559082,-0.6719663739204407,1.619918942451477,0.3539822995662689,1.003395676612854,-0.14200586080551147,3.3085744380950928
215,120549,120551,0.046551141887903214,0.01533866673707962,1.0248172283172607,-45.85683059692383,25.15035629272461,-21.11672592163086,-0.6899654865264893,1.619918942451477,0.3539822995662689,0.613837718963623,-0.5758613348007202,3.0477020740509033
216,120559,120561,0.08462713658809662,-0.18375864624977112,1.0543389320373535,-30.862762451171875,21.25316619873047,-20.495393753051758,-0.6824658513069153,1.6214189529418945,0.3434828221797943,0.3932770788669586,-0.8123660087585449,2.8392224311828613
217,120569,120571,-0.03925948962569237,-0.031413398683071136,1.0768097639083862,-2.084418296813965,16.372400283813477,-19.718936920166016,-0.691465437412262,1.6274186372756958,0.3434828221797943,0.2997063398361206,-0.9941123127937317,2.6524202823638916
218,120579,120581,0.06632508337497711,0.009248746559023857,1.0847755670547485,28.45876693725586,8.201531410217285,-18.567779541015625,-0.6854656934738159,1.6304184198379517,0.3524823784828186,0.002895096782594919,-0.9368296265602112,2.432548999786377
219,120589,120591,0.046649858355522156,-0.05070413276553154,1.1497644186019897,47.400516510009766,-2.225374221801758,-18.827434539794922,-0.6749662160873413,1.61091947555542,0.34798258543014526,-0.00795922614634037,-0.7591314911842346,2.2557406425476074
220,120599,120601,0.04245676100254059,-0.19248010218143463,1.0702264308929443,55.78532028198242,-12.40562915802002,-17.749061584472656,-0.683965802192688,1.6169191598892212,0.35698214173316956,0.1491450071334839,-0.1431245505809784,2.0783023834228516
221,120609,120611,-0.010811932384967804,-0.09921763837337494,1.1047545671463013,52.58970642089844,-20.070758819580078,-15.257282257080078,-0.676466166973114,1.6004199981689453,0.35548222064971924,0.16381129622459412,0.23487675189971924,1.8978900909423828
222,120619,120621,-0.03939731419086456,-0.0987856313586235,1.0289758443832397,28.867095947265625,-25.657827377319336,-14.414462089538574,-0.6824658513069153,1.6154191493988037,0.3434828221797943,0.5062978863716125,0.8021258115768433,1.7491461038589478
223,120629,120631,-0.03376571461558342,-0.05338193476200104,1.0411193370819092,1.5889090299606323,-20.08524513244629,-15.265824317932129,-0.6749662160873413,1.595920205116272,0.3629818558692932,0.7685033679008484,0.7833808660507202,1.6154656410217285
224,120639,120641,0.011453608050942421,-0.08299533277750015,0.9985674619674683,-18.238082885742188,-9.78966236114502,-14.43598461151123,-0.6614668965339661,1.582420825958252,0.35548222064971924,0.7925164699554443,0.8422913551330566,1.4510648250579834
225,120649,120651,-0.014751311391592026,0.01088686566799879,0.9972190856933594,-26.91022300720215,-3.773794174194336,-12.703459739685059,-0.6614668965339661,1.582420825958252,0.3614819049835205,0.940361499786377,0.7257216572761536,1.3028864860534668
226,120659,120661,-0.09404303133487701,0.045926205813884735,1.0263906717300415,-33.108455657958984,-2.587782621383667,-10.130350112915039,-0.6509674191474915,1.5869206190109253,0.3539822995662689,0.9951773881912231,0.32915106415748596,1.1850885152816772
227,120669,120671,-0.0034656033385545015,0.045600757002830505,1.0409486293792725,-35.8957633972168,-9.242334365844727,-7.3241190910339355,-0.6449677348136902,1.5989199876785278,0.33898305892944336,0.9968892931938171,0.06919549405574799,1.0754586458206177
228,120679,120681,-0.03670455515384674,-0.053171880543231964,1.0268185138702393,-34.66810989379883,-15.56862735748291,-6.911087512969971,-0.6524673700332642,1.5914204120635986,0.3584820628166199,1.1727644205093384,-0.37329694628715515,1.0149776935577393
229,120689,120691,-0.06853418797254562,-0.1427493393421173,1.0483568906784058,-23.114017486572266,-23.166040420532227,-7.100765228271484,-0.6464676856994629,1.5914204120635986,0.33748310804367065,1.3124899864196777,-0.6888433694839478,0.9440648555755615
230,120699,120701,-0.04934311285614967,-0.03777840733528137,0.982424795627594,3.7861032485961914,-24.41361427307129,-6.923233509063721,-0.6449677348136902,1.5899205207824707,0.34498274326324463,1.549049735069275,-0.9991105198860168,0.8863741159439087
231,120709,120711,-0.036758821457624435,-0.021065281704068184,0.9947880506515503,31.917299270629883,-10.616231918334961,-8.287379264831543,-0.6554672122001648,1.6034197807312012,0.33448326587677,1.69717276096344,-0.9495589137077332,0.8109558820724487
232,120719,120721,-0.027318427339196205,-0.03940390795469284,1.0266369581222534,55.91729736328125,10.17873764038086,-9.859415054321289,-0.6629668474197388,1.5899205207824707,0.34798258543014526,1.8273519277572632,-0.724571943283081,0.7419062852859497
233,120729,120731,0.00981297716498375,-0.04246639832854271,1.0103240013122559,65.46643829345703,32.379966735839844,-12.6449613571167,-0.6734663248062134,1.5914204120635986,0.3524823784828186,1.6034375429153442,0.003955959342420101,0.6133522987365723
234,120739,120741,-0.01810104213654995,-0.031724102795124054,1.0431504249572754,62.38091278076172,40.90943145751953,-16.267187118530273,-0.6749662160873413,1.604919672012329,0.3719813823699951,1.3541067838668823,0.42165303230285645,0.5380473136901855
235,120749,120751,-0.018863895907998085,0.0069373599253594875,1.0936930179595947,53.990089416503906,35.556365966796875,-19.672557830810547,-0.6674666404724121,1.6124193668365479,0.3434828221797943,0.9192143082618713,1.0062075853347778,0.3970801532268524
236,120759,120761,-0.023000048473477364,-0.09406229108572006,1.0253101587295532,43.07098388671875,21.650909423828125,-20.75957679748535,-0.6674666404724121,1.5764211416244507,0.3524823784828186,0.5044795870780945,1.5306777954101562,0.2211482971906662
237,120769,120771,0.0031425300985574722,-0.03239038214087486,1.0561072826385498,26.199230194091797,6.747480869293213,-21.789335250854492,-0.6734663248062134,1.5884205102920532,0.3434828221797943,0.3097247779369354,2.0058610439300537,0.015601134859025478
238,120779,120781,-0.00015241197252180427,-0.06791962683200836,0.9709246158599854,0.046931419521570206,-8.649410247802734,-21.83554458618164,-0.6629668474197388,1.5749212503433228,0.3599819839000702,0.2890639901161194,2.323066234588623,-0.20182712376117706
239,120789,120791,0.0022574837785214186,-0.015148009173572063,0.9874345064163208,-29.026893615722656,-20.954458236694336,-21.091957092285156,-0.6614668965339661,1.5644217729568481,0.3404829800128937,0.415609210729599,2.2117693424224854,-0.3904205858707428
240,120799,120801,0.011951904743909836,-0.025634827092289925,0.9524608254432678,-56.3526496887207,-24.866165161132812,-21.785730361938477,-0.6599670052528381,1.5749212503433228,0.3509824573993683,0.7316437363624573,1.7784887552261353,-0.5662973523139954
241,120809,120811,0.012868646532297134,4.849341348744929e-05,1.002233862876892,-64.18280792236328,-13.326258659362793,-21.992454528808594,-0.6509674191474915,1.5989199876785278,0.3599819839000702,1.003493070602417,1.171341896057129,-0.767668604850769
242,120819,120821,-0.03597797080874443,-0.1830766648054123,0.9958073496818542,-47.50310134887695,0.6923490166664124,-23.015989303588867,-0.6479675769805908,1.6079195737838745,0.3509824573993683,1.0983870029449463,0.5018994212150574,-0.9855145215988159
243,120829,120831,-0.009038997814059258,-0.02981291152536869,1.0360841751098633,-16.885879516601562,17.786808013916016,-22.77197265625,-0.6644667387008667,1.5974200963974,0.36448177695274353,1.0370155572891235,-0.014504692517220974,-1.2121423482894897
244,120839,120841,0.021167077124118805,0.03701097145676613,1.0075342655181885,15.944514274597168,39.48215103149414,-19.782032012939453,-0.6614668965339661,1.6034197807312012,0.35548222064971924,0.893117368221283,-0.1337963342666626,-1.4552143812179565
245,120849,120851,-0.0013880699407309294,-0.07026611268520355,0.8984347581863403,49.62273406982422,54.90711975097656,-16.1220645904541,-0.6704664826393127,1.6064196825027466,0.3584820628166199,0.35128799080848694,0.2827930152416229,-1.7253421545028687
246,120859,120861,0.03152724727988243,0.020964493975043297,0.9235889911651611,75.75346374511719,64.44055938720703,-14.919021606445312,-0.6734663248062134,1.6034197807312012,0.36448177695274353,-0.08741947263479233,0.37259694933891296,-1.8205140829086304
247,120869,120871,-0.030689435079693794,-0.010793140158057213,0.9258109331130981,83.06055450439453,69.12189483642578,-16.528995513916016,-0.691465437412262,1.6214189529418945,0.36748161911964417,-0.901939868927002,1.4370145797729492,-2.0183210372924805
248,120879,120881,-0.01278802752494812,-0.027760932222008705,0.9351529479026794,71.85149383544922,59.20655059814453,-15.057488441467285,-0.7004649639129639,1.6094194650650024,0.37648117542266846,-1.334789752960205,1.9933751821517944,-2.116025686264038
249,120889,120891,0.0747969001531601,-0.1075957641005516,0.9968426823616028,44.757720947265625,41.938907623291016,-13.649163246154785,-0.6959651708602905,1.595920205116272,0.3779810965061188,-2.2205493450164795,2.84812068939209,-2.26804518699646
250,120899,120901,0.03150389343500137,-0.07233394682407379,0.9684673547744751,6.560250282287598,9.924747467041016,-11.432921409606934,-0.6824658513069153,1.5884205102920532,0.3614819049835205,-2.4567291736602783,3.2094566822052,-2.3592629432678223
251,120909,120911,0.005753375589847565,-0.04296547919511795,0.9590093493461609,-28.317777633666992,-18.120834350585938,-11.392637252807617,-0.6674666404724121,1.579421043395996,0.3494825065135956,-2.527737855911255,3.0639641284942627,-2.4639930725097656
252,120919,120921,0.03762635588645935,-0.04020674526691437,0.9901118874549866,-49.493473052978516,-37.3111457824707,-12.265488624572754,-0.6794660091400146,1.5914204120635986,0.36448177695274353,-2.247687816619873,2.6734566688537598,-2.5680341720581055
253,120929,120931,0.057509250938892365,0.010135911405086517,1.0686841011047363,-47.17005920410156,-48.69647216796875,-13.377070426940918,-0.6734663248062134,1.6034197807312012,0.3614819049835205,-1.9393222332000732,2.2779300212860107,-2.7013778686523438
254,120939,120941,0.05725676938891411,-0.04790393263101578,1.013685941696167,-34.1317024230957,-48.92677307128906,-12.40253734588623,-0.6629668474197388,1.5929203033447266,0.35698214173316956,-1.3831093311309814,1.6321877241134644,-2.850277900695801
255,120949,120951,0.023624656721949577,-0.03561555594205856,1.0220372676849365,-15.97164535522461,-42.627201080322266,-8.789939880371094,-0.6674666404724121,1.6034197807312012,0.3614819049835205,-1.169605016708374,1.423105001449585,-3.0251705646514893
256,120959,120961,-0.03594150394201279,0.030742386355996132,1.0373283624649048,2.119434118270874,-31.220508575439453,-3.3129351139068604,-0.6644667387008667,1.5884205102920532,0.37648117542266846,-0.6477177739143372,1.2810782194137573,-3.102139711380005
257,120969,120971,-0.03763763606548309,-0.04336964711546898,1.1149989366531372,9.7244873046875,-19.47852897644043,0.20247361063957214,-0.6674666404724121,1.5854207277297974,0.3524823784828186,-0.38175803422927856,1.2138960361480713,-3.168426990509033
258,120979,120981,-0.012380480766296387,-0.06663253158330917,1.02292799949646,13.36994743347168,-4.884586334228516,4.7792744636535645,-0.6584670543670654,1.5854207277297974,0.3614819049835205,-0.29494741559028625,1.3541077375411987,-3.1906578540802
259,120989,120991,0.023010708391666412,-0.05727165937423706,0.9910340309143066,12.541744232177734,8.872886657714844,7.665087699890137,-0.6614668965339661,1.5764211416244507,0.34648266434669495,-0.23169291019439697,1.3783845901489258,-3.1645936965942383
260,120999,121001,-0.04309014603495598,-0.08017586916685104,0.9735363721847534,10.63249397277832,27.973716735839844,8.11939525604248,-0.66896653175354,1.5869206190109253,0.34798258543014526,-0.41396254301071167,1.5982561111450195,-3.0983870029449463
261,121009,121011,-0.05240141600370407,-0.04834619164466858,1.0678449869155884,14.953166961669922,46.67389678955078,10.241250991821289,-0.6659666895866394,1.5689215660095215,0.3539822995662689,-0.5544472932815552,1.662068247795105,-2.9927523136138916
262,121019,121021,-0.04587047919631004,-0.02490626648068428,1.0662031173706055,16.888444900512695,43.45486068725586,11.755885124206543,-0.6659666895866394,1.5869206190109253,0.3539822995662689,-1.0922796726226807,1.6511303186416626,-2.916494607925415
263,121029,121031,0.03616143390536308,-0.17517606914043427,1.0182077884674072,23.216161727905273,23.559354782104492,10.98214054107666,-0.676466166973114,1.582420825958252,0.34648266434669495,-1.4618991613388062,1.7643003463745117,-2.7836034297943115
264,121039,121041,0.008016309700906277,-0.2366737276315689,1.0784810781478882,32.824546813964844,3.50156307220459,8.451926231384277,-0.6719663739204407,1.5899205207824707,0.3629818558692932,-1.6662014722824097,2.04891037940979,-2.6469156742095947
265,121049,121051,-0.002454459434375167,-0.1911838948726654,1.1637111902236938,49.009483337402344,-19.95657730102539,5.024153709411621,-0.6734663248062134,1.579421043395996,0.36448177695274353,-1.8065698146820068,2.578556776046753,-2.538234233856201
266,121059,121061,0.056907907128334045,-0.027611054480075836,1.1031296253204346,54.437252044677734,-40.533416748046875,3.0068109035491943,-0.66896653175354,1.5899205207824707,0.36598169803619385,-1.4222606420516968,2.8329412937164307,-2.488879919052124
267,121069,121071,0.010791774839162827,0.0643894150853157,1.0345865488052368,38.32170104980469,-48.09428024291992,3.6391851902008057,-0.6614668965339661,1.567421555519104,0.3734813332557678,-1.1665130853652954,3.4200527667999268,-2.4953646659851074
268,121079,121081,-0.004111091606318951,0.06858986616134644,1.0479105710983276,14.580934524536133,-46.17597579956055,3.893159866333008,-0.6539672613143921,1.5569220781326294,0.3539822995662689,-0.6514378190040588,3.725158452987671,-2.5006375312805176
269,121089,121091,0.022938795387744904,-0.004199355375021696,1.0362263917922974,3.6226160526275635,-30.788558959960938,5.188726902008057,-0.6494675278663635,1.5554221868515015,0.3494825065135956,-0.04336804896593094,3.9039735794067383,-2.4558022022247314
270,121099,121101,0.07755245268344879,0.058493029326200485,0.9819387197494507,-1.6982961893081665,-8.613972663879395,6.137691020965576,-0.6629668474197388,1.5449227094650269,0.35698214173316956,0.07457850873470306,3.887968063354492,-2.501863479614258
271,121109,121111,-0.0010467180982232094,0.06979577243328094,1.0027029514312744,-8.694634437561035,4.420903205871582,8.286212921142578,-0.6569671630859375,1.5599219799041748,0.3329833447933197,-0.06006778031587601,3.855938196182251,-2.5334086418151855
272,121119,121121,0.0193050317466259,-0.009671869687736034,1.028380274772644,-20.262310028076172,15.716219902038574,12.439258575439453,-0.6524673700332642,1.5494225025177002,0.35548222064971924,-0.04812571406364441,3.77001953125,-2.4395809173583984
273,121129,121131,0.03051759861409664,-0.03967675939202309,1.0349221229553223,-25.725147247314453,13.10134506225586,15.097051620483398,-0.6569671630859375,1.5539222955703735,0.34798258543014526,-0.24624356627464294,3.5087032318115234,-2.3445487022399902
274,121139,121141,0.03689907491207123,-0.043398138135671616,1.0073884725570679,-26.12473487854004,3.2549362182617188,14.626443862915039,-0.6434678435325623,1.543422818183899,0.3494825065135956,-0.39084842801094055,3.236903429031372,-2.1993696689605713
275,121149,121151,0.015980591997504234,-0.06649328768253326,0.9965681433677673,-21.20145034790039,-5.718263626098633,13.353655815124512,-0.6464676856994629,1.5524224042892456,0.3524823784828186,-0.37885811924934387,3.031627655029297,-2.025606393814087
276,121159,121161,-0.0074866642244160175,-0.07292983680963516,1.006523847579956,-6.266089916229248,-21.053197860717773,11.508382797241211,-0.6554672122001648,1.5554221868515015,0.34648266434669495,-0.35885879397392273,2.7779860496520996,-1.9134799242019653
277,121169,121171,-0.018558397889137268,0.04997362568974495,0.9458733201026917,8.746160507202148,-38.58037185668945,8.962019920349121,-0.6599670052528381,1.5479226112365723,0.33898305892944336,-0.08026546984910965,2.686098337173462,-1.7756673097610474
278,121179,121181,0.022889861837029457,0.024606874212622643,0.9399696588516235,22.791654586791992,-49.20132827758789,6.434597492218018,-0.6524673700332642,1.5614218711853027,0.3494825065135956,0.5300334095954895,2.8944344520568848,-1.5975978374481201
279,121189,121191,0.04207804054021835,-0.0026954622007906437,0.9325379729270935,37.86430740356445,-43.33356857299805,5.5896100997924805,-0.6539672613143921,1.5479226112365723,0.3629818558692932,1.0589650869369507,3.188297748565674,-1.5342239141464233
280,121199,121201,0.06996722519397736,0.12912267446517944,0.9655779600143433,35.169349670410156,-24.33506965637207,4.9267497062683105,-0.6569671630859375,1.5479226112365723,0.3539822995662689,1.4769418239593506,3.4745144844055176,-1.5222783088684082
281,121209,121211,-0.045289184898138046,0.09250296652317047,0.9342858195304871,12.955533027648926,4.7561936378479,3.875173330307007,-0.6479675769805908,1.541922926902771,0.3689815402030945,1.40877103805542,3.7472734451293945,-1.6223047971725464
282,121219,121221,-0.02838357351720333,-0.00265678483992815,0.9580523371696472,-9.038431167602539,35.33369827270508,2.8464903831481934,-0.6569671630859375,1.5689215660095215,0.34498274326324463,1.2495765686035156,3.892195463180542,-1.6363080739974976
283,121229,121231,0.07174310833215714,-0.023087702691555023,1.0042794942855835,-21.5496768951416,53.8019905090332,4.4502482414245605,-0.6749662160873413,1.5719213485717773,0.3689815402030945,0.7860698103904724,3.823415994644165,-1.647029161453247
284,121239,121241,0.0008505841251462698,0.0017255137208849192,1.0139974355697632,-33.24771499633789,51.792362213134766,4.330438613891602,-0.6734663248062134,1.5854207277297974,0.35548222064971924,0.4151599109172821,3.41680645942688,-1.509247899055481
285,121249,121251,0.04284670203924179,-0.05429324135184288,0.9779666662216187,-38.41228103637695,28.23294448852539,3.8322408199310303,-0.6734663248062134,1.5884205102920532,0.3704814612865448,-0.1271463930606842,2.912294864654541,-1.439747929573059
286,121259,121261,0.030375760048627853,-0.042297933250665665,0.970187246799469,-37.52996826171875,-7.188446521759033,3.172085762023926,-0.6614668965339661,1.5704214572906494,0.34648266434669495,-0.13631121814250946,2.690354347229004,-1.2649129629135132
287,121269,121271,0.02537350356578827,-0.12252704799175262,0.9961220622062683,-34.986297607421875,-34.73527145385742,-0.0519736111164093,-0.6659666895866394,1.565921664237976,0.3599819839000702,-0.16132955253124237,2.1934683322906494,-1.2519739866256714
288,121279,121281,0.008163155056536198,-0.17205527424812317,1.0260183811187744,-31.719364166259766,-60.87053298950195,-0.36976221203804016,-0.6599670052528381,1.5629218816757202,0.3539822995662689,0.3097478449344635,2.0217020511627197,-1.2073441743850708
289,121289,121291,-0.02820509299635887,-0.15243041515350342,1.0378214120864868,-18.880779266357422,-71.10617065429688,0.039215344935655594,-0.6614668965339661,1.579421043395996,0.3584820628166199,1.2110252380371094,1.6445112228393555,-1.1065198183059692
290,121299,121301,0.03182859718799591,-0.09130009263753891,0.9506500959396362,1.4207763671875,-59.00088119506836,2.854172468185425,-0.6374680995941162,1.5704214572906494,0.35548222064971924,1.7754786014556885,1.4924137592315674,-1.1791036128997803
291,121309,121311,-1.2374218385957647e-05,0.0633668601512909,0.9365649819374084,12.232246398925781,-30.687835693359375,7.510659694671631,-0.6449677348136902,1.5779210329055786,0.3539822995662689,2.24859356880188,1.5438364744186401,-1.2243891954421997
292,121319,121321,0.0068437485024333,0.0723005011677742,0.9657257795333862,15.043497085571289,4.504449367523193,12.061515808105469,-0.6434678435325623,1.5734213590621948,0.35548222064971924,2.679532527923584,1.6051921844482422,-1.1358698606491089
293,121329,121331,0.028388364240527153,-0.002813575090840459,1.120671272277832,16.260648727416992,40.96189880371094,15.72281551361084,-0.6659666895866394,1.580920934677124,0.35698214173316956,2.5339720249176025,1.7997901439666748,-1.0718345642089844
294,121339,121341,0.0036069718189537525,-0.11401136219501495,0.9985392093658447,16.313289642333984,66.79570007324219,23.21187400817871,-0.6659666895866394,1.580920934677124,0.3629818558692932,1.843372106552124,2.08846116065979,-1.015444278717041
295,121349,121351,0.02131330408155918,-0.12942545115947723,1.0262393951416016,10.009596824645996,73.18571472167969,26.87843132019043,-0.6614668965339661,1.582420825958252,0.3614819049835205,1.2992883920669556,2.3301594257354736,-0.7677307724952698
296,121359,121361,0.01799359731376171,-0.21608513593673706,0.9775018095970154,-6.39743185043335,69.25045013427734,29.34294319152832,-0.6614668965339661,1.582420825958252,0.3614819049835205,0.4493767023086548,2.3058576583862305,-0.48123931884765625
297,121369,121371,-0.00979664921760559,-0.19021475315093994,0.9761090874671936,-30.366201400756836,46.627803802490234,30.23700523376465,-0.6614668965339661,1.582420825958252,0.3614819049835205,0.0013463698560371995,2.1305789947509766,-0.08342522382736206
298,121379,121381,0.03449571505188942,-0.06643544882535934,0.9811506867408752,-37.59452438354492,0.37485066056251526,28.371206283569336,-0.6614668965339661,1.582420825958252,0.3614819049835205,-0.386848121881485,1.7026054859161377,0.28399649262428284
299,121389,121391,-0.0439235121011734,-0.06605875492095947,0.9913782477378845,-34.455081939697266,-34.96857833862305,25.945039749145508,-0.6614668965339661,1.5704214572906494,0.3614819049835205,-0.31894734501838684,1.3282443284988403,0.6015459895133972
300,121399,121401,-0.054733164608478546,-0.05383066087961197,0.9990293979644775,-33.348812103271484,-59.005653381347656,26.035648345947266,-0.6644667387008667,1.579421043395996,0.36448177695274353,-0.12457442283630371,1.2126778364181519,0.79811030626297
301,121409,121411,-0.03369426727294922,0.03579675778746605,0.9429874420166016,-33.70234680175781,-63.841835021972656,26.670696258544922,-0.6569671630859375,1.5899205207824707,0.3539822995662689,0.7637571096420288,0.6763002872467041,1.1357783079147339
302,121419,121421,0.031682949513196945,-0.004111358430236578,0.9516801834106445,-35.77467346191406,-56.499515533447266,28.03400421142578,-0.6629668474197388,1.5899205207824707,0.36598169803619385,1.2875347137451172,0.4015864133834839,1.3656697273254395
303,121429,121431,-0.02369612082839012,0.03858084976673126,1.023417592048645,-35.18436813354492,-28.570110321044922,28.465627670288086,-0.6554672122001648,1.5734213590621948,0.36448177695274353,2.1347224712371826,-0.10903768241405487,1.7006111145019531
304,121439,121441,-0.014349892735481262,-0.032396964728832245,0.976240336894989,-30.15769386291504,3.341132640838623,25.22271728515625,-0.6704664826393127,1.6004199981689453,0.3494825065135956,2.0911478996276855,-0.5294865369796753,1.9609317779541016
305,121449,121451,-0.046781834214925766,-0.021675512194633484,0.9814164638519287,-19.862348556518555,30.888622283935547,21.290306091308594,-0.6509674191474915,1.5929203033447266,0.36598169803619385,1.9764668941497803,-0.7184568047523499,2.179763078689575
306,121459,121461,-0.04012831673026085,0.015583318658173084,1.0444166660308838,-0.2581727206707001,43.948856353759766,17.326229095458984,-0.6449677348136902,1.6079195737838745,0.35698214173316956,1.7329530715942383,-0.9931934475898743,2.4057281017303467
307,121469,121471,0.01958744414150715,-0.005935162305831909,1.0229631662368774,17.618040084838867,42.90591812133789,13.072183609008789,-0.6629668474197388,1.6169191598892212,0.3539822995662689,1.085435152053833,-0.8903806805610657,2.5481679439544678
308,121479,121481,0.018723661080002785,0.07252876460552216,0.9130017757415771,30.653949737548828,32.53208541870117,11.271867752075195,-0.6659666895866394,1.5989199876785278,0.3509824573993683,0.7646320462226868,-0.6450913548469543,2.6485822200775146
309,121489,121491,-0.012944253161549568,0.058180879801511765,0.9770546555519104,30.681299209594727,14.084563255310059,8.58230972290039,-0.6674666404724121,1.5944201946258545,0.3524823784828186,0.3661448657512665,-0.4471280872821808,2.7802577018737793
310,121499,121501,-0.0011861531529575586,-0.013851442374289036,0.9875528216362,24.152896881103516,-2.7093043327331543,6.873605728149414,-0.6659666895866394,1.580920934677124,0.341982901096344,0.18058240413665771,-0.027847066521644592,2.846161127090454
311,121509,121511,-0.008423401974141598,0.009946513921022415,1.0335687398910522,15.926567077636719,-15.001770973205566,6.473672389984131,-0.66896653175354,1.5839207172393799,0.34798258543014526,0.26459041237831116,0.14909258484840393,2.9222307205200195
312,121519,121521,-0.03713919594883919,-0.009905674494802952,1.0492433309555054,8.503377914428711,-19.74224090576172,6.7863545417785645,-0.6659666895866394,1.580920934677124,0.3539822995662689,0.6579729914665222,0.1915356069803238,2.971278429031372
313,121529,121531,-0.05314959958195686,0.01675601676106453,1.0066758394241333,6.8089494705200195,-18.163728713989258,8.609569549560547,-0.6599670052528381,1.5689215660095215,0.34798258543014526,0.8675296902656555,0.2697761654853821,3.0359723567962646
314,121539,121541,0.004179169423878193,-0.005209286231547594,1.0513797998428345,8.683971405029297,-3.005845069885254,9.712563514709473,-0.6644667387008667,1.6034197807312012,0.35548222064971924,1.163020133972168,0.3909097909927368,3.0860495567321777
315,121549,121551,-0.004069492686539888,-0.12932157516479492,1.126954436302185,11.959912300109863,15.951031684875488,8.518531799316406,-0.6644667387008667,1.6004199981689453,0.35548222064971924,1.14522385597229,0.41557979583740234,3.2055866718292236
316,121559,121561,-0.04549512267112732,-0.04762398824095726,1.1027418375015259,13.22894287109375,27.797592163085938,10.807472229003906,-0.676466166973114,1.5914204120635986,0.3584820628166199,0.9132594466209412,0.5027015805244446,3.32460880279541
317,121569,121571,0.007110092788934708,-0.014838363975286484,1.057999849319458,7.230570316314697,31.586271286010742,12.451854705810547,-0.6719663739204407,1.5989199876785278,0.3539822995662689,0.8502600789070129,0.5807910561561584,3.4019672870635986
318,121579,121581,-0.015913361683487892,-0.02601497434079647,1.0310673713684082,-3.862015724182129,21.980470657348633,14.758089065551758,-0.6779661178588867,1.5839207172393799,0.35698214173316956,0.6108874678611755,0.6218855977058411,3.519221782684326
319,121589,121591,-0.018984779715538025,-0.039612967520952225,1.0305653810501099,-5.778819561004639,6.450344085693359,17.176786422729492,-0.676466166973114,1.6064196825027466,0.34648266434669495,0.24884840846061707,0.5834572315216064,3.692838430404663
320,121599,121601,-0.01978488452732563,-0.05234713479876518,1.0195409059524536,-0.27480417490005493,-6.008045673370361,19.696853637695312,-0.6704664826393127,1.5914204120635986,0.3434828221797943,0.19913776218891144,0.4688626825809479,3.864272356033325
321,121609,121611,-0.024474384263157845,0.11552401632070541,1.0049790143966675,2.7839956283569336,-15.23343563079834,20.7772216796875,-0.6749662160873413,1.5749212503433228,0.3509824573993683,0.2636083662509918,0.6254830360412598,4.028491497039795
322,121619,121621,-0.04891946539282799,0.01825169287621975,1.027970552444458,6.464651584625244,-22.50252914428711,23.17279624938965,-0.6659666895866394,1.5779210329055786,0.34498274326324463,0.4753400385379791,0.6058899760246277,4.220057010650635
323,121629,121631,-0.0404854379594326,-0.029373684898018837,1.043745517730713,15.422886848449707,-27.487773895263672,26.111621856689453,-0.676466166973114,1.579421043395996,0.3434828221797943,0.8177728056907654,0.6131598949432373,4.426878929138184
324,121639,121641,-0.02735315077006817,-0.03259158506989479,1.0548173189163208,21.44914436340332,-16.83277702331543,28.387432098388672,-0.6569671630859375,1.5869206190109253,0.3509824573993683,1.1135177612304688,0.6689541339874268,4.685092926025391
325,121649,121651,-0.024311766028404236,-0.0670342966914177,1.0223172903060913,21.107194900512695,1.9328545331954956,29.294809341430664,-0.6569671630859375,1.580920934677124,0.3629818558692932,1.081289291381836,1.035909652709961,4.980201721191406
326,121659,121661,-0.01494369376450777,-0.02946479618549347,1.042824387550354,12.066555976867676,24.133895874023438,25.696537017822266,-0.6494675278663635,1.579421043395996,0.3434828221797943,0.9667356610298157,1.1493515968322754,5.305961608886719
327,121669,121671,-0.02619842439889908,-0.06719007343053818,1.044718623161316,7.749650955200195,36.54084396362305,20.42723846435547,-0.676466166973114,1.579421043395996,0.35548222064971924,0.8751872777938843,1.1419681310653687,5.566044330596924
328,121679,121681,0.000353794515831396,-0.08242223411798477,1.0326005220413208,14.709813117980957,38.90463638305664,14.089703559875488,-0.6869656443595886,1.5749212503433228,0.341982901096344,0.2396235167980194,1.3835792541503906,5.810790538787842
329,121689,121691,0.014234069734811783,0.013981184922158718,1.067420482635498,16.94267463684082,35.77623748779297,6.3933939933776855,-0.6734663248062134,1.5524224042892456,0.3524823784828186,0.2996530532836914,1.35911226272583,5.915375709533691
330,121699,121701,-0.03959345072507858,0.009619138203561306,1.0671751499176025,8.126291275024414,16.862884521484375,-0.3343457579612732,-0.6749662160873413,1.5689215660095215,0.34798258543014526,-0.20269432663917542,1.611035943031311,6.010144233703613
331,121709,121711,-0.08024852722883224,-0.039051253348588943,1.119810700416565,12.650459289550781,1.5939446687698364,-5.355173587799072,-0.676466166973114,1.567421555519104,0.3434828221797943,-0.29366156458854675,1.713074803352356,6.004978179931641
332,121719,121721,-0.032151930034160614,-0.07572440803050995,1.0108541250228882,9.835519790649414,-3.738555908203125,-9.394268989562988,-0.6629668474197388,1.5629218816757202,0.3539822995662689,-0.364777147769928,1.915027379989624,5.956508636474609
333,121729,121731,-0.022232158109545708,0.013954457826912403,0.9516012668609619,8.126045227050781,3.8897690773010254,-14.349950790405273,-0.676466166973114,1.5494225025177002,0.3494825065135956,-0.3239281177520752,1.9970464706420898,5.865072250366211
334,121739,121741,0.012130176648497581,-0.020484289154410362,1.079437494277954,-2.73749041557312,7.755904197692871,-18.88166618347168,-0.6824658513069153,1.5554221868515015,0.3614819049835205,-0.18225477635860443,1.9040803909301758,5.7223005294799805
335,121749,121751,0.021762790158391,-0.12848518788814545,0.9488852024078369,-25.741535186767578,-0.03389408811926842,-24.45412826538086,-0.6734663248062134,1.5464226007461548,0.3614819049835205,-0.34033915400505066,1.8222322463989258,5.55289888381958
336,121759,121761,-0.024804290384054184,0.012271792627871037,0.9825350642204285,-33.95606231689453,7.145361423492432,-30.49094581604004,-0.6719663739204407,1.5569220781326294,0.34498274326324463,-0.11060179769992828,1.6807175874710083,5.303401947021484
337,121769,121771,-0.027644438669085503,0.12333281338214874,0.9860715270042419,-18.675100326538086,25.307933807373047,-30.951173782348633,-0.6824658513069153,1.5554221868515015,0.3494825065135956,-0.230805441737175,1.3212172985076904,5.0076584815979
338,121779,121781,0.054816558957099915,0.07451475411653519,0.9617573022842407,1.9061214923858643,41.296104431152344,-27.712299346923828,-0.676466166973114,1.543422818183899,0.36448177695274353,-0.5483129024505615,1.133388876914978,4.7057695388793945
339,121789,121791,-0.029595868661999702,0.06386175751686096,0.9930605292320251,19.02224349975586,47.2330436706543,-24.914907455444336,-0.6854656934738159,1.5584220886230469,0.36748161911964417,-0.9663679599761963,1.2211015224456787,4.438971042633057
340,121799,121801,-0.01478792354464531,-0.02206295356154442,0.9279333353042603,9.049636840820312,52.63315963745117,-22.7476863861084,-0.6809659600257874,1.5599219799041748,0.34498274326324463,-1.4105892181396484,1.353089690208435,4.196639060974121
341,121809,121811,0.018878016620874405,-0.033113379031419754,0.9627595543861389,-12.801673889160156,51.689048767089844,-18.065996170043945,-0.6959651708602905,1.5539222955703735,0.3539822995662689,-2.106630325317383,1.437447190284729,3.9865732192993164
342,121819,121821,0.02085486799478531,-0.03727258741855621,0.9903240203857422,-28.233800888061523,41.46281433105469,-10.172101974487305,-0.691465437412262,1.5554221868515015,0.34648266434669495,-2.390048027038574,1.188941478729248,3.7899227142333984
343,121829,121831,0.05608108267188072,-0.13719642162322998,0.9434170126914978,-38.38960266113281,27.28968620300293,-3.18298077583313,-0.6929653286933899,1.5689215660095215,0.34798258543014526,-2.917865514755249,0.7821165919303894,3.668645143508911
344,121839,121841,0.06512749195098877,-0.11443042010068893,1.0432701110839844,-39.54967498779297,6.397453784942627,2.9049999713897705,-0.6944652795791626,1.567421555519104,0.34648266434669495,-3.0414111614227295,0.5123950839042664,3.65282940864563
345,121849,121851,0.019492167979478836,-0.11220339685678482,0.9535908699035645,-34.881649017333984,-16.927244186401367,5.633011817932129,-0.6944652795791626,1.5734213590621948,0.3524823784828186,-3.213446855545044,0.30984261631965637,3.734241485595703
346,121859,121861,0.012178183533251286,-0.02106120064854622,0.9558784365653992,-24.526119232177734,-43.5155029296875,8.631449699401855,-0.6989650130271912,1.5779210329055786,0.3509824573993683,-3.057907819747925,-0.15807652473449707,3.754765748977661
347,121869,121871,-0.04809365049004555,-0.05140630900859833,0.9471549391746521,-3.7889087200164795,-59.64767837524414,10.19984245300293,-0.6809659600257874,1.5839207172393799,0.35698214173316956,-2.4937539100646973,-0.4819420576095581,3.8032970428466797
348,121879,121881,0.07512537389993668,-0.055944573134183884,0.9330122470855713,11.964211463928223,-59.85221862792969,13.271533966064453,-0.6884655356407166,1.5854207277297974,0.34648266434669495,-1.8533960580825806,-0.3537328839302063,3.9650235176086426
349,121889,121891,0.028127383440732956,-0.11663052439689636,0.9746920466423035,8.317728042602539,-52.02802658081055,13.282557487487793,-0.6944652795791626,1.582420825958252,0.34648266434669495,-1.2878109216690063,-0.19779148697853088,4.123133182525635
350,121899,121901,-0.030805528163909912,-0.10576104372739792,0.9586753845214844,5.796846389770508,-32.88219451904297,12.686654090881348,-0.6899654865264893,1.5899205207824707,0.3599819839000702,-0.9068694710731506,-0.12572146952152252,4.272238254547119
351,121909,121911,0.024555720388889313,0.006343068089336157,0.9892406463623047,5.542834281921387,-1.2446486949920654,10.03707218170166,-0.6854656934738159,1.5974200963974,0.35548222064971924,-0.7211921215057373,-0.03710869699716568,4.427707195281982
352,121919,121921,0.0224786177277565,-0.026009513065218925,0.9429718852043152,1.856701135635376,21.241252899169922,6.503416538238525,-0.683965802192688,1.595920205116272,0.3509824573993683,-0.825813889503479,-0.11402138322591782,4.515376567840576
353,121929,121931,-0.024344585835933685,0.00519523024559021,1.0006182193756104,-0.7725421786308289,39.21903610229492,3.896366596221924,-0.6944652795791626,1.6064196825027466,0.35548222064971924,-1.133486270904541,-0.013569517061114311,4.630121231079102
354,121939,121941,-0.03174685686826706,0.03965115174651146,0.9899604320526123,-0.5588434934616089,50.76446533203125,1.5072160959243774,-0.7004649639129639,1.6004199981689453,0.35548222064971924,-1.3881407976150513,-0.02804778330028057,4.647693634033203
355,121949,121951,-0.006476263515651226,0.001559109310619533,1.0725973844528198,-4.864861011505127,51.35975646972656,-2.5047085285186768,-0.6899654865264893,1.5929203033447266,0.34798258543014526,-2.2246973514556885,-0.056653473526239395,4.714561939239502
356,121959,121961,0.01546450424939394,-0.015963276848196983,1.0460889339447021,-2.174459457397461,35.55655288696289,-5.125438690185547,-0.7049647569656372,1.6139192581176758,0.35698214173316956,-2.6375527381896973,-0.11612898111343384,4.66904878616333
357,121969,121971,0.08662261068820953,-0.06584004312753677,0.9990970492362976,6.946016311645508,6.3702073097229,-8.289751052856445,-0.7034648060798645,1.6094194650650024,0.3614819049835205,-3.0507986545562744,-0.11775325238704681,4.633664608001709
358,121979,121981,0.09450850635766983,-0.03145585209131241,1.0457433462142944,8.54042911529541,-24.53891944885254,-11.161029815673828,-0.7064646482467651,1.5914204120635986,0.3494825065135956,-3.122750997543335,-0.03016352467238903,4.5632243156433105
359,121989,121991,0.015542772598564625,-0.03063437156379223,1.0314899682998657,2.390305519104004,-47.029823303222656,-13.564203262329102,-0.6929653286933899,1.6019198894500732,0.34798258543014526,-2.6572349071502686,0.07314091920852661,4.418152332305908
360,121999,122001,-0.00843342486768961,-0.044798463582992554,1.058571696281433,-2.075840950012207,-60.877464294433594,-14.519508361816406,-0.6794660091400146,1.5854207277297974,0.3584820628166199,-2.288027048110962,0.020329464226961136,4.264672756195068
361,122009,122011,-0.03391330689191818,-0.011695006862282753,1.084272861480713,2.8407909870147705,-60.972068786621094,-15.682621955871582,-0.6809659600257874,1.5839207172393799,0.34798258543014526,-1.4308186769485474,0.006508106831461191,4.069441795349121
362,122019,122021,-0.03312908113002777,0.08179593086242676,1.0437744855880737,2.4028587341308594,-51.86211013793945,-16.223411560058594,-0.6899654865264893,1.595920205116272,0.3599819839000702,-1.0272741317749023,0.045639440417289734,3.9672272205352783
363,122029,122031,-0.020481878891587257,-0.05191441997885704,0.9396251440048218,-11.22257137298584,-28.2198543548584,-15.58485221862793,-0.676466166973114,1.6034197807312012,0.36448177695274353,-0.3708590567111969,0.039076656103134155,3.7687509059906006
364,122039,122041,0.010674847289919853,-0.031736474484205246,1.068924069404602,-27.885299682617188,-2.0624208450317383,-13.938922882080078,-0.6854656934738159,1.5974200963974,0.3494825065135956,-0.3102879524230957,-0.2444271594285965,3.5965328216552734
365,122049,122051,0.09063602983951569,-0.05126990005373955,0.9893895983695984,-34.16050720214844,22.878623962402344,-11.762126922607422,-0.6794660091400146,1.6004199981689453,0.35548222064971924,-0.30842575430870056,-0.4202663004398346,3.495206594467163
366,122059,122061,0.027343828231096268,0.049640316516160965,1.0446581840515137,-33.81108856201172,32.375267028808594,-11.074018478393555,-0.6869656443595886,1.6289185285568237,0.3509824573993683,-0.7330296039581299,-0.7813119888305664,3.4173688888549805
367,122069,122071,0.02405795082449913,-0.03220878913998604,1.0554115772247314,-22.22043228149414,30.821130752563477,-10.26584529876709,-0.6959651708602905,1.6169191598892212,0.36598169803619385,-1.0627171993255615,-1.2944473028182983,3.2545714378356934
368,122079,122081,0.009017471224069595,-0.058033060282468796,1.0227181911468506,-0.10756111145019531,14.2827730178833,-10.654505729675293,-0.6884655356407166,1.6184190511703491,0.3434828221797943,-1.4638901948928833,-1.3546210527420044,3.2198939323425293
369,122089,122091,-0.0023931979667395353,-0.0212189182639122,1.0398423671722412,22.67169189453125,-6.9271368980407715,-11.849150657653809,-0.6794660091400146,1.5944201946258545,0.3584820628166199,-1.5288125276565552,-1.4430766105651855,3.0672450065612793
370,122099,122101,-0.03175831586122513,-0.09813658148050308,1.0565054416656494,37.28468704223633,-25.949092864990234,-12.020181655883789,-0.6809659600257874,1.5899205207824707,0.3509824573993683,-1.3271721601486206,-1.0390249490737915,2.9697585105895996
371,122109,122111,-0.02783569134771824,-0.02491472288966179,1.0917649269104004,44.69862365722656,-42.602439880371094,-9.845946311950684,-0.6854656934738159,1.5854207277297974,0.3404829800128937,-0.8846196532249451,-0.6183838248252869,2.8146812915802
372,122119,122121,-0.030579887330532074,-0.005268779117614031,1.0341746807098389,40.10496520996094,-46.87457275390625,-5.954202175140381,-0.6749662160873413,1.595920205116272,0.3539822995662689,-0.37330251932144165,-0.3346030116081238,2.6429667472839355
373,122129,122131,0.004421984776854515,0.010307231917977333,0.9822250008583069,32.376373291015625,-35.36213684082031,-0.4289957582950592,-0.6719663739204407,1.5899205207824707,0.34798258543014526,-0.1251818984746933,0.027360398322343826,2.6350643634796143
374,122139,122141,-0.013141869567334652,0.028652669861912727,1.03549063205719,17.897064208984375,-19.453441619873047,3.452221155166626,-0.6704664826393127,1.5914204120635986,0.3614819049835205,0.23631305992603302,0.25004148483276367,2.6011524200439453
375,122149,122151,-0.05514044687151909,-0.05189216136932373,1.0613371133804321,-0.4561968743801117,-14.14947509765625,5.422050952911377,-0.6734663248062134,1.582420825958252,0.35548222064971924,0.31110697984695435,0.5238438844680786,2.687319755554199
376,122159,122161,-0.08123235404491425,-0.022673895582556725,1.069111943244934,-11.296477317810059,-8.335493087768555,6.474233150482178,-0.6614668965339661,1.579421043395996,0.35548222064971924,0.5008459091186523,0.5145373344421387,2.7214157581329346
377,122169,122171,-0.009495086967945099,0.01631571166217327,1.0882642269134521,-10.197737693786621,4.897882461547852,5.526012420654297,-0.6584670543670654,1.5854207277297974,0.3434828221797943,0.6372122168540955,0.3635394275188446,2.764155387878418
378,122179,122181,0.011570950970053673,-0.1146622821688652,1.1076853275299072,-12.252704620361328,16.67326545715332,5.196565628051758,-0.6629668474197388,1.5989199876785278,0.3629818558692932,0.570121169090271,0.2055324763059616,2.8245887756347656
379,122189,122191,0.020122040063142776,-0.15167881548404694,1.0662975311279297,-5.248260974884033,24.7467098236084,8.682565689086914,-0.6749662160873413,1.5719213485717773,0.341982901096344,0.30847227573394775,0.06875211000442505,2.9024033546447754
380,122199,122201,-0.0034580326173454523,-0.047513820230960846,1.001682162284851,3.125554084777832,29.41594123840332,11.062471389770508,-0.6614668965339661,1.5914204120635986,0.35548222064971924,-0.07247133553028107,0.032491423189640045,3.0165600776672363
381,122209,122211,0.021942658349871635,0.05405644699931145,1.0205117464065552,8.62434196472168,27.214855194091797,10.465346336364746,-0.66896653175354,1.580920934677124,0.3539822995662689,-0.4328625500202179,0.1085735335946083,3.1416914463043213
382,122219,122221,-0.03546822443604469,0.06701318174600601,1.0421478748321533,6.540529251098633,11.895986557006836,9.239604949951172,-0.66896653175354,1.5749212503433228,0.3509824573993683,-0.7720381021499634,0.19857218861579895,3.2609405517578125
383,122229,122231,-0.014471319504082203,0.0133476248010993,1.003649115562439,1.9238260984420776,-13.595208168029785,6.784160137176514,-0.6734663248062134,1.5764211416244507,0.35548222064971924,-0.829085648059845,0.19047871232032776,3.3327889442443848
384,122239,122241,0.004020302556455135,-0.030017375946044922,0.9409993886947632,-2.767152786254883,-43.258758544921875,5.616455078125,-0.6659666895866394,1.5749212503433228,0.3539822995662689,-0.46476200222969055,0.16928789019584656,3.347952365875244
385,122249,122251,0.0497622936964035,-0.02367122657597065,0.9541605710983276,-12.073847770690918,-58.04776382446289,6.527094841003418,-0.6524673700332642,1.5644217729568481,0.3524823784828186,0.026703951880335808,0.12940992414951324,3.3833653926849365
386,122259,122261,-0.01638137735426426,-0.10022494941949844,0.9368564486503601,-18.603439331054688,-56.12725067138672,6.738533973693848,-0.6569671630859375,1.565921664237976,0.35698214173316956,0.8528030514717102,-0.03881971910595894,3.3934178352355957
387,122269,122271,-0.06719278544187546,0.0027733875904232264,1.0011537075042725,-21.66985321044922,-45.171226501464844,6.616913795471191,-0.6569671630859375,1.5779210329055786,0.3509824573993683,1.0599032640457153,-0.3080737888813019,3.5294559001922607
388,122279,122281,-0.031162582337856293,0.08278806507587433,0.9630417823791504,-15.433816909790039,-24.6754207611084,3.9267661571502686,-0.6674666404724121,1.579421043395996,0.34648266434669495,1.5657837390899658,-0.6001266241073608,3.5901355743408203
389,122289,122291,-0.031662970781326294,0.03498073294758797,0.9850283861160278,-6.100879669189453,-14.662786483764648,2.1906070709228516,-0.6434678435325623,1.5614218711853027,0.3314834237098694,1.8443055152893066,-0.7193276286125183,3.6303229331970215
390,122299,122301,-0.004142784047871828,0.10724791884422302,0.9964533448219299,29.668941497802734,-1.215628981590271,2.2431132793426514,-0.6569671630859375,1.5779210329055786,0.34498274326324463,2.0667295455932617,-0.6571257710456848,3.6294121742248535
391,122309,122311,0.02958792820572853,-0.07512649148702621,1.1789517402648926,51.32139205932617,6.546820640563965,1.7279012203216553,-0.6554672122001648,1.5704214572906494,0.3434828221797943,1.839687466621399,-0.18260958790779114,3.671959400177002
392,122319,122321,0.032289259135723114,-0.10320770740509033,1.0937070846557617,80.12639617919922,22.071937561035156,1.786123514175415,-0.6614668965339661,1.582420825958252,0.3524823784828186,1.746195673942566,0.21288922429084778,3.7174620628356934
393,122329,122331,0.08991456776857376,-0.022979596629738808,1.0293896198272705,85.94251251220703,34.87217712402344,-1.9865456819534302,-0.6794660091400146,1.5854207277297974,0.3704814612865448,1.6154096126556396,1.2621099948883057,3.670323610305786
394,122339,122341,0.07764589786529541,-0.04085263982415199,1.0118486881256104,63.964874267578125,37.47401809692383,-4.370815753936768,-0.66896653175354,1.580920934677124,0.3599819839000702,1.2373542785644531,1.8282253742218018,3.728729724884033
395,122349,122351,0.02179241180419922,-0.060904666781425476,0.9722113609313965,17.372264862060547,27.738935470581055,-8.782938957214355,-0.6704664826393127,1.5644217729568481,0.3614819049835205,0.8393222093582153,2.637847661972046,3.676565647125244
396,122359,122361,0.01782141625881195,-0.11887487769126892,0.9593568444252014,-16.69959259033203,14.774450302124023,-11.84092903137207,-0.6599670052528381,1.5569220781326294,0.35698214173316956,0.4516671597957611,2.7976338863372803,3.6369736194610596
397,122369,122371,0.023924939334392548,-0.13078835606575012,1.0104354619979858,-35.336814880371094,1.7598495483398438,-12.589620590209961,-0.6584670543670654,1.5524224042892456,0.35548222064971924,0.2943425178527832,2.493046522140503,3.5644466876983643
398,122379,122381,-0.027817264199256897,-0.13513560593128204,1.05433189868927,-29.51905632019043,-2.057985544204712,-10.526765823364258,-0.6734663248062134,1.5344232320785522,0.35548222064971924,0.6046342849731445,1.9722682237625122,3.470647096633911
399,122389,122391,0.031572598963975906,-0.2030649036169052,0.9624878764152527,-11.677932739257812,0.8191915154457092,-10.734718322753906,-0.6599670052528381,1.5689215660095215,0.35698214173316956,0.5820945501327515,1.8616787195205688,3.326225996017456
400,122399,122401,0.06540092825889587,-0.09998396039009094,1.0424209833145142,7.790402889251709,-4.472622394561768,-11.680304527282715,-0.6524673700332642,1.543422818183899,0.3434828221797943,0.6030548810958862,1.744781732559204,3.219107151031494
401,122409,122411,0.0643831342458725,-0.052671145647764206,1.0519264936447144,25.03296661376953,-10.253186225891113,-14.545059204101562,-0.6674666404724121,1.5344232320785522,0.3494825065135956,0.6411985754966736,1.9282166957855225,3.077509641647339
402,122419,122421,0.04424862563610077,-0.023303352296352386,1.0058187246322632,45.22984313964844,-3.7538185119628906,-14.902697563171387,-0.6629668474197388,1.5389230251312256,0.34798258543014526,0.7790050506591797,2.1859934329986572,2.9306581020355225
403,122429,122431,0.0296278428286314,-0.04100223258137703,1.0050628185272217,55.48092269897461,-1.0395742654800415,-12.60224437713623,-0.6629668474197388,1.5539222955703735,0.34798258543014526,0.7705221772193909,2.604069709777832,2.781012535095215
404,122439,122441,0.0650559812784195,-0.05471109598875046,1.0531723499298096,48.93251419067383,-2.1985278129577637,-8.734769821166992,-0.6644667387008667,1.5404229164123535,0.35548222064971924,0.8736921548843384,3.267861843109131,2.637498617172241
405,122449,122451,0.13543587923049927,0.006062413100153208,0.9963551163673401,33.29819107055664,-14.871179580688477,-1.0714263916015625,-0.6584670543670654,1.5374231338500977,0.3614819049835205,0.6213704347610474,3.798586845397949,2.504239797592163
406,122459,122461,0.07453951984643936,0.10761848092079163,0.9311079978942871,0.4873282313346863,-17.702739715576172,6.613096714019775,-0.6524673700332642,1.5224238634109497,0.3524823784828186,1.0157986879348755,3.9460463523864746,2.5608890056610107
407,122469,122471,0.011648989282548428,0.004354878328740597,0.951779842376709,-41.30397033691406,-14.185219764709473,10.483264923095703,-0.6389680504798889,1.5359231233596802,0.3539822995662689,1.290043592453003,3.6768648624420166,2.6913580894470215
408,122479,122481,0.02635764144361019,0.0022129269782453775,0.9971835613250732,-53.33628845214844,-11.337547302246094,12.875988006591797,-0.6539672613143921,1.5389230251312256,0.36598169803619385,1.366097092628479,3.1581807136535645,2.8005270957946777
409,122489,122491,0.037134576588869095,0.003460784675553441,1.0212023258209229,-59.346412658691406,-4.260735988616943,15.704273223876953,-0.6359682083129883,1.541922926902771,0.3539822995662689,1.4048452377319336,2.8395957946777344,2.8498735427856445
410,122499,122501,-0.0037229873705655336,-0.06633497774600983,0.9954355955123901,-60.39372253417969,2.56367826461792,18.721784591674805,-0.6524673700332642,1.5464226007461548,0.3434828221797943,1.4692275524139404,2.4158754348754883,2.9568800926208496
411,122509,122511,-0.028372323140501976,-0.16080202162265778,0.9506729245185852,-46.68275451660156,6.405718803405762,23.708084106445312,-0.6659666895866394,1.565921664237976,0.3509824573993683,1.4002653360366821,1.5942689180374146,3.1881263256073
412,122519,122521,-0.1065158098936081,0.05735525116324425,1.0000747442245483,-24.926528930664062,4.692142486572266,29.43763542175293,-0.6539672613143921,1.5629218816757202,0.34498274326324463,1.1578720808029175,1.3839958906173706,3.2971737384796143
413,122529,122531,-0.04304295778274536,0.06860183924436569,0.9046757817268372,-6.510026454925537,11.97436237335205,35.57317352294922,-0.6614668965339661,1.5584220886230469,0.3584820628166199,1.086247205734253,0.9889897704124451,3.608677625656128
414,122539,122541,-0.030819347128272057,0.024946097284555435,0.9426687359809875,8.247949600219727,28.29282569885254,40.89012145996094,-0.6824658513069153,1.579421043395996,0.3434828221797943,1.0216225385665894,1.0327683687210083,3.929271936416626
415,122549,122551,-0.04253929853439331,-0.08259958773851395,0.9310222864151001,4.5367112159729,40.34156799316406,43.95614242553711,-0.6734663248062134,1.582420825958252,0.3494825065135956,0.7744925618171692,1.1106938123703003,4.328715801239014
416,122559,122561,-0.035286568105220795,-0.04123039171099663,0.8785396218299866,-15.661684036254883,43.63460922241211,43.77363204956055,-0.6749662160873413,1.5779210329055786,0.3539822995662689,0.26789557933807373,1.205749750137329,4.727081298828125
417,122569,122571,-0.06599018722772598,0.04329763725399971,0.9303951263427734,-36.15085983276367,34.31698226928711,40.866302490234375,-0.6809659600257874,1.5869206190109253,0.3599819839000702,-0.3935014009475708,0.9881552457809448,5.135920524597168
418,122579,122581,-0.0558433011174202,-0.045432090759277344,1.0372834205627441,-48.924800872802734,7.089115619659424,38.28355407714844,-0.6749662160873413,1.5929203033447266,0.3599819839000702,-0.7573895454406738,0.644288957118988,5.551527500152588
419,122589,122591,-0.022034352645277977,0.02238062024116516,0.9104259014129639,-55.977108001708984,-21.65900993347168,35.655540466308594,-0.66896653175354,1.5929203033447266,0.3719813823699951,-0.5233975052833557,0.2684767544269562,5.976913928985596
420,122599,122601,-0.03161393105983734,-0.0337270088493824,0.8842002153396606,-47.26901626586914,-48.48533630371094,29.973852157592773,-0.6629668474197388,1.5899205207824707,0.3509824573993683,-0.35075557231903076,-0.29733750224113464,6.330066680908203
421,122609,122611,-0.0446527861058712,0.01527225598692894,0.9996705055236816,-34.760093688964844,-62.19501876831055,25.352418899536133,-0.6719663739204407,1.5899205207824707,0.33898305892944336,0.07672304660081863,-0.7899795174598694,6.637449264526367
422,122619,122621,-0.06093309819698334,-0.030074138194322586,1.022371530532837,-12.654102325439453,-66.44096374511719,19.9576473236084,-0.6749662160873413,1.604919672012329,0.3539822995662689,0.9032309055328369,-1.1062068939208984,6.922922611236572
423,122629,122631,-0.05440212041139603,0.06243431940674782,0.9374353885650635,9.34414291381836,-55.09857177734375,15.765582084655762,-0.6659666895866394,1.6019198894500732,0.3509824573993683,1.4545869827270508,-1.0998475551605225,7.1078901290893555
424,122639,122641,-0.008718696422874928,-0.0514155812561512,1.038008213043213,24.26946258544922,-38.418983459472656,9.741098403930664,-0.6644667387008667,1.5914204120635986,0.3614819049835205,2.0950660705566406,-0.9487240314483643,7.265834331512451
425,122649,122651,0.007645329926162958,-0.07976296544075012,0.9988100528717041,25.26593017578125,-18.22166633605957,5.323289394378662,-0.6614668965339661,1.6064196825027466,0.35548222064971924,2.536400318145752,-0.8384379744529724,7.400091171264648
426,122659,122661,-0.029306255280971527,-0.030012834817171097,0.8989993333816528,9.674517631530762,1.1785868406295776,0.19101034104824066,-0.6629668474197388,1.61091947555542,0.3509824573993683,2.766942024230957,-0.5917644500732422,7.4578986167907715
427,122669,122671,-0.09396406263113022,0.08183303475379944,0.9155519604682922,-4.611787796020508,17.13788414001465,-3.2529408931732178,-0.6629668474197388,1.61091947555542,0.3509824573993683,2.776090145111084,-0.5159551501274109,7.4787774085998535
428,122679,122681,-0.06431316584348679,0.07630424201488495,1.0168848037719727,-18.454030990600586,29.540172576904297,-6.480774879455566,-0.6629668474197388,1.61091947555542,0.3509824573993683,2.44739031791687,-0.6740804314613342,7.496293544769287
429,122689,122691,0.00890385452657938,0.01771913468837738,0.9666357636451721,-10.976591110229492,40.38623809814453,-10.63188648223877,-0.6854656934738159,1.5974200963974,0.3524823784828186,1.9338504076004028,-0.7752268314361572,7.432703018188477
430,122699,122701,0.06109050288796425,0.009714113548398018,1.0181634426116943,2.229243278503418,42.02564239501953,-15.834976196289062,-0.6794660091400146,1.6154191493988037,0.34648266434669495,2.061251163482666,-0.8929698467254639,7.266402244567871
431,122709,122711,-0.018384383991360664,-0.029027706012129784,1.055491328239441,21.111656188964844,31.863874435424805,-16.609437942504883,-0.6869656443595886,1.6079195737838745,0.3719813823699951,1.3710095882415771,-0.8497247099876404,7.132186412811279
432,122719,122721,-0.005509559065103531,-0.09839770942926407,0.9998481273651123,28.979360580444336,23.28021240234375,-16.239906311035156,-0.6824658513069153,1.6004199981689453,0.35548222064971924,1.481986165046692,-0.5957869291305542,6.87500524520874
433,122729,122731,0.00903183501213789,-0.08110100775957108,1.0291106700897217,30.33902359008789,10.04457950592041,-15.540749549865723,-0.6809659600257874,1.595920205116272,0.36598169803619385,1.0843623876571655,-0.3168613016605377,6.740992069244385
434,122739,122741,-0.001973023870959878,-0.01474716141819954,1.1063846349716187,30.661649703979492,6.488598346710205,-16.83873176574707,-0.6824658513069153,1.6214189529418945,0.36448177695274353,1.1553771495819092,-0.08529821783304214,6.572229862213135
435,122749,122751,-0.051606833934783936,-0.13676457107067108,1.11288321018219,36.05403137207031,2.444110870361328,-17.480321884155273,-0.6809659600257874,1.595920205116272,0.3599819839000702,1.090775489807129,0.3348228633403778,6.374968528747559
436,122759,122761,-0.008328673429787159,-0.1728467345237732,1.1085840463638306,28.986248016357422,16.333511352539062,-17.421682357788086,-0.676466166973114,1.5974200963974,0.3704814612865448,1.0909777879714966,0.6473846435546875,6.208437442779541
437,122769,122771,0.012761245481669903,-0.09196898341178894,1.0515140295028687,8.231465339660645,27.090068817138672,-12.661669731140137,-0.6884655356407166,1.5944201946258545,0.3704814612865448,0.8124221563339233,0.7958939075469971,6.10350227355957
438,122779,122781,0.027716035023331642,-0.013549406081438065,1.0506621599197388,-6.77878999710083,41.65202713012695,-10.553635597229004,-0.691465437412262,1.5854207277297974,0.35548222064971924,0.7644213438034058,0.8574756979942322,5.954905033111572
439,122789,122791,0.0032231416553258896,-0.03172776848077774,1.0886338949203491,1.442708969116211,53.63210678100586,-10.938173294067383,-0.691465437412262,1.5914204120635986,0.36748161911964417,0.4158249497413635,0.8075410723686218,5.8466477394104
440,122799,122801,-0.018478544428944588,-0.06144723296165466,1.062351942062378,7.871007919311523,54.4909782409668,-11.317954063415527,-0.6869656443595886,1.5899205207824707,0.3629818558692932,0.02514158934354782,0.7920592427253723,5.730764865875244
441,122809,122811,-0.0032508503645658493,-0.018274370580911636,1.0268332958221436,10.204818725585938,49.73173141479492,-14.051037788391113,-0.7034648060798645,1.5854207277297974,0.3494825065135956,-0.3634098172187805,0.9018242955207825,5.600750923156738
442,122819,122821,0.039038822054862976,0.07283637672662735,1.0408265590667725,-8.57473373413086,41.28468322753906,-10.116751670837402,-0.691465437412262,1.579421043395996,0.35548222064971924,-1.1118547916412354,0.9734101295471191,5.502925395965576
443,122829,122831,0.021452385932207108,0.10082327574491501,1.0488022565841675,-32.92012405395508,17.545217514038086,-3.7932417392730713,-0.7064646482467651,1.567421555519104,0.3434828221797943,-1.162754774093628,0.8624269962310791,5.373696804046631
444,122839,122841,-0.04320395737886429,-0.028452813625335693,1.0369805097579956,-55.65916442871094,-5.341516494750977,-0.7250609397888184,-0.6929653286933899,1.580920934677124,0.3629818558692932,-1.3552446365356445,0.22146037220954895,5.360991477966309
445,122849,122851,-0.09849114716053009,-0.034702200442552567,1.0196384191513062,-68.32891845703125,-16.854692459106445,-0.34151825308799744,-0.6899654865264893,1.580920934677124,0.34798258543014526,-1.3457152843475342,-0.11934243142604828,5.341628551483154
446,122859,122861,-0.09380059689283371,0.07449328899383545,0.9827921986579895,-58.20979690551758,-21.33028793334961,1.084580421447754,-0.6929653286933899,1.580920934677124,0.3629818558692932,-1.1501243114471436,-0.8050282597541809,5.336090087890625
447,122869,122871,-0.0023283131886273623,0.03250763192772865,1.0568993091583252,-31.46466636657715,-18.267114639282227,2.18527889251709,-0.6794660091400146,1.5854207277297974,0.3404829800128937,-1.1233530044555664,-1.140895128250122,5.368513107299805
448,122879,122881,0.009528408758342266,0.018016206100583076,0.9393813610076904,7.095391750335693,1.8304486274719238,2.729959487915039,-0.6854656934738159,1.5884205102920532,0.3404829800128937,-0.8420387506484985,-1.4441354274749756,5.383506774902344
449,122889,122891,0.004314374644309282,-0.029242398217320442,0.925629198551178,30.17115020751953,17.365249633789062,-0.02000838704407215,-0.6959651708602905,1.5869206190109253,0.341982901096344,-0.9378818273544312,-1.30714750289917,5.428305149078369
450,122899,122901,0.020621147006750107,0.0803806260228157,0.8935046195983887,42.42390441894531,28.210250854492188,-6.196031093597412,-0.7004649639129639,1.5914204120635986,0.34648266434669495,-1.3307291269302368,-0.8422906398773193,5.4810662269592285
451,122909,122911,0.016409408301115036,0.02605435624718666,0.9577351212501526,34.197383880615234,26.386093139648438,-13.399788856506348,-0.691465437412262,1.582420825958252,0.3404829800128937,-1.5509583950042725,-0.45311465859413147,5.411911487579346
452,122919,122921,-0.004182793665677309,-0.10417348146438599,0.9706538915634155,18.549724578857422,17.173717498779297,-19.37691879272461,-0.683965802192688,1.580920934677124,0.35698214173316956,-1.670510172843933,-0.27943339943885803,5.232863426208496
453,122929,122931,0.02651168778538704,0.011219198815524578,0.9379815459251404,2.5343360900878906,2.6243672370910645,-22.00962257385254,-0.683965802192688,1.5869206190109253,0.3509824573993683,-1.9186122417449951,0.002364697866141796,5.07206392288208
454,122939,122941,0.04347997158765793,0.08900011330842972,0.9212267994880676,-11.902886390686035,-9.988548278808594,-24.330032348632812,-0.6854656934738159,1.5854207277297974,0.36448177695274353,-1.7069644927978516,0.01099962554872036,4.801373481750488
455,122949,122951,0.010481868870556355,0.05976667255163193,1.021850347518921,-16.35683822631836,-21.175867080688477,-26.753007888793945,-0.6899654865264893,1.5779210329055786,0.3509824573993683,-1.6604746580123901,-0.16883239150047302,4.55497932434082
456,122959,122961,-0.01902006007730961,-0.043161626905202866,1.0480422973632812,-17.567489624023438,-27.98711395263672,-27.585451126098633,-0.6959651708602905,1.5989199876785278,0.3539822995662689,-1.4433035850524902,-0.20724593102931976,4.318668842315674
457,122969,122971,-0.03457237780094147,-0.03047339804470539,1.048186182975769,-16.905405044555664,-18.279800415039062,-26.931251525878906,-0.6944652795791626,1.5974200963974,0.3494825065135956,-1.302138090133667,-0.41764408349990845,4.0622382164001465
458,122979,122981,0.057512786239385605,-0.026615288108587265,1.0511423349380493,-15.928531646728516,-1.0906312465667725,-25.23429298400879,-0.6779661178588867,1.604919672012329,0.3629818558692932,-1.041566252708435,-0.6080353856086731,3.780806541442871
459,122989,122991,0.06001650169491768,-0.0686100423336029,1.031111240386963,-18.05308723449707,15.593340873718262,-24.20150375366211,-0.691465437412262,1.5944201946258545,0.3614819049835205,-1.1386563777923584,-0.7857035398483276,3.5495762825012207
460,122999,123001,-0.04033634066581726,0.011131242848932743,1.0571038722991943,-20.425430297851562,29.256114959716797,-24.19508171081543,-0.7019649147987366,1.5929203033447266,0.35698214173316956,-1.269513487815857,-1.0019806623458862,3.2956528663635254
461,123009,123011,-0.08976543694734573,0.06862154603004456,1.064850926399231,-24.79450035095215,33.79451370239258,-24.03111457824707,-0.6884655356407166,1.6094194650650024,0.3494825065135956,-1.5854259729385376,-1.189578652381897,3.0661263465881348
462,123019,123021,-0.00030832612537778914,0.08474059402942657,1.0777262449264526,-26.02373695373535,27.721088409423828,-24.278684616088867,-0.6899654865264893,1.61091947555542,0.3599819839000702,-2.011711835861206,-1.5776052474975586,2.8022491931915283
463,123029,123031,0.013448246754705906,0.06678105890750885,1.1052247285842896,-27.12858772277832,15.338114738464355,-25.95634651184082,-0.6929653286933899,1.5989199876785278,0.34798258543014526,-2.3930773735046387,-1.6223618984222412,2.644791603088379
464,123039,123041,-0.006650330498814583,-0.0943087488412857,1.020499587059021,-27.513954162597656,6.447535514831543,-29.083263397216797,-0.6929653286933899,1.61091947555542,0.36598169803619385,-2.5125184059143066,-1.9810740947723389,2.3447885513305664
465,123049,123051,-0.046260833740234375,-0.0919216126203537,1.1018010377883911,-24.587366104125977,-6.430537700653076,-29.315061569213867,-0.6974651217460632,1.6064196825027466,0.33448326587677,-2.5291826725006104,-2.0550920963287354,2.1196110248565674
466,123059,123061,-0.07998540252447128,-0.035813234746456146,1.0839107036590576,-19.310449600219727,-16.546117782592773,-28.702510833740234,-0.6899654865264893,1.5929203033447266,0.3509824573993683,-2.3422207832336426,-2.371488094329834,1.7715390920639038
467,123069,123071,-0.03812042623758316,0.027558686211705208,1.0430755615234375,-16.347932815551758,-19.48393440246582,-26.88471221923828,-0.6854656934738159,1.6064196825027466,0.35548222064971924,-2.0830934047698975,-2.600900173187256,1.457940697669983
468,123079,123081,-0.029641883447766304,0.03562155365943909,1.0262376070022583,-16.131242752075195,-13.579597473144531,-25.178361892700195,-0.6884655356407166,1.5944201946258545,0.3584820628166199,-2.092115640640259,-2.5692195892333984,1.3526955842971802
469,123089,123091,-0.025678714737296104,-0.05457690358161926,1.0200210809707642,-12.032719612121582,-7.005835056304932,-23.82665252685547,-0.6794660091400146,1.6004199981689453,0.3434828221797943,-1.9793622493743896,-2.878605604171753,1.0639965534210205
470,123099,123101,-0.012095100246369839,-0.1123059019446373,1.0613808631896973,-4.297162055969238,-1.7033840417861938,-22.90282440185547,-0.6749662160873413,1.604919672012329,0.34498274326324463,-1.9611847400665283,-2.9581594467163086,0.8713984489440918
471,123109,123111,0.012550180777907372,-0.11847119778394699,1.0690008401870728,3.8423354625701904,-2.9349782466888428,-21.808629989624023,-0.6824658513069153,1.6004199981689453,0.3404829800128937,-1.9232003688812256,-3.200207233428955,0.5680583119392395
472,123119,123121,0.03073235973715782,-0.12754212319850922,0.9571778774261475,10.878332138061523,-3.8461313247680664,-19.6220645904541,-0.66896653175354,1.61091947555542,0.33898305892944336,-1.8671663999557495,-3.1506245136260986,0.35654646158218384
473,123129,123131,0.04521229490637779,-0.022169290110468864,0.9173648953437805,17.813688278198242,-5.035392761230469,-17.849843978881836,-0.6719663739204407,1.6019198894500732,0.3509824573993683,-1.7913495302200317,-3.055043935775757,0.15001125633716583
474,123139,123141,0.08212878555059433,0.13771279156208038,0.9627797603607178,20.097551345825195,-3.5297718048095703,-16.354572296142578,-0.6779661178588867,1.5899205207824707,0.341982901096344,-1.7050398588180542,-2.7894444465637207,0.0032284464687108994
475,123149,123151,0.06258118897676468,0.1788661628961563,0.9733390212059021,22.9389705657959,-1.946954607963562,-15.173189163208008,-0.6719663739204407,1.5869206190109253,0.34798258543014526,-1.6453931331634521,-2.62264084815979,-0.17580963671207428
476,123159,123161,0.008580775931477547,0.17429322004318237,1.009101152420044,24.05913543701172,0.6767326593399048,-13.819923400878906,-0.6659666895866394,1.5989199876785278,0.33598318696022034,-1.6883612871170044,-2.5509536266326904,-0.34876319766044617
