,timestamp_start,timestamp_end,acc.x,acc.y,acc.z,gyro.x,gyro.y,gyro.z,mag.x,mag.y,mag.z,stabilizer.pitch,stabilizer.roll,stabilizer.yaw
0,35359,35360,-0.017412589862942696,-0.04605532065033913,1.0022423267364502,9.848703384399414,-60.07447052001953,11.458294868469238,-0.6389680504798889,1.526923656463623,0.26098695397377014,0.38693538308143616,-1.5734035968780518,2.099078416824341
1,35369,35370,-0.0046523320488631725,-0.04011696204543114,1.005999207496643,45.14181137084961,-42.473480224609375,11.477285385131836,-0.6374680995941162,1.5314234495162964,0.26848655939102173,0.48476362228393555,-1.024345874786377,2.322328567504883
2,35379,35380,-0.0046474514529109,-0.07549750059843063,0.9640672206878662,72.07245635986328,-17.2250919342041,11.794010162353516,-0.6509674191474915,1.5239237546920776,0.26998651027679443,0.8495983481407166,-0.18247880041599274,2.492880344390869
3,35389,35390,-0.014309019781649113,-0.05536980926990509,0.9451166987419128,85.8358383178711,14.396071434020996,12.148630142211914,-0.6464676856994629,1.5254236459732056,0.28048595786094666,0.6116005182266235,0.4553053081035614,2.5958547592163086
4,35399,35400,0.00836973451077938,-0.050501856952905655,1.0398778915405273,77.74796295166016,34.22942352294922,12.294280052185059,-0.6494675278663635,1.5224238634109497,0.2654867172241211,0.25437304377555847,1.127233862876892,2.699150323867798
5,35409,35410,0.02475646696984768,-0.11536983400583267,0.9283241629600525,47.0596923828125,35.167396545410156,11.436017990112305,-0.6509674191474915,1.5209239721298218,0.28198590874671936,-0.0740426778793335,1.9111253023147583,2.850360155105591
6,35419,35420,-0.016880743205547333,-0.11358192563056946,0.9374416470527649,1.2278730869293213,16.324296951293945,7.996399879455566,-0.6554672122001648,1.5104244947433472,0.2744862735271454,-0.43012046813964844,2.019568681716919,2.9450459480285645
7,35429,35430,-0.03944352641701698,-0.1962267905473709,0.9079816937446594,-50.20191955566406,-17.714405059814453,2.594505786895752,-0.6494675278663635,1.5194239616394043,0.2654867172241211,-0.22973668575286865,1.6374843120574951,2.977391242980957
8,35439,35440,-0.0954136997461319,-0.2008132040500641,0.9548656940460205,-83.76798248291016,-45.73440170288086,-1.723679542541504,-0.6314684152603149,1.5344232320785522,0.26848655939102173,0.23361553251743317,0.8701933026313782,2.9638001918792725
9,35449,35450,-0.0435405932366848,-0.20008781552314758,0.9309976696968079,-99.54983520507812,-58.4785270690918,-3.1455721855163574,-0.6434678435325623,1.543422818183899,0.2654867172241211,0.8004893064498901,-0.22461667656898499,2.9180028438568115
10,35459,35460,-0.03651422634720802,-0.1443505436182022,0.9500787258148193,-95.31890869140625,-55.116451263427734,-3.5575010776519775,-0.6269686222076416,1.5389230251312256,0.2639867961406708,1.1458669900894165,-1.1741771697998047,2.869314193725586
11,35469,35470,-0.05029522255063057,-0.020193375647068024,0.957115650177002,-75.26006317138672,-54.61616516113281,-4.835395336151123,-0.6299684643745422,1.5359231233596802,0.26998651027679443,2.022219181060791,-1.9749540090560913,2.882162094116211
12,35479,35480,-0.054131925106048584,0.07533103972673416,0.9805766344070435,-38.903419494628906,-47.283729553222656,-6.24623966217041,-0.622468888759613,1.543422818183899,0.2594870328903198,2.6184093952178955,-2.4576873779296875,2.8598475456237793
13,35489,35490,-0.02898738905787468,-0.05307764559984207,0.9542127251625061,5.497392177581787,-33.036312103271484,-9.069541931152344,-0.622468888759613,1.543422818183899,0.2654867172241211,2.6754019260406494,-2.534895658493042,2.7747676372528076
14,35499,35500,-0.007479716092348099,-0.10946310311555862,0.9542735815048218,54.355552673339844,-20.96471405029297,-11.280088424682617,-0.622468888759613,1.543422818183899,0.2654867172241211,2.9387571811676025,-2.048980712890625,2.671713352203369
15,35509,35510,0.04659334942698479,-0.06949331611394882,0.9006759524345398,87.85594940185547,-2.6691782474517822,-12.158629417419434,-0.622468888759613,1.543422818183899,0.2654867172241211,2.942126989364624,-1.2995882034301758,2.5609323978424072
16,35519,35520,0.06201651319861412,-0.050682973116636276,0.9441332221031189,108.87703704833984,8.596781730651855,-12.450108528137207,-0.6359682083129883,1.5449227094650269,0.28198590874671936,2.9636197090148926,-0.05638633668422699,2.4005818367004395
17,35529,35530,0.057108666747808456,-0.041400548070669174,0.9230858087539673,109.15324401855469,11.80970573425293,-10.164592742919922,-0.6359682083129883,1.5449227094650269,0.27898603677749634,2.895927667617798,1.0293046236038208,2.286437749862671
18,35539,35540,-0.018048854544758797,-0.1272597312927246,0.9596003293991089,89.5323486328125,11.323244094848633,-5.733566761016846,-0.6374680995941162,1.5344232320785522,0.2834858298301697,2.722744941711426,2.1607251167297363,2.188267469406128
19,35549,35550,-0.04403594136238098,-0.1283666342496872,1.05564284324646,47.93773651123047,9.885016441345215,-4.394679546356201,-0.6419678926467896,1.541922926902771,0.29098543524742126,2.592785120010376,2.6004908084869385,2.1959080696105957
20,35559,35560,0.01339501328766346,-0.02077176235616207,0.9477100968360901,2.03873348236084,17.53495216369629,-2.6478147506713867,-0.6329683661460876,1.5239237546920776,0.27898603677749634,2.3765718936920166,3.229680299758911,2.0553479194641113
21,35569,35570,-0.013033472001552582,-0.053135309368371964,1.0912091732025146,-33.853858947753906,11.47943115234375,-0.7375885844230652,-0.6374680995941162,1.5254236459732056,0.277486115694046,2.4712324142456055,2.3796639442443848,2.2509078979492188
22,35579,35580,0.09554726630449295,-0.08958713710308075,1.068712592124939,-53.6962776184082,-1.9165213108062744,-1.4843697547912598,-0.6299684643745422,1.541922926902771,0.28498575091362,2.4346296787261963,1.691324234008789,2.312248468399048
23,35589,35590,0.14288248121738434,-0.04213395714759827,0.9879578948020935,-52.13260269165039,-7.741191864013672,-2.2393312454223633,-0.6284685730934143,1.5344232320785522,0.2834858298301697,2.4485812187194824,1.2478313446044922,2.255561590194702
24,35599,35600,0.03048698790371418,0.10161638259887695,1.1728726625442505,-30.205610275268555,-13.357268333435059,-2.9655396938323975,-0.6374680995941162,1.5344232320785522,0.277486115694046,2.4654664993286133,0.890142023563385,2.19868803024292
25,35609,35610,-0.001849138061515987,-0.01385478675365448,1.0828642845153809,-9.13937759399414,-17.241634368896484,-0.5774788856506348,-0.6434678435325623,1.5344232320785522,0.27148643136024475,2.701009750366211,0.8125739097595215,2.152324914932251
26,35619,35620,-0.01560230366885662,-0.16736264526844025,1.0083353519439697,4.45936393737793,-13.934436798095703,3.1130642890930176,-0.6269686222076416,1.5329233407974243,0.28198590874671936,2.726222276687622,0.8747320771217346,2.113295316696167
27,35629,35630,-0.015416089445352554,-0.20205312967300415,1.0208536386489868,13.397613525390625,-9.978961944580078,4.423240661621094,-0.6329683661460876,1.5089244842529297,0.27898603677749634,2.760561943054199,1.0020644664764404,2.1189703941345215
28,35639,35640,0.020758286118507385,-0.20841538906097412,0.9405376315116882,21.219335556030273,1.2734808921813965,3.382866621017456,-0.6329683661460876,1.514924168586731,0.27898603677749634,2.961768627166748,1.1444368362426758,2.2032461166381836
29,35649,35650,0.004904249217361212,-0.12202749401330948,0.9069421887397766,19.667503356933594,18.22800064086914,2.55602765083313,-0.6344682574272156,1.5194239616394043,0.277486115694046,2.94059419631958,1.483580470085144,2.2015535831451416
30,35659,35660,-0.05425863340497017,-0.027612030506134033,0.9945819973945618,8.006550788879395,41.71312713623047,1.3740781545639038,-0.6374680995941162,1.528423547744751,0.2744862735271454,2.5621554851531982,1.6941472291946411,2.1894445419311523
31,35669,35670,-0.10059299319982529,-0.09013241529464722,1.0558158159255981,-13.608447074890137,52.52462387084961,-1.9670652151107788,-0.6299684643745422,1.5179240703582764,0.26998651027679443,1.9457967281341553,1.6636861562728882,2.1651556491851807
32,35679,35680,-0.007484242785722017,-0.14712753891944885,1.0220952033996582,-37.404884338378906,44.7998046875,-4.013309001922607,-0.6389680504798889,1.5329233407974243,0.28498575091362,1.5326937437057495,1.2559692859649658,2.218539237976074
33,35689,35690,-0.011272527277469635,-0.12065348029136658,1.0367380380630493,-48.435733795166016,25.00634765625,-4.752868175506592,-0.6509674191474915,1.5389230251312256,0.28798559308052063,1.2323508262634277,0.6453410983085632,2.251779556274414
34,35699,35700,0.03247922658920288,-0.1573161482810974,0.9801909327507019,-48.44533157348633,3.7385060787200928,-5.02333402633667,-0.6494675278663635,1.5224238634109497,0.2744862735271454,1.1365472078323364,0.5182316899299622,2.077507495880127
35,35709,35710,0.06191301345825195,-0.12586867809295654,0.9987220764160156,-37.16341781616211,-10.109930992126465,-5.078664302825928,-0.6374680995941162,1.528423547744751,0.2744862735271454,1.2506303787231445,0.2031136453151703,2.005030393600464
36,35719,35720,0.03999469801783562,-0.07621115446090698,1.0296564102172852,-18.486831665039062,-12.493982315063477,-4.144894599914551,-0.6329683661460876,1.526923656463623,0.26998651027679443,1.4010756015777588,-0.16705217957496643,2.000460624694824
37,35729,35730,0.08484001457691193,-0.00846145674586296,1.039148211479187,4.694611549377441,-5.890803337097168,-3.6226449012756348,-0.6284685730934143,1.528423547744751,0.2744862735271454,1.3491265773773193,-0.15560418367385864,1.9113329648971558
38,35739,35740,0.07846279442310333,0.004222340416163206,1.0038328170776367,18.6008358001709,-6.765726566314697,-3.917614221572876,-0.6314684152603149,1.5404229164123535,0.2744862735271454,1.4687436819076538,0.1439838707447052,1.8372927904129028
39,35749,35750,0.010112174786627293,-0.06540677696466446,0.973430871963501,33.767547607421875,2.8441617488861084,-2.4817054271698,-0.6329683661460876,1.5359231233596802,0.2669866383075714,1.5096410512924194,0.37791186571121216,1.8201473951339722
40,35759,35760,0.003900915151461959,-0.04252457246184349,0.9775677919387817,40.361289978027344,10.837489128112793,-0.5207127332687378,-0.6554672122001648,1.5224238634109497,0.2864856719970703,1.3762282133102417,0.7869096994400024,1.7894564867019653
41,35769,35770,0.06008973345160484,-0.0066707865335047245,1.0143468379974365,37.33658981323242,15.902887344360352,1.779349684715271,-0.6344682574272156,1.5194239616394043,0.2834858298301697,1.1693145036697388,1.2808271646499634,1.7602239847183228
42,35779,35780,-0.04265182837843895,-0.059933852404356,1.0354957580566406,26.781574249267578,16.48604393005371,4.596714019775391,-0.6479675769805908,1.526923656463623,0.26998651027679443,0.9146357178688049,1.3060288429260254,1.8588320016860962
43,35789,35790,-0.08906662464141846,-0.11582662910223007,1.0543984174728394,9.761077880859375,8.978079795837402,5.883877277374268,-0.6404679417610168,1.513424277305603,0.277486115694046,0.7315236926078796,1.60336434841156,1.8792589902877808
44,35799,35800,0.014598357491195202,-0.15003009140491486,0.9768548607826233,-10.356389999389648,1.2927250862121582,7.0873212814331055,-0.6374680995941162,1.5164241790771484,0.28048595786094666,0.7135468125343323,1.577821969985962,1.9512676000595093
45,35809,35810,0.013339035212993622,-0.12062327563762665,1.005262851715088,-19.960987091064453,1.852044701576233,8.868308067321777,-0.6344682574272156,1.4954252243041992,0.26848655939102173,0.7287347912788391,1.303412675857544,2.0579445362091064
46,35819,35820,0.005731277633458376,-0.118049256503582,0.9960028529167175,-25.78179168701172,6.023902416229248,6.440324306488037,-0.6374680995941162,1.498425006866455,0.26248687505722046,0.6983046531677246,1.1288141012191772,2.123213291168213
47,35829,35830,0.007097901776432991,-0.0735507607460022,1.016279697418213,-17.174379348754883,6.869937896728516,4.39824914932251,-0.6299684643745422,1.5059247016906738,0.2759861946105957,0.5275895595550537,0.7704586386680603,2.180135488510132
48,35839,35840,0.02749258279800415,-0.026154235005378723,0.9971884489059448,-2.875046730041504,7.551746368408203,2.478041410446167,-0.6434678435325623,1.5074245929718018,0.27148643136024475,0.4110439419746399,0.623379111289978,2.2128653526306152
49,35849,35850,0.004052316769957542,0.023513827472925186,1.0234286785125732,13.418046951293945,5.602059364318848,0.27086183428764343,-0.623968780040741,1.511924386024475,0.26998651027679443,0.40379175543785095,0.6648656725883484,2.238929510116577
50,35859,35860,-0.01697380654513836,0.03809318691492081,1.0346450805664062,16.105199813842773,11.723548889160156,0.5088956356048584,-0.6389680504798889,1.5029247999191284,0.27898603677749634,0.27692005038261414,1.1402294635772705,2.194805145263672
51,35869,35870,-0.00011597345292102545,-0.009495082311332226,1.0133082866668701,6.247142791748047,14.603178024291992,4.6664276123046875,-0.6404679417610168,1.513424277305603,0.26848655939102173,-0.058983463793992996,1.170517921447754,2.195676565170288
52,35879,35880,-0.018935304135084152,-0.07458484172821045,0.9602345824241638,-7.961366176605225,11.497690200805664,9.40379810333252,-0.6554672122001648,1.5074245929718018,0.2654867172241211,-0.15890978276729584,1.124609112739563,2.2791388034820557
53,35889,35890,0.011579104699194431,-0.08187848329544067,0.9002092480659485,-23.93049430847168,9.409000396728516,13.905177116394043,-0.6569671630859375,1.4999250173568726,0.26998651027679443,-0.277695894241333,0.7748987674713135,2.407830238342285
54,35899,35900,-0.028928538784384727,-0.1368250846862793,0.9249379634857178,-32.417972564697266,3.278186798095703,19.806865692138672,-0.6494675278663635,1.5104244947433472,0.2864856719970703,-0.36034896969795227,0.301166832447052,2.585512161254883
55,35909,35910,-0.012484648264944553,-0.055860117077827454,0.9175844788551331,-27.96173095703125,-5.19734001159668,21.687456130981445,-0.6329683661460876,1.4999250173568726,0.27898603677749634,-0.3224056363105774,0.2933797240257263,2.7946722507476807
56,35919,35920,0.0012023033341392875,0.007184289861470461,0.9362331628799438,-31.96843910217285,-5.538499355316162,22.758953094482422,-0.6449677348136902,1.5029247999191284,0.2759861946105957,-0.1828242391347885,-0.17042654752731323,3.029989719390869
57,35929,35930,-0.031070318073034286,0.06050894409418106,0.9670185446739197,-44.923213958740234,-6.234547138214111,25.41900634765625,-0.6344682574272156,1.5194239616394043,0.2744862735271454,-0.13544653356075287,-0.5916481018066406,3.271972894668579
58,35939,35940,-0.03845001012086868,0.03408375009894371,0.849367618560791,-57.13579559326172,-9.593025207519531,26.468338012695312,-0.6479675769805908,1.5179240703582764,0.26098695397377014,-0.1038307473063469,-1.4193114042282104,3.5229146480560303
59,35949,35950,0.05608928203582764,-0.02894033119082451,0.8647260069847107,-59.79148483276367,-8.8541898727417,27.07923698425293,-0.6344682574272156,1.5254236459732056,0.2564871609210968,0.193190798163414,-2.285945177078247,3.814415454864502
60,35959,35960,0.010367343202233315,-0.03224964439868927,0.9333044290542603,-42.87666702270508,-11.248283386230469,25.376619338989258,-0.6299684643745422,1.5359231233596802,0.26098695397377014,-0.27777495980262756,-2.406494140625,4.048922061920166
61,35969,35970,-0.005620745010674,-0.060866422951221466,0.9244410395622253,-8.871807098388672,-24.115737915039062,21.71574592590332,-0.6434678435325623,1.5344232320785522,0.2594870328903198,-0.07088456302881241,-2.4522690773010254,4.303408145904541
62,35979,35980,0.014329710975289345,-0.055922433733940125,0.9761553406715393,28.372024536132812,-37.43356704711914,18.534250259399414,-0.6299684643745422,1.5239237546920776,0.2579870820045471,0.2698156535625458,-2.295703172683716,4.519876003265381
63,35989,35990,-0.015264838002622128,-0.11447814851999283,1.0083612203598022,61.95415115356445,-43.64519119262695,14.857149124145508,-0.6524673700332642,1.5224238634109497,0.26848655939102173,0.9461261630058289,-1.7949941158294678,4.6942572593688965
64,35999,36000,-0.114352285861969,0.012445650063455105,0.9204277396202087,81.5112533569336,-41.77579879760742,14.265019416809082,-0.6269686222076416,1.5359231233596802,0.2549872398376465,1.0194865465164185,-0.7798742055892944,4.887624263763428
65,36009,36010,-0.0556962788105011,0.03702833130955696,0.9050182700157166,77.87667083740234,-37.95197296142578,12.429245948791504,-0.6374680995941162,1.5344232320785522,0.26848655939102173,1.4279160499572754,0.03454780578613281,5.022003650665283
66,36019,36020,-0.033042583614587784,-0.04023800417780876,0.9740269780158997,48.986671447753906,-25.540409088134766,13.012142181396484,-0.6254687309265137,1.5314234495162964,0.26248687505722046,1.7331695556640625,0.5123987197875977,5.140888214111328
67,36029,36030,0.016019992530345917,-0.09952376782894135,0.9127141237258911,4.5374956130981445,-11.403483390808105,11.27842903137207,-0.6344682574272156,1.5164241790771484,0.277486115694046,2.0281195640563965,0.6503421068191528,5.246284008026123
68,36039,36040,-0.015654191374778748,-0.07478347420692444,0.9345336556434631,-37.697486877441406,2.2804763317108154,9.147441864013672,-0.6329683661460876,1.5179240703582764,0.2759861946105957,1.9388643503189087,0.3520447015762329,5.358091831207275
69,36049,36050,-0.01649358682334423,-0.03381215035915375,1.0049747228622437,-60.09481430053711,14.390313148498535,6.568508148193359,-0.6314684152603149,1.528423547744751,0.2654867172241211,1.8688888549804688,-0.39894574880599976,5.435493469238281
70,36059,36060,0.006677517667412758,-0.07181496173143387,0.9732385277748108,-59.80394744873047,21.07559585571289,3.6043701171875,-0.6284685730934143,1.5404229164123535,0.26248687505722046,1.832341194152832,-0.9421800374984741,5.473779678344727
71,36069,36070,-0.03744944930076599,0.018714839592576027,0.9824800491333008,-43.43122482299805,18.77736473083496,-1.3396862745285034,-0.6314684152603149,1.5404229164123535,0.27148643136024475,1.6039484739303589,-1.3563342094421387,5.480955600738525
72,36079,36080,0.009203926660120487,-0.042130593210458755,0.981175422668457,-12.692561149597168,5.164804935455322,-7.76760721206665,-0.6479675769805908,1.5329233407974243,0.2639867961406708,1.4452825784683228,-1.7686492204666138,5.44171667098999
73,36089,36090,-0.06083719804883003,-0.07326358556747437,0.9702772498130798,24.37763786315918,-7.573273181915283,-15.842738151550293,-0.6374680995941162,1.5344232320785522,0.26248687505722046,1.5827776193618774,-1.6159470081329346,5.301454544067383
74,36099,36100,0.026746751740574837,-0.06226551905274391,1.0053131580352783,55.13547897338867,-22.132658004760742,-21.630598068237305,-0.6449677348136902,1.5359231233596802,0.25198739767074585,1.8129740953445435,-0.8895100951194763,5.084855079650879
75,36109,36110,0.027618367224931717,-0.011624337173998356,0.9852402806282043,69.20942687988281,-27.588703155517578,-25.994218826293945,-0.6434678435325623,1.5224238634109497,0.27148643136024475,2.212266445159912,-0.37376779317855835,4.844481945037842
76,36119,36120,-0.009201387874782085,-0.06715056300163269,0.9703990817070007,65.28093719482422,-19.055862426757812,-27.13922882080078,-0.6344682574272156,1.5224238634109497,0.2864856719970703,2.4155635833740234,0.5619962215423584,4.555245876312256
77,36129,36130,-0.059174779802560806,-0.0286930613219738,0.9430108666419983,52.57392120361328,0.6970779895782471,-28.413347244262695,-0.6314684152603149,1.513424277305603,0.2744862735271454,2.4705803394317627,1.0570194721221924,4.294963359832764
78,36139,36140,-0.07340899109840393,-0.10983584821224213,0.9975494742393494,36.232784271240234,22.50416374206543,-29.284893035888672,-0.6509674191474915,1.514924168586731,0.26998651027679443,2.289541721343994,1.6548864841461182,3.987736225128174
79,36149,36150,0.015539235435426235,-0.16236428916454315,0.9650207161903381,18.827529907226562,33.23953628540039,-25.28230094909668,-0.6344682574272156,1.5254236459732056,0.2744862735271454,1.8766387701034546,1.5554038286209106,3.785824775695801
80,36159,36160,-0.01780226081609726,-0.13131102919578552,0.8648615479469299,5.1258344650268555,40.01030731201172,-22.436439514160156,-0.6419678926467896,1.511924386024475,0.28498575091362,1.7005828619003296,1.7099720239639282,3.5479652881622314
81,36169,36170,0.015446942299604416,-0.09003124386072159,0.9562105536460876,-1.601999044418335,51.262550354003906,-22.524166107177734,-0.6494675278663635,1.5224238634109497,0.2744862735271454,1.0273637771606445,1.562913179397583,3.369056224822998
82,36179,36180,0.013807954266667366,-0.07516862452030182,1.0276068449020386,-6.370419025421143,53.96031188964844,-19.490293502807617,-0.6584670543670654,1.543422818183899,0.2744862735271454,0.6037187576293945,1.5100841522216797,3.1670055389404297
83,36189,36190,0.012835798785090446,-0.06917868554592133,0.9731648564338684,-5.874391078948975,43.36250305175781,-15.644726753234863,-0.6644667387008667,1.528423547744751,0.2744862735271454,-0.0035596273373812437,1.447409749031067,3.0058536529541016
84,36199,36200,0.05547746270895004,0.01508707832545042,0.9601349234580994,-13.808488845825195,22.204627990722656,-11.92009162902832,-0.6554672122001648,1.513424277305603,0.28048595786094666,-0.1466035693883896,1.3315536975860596,2.889643430709839
85,36209,36210,0.02912762574851513,-0.020926186814904213,0.9978839159011841,-26.305849075317383,-3.862283945083618,-9.713233947753906,-0.6509674191474915,1.5089244842529297,0.27298635244369507,-0.1826600432395935,1.0839955806732178,2.788713216781616
86,36219,36220,-0.01575094647705555,-0.03098876215517521,0.9874030947685242,-38.916690826416016,-20.619571685791016,-7.923378944396973,-0.6344682574272156,1.5344232320785522,0.28048595786094666,0.04190440475940704,0.6005638837814331,2.718548059463501
87,36229,36230,0.009412532672286034,0.02619693987071514,0.9909884333610535,-48.0334587097168,-30.167478561401367,-7.7306952476501465,-0.6314684152603149,1.5254236459732056,0.2594870328903198,0.44458749890327454,0.11341257393360138,2.6513564586639404
88,36239,36240,-0.025551199913024902,0.07474657148122787,1.0828337669372559,-42.68000411987305,-36.850341796875,-5.58905029296875,-0.6374680995941162,1.5254236459732056,0.27148643136024475,0.6205618977546692,-0.3228253126144409,2.569512128829956
89,36249,36250,-0.05045236647129059,0.022768469527363777,1.0987374782562256,-19.29378890991211,-45.948204040527344,-2.036715507507324,-0.6269686222076416,1.526923656463623,0.26098695397377014,1.2813725471496582,-0.7047707438468933,2.558029890060425
90,36259,36260,-0.038570839911699295,-0.02023831568658352,1.1232483386993408,7.734280109405518,-42.45182800292969,3.015434503555298,-0.6359682083129883,1.5359231233596802,0.2639867961406708,1.6407183408737183,-0.6619271039962769,2.556762933731079
91,36269,36270,-0.042442686855793,-0.10850057005882263,1.104625940322876,33.44454574584961,-25.825965881347656,7.104999542236328,-0.6344682574272156,1.5314234495162964,0.26848655939102173,1.8636821508407593,-0.332454651594162,2.597928762435913
92,36279,36280,0.052573032677173615,-0.11307362467050552,1.0376931428909302,48.25009536743164,-7.5744733810424805,9.680685997009277,-0.6404679417610168,1.5254236459732056,0.27148643136024475,2.117647647857666,0.19475480914115906,2.6830837726593018
93,36289,36290,0.020163152366876602,-0.06335992366075516,0.9175217151641846,43.03406524658203,11.67212200164795,10.097447395324707,-0.6419678926467896,1.5389230251312256,0.27298635244369507,2.0059821605682373,0.6503980159759521,2.7848386764526367
94,36299,36300,-0.05200649052858353,0.014300751499831676,1.0194284915924072,26.275060653686523,23.266937255859375,10.177513122558594,-0.6374680995941162,1.5224238634109497,0.27148643136024475,1.9253051280975342,0.9822889566421509,2.8941659927368164
95,36309,36310,-0.051426149904727936,-0.0598088875412941,1.0770372152328491,0.13232240080833435,26.08453369140625,8.389314651489258,-0.6359682083129883,1.511924386024475,0.27898603677749634,1.5895016193389893,0.9796895980834961,2.998368978500366
96,36319,36320,0.06429749727249146,-0.07265627384185791,1.0135514736175537,-24.89259910583496,20.7894229888916,5.985230922698975,-0.6329683661460876,1.514924168586731,0.26998651027679443,1.160498857498169,0.7903107404708862,3.0727803707122803
97,36329,36330,0.052256930619478226,-0.0063347420655190945,0.9310771226882935,-43.75802993774414,12.33448600769043,4.273931980133057,-0.6479675769805908,1.5329233407974243,0.27298635244369507,1.1607261896133423,0.2696451246738434,3.1501636505126953
98,36339,36340,0.017342764884233475,0.023238003253936768,0.9388244152069092,-51.67587661743164,8.265358924865723,5.171842575073242,-0.6344682574272156,1.5314234495162964,0.27148643136024475,0.9154711365699768,-0.26720502972602844,3.1937766075134277
99,36349,36350,0.010038263164460659,-0.002326810732483864,0.9419510960578918,-43.088321685791016,9.408726692199707,8.295812606811523,-0.6389680504798889,1.5239237546920776,0.26998651027679443,0.9703335165977478,-0.5792193412780762,3.255042791366577
100,36359,36360,0.0006292377365753055,-0.04452241584658623,0.9816106557846069,-17.47026252746582,16.657556533813477,11.670074462890625,-0.6374680995941162,1.5194239616394043,0.2834858298301697,0.8699071407318115,-0.9331845641136169,3.3642966747283936
101,36369,36370,0.004190667998045683,-0.007750129792839289,0.9981052279472351,8.760368347167969,24.122642517089844,12.20508098602295,-0.6434678435325623,1.528423547744751,0.26848655939102173,0.5800408124923706,-0.9204966425895691,3.4782514572143555
102,36379,36380,-0.017510438337922096,-0.005381376948207617,0.9264131188392639,24.922649383544922,31.196956634521484,13.026613235473633,-0.6404679417610168,1.5404229164123535,0.2744862735271454,0.4386208653450012,-0.5578837990760803,3.5959322452545166
103,36389,36390,-0.005218194331973791,-0.0277538038790226,0.9553088545799255,34.33538818359375,32.572994232177734,14.45833683013916,-0.6539672613143921,1.5209239721298218,0.2579870820045471,-0.07175813615322113,-0.29311615228652954,3.732849359512329
104,36399,36400,0.005380097310990095,-0.06824121624231339,0.9035208225250244,34.372318267822266,27.395978927612305,14.630966186523438,-0.6584670543670654,1.528423547744751,0.28048595786094666,-0.32566893100738525,-0.0311296284198761,3.879131555557251
105,36409,36410,0.02629106119275093,-0.09422251582145691,0.9522680640220642,26.968751907348633,12.308980941772461,14.940052032470703,-0.6599670052528381,1.529923439025879,0.2759861946105957,-0.694936990737915,0.4340943396091461,4.022647380828857
106,36419,36420,0.0008828741847537458,-0.12235785275697708,1.0177698135375977,15.533557891845703,-6.8236284255981445,15.351451873779297,-0.6479675769805908,1.5239237546920776,0.28198590874671936,-0.34040307998657227,0.5349937081336975,4.165036678314209
107,36429,36430,0.003820124315097928,-0.1722550392150879,0.9660101532936096,-5.636345863342285,-22.22894859313965,15.57862377166748,-0.6539672613143921,1.526923656463623,0.27898603677749634,-0.13090476393699646,0.3694134056568146,4.310283184051514
108,36439,36440,-0.02905132807791233,-0.07023634761571884,0.947222888469696,-26.067733764648438,-26.449676513671875,15.613003730773926,-0.6584670543670654,1.5194239616394043,0.2744862735271454,0.029186997562646866,0.14458291232585907,4.464674949645996
109,36449,36450,-0.08137238770723343,-0.030078619718551636,0.9844554662704468,-41.001068115234375,-26.219223022460938,14.694053649902344,-0.6344682574272156,1.5344232320785522,0.2594870328903198,0.21613092720508575,-0.21017250418663025,4.616188049316406
110,36459,36460,-0.13883806765079498,-0.042716119438409805,1.0222071409225464,-43.23524475097656,-22.56732749938965,14.18791675567627,-0.6449677348136902,1.5449227094650269,0.26098695397377014,0.358193963766098,-0.7140688896179199,4.751949787139893
111,36469,36470,-0.0715528130531311,-0.13683739304542542,0.9788095951080322,-40.325313568115234,-15.854394912719727,15.564791679382324,-0.6464676856994629,1.5374231338500977,0.2594870328903198,0.6418838500976562,-1.201479434967041,4.8966827392578125
112,36479,36480,-0.061337072402238846,0.07066641747951508,0.9407097101211548,-30.889741897583008,-3.7762563228607178,17.495683670043945,-0.6464676856994629,1.5494225025177002,0.277486115694046,0.7643502950668335,-1.6187232732772827,5.064159393310547
113,36489,36490,-0.028918728232383728,0.0027013833168894053,1.0298280715942383,-7.416078090667725,10.233795166015625,18.15300750732422,-0.6524673700332642,1.5404229164123535,0.277486115694046,0.6399465203285217,-1.6001278162002563,5.2572503089904785
114,36499,36500,0.008843316696584225,-0.047164417803287506,1.0209964513778687,33.80305099487305,17.022871017456055,18.654190063476562,-0.6539672613143921,1.5449227094650269,0.2669866383075714,0.43280041217803955,-1.4904705286026,5.436191082000732
115,36509,36510,0.014585962519049644,-0.0789758563041687,1.0591787099838257,67.93805694580078,23.677072525024414,20.369775772094727,-0.6599670052528381,1.5329233407974243,0.2669866383075714,0.24804742634296417,-0.8291655778884888,5.636570453643799
116,36519,36520,-0.021614648401737213,-0.10965771228075027,1.0083069801330566,90.14950561523438,21.886035919189453,17.926429748535156,-0.6599670052528381,1.5209239721298218,0.26098695397377014,0.12032008916139603,0.06974972039461136,5.822536468505859
117,36529,36530,-0.019633831456303596,-0.04049599915742874,1.0675654411315918,97.7511215209961,15.9385404586792,16.685476303100586,-0.6644667387008667,1.5344232320785522,0.2744862735271454,0.06499405950307846,0.7794747352600098,5.967693328857422
118,36539,36540,0.0016263665165752172,-0.14329570531845093,1.1160252094268799,90.38166046142578,1.6194255352020264,11.28736400604248,-0.6554672122001648,1.5104244947433472,0.27148643136024475,-0.43864837288856506,1.5981754064559937,6.130793571472168
119,36549,36550,0.007997041568160057,-0.17688018083572388,1.10502290725708,76.08574676513672,-20.42596435546875,6.970245838165283,-0.6584670543670654,1.513424277305603,0.277486115694046,-0.29809558391571045,2.67512583732605,6.236018180847168
120,36559,36560,0.034257352352142334,-0.053549475967884064,1.0185136795043945,48.35935974121094,-40.39738845825195,0.6091693639755249,-0.6494675278663635,1.504424810409546,0.2864856719970703,0.18174481391906738,3.1094179153442383,6.228564739227295
121,36569,36570,0.004499727860093117,0.042821526527404785,1.0355197191238403,0.06055478751659393,-64.54795837402344,-1.90744948387146,-0.6344682574272156,1.498425006866455,0.28948551416397095,1.0509718656539917,3.1102795600891113,6.159352779388428
122,36579,36580,-0.060553427785634995,-0.07870728522539139,1.1875343322753906,-34.998069763183594,-73.07219696044922,-6.974308967590332,-0.6284685730934143,1.504424810409546,0.26848655939102173,1.8230870962142944,2.8404130935668945,6.069966793060303
123,36589,36590,-0.03962922468781471,-0.13575007021427155,1.1437962055206299,-41.9719352722168,-49.14694595336914,-8.90069580078125,-0.6314684152603149,1.5074245929718018,0.27148643136024475,2.6231040954589844,2.2740845680236816,5.96061897277832
124,36599,36600,-0.014241457916796207,-0.06561996787786484,1.068385124206543,-28.983848571777344,-2.2576873302459717,-11.744940757751465,-0.6329683661460876,1.5089244842529297,0.28798559308052063,3.0347211360931396,1.7867697477340698,5.85461950302124
125,36609,36610,-0.03246377035975456,-0.03226308152079582,1.1003121137619019,-0.9231005907058716,55.71250534057617,-9.645423889160156,-0.6374680995941162,1.5074245929718018,0.26248687505722046,2.5057530403137207,1.925554633140564,5.734638214111328
126,36619,36620,-0.03454915061593056,-0.05768721550703049,1.068852186203003,14.551830291748047,96.4361343383789,-7.444944381713867,-0.6569671630859375,1.5209239721298218,0.27898603677749634,1.4064041376113892,1.91050386428833,5.639682292938232
127,36629,36630,-0.04580236226320267,-0.1886284202337265,1.1672879457473755,21.06318473815918,113.19650268554688,-9.321025848388672,-0.66896653175354,1.529923439025879,0.2759861946105957,0.39030352234840393,2.231534957885742,5.597504615783691
128,36639,36640,-4.746357808471657e-05,-0.08146693557500839,1.1572234630584717,26.33106231689453,107.56079864501953,-15.480039596557617,-0.676466166973114,1.513424277305603,0.28048595786094666,-1.034020185470581,2.6400341987609863,5.467540740966797
129,36649,36650,0.007206535432487726,-0.08878488838672638,1.0502954721450806,29.314435958862305,83.41414642333984,-24.144519805908203,-0.683965802192688,1.5209239721298218,0.2759861946105957,-1.9005179405212402,2.859697103500366,5.329128742218018
130,36659,36660,0.03788983076810837,-0.12550784647464752,1.0293841361999512,37.58431625366211,38.285526275634766,-29.64397430419922,-0.676466166973114,1.5014249086380005,0.28048595786094666,-2.7037270069122314,3.5127384662628174,5.062283515930176
131,36669,36670,0.03671016916632652,-0.13072843849658966,1.0089777708053589,43.3958625793457,-6.235889434814453,-30.475412368774414,-0.6644667387008667,1.498425006866455,0.27148643136024475,-2.638059377670288,3.7054200172424316,4.795612812042236
132,36679,36680,-0.020172864198684692,-0.09432555735111237,1.0527573823928833,42.23759460449219,-31.28537368774414,-27.97408103942871,-0.6674666404724121,1.4924253225326538,0.27148643136024475,-2.216459274291992,4.16901969909668,4.549795627593994
133,36689,36690,0.004734089598059654,-0.09397608786821365,1.056027889251709,30.480247497558594,-40.37492752075195,-27.84024429321289,-0.6614668965339661,1.4834258556365967,0.2924853563308716,-1.965372920036316,4.664017677307129,4.238606929779053
134,36699,36700,-0.029403340071439743,-0.0270377229899168,1.0319995880126953,-3.171746015548706,-42.904972076416016,-29.531585693359375,-0.6509674191474915,1.472926378250122,0.27898603677749634,-1.3460789918899536,4.665898323059082,3.958744525909424
135,36709,36710,0.03078409470617771,-0.08868727087974548,1.0070054531097412,-35.01998519897461,-36.35359191894531,-32.93290328979492,-0.6449677348136902,1.4819258451461792,0.28198590874671936,-0.9240421652793884,4.402731418609619,3.620636463165283
136,36719,36720,0.02374921552836895,-0.10673566907644272,1.0185445547103882,-55.289024353027344,-29.101341247558594,-34.71037292480469,-0.6554672122001648,1.4954252243041992,0.2654867172241211,-0.7087525129318237,3.6678919792175293,3.165146827697754
137,36729,36730,-0.008517741225659847,-0.08855727314949036,1.0084582567214966,-61.42410659790039,-19.76417350769043,-35.463653564453125,-0.6359682083129883,1.5059247016906738,0.28798559308052063,-0.5224350690841675,3.2863755226135254,2.8346643447875977
138,36739,36740,0.03134238347411156,-0.0648978129029274,0.9506603479385376,-61.26374816894531,10.810776710510254,-35.24468231201172,-0.6554672122001648,1.504424810409546,0.26848655939102173,-0.48158925771713257,2.9921822547912598,2.5557427406311035
139,36749,36750,-0.023028571158647537,-0.06248422712087631,0.9270234704017639,-61.747352600097656,49.52386474609375,-33.49273681640625,-0.6554672122001648,1.504424810409546,0.26848655939102173,-1.0877251625061035,2.118603229522705,2.0442450046539307
140,36759,36760,0.02831738255918026,-0.013500044122338295,0.9395726919174194,-58.04806137084961,74.50938415527344,-31.185550689697266,-0.6554672122001648,1.504424810409546,0.26848655939102173,-1.6340789794921875,1.6083389520645142,1.822277307510376
141,36769,36770,0.01415951270610094,-0.03359939530491829,0.890630841255188,-43.607208251953125,76.75821685791016,-29.363540649414062,-0.6554672122001648,1.504424810409546,0.26848655939102173,-2.5932371616363525,0.9755655527114868,1.4215916395187378
142,36779,36780,0.0065790764056146145,-0.03062589094042778,0.8765369057655334,-27.76374053955078,63.13842010498047,-26.390552520751953,-0.6629668474197388,1.5239237546920776,0.27898603677749634,-3.1917216777801514,1.0148797035217285,1.3236972093582153
143,36789,36790,0.03369847312569618,-0.030253035947680473,0.8771618008613586,-12.032915115356445,42.85432052612305,-24.9561824798584,-0.66896653175354,1.5179240703582764,0.2669866383075714,-3.7370874881744385,0.6640154123306274,1.0127159357070923
144,36799,36800,0.012895661406219006,-0.014007624238729477,0.8990042209625244,-6.360037803649902,16.843486785888672,-20.86125946044922,-0.6629668474197388,1.5209239721298218,0.2669866383075714,-3.966139078140259,0.8420020341873169,0.9115529656410217
145,36809,36810,0.011039376258850098,-0.057759154587984085,0.887165904045105,-5.955723285675049,-0.898621141910553,-15.965385437011719,-0.6704664826393127,1.513424277305603,0.27148643136024475,-4.055593490600586,0.6606374979019165,0.6814647316932678
146,36819,36820,0.03637867048382759,0.07526619732379913,0.9425095319747925,-3.41745662689209,-16.641286849975586,-10.259540557861328,-0.6719663739204407,1.5029247999191284,0.2669866383075714,-3.9224493503570557,0.5412326455116272,0.5374358892440796
147,36829,36830,-0.02256113849580288,0.029107317328453064,0.9462977051734924,-2.750340461730957,-32.7721061706543,-6.668391227722168,-0.6719663739204407,1.5029247999191284,0.2669866383075714,-3.558795213699341,0.5226781964302063,0.48905837535858154
148,36839,36840,0.017219774425029755,-0.04955055192112923,0.9970515370368958,8.72442626953125,-46.33509826660156,-5.0680108070373535,-0.6659666895866394,1.5179240703582764,0.26998651027679443,-3.1324753761291504,0.5086419582366943,0.41371819376945496
149,36849,36850,-0.002980906516313553,-0.12867502868175507,1.0237760543823242,32.1818962097168,-48.6291618347168,-5.703841209411621,-0.6659666895866394,1.5179240703582764,0.26998651027679443,-2.7191309928894043,0.7969249486923218,0.3758111894130707
150,36859,36860,0.05971464514732361,-0.08322741091251373,1.0700682401657104,43.54408264160156,-33.18784713745117,-6.296174049377441,-0.6434678435325623,1.504424810409546,0.2864856719970703,-2.315596103668213,1.3549860715866089,0.4068409204483032
151,36869,36870,0.09558968245983124,-0.022056391462683678,1.0038609504699707,39.548301696777344,-15.192273139953613,-7.624242782592773,-0.6629668474197388,1.514924168586731,0.2759861946105957,-2.1115469932556152,1.6380265951156616,0.2542591094970703
152,36879,36880,0.06781691312789917,-0.018159782513976097,0.9470037221908569,19.625497817993164,-0.4089115858078003,-7.240604400634766,-0.6539672613143921,1.5179240703582764,0.28198590874671936,-2.093935251235962,1.8057271242141724,0.09478127956390381
153,36889,36890,-0.05625946447253227,-0.18942052125930786,0.962242603302002,-6.279850959777832,14.739054679870605,-6.885652542114258,-0.6599670052528381,1.5209239721298218,0.28198590874671936,-2.2477269172668457,1.711976408958435,-0.06473244726657867
154,36899,36900,0.015200658701360226,-0.10680080950260162,0.91033935546875,-30.431900024414062,9.12955379486084,-3.3501245975494385,-0.6509674191474915,1.5029247999191284,0.28798559308052063,-2.538559913635254,1.5532169342041016,-0.1023097038269043
155,36909,36910,0.01618008315563202,0.03758180886507034,0.8179636597633362,-37.00014877319336,-17.242597579956055,0.8216197490692139,-0.6614668965339661,1.513424277305603,0.277486115694046,-2.320157289505005,1.1037640571594238,-0.1401788890361786
156,36919,36920,-0.11205960810184479,-0.04551134258508682,0.9336599111557007,-34.79206085205078,-43.14029312133789,2.2041194438934326,-0.6599670052528381,1.5239237546920776,0.28498575091362,-1.9644651412963867,0.9078629612922668,-0.040261249989271164
157,36929,36930,-0.0793076902627945,-0.15057125687599182,0.9963803291320801,-33.63478469848633,-64.13223266601562,2.447314739227295,-0.6539672613143921,1.514924168586731,0.27298635244369507,-1.358283519744873,0.29955819249153137,-0.16032803058624268
158,36939,36940,0.007321974728256464,-0.136130690574646,0.978561282157898,-33.15653991699219,-67.94103240966797,3.6612331867218018,-0.6434678435325623,1.5164241790771484,0.27148643136024475,-0.8252314329147339,0.2001405954360962,-0.02507360652089119
159,36949,36950,0.051829248666763306,-0.023149222135543823,0.8848019242286682,-25.50145149230957,-46.429805755615234,5.619222164154053,-0.6434678435325623,1.5104244947433472,0.28048595786094666,-0.1355704516172409,-0.11335103958845139,0.027449021115899086
160,36959,36960,-0.02688710205256939,-0.055762626230716705,0.898046612739563,-12.324694633483887,-13.382852554321289,7.221745014190674,-0.6254687309265137,1.513424277305603,0.28048595786094666,-0.1391538679599762,-0.4742432236671448,-0.026452241465449333
161,36969,36970,-0.023158840835094452,-0.13669060170650482,1.0519253015518188,6.348410129547119,10.00006103515625,11.134379386901855,-0.6269686222076416,1.5359231233596802,0.26098695397377014,-0.14906319975852966,-0.5781360268592834,0.030215347185730934
162,36979,36980,0.04280873015522957,-0.16664369404315948,0.9787458181381226,15.823859214782715,18.922727584838867,12.145143508911133,-0.6419678926467896,1.5329233407974243,0.27298635244369507,-0.3977534770965576,-0.41499993205070496,0.16079562902450562
163,36989,36990,0.015421174466609955,-0.08775073289871216,0.9965413212776184,19.77764129638672,23.84314727783203,10.047953605651855,-0.6404679417610168,1.528423547744751,0.28048595786094666,-0.7125706076622009,-0.1460195779800415,0.3017878234386444
164,36999,37000,-0.03364128619432449,-0.038259781897068024,0.9607623815536499,18.336088180541992,23.90541648864746,7.586026191711426,-0.6539672613143921,1.526923656463623,0.27898603677749634,-0.9801037311553955,0.06309839338064194,0.39167913794517517
165,37009,37010,-0.062085334211587906,0.0045006368309259415,1.0644338130950928,17.07542610168457,13.247408866882324,8.450926780700684,-0.6404679417610168,1.5254236459732056,0.27148643136024475,-0.9919889569282532,0.30596068501472473,0.4930950105190277
166,37019,37020,-0.00012391475320328027,0.008759758435189724,1.0858181715011597,11.542977333068848,-9.306567192077637,12.847562789916992,-0.6554672122001648,1.5254236459732056,0.2654867172241211,-1.037085771560669,0.49572789669036865,0.6166216135025024
167,37029,37030,0.06692223250865936,-0.009831108152866364,1.087807297706604,-1.328880786895752,-33.8748664855957,14.78953742980957,-0.6404679417610168,1.5224238634109497,0.2744862735271454,-0.7800074815750122,0.2533591687679291,0.6601294875144958
168,37039,37040,0.011354840360581875,-0.017505714669823647,1.035074234008789,-16.79415512084961,-42.59208679199219,15.644770622253418,-0.6359682083129883,1.5239237546920776,0.27898603677749634,-0.15212321281433105,0.16044238209724426,0.8068729043006897
169,37049,37050,0.027867434546351433,-0.04197162389755249,0.9054427146911621,-33.28535079956055,-28.99379539489746,16.34767723083496,-0.6494675278663635,1.528423547744751,0.2744862735271454,-0.03038020245730877,-0.11862398684024811,0.9724067449569702
170,37059,37060,-0.050433412194252014,0.0494401715695858,0.9479701519012451,-46.2979736328125,5.5505218505859375,20.800609588623047,-0.623968780040741,1.511924386024475,0.26998651027679443,0.12870465219020844,-0.645696222782135,1.1278663873672485
171,37069,37070,-0.05636973679065704,1.9534190869308077e-05,0.9455568194389343,-38.7957649230957,33.35491180419922,22.687692642211914,-0.6404679417610168,1.5164241790771484,0.2744862735271454,-0.12563642859458923,-1.2441405057907104,1.3090734481811523
172,37079,37080,-0.02003893256187439,0.07044278085231781,1.0342782735824585,-12.68891429901123,31.028413772583008,19.84642219543457,-0.6494675278663635,1.5314234495162964,0.2654867172241211,-0.5646126866340637,-1.391100525856018,1.5487234592437744
173,37089,37090,0.013584288768470287,0.06169000640511513,0.9648535251617432,9.599641799926758,14.431273460388184,13.141241073608398,-0.6554672122001648,1.5254236459732056,0.2654867172241211,-0.6991235017776489,-1.4024578332901,1.6979163885116577
174,37099,37100,-0.008581278845667839,0.0020052981562912464,0.9998762011528015,23.435192108154297,-5.676825523376465,6.865681171417236,-0.6449677348136902,1.526923656463623,0.2669866383075714,-0.7060019969940186,-1.1191354990005493,1.8100271224975586
175,37109,37110,0.07477516680955887,0.02009240910410881,0.9094963669776917,28.23944091796875,-18.69055938720703,3.8980355262756348,-0.6434678435325623,1.5224238634109497,0.277486115694046,-0.4577888250350952,-0.689917802810669,1.8789012432098389
176,37119,37120,0.006026479881256819,-0.0428394079208374,0.8992847204208374,21.998233795166016,-28.92367935180664,4.3665666580200195,-0.6389680504798889,1.5089244842529297,0.2669866383075714,-0.24242623150348663,-0.6402846574783325,1.8860031366348267
177,37129,37130,0.011884760111570358,-0.04555400460958481,0.9728925824165344,13.586664199829102,-38.34809875488281,5.689032554626465,-0.6494675278663635,1.513424277305603,0.2864856719970703,0.3385547995567322,-0.3765358626842499,1.9157209396362305
178,37139,37140,0.012633810751140118,0.006306881550699472,0.9383996725082397,4.441762924194336,-47.02593231201172,7.397380828857422,-0.6494675278663635,1.504424810409546,0.2654867172241211,0.3703014850616455,-0.5101085901260376,2.0279734134674072
179,37149,37150,0.008899168111383915,0.02526262030005455,1.0341675281524658,-4.134787082672119,-39.601932525634766,8.309951782226562,-0.6269686222076416,1.5239237546920776,0.28498575091362,0.8545075058937073,-0.520789384841919,2.102932929992676
180,37159,37160,0.03413071855902672,-0.0348687618970871,1.0342965126037598,-8.71353816986084,-23.028453826904297,4.434876918792725,-0.6419678926467896,1.5059247016906738,0.2669866383075714,1.1101276874542236,-0.6353363394737244,2.1729259490966797
181,37169,37170,0.014899720437824726,-0.029017629101872444,0.9993175268173218,-14.639816284179688,-4.375149726867676,-1.4125454425811768,-0.6179690957069397,1.5209239721298218,0.27898603677749634,1.3506815433502197,-0.826977014541626,2.15444278717041
182,37179,37180,0.0038231154903769493,-0.031004657968878746,0.9766890406608582,-15.208097457885742,12.107488632202148,-6.631572246551514,-0.6194689869880676,1.5194239616394043,0.2594870328903198,1.3145153522491455,-0.9923452138900757,2.1037003993988037
183,37189,37190,0.010076050646603107,-0.03558056056499481,0.9868561625480652,-10.526068687438965,20.310144424438477,-9.717244148254395,-0.6284685730934143,1.5014249086380005,0.27148643136024475,1.1219897270202637,-1.1692436933517456,2.01669979095459
184,37199,37200,-0.05701667442917824,-0.03585367277264595,0.974205493927002,-3.5256662368774414,15.195172309875488,-11.709854125976562,-0.6284685730934143,1.513424277305603,0.2654867172241211,0.8821547031402588,-1.2771985530853271,1.9184211492538452
185,37209,37210,-0.04030269756913185,-0.02122974954545498,1.0165956020355225,7.09663724899292,8.417781829833984,-12.188305854797363,-0.6524673700332642,1.5224238634109497,0.2654867172241211,0.7109612822532654,-1.2169346809387207,1.8056728839874268
186,37219,37220,-0.10095573216676712,-0.08928266912698746,0.9998673796653748,10.261394500732422,-2.822864532470703,-10.876522064208984,-0.6329683661460876,1.511924386024475,0.27298635244369507,0.7011294960975647,-1.0309008359909058,1.6821728944778442
187,37229,37230,0.0033644961658865213,-0.08487764000892639,0.9414677619934082,-4.400565147399902,-14.972497940063477,-8.333149909973145,-0.6374680995941162,1.5104244947433472,0.26848655939102173,0.8165865540504456,-0.9594594836235046,1.5807554721832275
188,37239,37240,0.02242892049252987,-0.12989488244056702,0.9740391969680786,-25.70102310180664,-25.66690444946289,-8.298725128173828,-0.6449677348136902,1.511924386024475,0.26998651027679443,1.0311366319656372,-1.196897268295288,1.5043401718139648
189,37249,37250,0.025773456320166588,-0.16722331941127777,1.007529854774475,-29.973045349121094,-39.27162551879883,-10.256268501281738,-0.6284685730934143,1.513424277305603,0.2594870328903198,1.236994981765747,-1.6622569561004639,1.4617313146591187
190,37259,37260,0.012017456814646721,-0.2076595425605774,0.9949357509613037,-9.252772331237793,-45.866432189941406,-11.478978157043457,-0.6209689378738403,1.5059247016906738,0.27298635244369507,1.8493925333023071,-1.9048964977264404,1.3210804462432861
191,37269,37270,0.02662140503525734,-0.13001605868339539,1.0123440027236938,19.80607032775879,-39.5203857421875,-8.734540939331055,-0.616469144821167,1.5164241790771484,0.2864856719970703,2.3311028480529785,-1.6920331716537476,1.2068719863891602
192,37279,37280,0.005982452072203159,-0.09361699968576431,0.9849074482917786,29.407899856567383,-14.644753456115723,-6.269658088684082,-0.623968780040741,1.526923656463623,0.2759861946105957,2.529421091079712,-1.2104908227920532,1.1270734071731567
193,37289,37290,-0.006213726010173559,0.04398925602436066,1.0141783952713013,24.30713653564453,35.06437301635742,-0.6360624432563782,-0.6329683661460876,1.514924168586731,0.28198590874671936,2.1069700717926025,-0.9434231519699097,1.196814775466919
194,37299,37300,-0.08704102784395218,0.038626477122306824,1.1350466012954712,33.60549545288086,71.794189453125,0.1716330349445343,-0.6344682574272156,1.5254236459732056,0.27148643136024475,1.5126086473464966,-0.8764641880989075,1.2391366958618164
195,37309,37310,-0.04004109650850296,-0.11041608452796936,1.0576809644699097,36.81229019165039,69.31761932373047,-3.913834571838379,-0.6479675769805908,1.5389230251312256,0.28198590874671936,0.6591351628303528,-0.24654217064380646,1.1990807056427002
196,37319,37320,0.005214410368353128,-0.09315694123506546,1.0040068626403809,32.356388092041016,49.15174865722656,-6.312039375305176,-0.6509674191474915,1.526923656463623,0.27298635244369507,0.15478861331939697,-0.10138530284166336,1.1566367149353027
197,37329,37330,-0.01344605628401041,-0.060801975429058075,0.9961903691291809,32.59344482421875,18.682363510131836,-11.989598274230957,-0.6509674191474915,1.5239237546920776,0.28498575091362,-0.32875359058380127,0.19510050117969513,1.122126817703247
198,37339,37340,0.0046592047438025475,-0.05162883177399635,0.9715439677238464,27.222469329833984,-13.89112377166748,-18.481008529663086,-0.6464676856994629,1.5074245929718018,0.2834858298301697,-0.2260616421699524,0.6647025346755981,0.8964399695396423
199,37349,37350,-0.0008712189155630767,-0.030875839293003082,0.9764335751533508,3.5983386039733887,-55.160682678222656,-23.66598892211914,-0.6449677348136902,1.514924168586731,0.27898603677749634,0.47021201252937317,0.8738245964050293,0.5777483582496643
200,37359,37360,-0.03446103632450104,-0.0714128240942955,0.9434763193130493,-16.146595001220703,-84.25452423095703,-28.50550079345703,-0.6254687309265137,1.5224238634109497,0.2744862735271454,1.2437983751296997,0.7098101377487183,0.30740365386009216
201,37369,37370,0.01814904436469078,-0.03943706303834915,0.9796140789985657,-25.175779342651367,-92.95923614501953,-32.52000045776367,-0.6389680504798889,1.529923439025879,0.2759861946105957,2.3214359283447266,0.3869742453098297,-0.028167184442281723
202,37379,37380,-0.030255082994699478,-0.04446372017264366,0.969395101070404,-35.58394241333008,-80.70843505859375,-33.218544006347656,-0.6389680504798889,1.5209239721298218,0.2759861946105957,3.0577495098114014,0.09553437680006027,-0.3356287479400635
203,37389,37390,-0.021155081689357758,-0.0910552591085434,0.9171574711799622,-50.42744827270508,-53.105709075927734,-31.252328872680664,-0.616469144821167,1.528423547744751,0.28048595786094666,3.813063383102417,-0.3490653336048126,-0.6701584458351135
204,37399,37400,-0.043197453022003174,-0.08957189321517944,0.9200519323348999,-57.139122009277344,-14.145395278930664,-27.166080474853516,-0.6254687309265137,1.5314234495162964,0.2834858298301697,4.062828540802002,-1.133934497833252,-0.8817992806434631
205,37409,37410,-0.03705083578824997,0.006956791505217552,1.0440255403518677,-42.0440673828125,23.642555236816406,-24.615650177001953,-0.6194689869880676,1.528423547744751,0.28048595786094666,3.8956072330474854,-1.5586130619049072,-1.1469894647598267
206,37419,37420,-0.06641144305467606,-0.044802550226449966,1.1345491409301758,-0.9521609544754028,57.86629867553711,-24.28885269165039,-0.616469144821167,1.5494225025177002,0.28048595786094666,3.221036672592163,-1.7960736751556396,-1.3472143411636353
207,37429,37430,0.07366099953651428,-0.046793170273303986,1.0698952674865723,40.2346076965332,85.18028259277344,-28.40705108642578,-0.622468888759613,1.5314234495162964,0.2744862735271454,2.616175651550293,-1.4118804931640625,-1.711225986480713
208,37439,37440,0.03641042113304138,-0.05760704725980759,0.970943033695221,75.46087646484375,93.60718536376953,-35.31917953491211,-0.6449677348136902,1.5449227094650269,0.28798559308052063,1.7225738763809204,-0.5874762535095215,-2.1257400512695312
209,37449,37450,-0.06993705779314041,-0.08909877389669418,0.9038552045822144,82.29509735107422,94.36344909667969,-39.66221618652344,-0.6449677348136902,1.5479226112365723,0.28798559308052063,0.955079197883606,0.16126538813114166,-2.5185253620147705
210,37459,37460,-0.02397511899471283,-0.026307249441742897,0.9979252815246582,61.56753158569336,85.06309509277344,-40.21181869506836,-0.6509674191474915,1.5479226112365723,0.2939853072166443,-0.35289332270622253,1.0491838455200195,-2.8950905799865723
211,37469,37470,0.015571944415569305,-0.0160477664321661,0.9736571907997131,25.902685165405273,60.384578704833984,-41.44171905517578,-0.6599670052528381,1.5509223937988281,0.29098543524742126,-0.6775172352790833,1.2151753902435303,-3.275879383087158
212,37479,37480,0.03070400096476078,-0.008809364400804043,0.8439196348190308,-9.864928245544434,33.026790618896484,-40.244808197021484,-0.6554672122001648,1.5404229164123535,0.28948551416397095,-1.2283573150634766,1.3230844736099243,-3.6748456954956055
213,37489,37490,-0.06720339506864548,-0.0805647224187851,0.9334492683410645,-49.03708267211914,10.049551010131836,-38.0266227722168,-0.6464676856994629,1.513424277305603,0.28048595786094666,-1.3235218524932861,0.7942113280296326,-4.025293827056885
214,37499,37500,0.0222941841930151,-0.04444731026887894,1.0159779787063599,-72.62709045410156,-18.378738403320312,-34.86652374267578,-0.6539672613143921,1.529923439025879,0.28498575091362,-1.1585677862167358,0.23507319390773773,-4.423714637756348
215,37509,37510,0.06785942614078522,-0.019184371456503868,0.9717995524406433,-72.81307983398438,-45.32928466796875,-32.675689697265625,-0.6299684643745422,1.5389230251312256,0.28498575091362,-0.6342062950134277,-0.8699726462364197,-4.697202682495117
216,37519,37520,0.049603674560785294,-0.05621038377285004,0.9162681102752686,-54.07917785644531,-50.63509750366211,-28.385488510131836,-0.6389680504798889,1.5449227094650269,0.28798559308052063,-0.19397056102752686,-1.131562352180481,-5.057008266448975
217,37529,37530,-0.011860770173370838,-0.02773083746433258,1.0115610361099243,-25.721216201782227,-41.481666564941406,-22.173898696899414,-0.6299684643745422,1.5479226112365723,0.28798559308052063,0.2502513527870178,-1.6719300746917725,-5.273714542388916
218,37539,37540,-0.06058831140398979,-0.14664162695407867,1.04135000705719,9.041277885437012,-23.217966079711914,-14.401800155639648,-0.623968780040741,1.5329233407974243,0.27898603677749634,0.6013535857200623,-1.6226592063903809,-5.467960357666016
219,37549,37550,0.04878537356853485,-0.06617490202188492,0.9502923488616943,40.37553787231445,4.106384754180908,-4.69020414352417,-0.6134693026542664,1.5464226007461548,0.2744862735271454,0.5264013409614563,-1.156406044960022,-5.570544719696045
220,37559,37560,0.0008080723346211016,-0.020420540124177933,1.006218671798706,62.75478744506836,29.062589645385742,4.766747951507568,-0.6269686222076416,1.526923656463623,0.26098695397377014,0.3589056432247162,-0.732009768486023,-5.550192832946777
221,37569,37570,-0.0006729682208970189,-0.0760270357131958,1.1045572757720947,71.02667999267578,44.74601364135742,7.39005708694458,-0.6419678926467896,1.541922926902771,0.27898603677749634,-0.09732379019260406,0.32731330394744873,-5.5309224128723145
222,37579,37580,0.09972558170557022,0.07062342762947083,0.9980629682540894,72.7962646484375,53.27736282348633,12.083399772644043,-0.6344682574272156,1.5494225025177002,0.28048595786094666,-0.7616814970970154,0.5001431107521057,-5.336724281311035
223,37589,37590,-0.025507835671305656,-0.02797793783247471,1.1911678314208984,65.10537719726562,54.329776763916016,15.838118553161621,-0.6404679417610168,1.5314234495162964,0.28948551416397095,-1.1489814519882202,0.997130811214447,-5.191319465637207
224,37599,37600,0.003633825806900859,-0.09128321707248688,1.1008731126785278,40.101497650146484,43.38762283325195,17.638168334960938,-0.6359682083129883,1.5359231233596802,0.28798559308052063,-1.722161054611206,1.7432893514633179,-5.0151896476745605
225,37609,37610,-0.004390175454318523,-0.08694764226675034,1.0255868434906006,14.927433013916016,9.455619812011719,17.72307586669922,-0.6359682083129883,1.5239237546920776,0.29098543524742126,-1.8034614324569702,1.603886604309082,-4.830260276794434
226,37619,37620,-0.05428234115242958,-0.0943063274025917,0.9878433346748352,-11.900140762329102,-25.488468170166016,17.928325653076172,-0.6389680504798889,1.529923439025879,0.2759861946105957,-1.6101850271224976,1.6349153518676758,-4.660175323486328
227,37629,37630,-0.058538634330034256,0.007982616312801838,1.1376802921295166,-31.12602424621582,-38.76536178588867,15.29743766784668,-0.6434678435325623,1.513424277305603,0.28948551416397095,-1.2769219875335693,1.4037673473358154,-4.502867698669434
228,37639,37640,-0.05009285733103752,-0.012213429436087608,1.069083571434021,-29.15583038330078,-44.526222229003906,15.263858795166016,-0.6389680504798889,1.5179240703582764,0.29098543524742126,-0.6874421834945679,0.9850035905838013,-4.3707122802734375
229,37649,37650,-0.03521670773625374,-0.04381920024752617,1.050195336341858,-21.331436157226562,-44.027748107910156,17.138761520385742,-0.6479675769805908,1.514924168586731,0.27898603677749634,-0.39211997389793396,0.7290706634521484,-4.213491916656494
230,37659,37660,-0.04128149524331093,-0.04348055273294449,0.9509332180023193,-11.982584953308105,-36.14954376220703,18.841840744018555,-0.6329683661460876,1.5329233407974243,0.26998651027679443,0.2592020332813263,0.5570701360702515,-4.029992580413818
231,37669,37670,-0.004183273296803236,0.014791734516620636,1.0164766311645508,-7.598124027252197,-32.63270568847656,20.35878562927246,-0.6314684152603149,1.513424277305603,0.2834858298301697,0.4264337122440338,0.5621403455734253,-3.8345024585723877
232,37679,37680,-0.053657855838537216,0.03272095322608948,1.1028128862380981,-4.133545398712158,-23.627445220947266,22.211978912353516,-0.6284685730934143,1.5104244947433472,0.277486115694046,0.6077665090560913,0.5538241267204285,-3.6253600120544434
233,37689,37690,-0.014703618362545967,-7.055066816974431e-05,1.001625418663025,-0.4961056709289551,-10.135568618774414,25.935327529907227,-0.6269686222076416,1.511924386024475,0.27298635244369507,0.8748362064361572,0.5865313410758972,-3.3763375282287598
234,37699,37700,-0.02897733822464943,-0.04818228632211685,0.9716675877571106,6.953568935394287,6.502755641937256,30.678133010864258,-0.622468888759613,1.5104244947433472,0.2654867172241211,0.806799590587616,0.7047448754310608,-3.088465690612793
235,37709,37710,0.04451175779104233,-0.03933525085449219,1.0156551599502563,17.523578643798828,23.78712272644043,33.17985153198242,-0.6344682574272156,1.513424277305603,0.27148643136024475,0.5486738681793213,0.8888589143753052,-2.76698899269104
236,37719,37720,0.009868178516626358,-0.04792027175426483,1.0015718936920166,27.227548599243164,40.253292083740234,32.702640533447266,-0.6299684643745422,1.5179240703582764,0.28198590874671936,0.1466498225927353,1.1637728214263916,-2.433004856109619
237,37729,37730,-0.05287846922874451,-0.007678210269659758,1.0675450563430786,34.8271369934082,47.958683013916016,30.72006607055664,-0.6404679417610168,1.513424277305603,0.2864856719970703,-0.4324260950088501,1.314030647277832,-2.1180150508880615
238,37739,37740,-0.006336861290037632,-0.025955166667699814,1.065941333770752,35.514984130859375,43.416107177734375,28.263280868530273,-0.6329683661460876,1.514924168586731,0.27898603677749634,-0.8221569061279297,1.4160054922103882,-1.8128811120986938
239,37749,37750,-0.03866354376077652,-0.012913445942103863,1.0462778806686401,26.682567596435547,29.248912811279297,26.321697235107422,-0.6434678435325623,1.5074245929718018,0.2864856719970703,-1.1897459030151367,1.870070219039917,-1.5277146100997925
240,37759,37760,0.06471353769302368,0.028886742889881134,0.9946439266204834,17.52804946899414,12.7736234664917,25.569185256958008,-0.6464676856994629,1.504424810409546,0.2864856719970703,-1.313797116279602,1.9618654251098633,-1.2596443891525269
241,37769,37770,-0.03153574839234352,0.0015145190991461277,1.0135360956192017,11.551641464233398,-8.794265747070312,24.675918579101562,-0.6404679417610168,1.498425006866455,0.28948551416397095,-1.3095473051071167,2.047699451446533,-1.0120090246200562
242,37779,37780,0.000948053493630141,-0.025958184152841568,1.0352846384048462,13.418627738952637,-28.077739715576172,22.729251861572266,-0.6404679417610168,1.5014249086380005,0.2834858298301697,-0.9662519693374634,2.3500874042510986,-0.7542026042938232
243,37789,37790,-0.049908023327589035,-0.0012627241667360067,1.004362940788269,8.366931915283203,-42.6002197265625,19.21681022644043,-0.6344682574272156,1.489425539970398,0.2744862735271454,-0.6394168734550476,2.3299427032470703,-0.5808216333389282
244,37799,37800,0.03942650184035301,-0.029499344527721405,0.9289610385894775,-8.150458335876465,-52.539737701416016,16.425071716308594,-0.6404679417610168,1.5014249086380005,0.277486115694046,0.004511849954724312,2.2712152004241943,-0.4044196307659149
245,37809,37810,-0.005372653715312481,-0.02244078367948532,0.9686034321784973,-24.01570701599121,-45.14128112792969,14.78899097442627,-0.6479675769805908,1.4999250173568726,0.28198590874671936,0.3891145884990692,2.0484933853149414,-0.2966049909591675
246,37819,37820,-0.0015866068424656987,-0.005092661362141371,1.0098626613616943,-18.989700317382812,-29.395082473754883,18.02862548828125,-0.6299684643745422,1.4999250173568726,0.28798559308052063,0.7334321737289429,1.8884518146514893,-0.14437627792358398
247,37829,37830,-0.05443813279271126,-0.024415304884314537,0.9896080493927002,-10.079686164855957,-1.6485854387283325,20.259044647216797,-0.6434678435325623,1.4954252243041992,0.2924853563308716,0.9229432344436646,1.7152539491653442,0.05279002711176872
248,37839,37840,0.014747683890163898,0.027728376910090446,0.9655748605728149,6.349420547485352,26.26199722290039,22.19774627685547,-0.623968780040741,1.4909254312515259,0.2759861946105957,0.7264501452445984,1.6791510581970215,0.2542988061904907
249,37849,37850,0.05459228530526161,0.0750584602355957,0.9666160345077515,17.90390968322754,42.55211639404297,21.293622970581055,-0.6419678926467896,1.5089244842529297,0.2759861946105957,0.29060816764831543,1.9463030099868774,0.472969651222229
250,37859,37860,0.006530578248202801,-0.017262181267142296,0.9545873999595642,18.91197395324707,42.78246307373047,18.667930603027344,-0.6479675769805908,1.5029247999191284,0.28198590874671936,-0.12074178457260132,2.0338382720947266,0.6869794130325317
251,37869,37870,0.006148060783743858,-0.028726499527692795,0.9939683675765991,20.07906723022461,35.286216735839844,16.987041473388672,-0.6434678435325623,1.5014249086380005,0.2744862735271454,-0.6031225919723511,2.2609567642211914,0.8548869490623474
252,37879,37880,-0.010316647589206696,-0.11552049964666367,0.9582300782203674,21.242691040039062,21.282567977905273,15.934459686279297,-0.6404679417610168,1.4954252243041992,0.28048595786094666,-0.7045536041259766,2.3740339279174805,1.0715997219085693
253,37889,37890,0.005420248489826918,-0.14924012124538422,0.9711245894432068,21.82998275756836,5.043039321899414,15.052451133728027,-0.6479675769805908,1.4849257469177246,0.27298635244369507,-0.905619740486145,2.718956708908081,1.21230947971344
254,37899,37900,0.055499911308288574,-0.07418552041053772,0.9654890894889832,13.36440658569336,-5.755589008331299,15.688244819641113,-0.6539672613143921,1.4939253330230713,0.29098543524742126,-0.8443646430969238,2.735748291015625,1.3635634183883667
255,37909,37910,0.0013515151804313064,0.00017185616889037192,1.0327030420303345,-2.048139810562134,-7.08327579498291,15.649316787719727,-0.6584670543670654,1.498425006866455,0.2744862735271454,-0.6967867612838745,2.8906240463256836,1.5434001684188843
256,37919,37920,-0.009878424927592278,-0.15276652574539185,1.0056596994400024,-15.970717430114746,-3.8557095527648926,12.602996826171875,-0.6389680504798889,1.4969251155853271,0.2759861946105957,-0.7504389882087708,2.699982166290283,1.6461503505706787
257,37929,37930,-0.017625348642468452,-0.058815985918045044,1.0108726024627686,-16.41670036315918,-12.357613563537598,8.939227104187012,-0.6464676856994629,1.5014249086380005,0.28948551416397095,-0.5322426557540894,2.4856743812561035,1.7895032167434692
258,37939,37940,0.0044313170947134495,-0.03377320244908333,1.0387187004089355,-6.696456432342529,-27.98992347717285,4.441037178039551,-0.623968780040741,1.4909254312515259,0.27298635244369507,-0.26130497455596924,2.3291239738464355,1.8589502573013306
259,37949,37950,-0.04463030397891998,0.007757506333291531,1.0829460620880127,4.683651447296143,-44.84629821777344,3.7965598106384277,-0.6419678926467896,1.4939253330230713,0.2939853072166443,0.2932503819465637,2.3751280307769775,1.9433419704437256
260,37959,37960,-0.04311555624008179,-0.06955035030841827,1.024914264678955,10.702317237854004,-45.93975830078125,3.898975372314453,-0.6299684643745422,1.4939253330230713,0.28198590874671936,0.6178953051567078,2.5460917949676514,1.918089747428894
261,37969,37970,-0.027254458516836166,-0.03641032427549362,1.0348354578018188,12.832999229431152,-36.94572067260742,5.652854919433594,-0.6359682083129883,1.4789260625839233,0.26998651027679443,1.421348214149475,2.7925546169281006,2.089867353439331
262,37979,37980,-0.04894175007939339,-0.009626737795770168,1.040056586265564,3.7120373249053955,-20.499189376831055,4.0572404861450195,-0.6254687309265137,1.4954252243041992,0.28048595786094666,1.5016156435012817,2.742142915725708,2.053339958190918
263,37989,37990,0.006965565029531717,-0.03780578076839447,1.0223404169082642,-5.532092094421387,-1.1046992540359497,2.2096195220947266,-0.6284685730934143,1.4864256381988525,0.2864856719970703,1.3921667337417603,2.7663772106170654,2.006397008895874
264,37999,38000,0.06928090751171112,-0.025828730314970016,0.9700511693954468,-16.6317081451416,20.503034591674805,-0.6729630827903748,-0.6359682083129883,1.4879255294799805,0.28498575091362,1.1609838008880615,2.6061513423919678,1.9757945537567139
265,38009,38010,0.05688915029168129,0.07311967760324478,1.0163042545318604,-21.480756759643555,40.58625030517578,-4.99448299407959,-0.6359682083129883,1.4879255294799805,0.28498575091362,0.964591920375824,2.3985748291015625,2.00215744972229
266,38019,38020,0.02008535899221897,0.08453475683927536,0.9783782362937927,-30.834386825561523,57.83352279663086,-6.136667728424072,-0.6359682083129883,1.4879255294799805,0.28498575091362,0.2156682163476944,2.00201416015625,1.8779540061950684
267,38029,38030,0.07022086530923843,0.025540249422192574,0.9521163702011108,-32.18099594116211,60.91606903076172,-5.750537395477295,-0.6359682083129883,1.4879255294799805,0.28498575091362,-0.5581152439117432,1.7819262742996216,1.7762131690979004
268,38039,38040,0.12285038828849792,0.037865836173295975,1.0219882726669312,-28.016197204589844,43.17731857299805,-4.780740261077881,-0.6524673700332642,1.5164241790771484,0.28048595786094666,-1.2129930257797241,1.50819730758667,1.6945465803146362
269,38049,38050,0.04691897705197334,0.0036313366144895554,1.0280346870422363,-18.365192413330078,2.8559515476226807,-4.196436882019043,-0.6644667387008667,1.5074245929718018,0.28048595786094666,-1.0345230102539062,1.2081013917922974,1.795117735862732
270,38059,38060,0.04249274358153343,-0.033951856195926666,0.9961197972297668,-1.7778003215789795,-29.73906898498535,-3.9266045093536377,-0.6389680504798889,1.511924386024475,0.28498575091362,-0.7710456848144531,1.2863314151763916,1.781111717224121
271,38069,38070,0.04412258788943291,-0.022017601877450943,1.0134063959121704,15.110363960266113,-43.15811538696289,-1.76473867893219,-0.6374680995941162,1.498425006866455,0.2744862735271454,-0.2254800647497177,1.5310193300247192,1.797642707824707
272,38079,38080,0.03940300643444061,0.00984469335526228,1.056609034538269,35.108482360839844,-35.19259262084961,-2.185756206512451,-0.6434678435325623,1.489425539970398,0.28048595786094666,0.1327318400144577,1.6419280767440796,1.7550163269042969
273,38089,38090,0.07265126705169678,0.011316215619444847,1.0461177825927734,43.38316345214844,-23.989879608154297,-5.9506659507751465,-0.6419678926467896,1.4939253330230713,0.28798559308052063,0.463114857673645,2.2925360202789307,1.7199069261550903
274,38099,38100,0.10403890907764435,-0.025664879009127617,1.0072481632232666,41.84864044189453,-8.364837646484375,-10.13280963897705,-0.6329683661460876,1.4879255294799805,0.28498575091362,0.5907871723175049,2.556236982345581,1.6219152212142944
275,38109,38110,0.05824882909655571,0.05600735917687416,0.9259915947914124,21.50289535522461,5.00175666809082,-14.36264705657959,-0.6524673700332642,1.4954252243041992,0.28048595786094666,0.5131301283836365,2.9640185832977295,1.4787641763687134
276,38119,38120,0.016726767644286156,0.11679559201002121,0.8575421571731567,-13.59536075592041,19.359344482421875,-18.381633758544922,-0.6434678435325623,1.4924253225326538,0.277486115694046,0.39755186438560486,2.8306446075439453,1.3212965726852417
277,38129,38130,-0.0955474004149437,0.04602726921439171,0.9777475595474243,-52.20357894897461,37.61638641357422,-19.970273971557617,-0.6329683661460876,1.4879255294799805,0.27898603677749634,-0.007417784072458744,2.3380913734436035,1.1101722717285156
278,38139,38140,-0.05564292147755623,-0.030774204060435295,0.970064103603363,-79.52739715576172,49.4859733581543,-19.68069839477539,-0.6509674191474915,1.4819258451461792,0.27898603677749634,-0.39719346165657043,1.5897738933563232,0.9508199095726013
279,38149,38150,0.0004188756283838302,-0.04502946883440018,0.9947867393493652,-74.38827514648438,39.45918655395508,-20.105924606323242,-0.6434678435325623,1.5164241790771484,0.2834858298301697,-0.8662434220314026,1.0045065879821777,0.758574366569519
280,38159,38160,4.706452091340907e-05,-0.010101068764925003,0.9813861846923828,-45.902191162109375,29.446252822875977,-22.777135848999023,-0.6509674191474915,1.5209239721298218,0.28198590874671936,-1.4213802814483643,0.2641431391239166,0.4796220362186432
281,38169,38170,0.06880389899015427,-0.11679433286190033,1.0766873359680176,-4.788991928100586,13.097637176513672,-26.034875869750977,-0.6509674191474915,1.5089244842529297,0.27298635244369507,-1.4852077960968018,0.11035040020942688,0.2813960909843445
282,38179,38180,0.02033686451613903,-0.12870895862579346,1.04696786403656,32.41750717163086,-5.043597221374512,-28.762136459350586,-0.6404679417610168,1.5014249086380005,0.26848655939102173,-1.543609380722046,0.3919295072555542,0.0008922117413021624
283,38189,38190,0.023626238107681274,-0.07370862364768982,1.000130295753479,45.92129135131836,-20.4333438873291,-29.92711067199707,-0.6479675769805908,1.5059247016906738,0.2759861946105957,-1.3431458473205566,0.7692435383796692,-0.2834813892841339
284,38199,38200,0.100250743329525,-0.03379832208156586,0.8781322836875916,25.577495574951172,-24.665380477905273,-28.142526626586914,-0.6509674191474915,1.4939253330230713,0.28498575091362,-1.0201822519302368,1.2833220958709717,-0.549432098865509
285,38209,38210,0.026365142315626144,-0.008366243913769722,0.9291993379592896,-5.115448474884033,-17.68498992919922,-25.35071563720703,-0.6464676856994629,1.4924253225326538,0.27148643136024475,-0.9560299515724182,1.1617538928985596,-0.8637158274650574
286,38219,38220,-0.01968783140182495,-0.035288747400045395,0.9205617904663086,-27.549123764038086,-3.0138659477233887,-20.503202438354492,-0.6509674191474915,1.4789260625839233,0.28798559308052063,-0.945306122303009,0.9087187051773071,-1.110652208328247
287,38229,38230,0.07022187113761902,0.017284244298934937,0.9674205183982849,-40.068878173828125,9.196313858032227,-16.483657836914062,-0.6434678435325623,1.4864256381988525,0.277486115694046,-0.9212577939033508,0.36986079812049866,-1.3036563396453857
288,38239,38240,0.012885957956314087,-0.02066253125667572,0.963601291179657,-38.73025894165039,12.50998592376709,-14.009496688842773,-0.6389680504798889,1.5239237546920776,0.2759861946105957,-1.0897319316864014,0.125705748796463,-1.4393317699432373
289,38249,38250,0.04130905866622925,0.001380273955874145,0.9869192838668823,-30.356586456298828,13.019026756286621,-13.705885887145996,-0.6569671630859375,1.529923439025879,0.28498575091362,-1.2254856824874878,-0.24667710065841675,-1.5800597667694092
290,38259,38260,0.04172045364975929,0.020781006664037704,1.0216360092163086,-19.08591651916504,5.204398155212402,-13.4844331741333,-0.6389680504798889,1.511924386024475,0.28498575091362,-1.2906348705291748,-0.5973367691040039,-1.7309024333953857
291,38269,38270,0.008906908333301544,-0.0016622014809399843,0.9901894330978394,-9.893120765686035,-4.792441368103027,-12.073338508605957,-0.6434678435325623,1.5224238634109497,0.2744862735271454,-1.255855679512024,-0.8302317261695862,-1.8703116178512573
292,38279,38280,0.013618123717606068,0.09247462451457977,1.0073275566101074,-6.576693058013916,-16.6682186126709,-11.590775489807129,-0.6389680504798889,1.511924386024475,0.28198590874671936,-1.1374224424362183,-0.892367422580719,-1.9848376512527466
293,38289,38290,0.05153828114271164,0.06698984652757645,1.0381648540496826,-3.4667837619781494,-29.765108108520508,-11.180708885192871,-0.6419678926467896,1.511924386024475,0.2639867961406708,-0.7298813462257385,-0.8495262861251831,-2.078272819519043
294,38299,38300,-0.00398954376578331,-0.02502250298857689,0.9730228185653687,0.7386521697044373,-34.43106460571289,-11.22138786315918,-0.6449677348136902,1.526923656463623,0.29098543524742126,-0.3286826014518738,-0.8758546113967896,-2.1888322830200195
295,38309,38310,0.007428170647472143,0.010908525437116623,1.015147089958191,-0.82674640417099,-31.501880645751953,-11.15264892578125,-0.6494675278663635,1.5224238634109497,0.26848655939102173,0.07462447136640549,-0.8718115091323853,-2.300248384475708
296,38319,38320,0.014568786136806011,-0.129251629114151,0.931413471698761,-8.763072967529297,-21.774499893188477,-9.851696968078613,-0.6344682574272156,1.5374231338500977,0.2744862735271454,0.018132319673895836,-0.9399895668029785,-2.379791498184204
297,38329,38330,0.006991793867200613,-0.018892506137490273,0.9768685698509216,-17.705062866210938,-16.363113403320312,-7.810821056365967,-0.6359682083129883,1.511924386024475,0.27898603677749634,0.29616352915763855,-1.1605528593063354,-2.483043670654297
298,38339,38340,-0.030611267313361168,0.024703659117221832,0.9812377095222473,-19.87702178955078,-12.875441551208496,-6.363735675811768,-0.6314684152603149,1.513424277305603,0.2744862735271454,0.2667916715145111,-1.4670230150222778,-2.543240785598755
299,38349,38350,0.03593260049819946,0.07892929762601852,1.0394867658615112,-18.244338989257812,-11.50534439086914,-4.076829433441162,-0.6359682083129883,1.5239237546920776,0.28198590874671936,0.2778419554233551,-1.6232982873916626,-2.5698652267456055
300,38359,38360,-0.03427233174443245,-0.027752837166190147,0.9416874647140503,-12.941065788269043,-11.935816764831543,-2.722829580307007,-0.6419678926467896,1.5239237546920776,0.2639867961406708,0.5102787613868713,-1.790756344795227,-2.6210389137268066
301,38369,38370,0.08911511301994324,0.04936151206493378,0.9583206176757812,-4.729350566864014,-8.26012897491455,-1.2803473472595215,-0.6254687309265137,1.5344232320785522,0.2744862735271454,0.8407751321792603,-1.921221137046814,-2.6861209869384766
302,38379,38380,0.034997109323740005,0.042774658650159836,1.005326271057129,3.0855836868286133,-6.547626495361328,-0.8175703287124634,-0.6374680995941162,1.5374231338500977,0.26848655939102173,0.6938239336013794,-1.9813827276229858,-2.647413730621338
303,38389,38390,-0.033874135464429855,-0.042885672301054,0.9517603516578674,11.195433616638184,-2.2498555183410645,-0.9164365530014038,-0.623968780040741,1.5359231233596802,0.2759861946105957,0.7817095518112183,-1.825130581855774,-2.666053295135498
304,38399,38400,-0.04344379901885986,0.05786463990807533,1.0912656784057617,16.811368942260742,-0.15226896107196808,-0.611821711063385,-0.6299684643745422,1.541922926902771,0.28198590874671936,0.7530136108398438,-1.6306661367416382,-2.66237211227417
305,38409,38410,-0.029176203534007072,-0.013994305394589901,0.978736162185669,13.74073600769043,1.6402138471603394,0.6623659729957581,-0.6269686222076416,1.5389230251312256,0.2759861946105957,0.619586706161499,-1.7069963216781616,-2.62396240234375
306,38419,38420,0.0504661500453949,0.025780048221349716,1.003836750984192,8.658052444458008,2.024082899093628,3.1138949394226074,-0.6344682574272156,1.5494225025177002,0.277486115694046,0.7722626328468323,-1.5507367849349976,-2.6614832878112793
307,38429,38430,0.04739658907055855,0.019963355734944344,1.0158849954605103,2.797203302383423,-0.8686168789863586,4.897722244262695,-0.6329683661460876,1.5329233407974243,0.27898603677749634,0.6529067158699036,-1.4927116632461548,-2.5802834033966064
308,38439,38440,0.00990845263004303,-0.05468590557575226,0.9466792941093445,0.09327950328588486,-2.1618845462799072,6.7936787605285645,-0.6434678435325623,1.5254236459732056,0.27148643136024475,0.5635232329368591,-1.5738826990127563,-2.4808335304260254
309,38449,38450,-0.02852027490735054,0.03034833073616028,1.0539798736572266,-2.2107419967651367,-2.6904492378234863,6.9179511070251465,-0.6284685730934143,1.5464226007461548,0.28948551416397095,0.5596223473548889,-1.6130393743515015,-2.402265787124634
310,38459,38460,-0.036971572786569595,-0.03460226580500603,1.0759297609329224,-1.6955513954162598,-4.068329334259033,7.740255355834961,-0.6314684152603149,1.5344232320785522,0.277486115694046,0.6429857015609741,-1.7441755533218384,-2.343172550201416
311,38469,38470,0.000983125064522028,-0.048208195716142654,1.025740146636963,5.257095813751221,-7.003778457641602,9.637816429138184,-0.6269686222076416,1.541922926902771,0.28498575091362,0.7752522826194763,-1.7072079181671143,-2.2827882766723633
312,38479,38480,0.012531810440123081,0.011571836657822132,1.097154974937439,10.42961311340332,-3.6181411743164062,12.641243934631348,-0.6404679417610168,1.5464226007461548,0.28048595786094666,0.7453538775444031,-1.634588599205017,-2.134629964828491
313,38489,38490,-0.015632493421435356,0.013430480845272541,1.0826234817504883,13.451930046081543,4.127808570861816,15.788939476013184,-0.6254687309265137,1.5524224042892456,0.2834858298301697,0.7700312733650208,-1.5095254182815552,-2.0042836666107178
314,38499,38500,-0.03592262417078018,-0.003499341430142522,1.067014217376709,11.544020652770996,8.076326370239258,19.333765029907227,-0.6404679417610168,1.543422818183899,0.28048595786094666,0.7575425505638123,-1.5085631608963013,-1.8390753269195557
315,38509,38510,-0.04910815507173538,-0.03795050457119942,1.027522087097168,4.634512424468994,8.213744163513184,21.443986892700195,-0.6374680995941162,1.5314234495162964,0.27148643136024475,0.6254247426986694,-1.4364548921585083,-1.6172800064086914
316,38519,38520,0.023760011419653893,0.03146534040570259,1.0136703252792358,5.10866641998291,1.564681887626648,20.838205337524414,-0.6389680504798889,1.5389230251312256,0.2759861946105957,0.4785442650318146,-1.4292967319488525,-1.365465521812439
317,38529,38530,-0.015165741555392742,0.05985935032367706,1.0849854946136475,18.376155853271484,-15.156497955322266,18.9952392578125,-0.6374680995941162,1.5344232320785522,0.277486115694046,0.6286656260490417,-1.5044556856155396,-1.1766248941421509
318,38539,38540,-0.003659365698695183,-0.018463527783751488,1.020017385482788,34.837486267089844,-27.429420471191406,17.047901153564453,-0.623968780040741,1.541922926902771,0.27298635244369507,1.0823125839233398,-1.1637152433395386,-1.0976561307907104
319,38549,38550,0.026605134829878807,-0.015511684119701385,1.0347644090652466,47.446556091308594,-34.543819427490234,15.413018226623535,-0.6374680995941162,1.5314234495162964,0.2864856719970703,1.400633692741394,-0.7270261645317078,-0.9321155548095703
320,38559,38560,-0.03085903450846672,0.03074215166270733,1.0635706186294556,56.39089584350586,-32.69789505004883,14.129016876220703,-0.6329683661460876,1.5179240703582764,0.28498575091362,1.895486831665039,-0.11010944843292236,-0.85882169008255
321,38569,38570,-0.016038931906223297,-0.009521001018583775,1.0274953842163086,57.072872161865234,-21.856258392333984,13.410505294799805,-0.6269686222076416,1.5239237546920776,0.2759861946105957,2.05997371673584,0.35438090562820435,-0.6606630086898804
322,38579,38580,-0.041389286518096924,-0.06069943681359291,1.0234681367874146,51.09352111816406,-6.365720272064209,12.116289138793945,-0.6329683661460876,1.5329233407974243,0.2939853072166443,2.2223217487335205,1.0620150566101074,-0.5742850303649902
323,38589,38590,-0.041383519768714905,-0.031293850392103195,1.03695547580719,39.439117431640625,11.922974586486816,11.352703094482422,-0.6404679417610168,1.5194239616394043,0.2744862735271454,2.230390787124634,1.1216527223587036,-0.3941570520401001
324,38599,38600,-0.004650922492146492,-0.035806745290756226,1.0339072942733765,23.90907096862793,25.59346580505371,10.020453453063965,-0.6314684152603149,1.513424277305603,0.2954852283000946,1.8351277112960815,1.674820899963379,-0.26855817437171936
325,38609,38610,-0.002898900071159005,-0.028652826324105263,1.0209341049194336,10.478650093078613,32.98105239868164,8.867064476013184,-0.6179690957069397,1.4999250173568726,0.2939853072166443,1.7001152038574219,1.5609333515167236,-0.14957135915756226
326,38619,38620,-0.0017937819939106703,-0.0054458798840641975,1.0725890398025513,0.7989286184310913,32.18156051635742,8.958266258239746,-0.623968780040741,1.5029247999191284,0.29098543524742126,1.21732759475708,1.59956955909729,-0.012633240781724453
327,38629,38630,-0.06876631081104279,-0.035329122096300125,1.0296512842178345,-3.3901519775390625,22.688495635986328,8.731094360351562,-0.6359682083129883,1.514924168586731,0.28798559308052063,0.9611905813217163,1.547358512878418,0.08762863278388977
328,38639,38640,-0.004883098881691694,-0.032553449273109436,1.068860650062561,6.635376453399658,9.466005325317383,8.470349311828613,-0.6389680504798889,1.5089244842529297,0.28198590874671936,0.843041181564331,1.464415192604065,0.19551652669906616
329,38649,38650,-0.06252993643283844,0.041602153331041336,1.0828412771224976,29.3790225982666,-0.6732050776481628,7.548433303833008,-0.6389680504798889,1.511924386024475,0.27898603677749634,0.8286250829696655,1.7903088331222534,0.2369152307510376
330,38659,38660,-0.04059457406401634,-0.03920550271868706,1.069155216217041,49.352783203125,-11.6250638961792,7.407333850860596,-0.6284685730934143,1.498425006866455,0.2864856719970703,0.9923140406608582,2.0119853019714355,0.3429567217826843
331,38669,38670,-0.016861461102962494,-0.022020146250724792,1.1163592338562012,56.00222396850586,-16.55929946899414,8.304540634155273,-0.6269686222076416,1.4999250173568726,0.28798559308052063,1.0682001113891602,2.8699700832366943,0.34413430094718933
332,38679,38680,-0.013390515930950642,-0.13809815049171448,1.0863090753555298,44.09645462036133,-5.35392951965332,8.478212356567383,-0.6329683661460876,1.4819258451461792,0.29098543524742126,1.2242610454559326,3.1748602390289307,0.46788010001182556
333,38689,38690,0.01057364884763956,-0.12462947517633438,1.046887755393982,35.149471282958984,17.233797073364258,8.233780860900879,-0.622468888759613,1.489425539970398,0.2864856719970703,1.1046417951583862,3.7776689529418945,0.505703866481781
334,38699,38700,-0.012201396748423576,-0.07472265511751175,0.9664467573165894,15.989004135131836,33.033390045166016,9.620749473571777,-0.6329683661460876,1.475926160812378,0.3119843900203705,0.8787820935249329,3.8921658992767334,0.6473544239997864
335,38709,38710,-0.052887484431266785,0.06427717953920364,1.012154221534729,-3.5734570026397705,44.629642486572266,12.76117992401123,-0.6389680504798889,1.4789260625839233,0.2969851493835449,0.37804630398750305,3.9293038845062256,0.7788984179496765
336,38719,38720,-0.05524217337369919,0.09293514490127563,1.0846774578094482,-14.749216079711914,52.128211975097656,14.357778549194336,-0.6494675278663635,1.4714263677597046,0.2924853563308716,-0.16946610808372498,3.776474952697754,0.9548717141151428
337,38729,38730,-0.030927488580346107,0.12018479406833649,1.0576142072677612,-24.543142318725586,40.0837287902832,13.299516677856445,-0.6314684152603149,1.4864256381988525,0.2834858298301697,-0.5189485549926758,3.6352121829986572,1.1332738399505615
338,38739,38740,-0.05864253267645836,0.14955097436904907,1.0043437480926514,-29.938692092895508,29.96355438232422,9.920538902282715,-0.6434678435325623,1.489425539970398,0.2954852283000946,-0.8087357878684998,3.2394206523895264,1.2978500127792358
339,38749,38750,0.041714683175086975,0.17043888568878174,1.0317952632904053,-6.9329142570495605,11.984429359436035,5.980282783508301,-0.6539672613143921,1.4789260625839233,0.27898603677749634,-0.8383710980415344,2.9878640174865723,1.4446423053741455
340,38759,38760,0.06224856153130531,0.029905743896961212,0.9745499491691589,17.13035011291504,-9.845246315002441,1.0819071531295776,-0.6419678926467896,1.4819258451461792,0.2939853072166443,-0.8923057317733765,3.174888849258423,1.4498907327651978
341,38769,38770,0.09865184128284454,-0.01507664006203413,1.010054111480713,36.20421600341797,-36.95508575439453,-1.1742409467697144,-0.6464676856994629,1.4624269008636475,0.28048595786094666,-0.6775042414665222,3.5414984226226807,1.4132598638534546
342,38779,38780,0.06637904047966003,-0.036790914833545685,1.0281474590301514,52.4151611328125,-58.081050872802734,-2.653095006942749,-0.6374680995941162,1.4684265851974487,0.27148643136024475,-0.12056270241737366,4.040526390075684,1.3783509731292725
343,38789,38790,0.023837845772504807,-0.0616154782474041,1.0034199953079224,56.22215270996094,-59.49216079711914,-3.979862928390503,-0.6344682574272156,1.4774260520935059,0.2834858298301697,0.5695216655731201,4.7395524978637695,1.3168402910232544
344,38799,38800,0.05925898626446724,-0.033605143427848816,0.901139497756958,34.641666412353516,-40.85210418701172,-6.531276226043701,-0.6254687309265137,1.4684265851974487,0.29848507046699524,1.0971027612686157,5.146063327789307,1.2363632917404175
345,38809,38810,-0.004567192401736975,-0.060207583010196686,0.8921443223953247,-12.202361106872559,-12.506104469299316,-11.335823059082031,-0.6359682083129883,1.4789260625839233,0.28498575091362,1.3190040588378906,5.004173278808594,1.1292952299118042
346,38819,38820,0.01752648316323757,-0.10142216086387634,0.9843125343322754,-60.939422607421875,13.392127990722656,-15.147296905517578,-0.6284685730934143,1.459426999092102,0.2864856719970703,1.1937569379806519,4.611616134643555,0.9544633626937866
347,38829,38830,0.023729918524622917,-0.17319965362548828,0.9155426621437073,-108.52883911132812,27.68305778503418,-13.034463882446289,-0.6524673700332642,1.4834258556365967,0.277486115694046,0.8075330257415771,3.3508503437042236,0.7844347357749939
348,38839,38840,0.052803654223680496,-0.12184514105319977,0.9053148031234741,-130.3780975341797,29.36857032775879,-7.8171916007995605,-0.6314684152603149,1.504424810409546,0.2864856719970703,0.5230822563171387,2.5332798957824707,0.6647807359695435
349,38849,38850,0.03139122202992439,-0.10797697305679321,0.9562374949455261,-114.6958999633789,37.05709457397461,-2.338611602783203,-0.6344682574272156,1.5104244947433472,0.277486115694046,-0.03561745956540108,1.1554646492004395,0.5180560350418091
350,38859,38860,0.015382557176053524,-0.009633306413888931,1.0467767715454102,-63.20024871826172,36.526798248291016,2.989996910095215,-0.6524673700332642,1.5164241790771484,0.2864856719970703,-0.47374412417411804,0.505784809589386,0.48833978176116943
351,38869,38870,-0.02767261117696762,0.0053674206137657166,1.1061559915542603,-3.8518030643463135,21.272159576416016,6.659388542175293,-0.6524673700332642,1.5104244947433472,0.28948551416397095,-0.4745621085166931,0.13082285225391388,0.6919527053833008
352,38879,38880,-0.06159919500350952,0.02892102301120758,0.978186845779419,41.39772033691406,4.348563194274902,8.884278297424316,-0.6524673700332642,1.5104244947433472,0.27148643136024475,-0.5452362298965454,0.5520192980766296,0.781072199344635
353,38889,38890,-0.007599087432026863,0.010013027116656303,0.9636226892471313,66.85438537597656,-4.8009843826293945,12.720044136047363,-0.6464676856994629,1.504424810409546,0.26248687505722046,-0.4092242121696472,1.4252454042434692,0.934372067451477
354,38899,38900,-0.034817587584257126,-0.02210931107401848,0.9534558653831482,65.08849334716797,-8.379984855651855,15.300522804260254,-0.6449677348136902,1.5089244842529297,0.28198590874671936,-0.32190048694610596,1.9591903686523438,1.0792113542556763
355,38909,38910,-0.05881979689002037,-0.04527321457862854,0.9549150466918945,44.6124153137207,-1.6041219234466553,15.978693962097168,-0.6434678435325623,1.498425006866455,0.28048595786094666,-0.34033241868019104,2.5750389099121094,1.2096742391586304
356,38919,38920,-0.06316117942333221,-0.07607074826955795,0.9920497536659241,15.406519889831543,7.84304141998291,14.463746070861816,-0.6494675278663635,1.4864256381988525,0.28948551416397095,-0.35141363739967346,2.5783958435058594,1.370434284210205
357,38929,38930,-0.056376829743385315,-0.11956450343132019,0.9859263300895691,-13.803902626037598,16.589433670043945,12.394878387451172,-0.6449677348136902,1.4819258451461792,0.27898603677749634,-0.57359778881073,2.600102663040161,1.4750807285308838
358,38939,38940,-0.040899842977523804,-0.10657720267772675,0.9979581236839294,-35.63580322265625,18.437477111816406,10.746334075927734,-0.6479675769805908,1.4939253330230713,0.28498575091362,-0.6749388575553894,2.1923837661743164,1.6172555685043335
359,38949,38950,-0.0446912907063961,-0.059248149394989014,0.9688668251037598,-49.13108825683594,15.839942932128906,10.211702346801758,-0.6374680995941162,1.498425006866455,0.2834858298301697,-0.9916626214981079,1.842058539390564,1.6835933923721313
360,38959,38960,-0.04732878506183624,-0.023897401988506317,0.9579216241836548,-51.792808532714844,6.85352897644043,10.924235343933105,-0.6449677348136902,1.4879255294799805,0.28498575091362,-1.5452697277069092,1.2857182025909424,1.6416078805923462
361,38969,38970,-0.04654068127274513,0.14913152158260345,1.012200117111206,-49.774356842041016,-4.173684120178223,12.05135440826416,-0.6479675769805908,1.5029247999191284,0.29098543524742126,-0.9163357019424438,0.7481745481491089,1.9619247913360596
362,38979,38980,-0.09274132549762726,0.14738163352012634,0.9132005572319031,-35.77766799926758,-14.836050033569336,11.047261238098145,-0.6479675769805908,1.4849257469177246,0.27298635244369507,-0.7211682796478271,0.1897779107093811,2.0955052375793457
363,38989,38990,-0.0029159875120967627,0.06549277901649475,0.9639710187911987,-19.365856170654297,-21.80166244506836,9.80887222290039,-0.6404679417610168,1.4924253225326538,0.277486115694046,-0.5897674560546875,0.03130073845386505,2.192978620529175
364,38999,39000,0.057456981390714645,-0.11158864945173264,0.9488198161125183,-2.980494499206543,-21.8533935546875,8.651178359985352,-0.6419678926467896,1.4999250173568726,0.26098695397377014,-0.3242041766643524,-0.14242425560951233,2.2874298095703125
365,39009,39010,0.006688228342682123,-0.05489202216267586,0.9379952549934387,7.9044013023376465,-16.349496841430664,8.496735572814941,-0.6419678926467896,1.4909254312515259,0.2759861946105957,-0.17842808365821838,-0.08552621304988861,2.3659284114837646
366,39019,39020,-0.0600280724465847,0.06867092102766037,0.997550368309021,22.617036819458008,-7.254379749298096,7.905776023864746,-0.6389680504798889,1.4909254312515259,0.28498575091362,-0.07726915180683136,0.19031056761741638,2.457211971282959
367,39029,39030,-0.01844029873609543,0.10018282383680344,1.0315066576004028,27.16607666015625,4.184896469116211,6.694879055023193,-0.6494675278663635,1.5074245929718018,0.277486115694046,-0.07263576984405518,0.5379095673561096,2.5388190746307373
368,39039,39040,0.012172792106866837,0.017397651448845863,0.9789379239082336,27.060077667236328,10.566231727600098,5.898388385772705,-0.6404679417610168,1.5104244947433472,0.2834858298301697,-0.2085515856742859,0.8422812819480896,2.599010467529297
369,39049,39050,-0.057144153863191605,0.017770670354366302,0.9544814229011536,24.688278198242188,16.83749008178711,4.403587818145752,-0.6509674191474915,1.5029247999191284,0.2939853072166443,-0.3866976797580719,1.1225591897964478,2.6515848636627197
370,39059,39060,-0.10778217762708664,0.036829374730587006,0.9408418536186218,18.055105209350586,19.45773696899414,3.098517656326294,-0.6599670052528381,1.511924386024475,0.28198590874671936,-0.5656962394714355,1.1175135374069214,2.6682827472686768
371,39069,39070,-0.05709196254611015,0.013093942776322365,1.0097310543060303,11.128754615783691,17.574228286743164,1.1468256711959839,-0.6554672122001648,1.498425006866455,0.2654867172241211,-0.8974897861480713,1.3489787578582764,2.6933858394622803
372,39079,39080,0.016431234776973724,0.09947960823774338,0.9882276654243469,3.117065906524658,12.158536911010742,-1.5812859535217285,-0.6584670543670654,1.5014249086380005,0.28048595786094666,-1.1397160291671753,1.4045405387878418,2.6856374740600586
373,39089,39090,-0.009197741746902466,0.14579074084758759,0.9822838306427002,-17.11742401123047,10.763165473937988,-2.992136240005493,-0.6584670543670654,1.513424277305603,0.28048595786094666,-1.1189992427825928,1.353728175163269,2.676426649093628
374,39099,39100,0.0879836156964302,0.06917673349380493,0.9056957364082336,-42.01926040649414,5.33831262588501,-3.731604814529419,-0.6464676856994629,1.5074245929718018,0.28948551416397095,-1.2494317293167114,0.8652127385139465,2.614468574523926
375,39109,39110,0.05468425154685974,0.08796888589859009,0.9383308291435242,-63.91716384887695,-4.4861884117126465,-2.445875883102417,-0.6539672613143921,1.5209239721298218,0.28198590874671936,-1.1203725337982178,0.41306576132774353,2.604519844055176
376,39119,39120,0.039797015488147736,0.014198660850524902,0.9783706068992615,-68.88941955566406,-28.500211715698242,0.2202514410018921,-0.6569671630859375,1.5359231233596802,0.27898603677749634,-0.9775208234786987,-0.4528810977935791,2.565653085708618
377,39129,39130,0.008149649016559124,-0.08989043533802032,1.003646969795227,-52.195106506347656,-35.485897064208984,1.8720245361328125,-0.6584670543670654,1.5344232320785522,0.27148643136024475,-0.5219868421554565,-0.8899986147880554,2.6164631843566895
378,39139,39140,0.02117631770670414,-0.03291773796081543,1.0078985691070557,-21.23087501525879,-32.68929672241211,2.252411365509033,-0.6419678926467896,1.511924386024475,0.28498575091362,-0.17128407955169678,-1.4793795347213745,2.6086173057556152
379,39149,39150,-0.035238370299339294,-0.07438693195581436,1.061847448348999,9.764695167541504,-22.507347106933594,0.209975928068161,-0.6464676856994629,1.5194239616394043,0.2744862735271454,0.13290786743164062,-1.3158032894134521,2.663444995880127
380,39159,39160,-0.07644833624362946,-0.027839824557304382,1.0368540287017822,28.799837112426758,-11.231884956359863,-4.128376007080078,-0.6599670052528381,1.526923656463623,0.26998651027679443,0.2349594533443451,-0.9500253796577454,2.6721608638763428
381,39169,39170,-0.020685208961367607,-0.046282898634672165,0.9696464538574219,30.968568801879883,-11.357234954833984,-9.455260276794434,-0.6509674191474915,1.526923656463623,0.28198590874671936,0.4746582508087158,-0.6885606646537781,2.584780693054199
382,39179,39180,-0.05644964054226875,-0.04503123462200165,1.0757323503494263,37.67836380004883,-15.440359115600586,-12.502500534057617,-0.6374680995941162,1.5224238634109497,0.26848655939102173,0.6100119352340698,-0.20670852065086365,2.493089199066162
383,39189,39190,-0.013319059275090694,-0.04368745908141136,1.0245039463043213,52.21199035644531,-2.6183393001556396,-12.340591430664062,-0.6434678435325623,1.5254236459732056,0.277486115694046,0.7619345188140869,0.11884448677301407,2.3458213806152344
384,39199,39200,-0.015196030959486961,0.026279745623469353,1.0560474395751953,48.437252044677734,23.301240921020508,-11.052590370178223,-0.6494675278663635,1.5194239616394043,0.28948551416397095,0.49192091822624207,0.45019689202308655,2.237802743911743
385,39209,39210,0.07904861122369766,0.016433067619800568,1.0112682580947876,52.21669006347656,48.79451370239258,-11.194225311279297,-0.6584670543670654,1.5164241790771484,0.2834858298301697,-0.12470119446516037,1.188082218170166,2.1921839714050293
386,39219,39220,0.030790625140070915,-0.014259195886552334,0.9672225117683411,54.62056350708008,60.317420959472656,-10.155298233032227,-0.6674666404724121,1.5254236459732056,0.277486115694046,-0.8641273379325867,1.6463665962219238,2.1189634799957275
387,39229,39230,-0.03380994871258736,-0.06464745104312897,1.0424853563308716,45.75030517578125,56.31045913696289,-9.194562911987305,-0.6659666895866394,1.5239237546920776,0.28498575091362,-1.4850420951843262,2.131044387817383,2.045614719390869
388,39239,39240,0.032616399228572845,-0.045746099203825,1.0127453804016113,28.4101619720459,39.37859344482422,-10.735960960388184,-0.6614668965339661,1.5164241790771484,0.2864856719970703,-2.0657074451446533,2.315845251083374,1.9611493349075317
389,39249,39250,0.005339458119124174,-0.002930654911324382,0.9622564911842346,-1.74082612991333,2.1103389263153076,-12.5513277053833,-0.6674666404724121,1.498425006866455,0.29848507046699524,-2.395094633102417,2.5427234172821045,1.8765780925750732
390,39259,39260,0.010641641914844513,0.02664361521601677,0.9937980771064758,-49.58393478393555,-39.4654655456543,-15.857192993164062,-0.6674666404724121,1.498425006866455,0.29848507046699524,-1.9561351537704468,2.054373264312744,1.6756291389465332
391,39269,39270,0.0263578649610281,0.010547961108386517,1.000525712966919,-74.30371856689453,-61.65594482421875,-18.452011108398438,-0.6674666404724121,1.498425006866455,0.29848507046699524,-1.07749605178833,1.198569416999817,1.4327698945999146
392,39279,39280,-0.024590447545051575,-0.04640505462884903,0.9741262793540955,-72.52861785888672,-65.60153198242188,-19.742015838623047,-0.6674666404724121,1.498425006866455,0.29848507046699524,-0.5204257965087891,0.4878268539905548,1.238972783088684
393,39289,39290,-0.00043883590842597187,0.03187984228134155,1.057889461517334,-58.73691177368164,-61.968345642089844,-19.498159408569336,-0.6344682574272156,1.513424277305603,0.2864856719970703,0.5291946530342102,-0.5748302340507507,0.9621868133544922
394,39299,39300,-0.050229836255311966,-0.03858286142349243,0.97397381067276,-33.1834716796875,-48.761539459228516,-17.632526397705078,-0.6359682083129883,1.514924168586731,0.28198590874671936,0.5873579382896423,-0.3583551049232483,0.9044528603553772
395,39309,39310,0.02616957388818264,0.07806005328893661,1.080918312072754,-5.35636568069458,-24.674095153808594,-16.322599411010742,-0.6404679417610168,1.513424277305603,0.2834858298301697,0.920296847820282,-0.3646014332771301,0.7624609470367432
396,39319,39320,-0.03571734204888344,-0.041434045881032944,1.002993106842041,18.594573974609375,1.3167634010314941,-13.932731628417969,-0.6374680995941162,1.5164241790771484,0.2864856719970703,1.1044338941574097,-0.25087112188339233,0.6094222664833069
397,39329,39330,0.0450008362531662,0.010100801475346088,0.9637519717216492,35.66607666015625,24.854351043701172,-12.69311809539795,-0.6419678926467896,1.514924168586731,0.28798559308052063,0.8812417387962341,-0.0902336910367012,0.4701964855194092
398,39339,39340,0.018699536100029945,0.10704724490642548,0.9784216284751892,38.63935470581055,43.20420455932617,-13.255046844482422,-0.6419678926467896,1.514924168586731,0.2759861946105957,0.31601497530937195,0.4515925943851471,0.3744260370731354
399,39349,39350,-0.015900203958153725,0.10584752261638641,1.1200664043426514,31.283964157104492,52.84912109375,-15.076553344726562,-0.6464676856994629,1.5164241790771484,0.2954852283000946,-0.11875808984041214,0.650800883769989,0.2211494743824005
400,39359,39360,-0.049008142203092575,-0.0034166446421295404,1.0697418451309204,22.44261360168457,44.21306610107422,-14.833364486694336,-0.6449677348136902,1.5239237546920776,0.28498575091362,-0.7511271238327026,0.93128502368927,0.09638610482215881
401,39369,39370,0.006707610562443733,-0.012296533212065697,1.0731419324874878,17.836095809936523,23.086101531982422,-14.43770694732666,-0.6494675278663635,1.5164241790771484,0.2864856719970703,-0.9225864410400391,1.1070847511291504,-0.06561948359012604
402,39379,39380,0.023711059242486954,-0.020988352596759796,1.0441220998764038,9.380724906921387,0.1152217909693718,-12.615385055541992,-0.6479675769805908,1.4999250173568726,0.28498575091362,-1.0663423538208008,1.309389591217041,-0.18950185179710388
403,39389,39390,-0.006006420124322176,0.006379273254424334,1.0521045923233032,-5.455077648162842,-15.40038013458252,-10.674468040466309,-0.6464676856994629,1.498425006866455,0.2924853563308716,-0.9017934799194336,1.255620002746582,-0.32162728905677795
404,39399,39400,0.010712471790611744,0.01431494951248169,1.0182968378067017,-21.937294006347656,-24.806406021118164,-8.447571754455566,-0.6449677348136902,1.4939253330230713,0.29098543524742126,-0.5319221615791321,1.0034961700439453,-0.44237446784973145
405,39409,39410,0.0006340806721709669,-0.01758241280913353,0.9858896732330322,-29.165023803710938,-27.177452087402344,-5.912723064422607,-0.6374680995941162,1.513424277305603,0.2864856719970703,-0.29713207483291626,0.7118009328842163,-0.5162586569786072
406,39419,39420,0.0033136236015707254,0.017586054280400276,1.0661038160324097,-29.717206954956055,-26.548490524291992,-4.673039436340332,-0.6314684152603149,1.5104244947433472,0.29848507046699524,-0.046603381633758545,0.3612690567970276,-0.5734106302261353
407,39429,39430,0.04603336378931999,-0.0007875133887864649,1.0450795888900757,-30.27031135559082,-20.30248260498047,-3.368135690689087,-0.6464676856994629,1.498425006866455,0.28048595786094666,0.3063993752002716,-0.11884742975234985,-0.6340658664703369
408,39439,39440,0.11479958146810532,0.031153766438364983,0.9915406703948975,-25.770658493041992,-10.5517578125,-2.526914358139038,-0.6404679417610168,1.513424277305603,0.27148643136024475,0.3780459463596344,-0.1545729637145996,-0.6413472294807434
409,39449,39450,0.03757532313466072,0.020200124010443687,0.9476932287216187,-15.172205924987793,-1.6049678325653076,-1.6502845287322998,-0.6374680995941162,1.5194239616394043,0.28048595786094666,0.4947545528411865,-0.3539332151412964,-0.6659170985221863
410,39459,39460,-0.023991510272026062,0.0135824428871274,0.9545084238052368,-4.706880569458008,4.716999530792236,-0.7089577913284302,-0.6374680995941162,1.513424277305603,0.28048595786094666,0.4569931626319885,-0.5948725938796997,-0.6812970042228699
411,39469,39470,-0.05697060748934746,0.012604634277522564,0.9491711258888245,7.154619216918945,9.071402549743652,0.023037385195493698,-0.6389680504798889,1.5209239721298218,0.28498575091362,0.3249322175979614,-0.5048011541366577,-0.678054690361023
412,39479,39480,-0.05779598280787468,-0.03291039168834686,0.9718644022941589,21.91350746154785,11.229080200195312,-0.06024693325161934,-0.6329683661460876,1.526923656463623,0.28498575091362,0.15912875533103943,-0.3281310796737671,-0.6717855930328369
413,39489,39490,-0.03007972054183483,0.004114567767828703,1.08600914478302,28.220142364501953,10.2710542678833,-0.23774072527885437,-0.6524673700332642,1.5194239616394043,0.2834858298301697,0.07838387042284012,0.0158406849950552,-0.6744061708450317
414,39499,39500,-0.027993641793727875,-0.027976369485259056,1.1090914011001587,30.630247116088867,9.177350997924805,-0.2111692726612091,-0.6449677348136902,1.5089244842529297,0.28498575091362,0.13799209892749786,0.14702221751213074,-0.6998981833457947
415,39509,39510,0.010545617900788784,-0.035689644515514374,1.1088300943374634,29.960283279418945,6.717056751251221,0.843508243560791,-0.6479675769805908,1.5239237546920776,0.29098543524742126,0.025372225791215897,0.5136950016021729,-0.6901040077209473
416,39519,39520,0.029179077595472336,0.051638152450323105,1.0315097570419312,23.31294822692871,4.247777462005615,1.708829641342163,-0.6494675278663635,1.513424277305603,0.2864856719970703,-0.04492604732513428,0.8110336065292358,-0.6725550889968872
417,39529,39530,0.014172405935823917,0.06496220827102661,1.007304072380066,22.24111557006836,3.6324565410614014,2.5738699436187744,-0.6494675278663635,1.5074245929718018,0.2834858298301697,-0.027191242203116417,1.077445149421692,-0.6627708673477173
418,39539,39540,-0.0062472582794725895,0.12983712553977966,1.1012752056121826,33.90470504760742,0.7689813375473022,4.705229759216309,-0.6464676856994629,1.498425006866455,0.2864856719970703,-0.07886622101068497,1.3581955432891846,-0.624514102935791
419,39549,39550,-0.10069581866264343,0.03993126004934311,1.1336069107055664,39.46415710449219,-1.8623510599136353,7.576611518859863,-0.6449677348136902,1.4969251155853271,0.29098543524742126,-0.15693654119968414,1.4793832302093506,-0.5495391488075256
420,39559,39560,-0.08268193900585175,-0.03724060580134392,1.1715167760849,37.05245590209961,-3.8521642684936523,6.8778076171875,-0.6464676856994629,1.498425006866455,0.28948551416397095,-0.027737336233258247,2.0326929092407227,-0.48854103684425354
421,39569,39570,-0.03656727075576782,-0.05596195533871651,1.119155764579773,47.018184661865234,-4.342923164367676,3.8554933071136475,-0.6389680504798889,1.5089244842529297,0.28498575091362,0.034073974937200546,2.4113686084747314,-0.4395264685153961
422,39579,39580,0.017310049384832382,-0.10953478515148163,1.0898293256759644,72.33914947509766,-2.3282690048217773,1.991987705230713,-0.6419678926467896,1.4819258451461792,0.27298635244369507,0.015374102629721165,2.7766802310943604,-0.4089985489845276
423,39589,39590,-0.09513121098279953,-0.10419067740440369,1.1493161916732788,88.22126770019531,-0.9908298850059509,-0.006938970182090998,-0.6374680995941162,1.4924253225326538,0.2864856719970703,-0.03339887782931328,3.863410472869873,-0.4018637239933014
424,39599,39600,-0.07071678340435028,-0.23440511524677277,1.197845697402954,60.23688888549805,4.019583225250244,-0.2712739109992981,-0.6449677348136902,1.4789260625839233,0.28798559308052063,-0.07085324078798294,4.7137322425842285,-0.39818429946899414
425,39609,39610,0.08596117794513702,-0.10877539217472076,1.0452321767807007,15.761807441711426,-5.719480991363525,-1.085067629814148,-0.6464676856994629,1.47442626953125,0.2954852283000946,0.03804447129368782,5.003327369689941,-0.40030476450920105
426,39619,39620,0.03632710501551628,0.012757983058691025,1.1564370393753052,-17.494070053100586,-20.854480743408203,-1.3400717973709106,-0.6329683661460876,1.4669265747070312,0.2939853072166443,0.26117631793022156,4.937957763671875,-0.42352065443992615
427,39629,39630,-0.06141151860356331,-0.08301618695259094,1.1893020868301392,-39.85577392578125,-25.61265754699707,-2.2202417850494385,-0.6374680995941162,1.4534273147583008,0.2924853563308716,0.4629552662372589,4.441231727600098,-0.4617064595222473
428,39639,39640,-0.04051368311047554,-0.10114088654518127,0.9620120525360107,-52.3906135559082,-23.067323684692383,-0.8606265187263489,-0.6254687309265137,1.4624269008636475,0.28048595786094666,0.797864556312561,4.012414455413818,-0.4814873933792114
429,39649,39650,-0.03173467144370079,-0.09593129903078079,0.9710907340049744,-57.19522476196289,4.0299577713012695,4.535514831542969,-0.623968780040741,1.445927619934082,0.28498575091362,0.8249669075012207,3.35363507270813,-0.4893602430820465
430,39659,39660,-0.047382451593875885,-0.1282249093055725,1.0026801824569702,-46.06184387207031,37.529327392578125,13.060149192810059,-0.6374680995941162,1.4684265851974487,0.28948551416397095,0.45877403020858765,3.193384885787964,-0.4435568153858185
431,39669,39670,-0.060526151210069656,-0.17341572046279907,0.9900758862495422,-21.646717071533203,52.535926818847656,18.225799560546875,-0.6419678926467896,1.4699264764785767,0.28798559308052063,-0.29615962505340576,2.8887882232666016,-0.34854382276535034
432,39679,39680,-0.0939754843711853,-0.2311296910047531,0.9574375748634338,-2.0479440689086914,56.02717971801758,20.839252471923828,-0.6509674191474915,1.472926378250122,0.2939853072166443,-0.6596282124519348,2.8875133991241455,-0.04878602921962738
433,39689,39690,-0.07316578924655914,-0.25061097741127014,0.9438347816467285,-4.648144721984863,41.46662521362305,20.034860610961914,-0.6509674191474915,1.475926160812378,0.2969851493835449,-1.2322968244552612,3.068432331085205,0.14424210786819458
434,39699,39700,-0.06631684303283691,-0.1406693160533905,0.9261683821678162,-23.72736358642578,20.02219581604004,19.43470573425293,-0.6524673700332642,1.47442626953125,0.2864856719970703,-1.701450228691101,2.964791774749756,0.29560378193855286
435,39709,39710,0.07747164368629456,0.006594612263143063,0.9587100744247437,-36.01121139526367,-9.628988265991211,20.32440757751465,-0.6464676856994629,1.4714263677597046,0.2924853563308716,-1.5694875717163086,2.7168612480163574,0.5513735413551331
436,39719,39720,-0.010615283623337746,0.06706541776657104,0.9810979962348938,-40.097835540771484,-38.94097900390625,19.632938385009766,-0.6374680995941162,1.47442626953125,0.2864856719970703,-1.134881854057312,2.275049924850464,0.7985386848449707
437,39729,39730,-0.08056221157312393,0.002539782552048564,0.8452469706535339,-41.40517044067383,-61.094120025634766,21.12714385986328,-0.6344682574272156,1.4774260520935059,0.28948551416397095,-0.5224313735961914,2.0550928115844727,1.0204224586486816
438,39739,39740,-0.030858827754855156,0.034157585352659225,0.9109027981758118,-42.414955139160156,-74.60942840576172,26.50341033935547,-0.6419678926467896,1.4819258451461792,0.29098543524742126,0.5720865726470947,1.4892630577087402,1.378851056098938
439,39749,39750,0.006366520654410124,-0.001237386022694409,0.8842928409576416,-57.58607864379883,-71.44645690917969,31.659303665161133,-0.622468888759613,1.4864256381988525,0.28948551416397095,1.2509890794754028,1.1921950578689575,1.6394562721252441
440,39759,39760,0.011225059628486633,0.0691332221031189,0.8821905255317688,-72.61903381347656,-70.0885238647461,35.538719177246094,-0.6209689378738403,1.4849257469177246,0.27898603677749634,2.027707815170288,0.4428386986255646,1.9910643100738525
441,39769,39770,-0.030498964712023735,0.054483864456415176,0.8395043015480042,-87.43809509277344,-55.461021423339844,39.53378677368164,-0.6209689378738403,1.4819258451461792,0.2639867961406708,2.6183230876922607,-0.26240968704223633,2.3502657413482666
442,39779,39780,-0.0591910146176815,-0.04598807916045189,0.812917172908783,-93.88282012939453,-32.08020782470703,42.27395248413086,-0.6194689869880676,1.4774260520935059,0.27148643136024475,3.1341161727905273,-0.8768343925476074,2.7741336822509766
443,39789,39790,-0.02848832868039608,0.0514674186706543,0.8135095238685608,-87.10302734375,2.863071918487549,43.71013259887695,-0.6254687309265137,1.4924253225326538,0.26248687505722046,3.0704362392425537,-2.1323039531707764,3.1970748901367188
444,39799,39800,0.01381592731922865,-0.011174953542649746,0.925710141658783,-79.17572784423828,29.4130802154541,43.53644943237305,-0.6284685730934143,1.5194239616394043,0.26248687505722046,2.805189847946167,-2.6486189365386963,3.555516004562378
445,39809,39810,-0.011830023489892483,-0.06171552091836929,0.8823699951171875,-70.93923950195312,50.14703369140625,45.96201705932617,-0.6209689378738403,1.5359231233596802,0.26998651027679443,2.419658899307251,-3.4804699420928955,4.004214286804199
446,39819,39820,0.0023818209301680326,-0.1030336320400238,0.8691632747650146,-70.4505386352539,62.10541915893555,46.060638427734375,-0.6419678926467896,1.5509223937988281,0.28198590874671936,1.7695367336273193,-3.9612929821014404,4.366926670074463
447,39829,39830,-0.04338003695011139,0.00578292366117239,0.802693247795105,-66.35973358154297,56.70099639892578,48.200401306152344,-0.6599670052528381,1.5629218816757202,0.2759861946105957,1.049965739250183,-5.060129642486572,4.892817974090576
448,39839,39840,-0.038174767047166824,-0.006119116675108671,0.9549058079719543,-51.01896286010742,52.54188919067383,45.572792053222656,-0.6584670543670654,1.5704214572906494,0.27148643136024475,0.3607247769832611,-5.230692386627197,5.210504531860352
449,39849,39850,-0.04736398532986641,0.023805366829037666,0.9867656230926514,-32.384498596191406,24.302875518798828,45.27984619140625,-0.6599670052528381,1.5629218816757202,0.2669866383075714,-0.12576870620250702,-5.846807479858398,5.691678047180176
450,39859,39860,0.050606101751327515,-0.05260982736945152,1.0378828048706055,-14.17090892791748,7.633803844451904,41.13393783569336,-0.6569671630859375,1.5749212503433228,0.26098695397377014,0.0875224620103836,-5.840502738952637,5.943681240081787
451,39869,39870,0.04090127348899841,-0.011925412341952324,1.002307653427124,5.217106819152832,-18.215431213378906,39.23733901977539,-0.6449677348136902,1.5569220781326294,0.2639867961406708,-0.10738707333803177,-5.702150344848633,6.3942437171936035
452,39879,39880,-0.02136722020804882,-0.00019609229639172554,0.9845578074455261,20.058937072753906,-28.067073822021484,32.70222854614258,-0.6584670543670654,1.5704214572906494,0.2654867172241211,0.12158974260091782,-5.550375938415527,6.754565715789795
453,39889,39890,-0.04853539168834686,-0.004292370285838842,1.0427930355072021,29.381380081176758,-34.50659942626953,29.507369995117188,-0.6644667387008667,1.5734213590621948,0.26848655939102173,0.5774090886116028,-5.271364212036133,7.0034637451171875
454,39899,39900,-0.05146663263440132,-0.012133678421378136,1.0260878801345825,31.458301544189453,-29.546335220336914,26.977352142333984,-0.6584670543670654,1.5584220886230469,0.25348731875419617,0.9562565088272095,-4.905320644378662,7.253750801086426
455,39909,39910,0.011106143705546856,-0.02187047153711319,1.0328725576400757,25.550067901611328,-18.65507698059082,23.469446182250977,-0.6584670543670654,1.5524224042892456,0.26248687505722046,1.1234462261199951,-4.645025253295898,7.564735412597656
456,39919,39920,-0.01742968149483204,-0.0842975452542305,1.1193711757659912,7.581528186798096,-7.388573169708252,19.903688430786133,-0.6494675278663635,1.5524224042892456,0.2654867172241211,1.0935766696929932,-4.495778560638428,7.887573719024658
457,39929,39930,-0.042738258838653564,0.0657733604311943,1.0023820400238037,1.427135705947876,13.607708930969238,15.055022239685059,-0.6509674191474915,1.541922926902771,0.26098695397377014,1.024788498878479,-4.578734397888184,8.08537769317627
458,39939,39940,-0.045151486992836,-0.03094729408621788,1.0615918636322021,-11.859158515930176,28.88129997253418,7.286342144012451,-0.6584670543670654,1.5704214572906494,0.26848655939102173,0.7325220704078674,-4.838233947753906,8.2516450881958
459,39949,39950,-0.05002420395612717,-0.11423704028129578,1.1863616704940796,-4.709890365600586,41.180145263671875,0.5587124228477478,-0.6524673700332642,1.5584220886230469,0.26848655939102173,0.5248533487319946,-4.8872246742248535,8.120779037475586
460,39959,39960,0.017050448805093765,-0.08104856312274933,1.0707987546920776,0.1355329006910324,44.39932632446289,-5.225379943847656,-0.6494675278663635,1.5614218711853027,0.27148643136024475,-0.1693442165851593,-4.678158283233643,8.25146484375
461,39969,39970,0.00015017644909676164,0.021517060697078705,1.1559702157974243,12.060324668884277,43.81755828857422,-14.661589622497559,-0.6614668965339661,1.5584220886230469,0.2744862735271454,-0.5793107151985168,-4.618821144104004,8.09486198425293
462,39979,39980,0.025412635877728462,0.005220171995460987,1.1210843324661255,25.598127365112305,37.8961296081543,-25.129104614257812,-0.6704664826393127,1.5614218711853027,0.26848655939102173,-0.9779655337333679,-4.4162678718566895,7.87313985824585
463,39989,39990,0.08876138925552368,-0.039068687707185745,1.0901005268096924,31.423128128051758,21.65740394592285,-38.46115493774414,-0.6614668965339661,1.5494225025177002,0.26248687505722046,-1.2009707689285278,-4.05372953414917,7.469533920288086
464,39999,40000,0.014769960194826126,-0.047524433583021164,1.1246386766433716,33.39479446411133,8.210719108581543,-44.172306060791016,-0.6629668474197388,1.541922926902771,0.27298635244369507,-1.4732022285461426,-3.687293529510498,7.17692756652832
465,40009,40010,-0.024196917191147804,-0.03281037509441376,1.1023322343826294,34.2337760925293,-12.196313858032227,-46.825294494628906,-0.66896653175354,1.5509223937988281,0.27298635244369507,-1.3129966259002686,-3.5194296836853027,6.617593288421631
466,40019,40020,-0.044133782386779785,-0.009499016217887402,1.1191600561141968,21.192476272583008,-28.554201126098633,-43.210235595703125,-0.6614668965339661,1.5314234495162964,0.2594870328903198,-0.900621771812439,-3.141835927963257,6.016423225402832
467,40029,40030,0.01639745384454727,-0.039557889103889465,1.0473531484603882,-0.5906438231468201,-27.34174346923828,-34.90057373046875,-0.6509674191474915,1.5359231233596802,0.2579870820045471,-0.44025132060050964,-3.150212287902832,5.507513999938965
468,40039,40040,-0.028590841218829155,-0.037035148590803146,1.0419821739196777,-15.49450397491455,-8.319770812988281,-29.172040939331055,-0.6524673700332642,1.5224238634109497,0.25348731875419617,-0.1832931786775589,-3.3738834857940674,5.141384124755859
469,40049,40050,0.009730287827551365,-0.03767171502113342,0.995881974697113,-26.773435592651367,14.866905212402344,-22.698556900024414,-0.6449677348136902,1.5359231233596802,0.2639867961406708,-0.370749294757843,-3.5042355060577393,5.029742240905762
470,40059,40060,-0.021584128960967064,-0.040527574717998505,1.0246962308883667,-30.025419235229492,28.105215072631836,-19.82789421081543,-0.6524673700332642,1.5314234495162964,0.27148643136024475,-0.5777987241744995,-4.041425704956055,4.7843732833862305
471,40069,40070,-0.01021106168627739,0.016094688326120377,0.9968950152397156,-27.7669677734375,27.13811683654785,-18.871007919311523,-0.6524673700332642,1.5404229164123535,0.2654867172241211,-1.0334340333938599,-4.143077373504639,4.736042022705078
472,40079,40080,0.013542581349611282,0.09175722301006317,0.9419375061988831,-20.161945343017578,32.782047271728516,-18.301115036010742,-0.6509674191474915,1.526923656463623,0.2669866383075714,-1.3427938222885132,-4.5804443359375,4.525918960571289
473,40089,40090,0.041625358164310455,0.029407666996121407,0.926811158657074,-20.465656280517578,47.49799346923828,-15.024909019470215,-0.6569671630859375,1.5389230251312256,0.2669866383075714,-1.3370468616485596,-4.614687442779541,3.978036403656006
474,40099,40100,0.029516011476516724,0.00886149425059557,0.995146632194519,-8.700709342956543,45.27523422241211,-8.170879364013672,-0.6524673700332642,1.5404229164123535,0.27148643136024475,-2.084914445877075,-4.622862815856934,4.101014137268066
475,40109,40110,-0.002198943169787526,-0.029173120856285095,0.9559545516967773,5.470767974853516,39.91962814331055,-5.901426792144775,-0.6719663739204407,1.526923656463623,0.26998651027679443,-2.300661087036133,-4.610464096069336,3.8299741744995117
476,40119,40120,0.04623248428106308,-0.02014945074915886,0.9392946362495422,19.342439651489258,24.89613914489746,-3.331069231033325,-0.6569671630859375,1.514924168586731,0.26098695397377014,-2.6714563369750977,-4.498316764831543,3.8039703369140625
477,40129,40130,0.029753731563687325,0.01548242848366499,0.9853206872940063,27.31156349182129,6.482072830200195,-2.6577327251434326,-0.6674666404724121,1.543422818183899,0.26848655939102173,-2.8978183269500732,-4.280500411987305,3.8290863037109375
478,40139,40140,0.003741175401955843,0.01797185279428959,0.974899172782898,30.697172164916992,-10.973390579223633,-3.465064525604248,-0.6554672122001648,1.5314234495162964,0.25348731875419617,-2.7404699325561523,-3.8273048400878906,3.7284326553344727
479,40149,40150,0.007357771508395672,-0.029368489980697632,0.9339261054992676,30.583572387695312,-20.937854766845703,-2.9412760734558105,-0.6599670052528381,1.5179240703582764,0.27898603677749634,-2.4406723976135254,-3.777885913848877,3.518190383911133
480,40159,40160,-0.03353922814130783,0.021156851202249527,0.9871073365211487,27.298999786376953,-23.898143768310547,-1.4389375448226929,-0.6539672613143921,1.5329233407974243,0.27298635244369507,-2.4084086418151855,-3.5995235443115234,3.651275873184204
