,timestamp_start,timestamp_end,acc.x,acc.y,acc.z,gyro.x,gyro.y,gyro.z,mag.x,mag.y,mag.z,stabilizer.pitch,stabilizer.roll,stabilizer.yaw
0,207954,207956,0.16702908277511597,0.06419065594673157,0.9720393419265747,48.36450958251953,-30.324256896972656,2.4982492923736572,-0.45297732949256897,1.5599219799041748,0.3029848337173462,3.5505945682525635,-1.2804828882217407,4.952537536621094
1,207964,207966,0.12089062482118607,0.06160202622413635,1.0686122179031372,50.74469757080078,-12.555132865905762,1.260218620300293,-0.4469776451587677,1.5479226112365723,0.28198590874671936,3.7527952194213867,-1.1598432064056396,5.194674015045166
2,207974,207976,0.08638237416744232,0.0023741996847093105,1.0454909801483154,39.387699127197266,21.20296287536621,0.8197548985481262,-0.4574771225452423,1.579421043395996,0.2954852283000946,3.7384133338928223,-0.4957692623138428,5.2013163566589355
3,207984,207986,0.09546197950839996,-0.007536543067544699,1.0537925958633423,27.25979232788086,54.57744598388672,1.2576311826705933,-0.4664766788482666,1.5764211416244507,0.29848507046699524,3.6274476051330566,-0.1395106464624405,5.222874164581299
4,207994,207996,0.09048725664615631,-0.09494486451148987,1.0523687601089478,17.905685424804688,64.39512634277344,3.414379358291626,-0.46197688579559326,1.5629218816757202,0.30898454785346985,2.902463436126709,0.043653156608343124,5.368425369262695
5,208004,208006,0.06330441683530807,-0.07675652951002121,1.0279039144515991,4.518803119659424,53.21304702758789,4.560347557067871,-0.4829758405685425,1.5689215660095215,0.29998499155044556,2.4520490169525146,0.1946556717157364,5.353551387786865
6,208014,208016,0.060165125876665115,0.06657299399375916,1.03072190284729,-8.330827713012695,30.430757522583008,5.61398983001709,-0.4829758405685425,1.5689215660095215,0.3059847056865692,1.8638774156570435,0.3444470465183258,5.377269744873047
7,208024,208026,0.04585923254489899,0.1521829217672348,0.9577595591545105,-18.1397762298584,3.9158716201782227,5.214078426361084,-0.47847607731819153,1.5704214572906494,0.2954852283000946,1.6519734859466553,0.22200672328472137,5.413603782653809
8,208034,208036,0.14411677420139313,0.10304959863424301,1.0290569067001343,-19.35696792602539,-17.400188446044922,0.8290348649024963,-0.47097644209861755,1.5719213485717773,0.29998499155044556,1.6141327619552612,0.001567924628034234,5.4746856689453125
9,208044,208046,0.09152423590421677,0.021398110315203667,1.0647876262664795,-9.356694221496582,-25.53139305114746,-1.2527292966842651,-0.4634768068790436,1.5554221868515015,0.3134843111038208,1.7046855688095093,-0.18410666286945343,5.50046443939209
10,208054,208056,0.06899102032184601,-0.10787102580070496,1.0173873901367188,3.9162962436676025,-14.042688369750977,-1.605215072631836,-0.4679765999317169,1.5479226112365723,0.2939853072166443,1.9648387432098389,-0.2793494462966919,5.481734752655029
11,208064,208066,-0.008763043209910393,0.04089811071753502,0.958109974861145,15.07901382446289,4.430810928344727,-2.861205577850342,-0.4649767279624939,1.5629218816757202,0.3119843900203705,2.0254740715026855,-0.24370881915092468,5.48478364944458
12,208074,208076,0.1473560929298401,0.05209949612617493,0.9877687692642212,15.410078048706055,23.49847984313965,-5.874606132507324,-0.4679765999317169,1.5479226112365723,0.2939853072166443,1.9303916692733765,-0.15465228259563446,5.486021518707275
13,208084,208086,0.12371597439050674,0.048766445368528366,1.099514365196228,13.737996101379395,39.04496765136719,-7.756420612335205,-0.4739762842655182,1.5449227094650269,0.29998499155044556,1.6235253810882568,0.08823388069868088,5.43687105178833
14,208094,208096,0.09471187740564346,-0.03915603831410408,1.0195047855377197,4.170254707336426,49.854312896728516,-9.135464668273926,-0.47247636318206787,1.5704214572906494,0.30748462677001953,1.1729865074157715,0.18445371091365814,5.394043922424316
15,208104,208106,0.07932859659194946,0.0011899700621142983,1.0662676095962524,-0.5617219805717468,50.454830169677734,-11.141159057617188,-0.4679765999317169,1.5569220781326294,0.30898454785346985,0.6664811968803406,0.308759868144989,5.301753997802734
16,208114,208116,0.152995303273201,0.10901298373937607,1.0622379779815674,-9.901494026184082,30.5184268951416,-13.656131744384766,-0.49047547578811646,1.5704214572906494,0.3014849126338959,0.19245542585849762,0.3086681365966797,5.1887078285217285
17,208124,208126,0.16931866109371185,0.06395936757326126,1.1012102365493774,-17.545686721801758,9.198284149169922,-16.66421890258789,-0.4844757616519928,1.582420825958252,0.3134843111038208,-0.13823458552360535,0.24808278679847717,5.054991722106934
18,208134,208136,0.0907566174864769,0.14543980360031128,1.1156877279281616,1.7046126127243042,-0.028228195384144783,-21.034034729003906,-0.47847607731819153,1.5554221868515015,0.3044847846031189,-0.06513691693544388,0.14078965783119202,4.862699508666992
19,208144,208146,0.15398889780044556,0.12295897305011749,1.1282306909561157,20.979541778564453,-6.920734882354736,-22.926027297973633,-0.46947652101516724,1.5494225025177002,0.2924853563308716,-0.047743093222379684,0.0709460899233818,4.659065246582031
20,208154,208156,0.18398277461528778,-0.030119387432932854,1.157668948173523,29.074262619018555,0.44362011551856995,-22.49817657470703,-0.47997599840164185,1.5479226112365723,0.2969851493835449,-0.08066003769636154,0.3852049708366394,4.45662260055542
21,208164,208166,0.16717900335788727,-0.07473014295101166,1.0688471794128418,21.471698760986328,11.643071174621582,-19.153127670288086,-0.47997599840164185,1.526923656463623,0.3149842321872711,-0.007196334190666676,0.4871818423271179,4.205158233642578
22,208174,208176,0.13199472427368164,-0.06391196697950363,0.9518570899963379,3.9867160320281982,21.097707748413086,-14.313422203063965,-0.4859756827354431,1.526923656463623,0.28798559308052063,-0.17257006466388702,0.7296843528747559,4.0154032707214355
23,208184,208186,0.08337648957967758,0.04505551978945732,1.012860894203186,-19.382402420043945,21.912397384643555,-9.885124206542969,-0.47997599840164185,1.526923656463623,0.3059847056865692,-0.3055093288421631,0.5460600852966309,3.8164005279541016
24,208194,208196,0.1135914996266365,-0.009910165332257748,0.9739229083061218,-30.961339950561523,18.82501792907715,-5.112053871154785,-0.46947652101516724,1.5194239616394043,0.3044847846031189,-0.6528375148773193,0.2964508831501007,3.70304012298584
25,208204,208206,0.16598157584667206,-0.07455164939165115,1.0281152725219727,-36.21963882446289,17.196273803710938,-2.20147442817688,-0.4754762053489685,1.5374231338500977,0.3164841830730438,-0.9523898959159851,0.1324244737625122,3.6771204471588135
26,208214,208216,0.12394372373819351,0.016186749562621117,1.0043050050735474,-29.73211097717285,20.063188552856445,1.532475471496582,-0.4769761562347412,1.526923656463623,0.29998499155044556,-1.0361303091049194,-0.2648892104625702,3.6290719509124756
27,208224,208226,0.11671210825443268,-0.006556885316967964,1.01243257522583,-9.433466911315918,3.1023948192596436,5.161224365234375,-0.4679765999317169,1.5329233407974243,0.2939853072166443,-1.3055691719055176,-0.4399562180042267,3.679809808731079
28,208234,208236,0.06687451899051666,-0.0565568245947361,0.895092785358429,10.679725646972656,-16.523290634155273,4.774524211883545,-0.46947652101516724,1.5224238634109497,0.31048446893692017,-1.2823411226272583,-0.6075608134269714,3.7055366039276123
29,208244,208246,0.1148293986916542,-0.00880421046167612,0.9438210129737854,23.360187530517578,-27.50202751159668,4.696763515472412,-0.4589770436286926,1.5179240703582764,0.2969851493835449,-1.113067626953125,-0.41588902473449707,3.794556140899658
30,208254,208256,0.09235332906246185,0.027254236862063408,0.9941592216491699,19.013906478881836,-41.675323486328125,5.614564895629883,-0.4754762053489685,1.5314234495162964,0.28948551416397095,-0.6830768585205078,-0.3192330002784729,3.784342050552368
31,208264,208266,0.07389167696237564,0.0243532657623291,0.9975922107696533,18.393394470214844,-44.37586975097656,7.014091491699219,-0.4679765999317169,1.5359231233596802,0.2969851493835449,-0.5635565519332886,-0.20752085745334625,3.836270332336426
32,208274,208276,0.14134430885314941,-0.10750926285982132,0.9744962453842163,23.4063663482666,-24.81435775756836,5.421758651733398,-0.46197688579559326,1.5209239721298218,0.28798559308052063,0.05560220032930374,0.11365921050310135,3.9329328536987305
33,208284,208286,0.09950951486825943,-0.10748961567878723,0.968012273311615,26.621706008911133,1.1496964693069458,3.448235034942627,-0.4664766788482666,1.513424277305603,0.2924853563308716,0.2918368875980377,0.478287011384964,4.048354625701904
34,208294,208296,0.12980879843235016,-0.045561470091342926,0.9231184720993042,20.794851303100586,18.008270263671875,1.6523996591567993,-0.4739762842655182,1.529923439025879,0.29998499155044556,0.1245950385928154,0.24629433453083038,3.940744400024414
35,208304,208306,0.14589029550552368,0.09206292033195496,1.0332006216049194,8.269662857055664,27.63780975341797,1.4455684423446655,-0.4739762842655182,1.5209239721298218,0.30898454785346985,-0.15251994132995605,0.6105867028236389,4.019972324371338
36,208314,208316,0.1531391739845276,0.020767174661159515,1.0460065603256226,-0.15661156177520752,36.89221954345703,1.7674654722213745,-0.4739762842655182,1.5179240703582764,0.3119843900203705,-0.3788747787475586,0.6651492118835449,4.011753082275391
37,208324,208326,0.22953657805919647,-0.07324519753456116,1.0430033206939697,-10.163625717163086,37.66842269897461,0.28715741634368896,-0.47097644209861755,1.514924168586731,0.28798559308052063,-0.7730476260185242,0.7100206613540649,4.038745403289795
38,208334,208336,0.1532081514596939,0.039354052394628525,1.054287075996399,-22.030363082885742,21.175554275512695,-2.6819264888763428,-0.4829758405685425,1.526923656463623,0.2939853072166443,-1.2519272565841675,0.5668717622756958,4.035216331481934
39,208344,208346,0.11838087439537048,0.11126785725355148,1.004164218902588,-28.647539138793945,-15.693449020385742,-0.9889717698097229,-0.47247636318206787,1.5164241790771484,0.29848507046699524,-1.5707449913024902,0.40606361627578735,4.034577369689941
40,208354,208356,0.10076605528593063,0.04241844639182091,0.9139246344566345,-22.065170288085938,-54.10306930541992,0.9749304056167603,-0.47847607731819153,1.5164241790771484,0.3044847846031189,-1.0772430896759033,0.06516597419977188,3.971071720123291
41,208364,208366,0.13082529604434967,-0.03175590559840202,0.8483757972717285,5.607640266418457,-82.42931365966797,0.3926335573196411,-0.47247636318206787,1.5104244947433472,0.2954852283000946,-0.5276179909706116,-0.07049937546253204,4.013998985290527
42,208374,208376,0.18408159911632538,-0.016682490706443787,0.910976767539978,49.995784759521484,-80.86223602294922,-2.8410284519195557,-0.4649767279624939,1.5209239721298218,0.2969851493835449,0.14709843695163727,0.20671910047531128,4.139767169952393
43,208384,208386,0.07905653119087219,-0.011552154086530209,0.8970065712928772,65.05728912353516,-61.076541900634766,-3.8783888816833496,-0.4544772803783417,1.5224238634109497,0.3014849126338959,1.1641643047332764,0.4125615954399109,4.043974876403809
44,208394,208396,0.03996435925364494,-0.0025263892021030188,0.7927227020263672,49.15547180175781,-39.25205993652344,-2.588955879211426,-0.4649767279624939,1.5389230251312256,0.3029848337173462,1.9444420337677002,1.0656579732894897,3.9959068298339844
45,208404,208406,0.09178577363491058,-0.016249215230345726,0.8217795491218567,24.833322525024414,0.7343548536300659,-5.185547351837158,-0.4649767279624939,1.5179240703582764,0.2939853072166443,2.32473087310791,1.4737752676010132,3.9234704971313477
46,208414,208416,0.05522184818983078,0.08186471462249756,0.9441848993301392,8.30598258972168,57.116424560546875,-10.435891151428223,-0.455977201461792,1.5089244842529297,0.3029848337173462,2.0771708488464355,1.8930407762527466,3.910271167755127
47,208424,208426,0.06894269585609436,0.03699839115142822,0.9193688631057739,0.029643576592206955,117.50759887695312,-15.557568550109863,-0.4754762053489685,1.5254236459732056,0.2924853563308716,1.3408455848693848,2.007619619369507,3.8336527347564697
48,208434,208436,0.08376029133796692,0.021043697372078896,1.0109713077545166,-21.11410903930664,152.89256286621094,-22.070524215698242,-0.4844757616519928,1.5644217729568481,0.3044847846031189,0.45589569211006165,1.9567397832870483,3.7162420749664307
49,208444,208446,0.11230489611625671,-0.017222745344042778,1.0860000848770142,-42.27544021606445,167.22103881835938,-24.256080627441406,-0.5069746375083923,1.5599219799041748,0.3209839463233948,-1.3662217855453491,1.7370818853378296,3.528233289718628
50,208454,208456,0.10899588465690613,0.004513725638389587,1.087687373161316,-49.103633880615234,148.9004364013672,-23.755796432495117,-0.5054747462272644,1.5524224042892456,0.3164841830730438,-2.6352970600128174,1.4604626893997192,3.3828542232513428
51,208464,208466,0.11848483234643936,-0.09889322519302368,1.0917015075683594,-40.608177185058594,104.2818832397461,-25.549564361572266,-0.5069746375083923,1.5539222955703735,0.3149842321872711,-4.455971717834473,0.8342114686965942,3.1187639236450195
52,208474,208476,0.07482673972845078,-0.08080015331506729,0.9809467196464539,-28.943775177001953,41.247188568115234,-28.538305282592773,-0.5174741148948669,1.5494225025177002,0.31948402523994446,-5.203789234161377,0.4820449948310852,2.9361965656280518
53,208484,208486,0.09750835597515106,-0.002094120951369405,0.9843693971633911,-6.595139026641846,-1.0405693054199219,-29.00015640258789,-0.5204739570617676,1.5374231338500977,0.31048446893692017,-5.70381498336792,0.2865704596042633,2.7243404388427734
54,208494,208496,0.15627482533454895,0.1491178274154663,1.0506792068481445,25.59716033935547,-46.15877151489258,-28.394710540771484,-0.49797508120536804,1.5179240703582764,0.3059847056865692,-5.635775089263916,0.2831306755542755,2.5054845809936523
55,208504,208506,0.09665986150503159,0.04443510249257088,0.9955219030380249,46.185028076171875,-83.5665283203125,-25.674989700317383,-0.4919753968715668,1.526923656463623,0.3119843900203705,-5.364376544952393,0.434832364320755,2.189728021621704
56,208514,208516,0.012615561485290527,-0.09473195672035217,1.0127723217010498,47.819847106933594,-101.66118621826172,-22.064542770385742,-0.4919753968715668,1.5209239721298218,0.3209839463233948,-4.445613861083984,1.0325217247009277,2.0400097370147705
57,208524,208526,0.052119895815849304,-0.026515459641814232,0.9895069003105164,33.67852020263672,-107.72721099853516,-14.7279634475708,-0.49947500228881836,1.5164241790771484,0.3254837095737457,-3.636058807373047,1.3737249374389648,1.7064787149429321
58,208534,208536,0.0970456525683403,-0.007716905325651169,0.928780734539032,8.052653312683105,-101.39971160888672,-11.73854923248291,-0.48147591948509216,1.5224238634109497,0.3044847846031189,-2.3543689250946045,1.7223750352859497,1.5343528985977173
59,208544,208546,0.14112256467342377,0.00472931656986475,0.9292270541191101,-25.639488220214844,-84.58873748779297,-13.24267578125,-0.47247636318206787,1.5164241790771484,0.31048446893692017,-1.5065916776657104,1.6989445686340332,1.2845046520233154
60,208554,208556,0.10307121276855469,0.0037064284551888704,0.8960835337638855,-62.864219665527344,-63.42045211791992,-15.453527450561523,-0.4649767279624939,1.5059247016906738,0.3059847056865692,-0.5885882377624512,1.1872832775115967,0.9564729332923889
61,208564,208566,0.050131943076848984,0.006401548627763987,0.8896867036819458,-83.90052032470703,-28.5527400970459,-13.728270530700684,-0.4679765999317169,1.5329233407974243,0.30898454785346985,-0.07727567106485367,0.7004057765007019,0.8302118182182312
62,208574,208576,0.01641923375427723,0.026997873559594154,0.9410731196403503,-90.20564270019531,10.272859573364258,-7.010169506072998,-0.47097644209861755,1.5479226112365723,0.2969851493835449,0.2930251955986023,-0.21737752854824066,0.6331042051315308
63,208584,208586,0.014409206807613373,0.029464351013302803,0.8870497345924377,-81.02632141113281,36.57118225097656,2.5752828121185303,-0.4739762842655182,1.541922926902771,0.3059847056865692,0.11245489865541458,-0.943635106086731,0.6280321478843689
64,208594,208596,0.06212086230516434,0.04028451070189476,0.91794353723526,-46.486576080322266,37.653953552246094,10.217049598693848,-0.4769761562347412,1.5629218816757202,0.3149842321872711,-0.14586712419986725,-1.4158324003219604,0.8098964691162109
65,208604,208606,0.06058621034026146,0.04345495253801346,0.9154998064041138,-5.16001033782959,15.7923002243042,12.993043899536133,-0.46947652101516724,1.5464226007461548,0.31048446893692017,-0.3349311053752899,-2.036207675933838,0.8516913652420044
66,208614,208616,0.06146092340350151,0.0074629331938922405,0.9121461510658264,35.452919006347656,-20.24817657470703,13.376547813415527,-0.4739762842655182,1.5389230251312256,0.3119843900203705,-0.6071109175682068,-2.1199581623077393,0.9820794463157654
67,208624,208626,0.020814476534724236,0.044311512261629105,0.968616247177124,70.17850494384766,-52.49357223510742,15.81200122833252,-0.47847607731819153,1.5344232320785522,0.3164841830730438,-0.26914849877357483,-1.6567171812057495,1.1770946979522705
68,208634,208636,0.029807616025209427,0.027533484622836113,0.96444171667099,102.94426727294922,-70.27359008789062,17.649755477905273,-0.47247636318206787,1.5404229164123535,0.3134843111038208,0.1621844619512558,-1.1916171312332153,1.2722455263137817
69,208644,208646,0.04721393808722496,0.00035012379521504045,0.9174524545669556,113.53437042236328,-75.31198120117188,17.217519760131836,-0.46197688579559326,1.565921664237976,0.3149842321872711,1.1703498363494873,0.08722884953022003,1.5265532732009888
70,208654,208656,0.008608467876911163,0.13109281659126282,0.8984622955322266,94.60089111328125,-74.62116241455078,16.25528907775879,-0.4649767279624939,1.541922926902771,0.3119843900203705,1.8045976161956787,0.9002060890197754,1.6068183183670044
71,208664,208666,-0.009836990386247635,0.025602396577596664,0.8789162039756775,50.36256790161133,-57.06515121459961,14.980287551879883,-0.46047696471214294,1.5494225025177002,0.3044847846031189,2.7507965564727783,1.9300192594528198,1.7435619831085205
72,208674,208676,0.04201197624206543,-0.022390536963939667,0.8883686065673828,3.7729110717773438,-24.343978881835938,12.960745811462402,-0.4469776451587677,1.514924168586731,0.30898454785346985,2.9368016719818115,2.4005000591278076,1.8874844312667847
73,208684,208686,0.07302188128232956,-0.01563328132033348,0.9214115738868713,-26.296737670898438,19.282541275024414,9.113358497619629,-0.44397780299186707,1.511924386024475,0.2939853072166443,3.3279237747192383,2.367002248764038,1.9840492010116577
74,208694,208696,0.06266206502914429,-0.02043973281979561,0.9007771015167236,-44.36904525756836,55.5011100769043,6.525477886199951,-0.4664766788482666,1.543422818183899,0.2924853563308716,2.9259703159332275,2.0914247035980225,2.0877859592437744
75,208704,208706,0.040202610194683075,0.0010713848751038313,0.9159220457077026,-49.61076354980469,73.02814483642578,3.3441953659057617,-0.4679765999317169,1.5539222955703735,0.30898454785346985,2.598052501678467,1.737420916557312,2.1769521236419678
76,208714,208716,0.030183488503098488,0.06841043382883072,1.0287913084030151,-39.60478591918945,66.87574005126953,-1.7592275142669678,-0.4769761562347412,1.5479226112365723,0.3119843900203705,1.7482534646987915,1.1582252979278564,2.22961163520813
77,208724,208726,0.07146493345499039,-0.021909009665250778,0.9286965727806091,-24.564510345458984,47.12336730957031,-6.938440322875977,-0.4664766788482666,1.5494225025177002,0.3044847846031189,1.112714409828186,0.821462094783783,2.2320170402526855
78,208734,208736,0.10496144741773605,-0.03375101089477539,0.9934998154640198,-8.816237449645996,24.61311149597168,-11.024467468261719,-0.4574771225452423,1.5344232320785522,0.3134843111038208,0.7244604229927063,0.5203197002410889,2.178231954574585
79,208744,208746,0.10183173418045044,0.04122456908226013,0.9656756520271301,1.5600703954696655,-5.552325248718262,-13.446609497070312,-0.44997748732566833,1.5209239721298218,0.3209839463233948,0.605183482170105,0.5161707997322083,2.0784873962402344
80,208754,208756,0.0512164905667305,0.038742609322071075,0.9414114356040955,6.4885783195495605,-25.301124572753906,-13.423212051391602,-0.4679765999317169,1.5179240703582764,0.2969851493835449,0.7464321255683899,0.5708456635475159,1.950330138206482
81,208764,208766,0.10850977152585983,-0.03224843740463257,0.9896195530891418,5.776268482208252,-28.63621711730957,-11.956442832946777,-0.46197688579559326,1.5239237546920776,0.3059847056865692,1.1059815883636475,0.6033487915992737,1.8169761896133423
82,208774,208776,0.05157000198960304,0.01082459557801485,0.9390400648117065,-1.8945337533950806,-15.34739875793457,-12.084541320800781,-0.44997748732566833,1.529923439025879,0.29098543524742126,1.4357775449752808,0.6668129563331604,1.692691683769226
83,208784,208786,0.022608095780014992,0.01276416890323162,0.9638035297393799,-9.954300880432129,5.039376258850098,-14.417346954345703,-0.448477566242218,1.5164241790771484,0.28948551416397095,1.525776743888855,0.6108167171478271,1.571841835975647
84,208794,208796,-0.004409967456012964,0.012837572954595089,1.0056036710739136,-17.980167388916016,27.100919723510742,-13.282876014709473,-0.4664766788482666,1.5344232320785522,0.3014849126338959,1.4926139116287231,0.49426862597465515,1.434274673461914
85,208804,208806,0.012783929705619812,0.03775313124060631,1.0792148113250732,-21.53596305847168,40.03772735595703,-9.333642959594727,-0.4769761562347412,1.541922926902771,0.2939853072166443,1.224279522895813,0.20884910225868225,1.3115243911743164
86,208814,208816,0.09869234263896942,-0.13403679430484772,1.0285691022872925,-18.207767486572266,38.399391174316406,-6.058374881744385,-0.4769761562347412,1.541922926902771,0.30898454785346985,0.9603327512741089,0.11320479959249496,1.2073402404785156
87,208824,208826,0.020173512399196625,-0.19335058331489563,0.9939630031585693,-10.568727493286133,18.547958374023438,-4.7154717445373535,-0.47247636318206787,1.543422818183899,0.2954852283000946,0.6728000044822693,-0.12235948443412781,1.147973656654358
88,208834,208836,-0.07231314480304718,-0.02960054948925972,1.0119224786758423,-9.014582633972168,-2.4223580360412598,1.377096176147461,-0.4754762053489685,1.5344232320785522,0.3044847846031189,0.5437229871749878,-0.20999488234519958,1.0966613292694092
89,208844,208846,0.01717163622379303,0.1011037603020668,1.1575356721878052,3.878655195236206,-14.738698959350586,10.79473876953125,-0.4739762842655182,1.529923439025879,0.28798559308052063,0.5587195754051208,-0.26170027256011963,1.1010087728500366
90,208854,208856,0.15320949256420135,-0.005924744065850973,1.1331490278244019,28.162546157836914,-18.014469146728516,17.5166072845459,-0.47247636318206787,1.5374231338500977,0.3014849126338959,0.7167407274246216,-0.19447579979896545,1.1936304569244385
91,208864,208866,0.05492575094103813,-0.013691379688680172,0.9912372827529907,48.91511535644531,-10.37511157989502,18.043664932250977,-0.4679765999317169,1.5359231233596802,0.2969851493835449,0.8780738711357117,0.23027274012565613,1.345994472503662
92,208874,208876,0.05442546308040619,0.11493542790412903,1.0133557319641113,68.8964614868164,17.307233810424805,16.230865478515625,-0.4664766788482666,1.5374231338500977,0.2924853563308716,0.8069000840187073,0.5571793913841248,1.5394344329833984
93,208884,208886,0.00863040890544653,0.1259612888097763,1.0374557971954346,72.65740203857422,40.068904876708984,13.259600639343262,-0.4769761562347412,1.5389230251312256,0.3029848337173462,0.7780361771583557,1.0491828918457031,1.7167189121246338
94,208894,208896,0.07212147116661072,-0.01613960973918438,0.9992247223854065,56.40039825439453,49.26955032348633,12.771130561828613,-0.47847607731819153,1.5374231338500977,0.30748462677001953,0.29869404435157776,1.863788366317749,1.857541561126709
95,208904,208906,0.08821427077054977,0.10242366045713425,1.0748300552368164,30.013370513916016,37.435752868652344,10.50438404083252,-0.47847607731819153,1.528423547744751,0.2924853563308716,-0.20877176523208618,2.3642666339874268,2.0088000297546387
96,208914,208916,0.10294279456138611,0.05741820111870766,1.1023778915405273,-11.073226928710938,13.926477432250977,9.667781829833984,-0.48747560381889343,1.5254236459732056,0.31948402523994446,-0.6154663562774658,2.571617841720581,2.1405298709869385
97,208924,208926,0.12883800268173218,-0.01936090551316738,1.0356003046035767,-52.92551040649414,-12.336637496948242,10.19671630859375,-0.4859756827354431,1.541922926902771,0.3149842321872711,-0.5574002861976624,2.404031753540039,2.2550532817840576
98,208934,208936,0.16963529586791992,-0.022190313786268234,1.0939875841140747,-78.90397644042969,-25.47380828857422,11.170148849487305,-0.4829758405685425,1.5389230251312256,0.3149842321872711,-0.4524138867855072,1.6652320623397827,2.3553922176361084
99,208944,208946,0.11795897781848907,0.03423625975847244,1.0744308233261108,-86.93391418457031,-32.01371383666992,14.581860542297363,-0.4769761562347412,1.541922926902771,0.3029848337173462,-0.2349543273448944,1.1049351692199707,2.456871747970581
100,208954,208956,0.05658385157585144,0.07012646645307541,1.1050596237182617,-74.74446868896484,-25.926551818847656,21.41663360595703,-0.4769761562347412,1.541922926902771,0.30898454785346985,0.1630702167749405,0.1542833000421524,2.6027674674987793
101,208964,208966,0.12913337349891663,0.009584532119333744,1.0494484901428223,-37.16080856323242,-12.172666549682617,25.697301864624023,-0.4679765999317169,1.541922926902771,0.30898454785346985,0.34586939215660095,-0.3355485498905182,2.8033764362335205
102,208974,208976,0.10711737722158432,0.06489911675453186,1.0828967094421387,13.757156372070312,-1.3918849229812622,24.861284255981445,-0.47097644209861755,1.5359231233596802,0.29998499155044556,0.4826701879501343,-0.6761517524719238,3.0527870655059814
103,208984,208986,0.005164959002286196,0.03419892117381096,1.1048640012741089,56.16474151611328,-1.519829511642456,22.733678817749023,-0.47997599840164185,1.5389230251312256,0.3029848337173462,0.5075470805168152,-0.5988837480545044,3.300250768661499
104,208994,208996,0.05861672759056091,-0.011603699065744877,0.925813615322113,77.19764709472656,8.556340217590332,21.984487533569336,-0.4859756827354431,1.5359231233596802,0.29098543524742126,0.4595162570476532,-0.1023596003651619,3.5282955169677734
105,209004,209006,0.061335016041994095,-0.018820418044924736,0.9032158851623535,74.99220275878906,23.027149200439453,17.96210289001465,-0.47247636318206787,1.5404229164123535,0.3044847846031189,0.1731310486793518,0.8419404625892639,3.749228000640869
106,209014,209016,0.038605835288763046,0.01516115665435791,1.0158286094665527,59.968441009521484,35.744667053222656,14.91876220703125,-0.4844757616519928,1.5104244947433472,0.3134843111038208,0.17389777302742004,1.263816237449646,3.9350411891937256
107,209024,209026,0.1540675014257431,-0.11559651792049408,0.9621455669403076,20.40677261352539,33.316837310791016,16.52815055847168,-0.4829758405685425,1.526923656463623,0.3059847056865692,-0.4452735483646393,1.8896291255950928,4.096980571746826
108,209034,209036,0.057816147804260254,0.015543123707175255,1.013158917427063,-25.572162628173828,14.693096160888672,21.014219284057617,-0.4859756827354431,1.5209239721298218,0.29098543524742126,-0.5139433741569519,2.0368924140930176,4.270875930786133
109,209044,209046,-0.04837390407919884,0.0713333711028099,0.862445056438446,-50.6025390625,-12.27869701385498,25.780323028564453,-0.48897555470466614,1.526923656463623,0.3149842321872711,-0.6732117533683777,1.5556113719940186,4.468956470489502
110,209054,209056,0.04017849266529083,0.055319588631391525,0.9590467214584351,-51.537105560302734,-26.042583465576172,26.527938842773438,-0.47997599840164185,1.514924168586731,0.30898454785346985,-0.43490689992904663,1.232041358947754,4.733893871307373
111,209064,209066,0.12281812727451324,-0.024776633828878403,0.9680976867675781,-32.65850067138672,-30.397537231445312,24.935924530029297,-0.47247636318206787,1.5314234495162964,0.29848507046699524,-0.08653001487255096,0.750641942024231,5.00129508972168
112,209074,209076,0.08494778722524643,-0.03210129961371422,0.9604877829551697,-3.1944828033447266,-21.479143142700195,24.114852905273438,-0.46197688579559326,1.5239237546920776,0.28498575091362,0.26120033860206604,0.5339855551719666,5.261058330535889
113,209084,209086,0.04008445143699646,0.09899673610925674,0.9644806981086731,25.54281234741211,-12.606242179870605,19.906082153320312,-0.4769761562347412,1.5389230251312256,0.3059847056865692,0.4773457944393158,0.3506234884262085,5.494599342346191
114,209094,209096,-0.02718414179980755,-0.013551793992519379,1.0660829544067383,39.50471878051758,-1.3947681188583374,15.32310962677002,-0.4769761562347412,1.5329233407974243,0.3059847056865692,0.5379135608673096,0.688869833946228,5.700117111206055
115,209104,209106,0.03529946133494377,-0.027941441163420677,0.9628867506980896,43.35663986206055,12.269105911254883,10.319357872009277,-0.48897555470466614,1.5389230251312256,0.3149842321872711,0.7493864297866821,1.0655181407928467,5.86474084854126
116,209114,209116,0.04995344206690788,-0.004906800575554371,0.937362015247345,33.07721710205078,22.059711456298828,5.767298221588135,-0.4919753968715668,1.541922926902771,0.3029848337173462,0.4083908498287201,1.5783995389938354,5.968812942504883
117,209124,209126,-0.011481226421892643,-0.07785328477621078,1.0029104948043823,9.609746932983398,23.178176879882812,1.2354322671890259,-0.4859756827354431,1.5389230251312256,0.30898454785346985,0.33120885491371155,1.6422251462936401,6.038158893585205
118,209134,209136,0.013124436140060425,-0.0746975690126419,0.9936994910240173,-7.9692702293396,23.054122924804688,-2.3468949794769287,-0.4859756827354431,1.5359231233596802,0.3029848337173462,0.13566724956035614,1.7538069486618042,6.064986705780029
119,209144,209146,-0.01702510006725788,0.10635868459939957,0.9878906011581421,-26.54349708557129,26.214183807373047,-4.747208118438721,-0.48147591948509216,1.5494225025177002,0.29848507046699524,-0.005827709101140499,1.682899832725525,6.057946681976318
120,209154,209156,0.039526812732219696,0.0508703887462616,1.0321778059005737,-37.09051513671875,37.78961181640625,-9.9603853225708,-0.48897555470466614,1.5359231233596802,0.31798410415649414,-0.11936093866825104,1.5041381120681763,6.032901763916016
121,209164,209166,0.0010080853244289756,-0.11179865151643753,0.9421206712722778,-32.08720397949219,42.27037811279297,-14.345062255859375,-0.48897555470466614,1.5359231233596802,0.31798410415649414,-0.5770095586776733,0.9682796001434326,5.932352542877197
122,209174,209176,0.04005403071641922,-0.0036788429133594036,1.0201270580291748,-26.677906036376953,43.73980712890625,-17.575502395629883,-0.48897555470466614,1.5359231233596802,0.31798410415649414,-1.1079672574996948,0.843115508556366,5.805932998657227
123,209184,209186,0.04643481969833374,0.0417289100587368,1.0279440879821777,-17.169031143188477,32.889381408691406,-19.166549682617188,-0.48897555470466614,1.5359231233596802,0.31798410415649414,-1.2974481582641602,0.5316046476364136,5.661074638366699
124,209194,209196,0.045823197811841965,0.04222387447953224,1.0328882932662964,-6.547130584716797,17.202499389648438,-20.156211853027344,-0.48897555470466614,1.5359231233596802,0.31798410415649414,-1.8026432991027832,0.23970091342926025,5.453164100646973
125,209204,209206,0.04543592035770416,-0.06841451674699783,0.9226503968238831,7.9612202644348145,9.104413986206055,-21.723379135131836,-0.48897555470466614,1.5389230251312256,0.30898454785346985,-1.8746908903121948,0.43598446249961853,5.297280788421631
126,209214,209216,0.037049002945423126,-0.005212659016251564,0.9542979001998901,22.444435119628906,1.8972281217575073,-22.94931411743164,-0.48747560381889343,1.5524224042892456,0.31048446893692017,-1.8222103118896484,0.4142875671386719,5.085043907165527
127,209224,209226,0.02023904398083687,-0.001204119878821075,1.039294958114624,29.572021484375,-11.659045219421387,-23.359352111816406,-0.508474588394165,1.5374231338500977,0.31948402523994446,-1.8343985080718994,0.6601307988166809,4.868470191955566
128,209234,209236,0.024086816236376762,-0.07336019724607468,0.8911188244819641,36.370361328125,-24.588550567626953,-23.2078914642334,-0.4964751601219177,1.5404229164123535,0.3134843111038208,-1.7041926383972168,1.0263171195983887,4.651242256164551
129,209244,209246,0.03289804980158806,0.0800912156701088,0.9590336680412292,29.419719696044922,-32.180416107177734,-23.549287796020508,-0.5054747462272644,1.5404229164123535,0.3164841830730438,-1.3952999114990234,1.1930558681488037,4.382340431213379
130,209254,209256,0.045495983213186264,0.1294368952512741,0.9816532731056213,7.510687828063965,-23.94375991821289,-23.944597244262695,-0.4859756827354431,1.5479226112365723,0.3239837884902954,-1.0619287490844727,1.3982802629470825,4.123876094818115
131,209264,209266,0.05863664299249649,0.02352246642112732,0.9704799056053162,-22.9540958404541,-3.269191265106201,-25.322847366333008,-0.47847607731819153,1.5494225025177002,0.3224838674068451,-0.7789225578308105,1.5046521425247192,3.8839335441589355
132,209274,209276,0.03285842761397362,-0.0238875150680542,0.968654215335846,-50.062835693359375,28.703372955322266,-24.997684478759766,-0.4949752390384674,1.5359231233596802,0.3119843900203705,-0.819533109664917,1.1456694602966309,3.5933589935302734
133,209284,209286,0.09882023930549622,0.10927651077508926,1.0373725891113281,-66.21467590332031,56.03668212890625,-19.251392364501953,-0.5144742727279663,1.5554221868515015,0.3164841830730438,-0.9704252481460571,0.7637572884559631,3.3719921112060547
134,209294,209296,0.13203030824661255,0.01817168854176998,1.0047894716262817,-66.29874420166016,65.46609497070312,-19.310644149780273,-0.502474844455719,1.5704214572906494,0.31948402523994446,-1.610599398612976,-0.013346739113330841,3.1391654014587402
135,209304,209306,0.01867881789803505,0.047156233340501785,1.067771315574646,-57.28956985473633,57.825164794921875,-17.13422203063965,-0.5054747462272644,1.579421043395996,0.3254837095737457,-2.294126033782959,-0.5315751433372498,2.979647397994995
136,209314,209316,0.01066510658711195,0.057330865412950516,1.0543526411056519,-45.88264846801758,44.720462799072266,-11.205384254455566,-0.5144742727279663,1.5734213590621948,0.3164841830730438,-2.9190261363983154,-1.3447154760360718,2.742077589035034
137,209324,209326,0.005734051112085581,0.048791930079460144,1.1371241807937622,-28.1064510345459,25.91668128967285,-2.1676125526428223,-0.5234737992286682,1.5764211416244507,0.32848358154296875,-2.9421446323394775,-1.6248995065689087,2.668243169784546
138,209334,209336,0.018316935747861862,0.018656456843018532,1.1000725030899048,6.062600612640381,0.3039293885231018,7.798815727233887,-0.508474588394165,1.579421043395996,0.31948402523994446,-3.292279005050659,-1.818266749382019,2.661109209060669
139,209344,209346,0.0785091370344162,-0.028409752994775772,1.082648754119873,47.96662139892578,-16.4185848236084,16.559337615966797,-0.5129743218421936,1.5689215660095215,0.3209839463233948,-3.3477818965911865,-1.7133461236953735,2.760686159133911
140,209354,209356,0.03547383472323418,-0.03380168601870537,1.126956582069397,81.43904876708984,-13.980661392211914,19.785459518432617,-0.5189740657806396,1.5719213485717773,0.31798410415649414,-3.169551372528076,-1.4811203479766846,2.841310977935791
141,209364,209366,-0.02087511494755745,0.07655283808708191,1.1917684078216553,107.54046630859375,7.344020366668701,21.680795669555664,-0.5174741148948669,1.5734213590621948,0.3254837095737457,-2.9829392433166504,-0.4209502041339874,3.136298894882202
142,209374,209376,0.038634736090898514,0.010967887006700039,1.0787166357040405,105.77392578125,25.621641159057617,21.726701736450195,-0.5249737501144409,1.5599219799041748,0.32998350262641907,-2.943305015563965,0.5848497748374939,3.321603298187256
143,209384,209386,0.10887117683887482,-0.02167205885052681,1.0315033197402954,70.59341430664062,31.1272029876709,19.426450729370117,-0.509974479675293,1.5569220781326294,0.3149842321872711,-3.2719192504882812,1.6092309951782227,3.538264513015747
144,209394,209396,0.13410410284996033,0.0036656311713159084,0.9952210187911987,24.05577278137207,31.796113967895508,15.970863342285156,-0.509974479675293,1.5359231233596802,0.3329833447933197,-3.5907583236694336,2.1762828826904297,3.65881085395813
145,209404,209406,0.149030402302742,0.025425536558032036,0.9973819851875305,-23.34282112121582,24.618375778198242,7.815780162811279,-0.5114744305610657,1.543422818183899,0.3224838674068451,-4.072601318359375,2.3537983894348145,3.788252830505371
146,209414,209416,0.0697140246629715,0.019419249147176743,0.9873287677764893,-47.464447021484375,5.66641092300415,-3.583707571029663,-0.5219739079475403,1.5389230251312256,0.3149842321872711,-4.222361087799072,2.19053316116333,3.882732629776001
147,209424,209426,0.13159732520580292,0.08793666958808899,0.9545365571975708,-64.44898986816406,-21.727046966552734,-12.896574020385742,-0.5069746375083923,1.541922926902771,0.3209839463233948,-4.181358814239502,1.6310025453567505,3.8097827434539795
148,209434,209436,0.10082307457923889,0.07337578386068344,1.0179063081741333,-74.64199829101562,-44.37718200683594,-20.292211532592773,-0.5144742727279663,1.5374231338500977,0.3224838674068451,-3.9519946575164795,0.9766208529472351,3.6759588718414307
149,209444,209446,0.049155283719301224,-0.06671565026044846,0.9902098178863525,-79.29385375976562,-43.44432067871094,-26.178823471069336,-0.5054747462272644,1.5314234495162964,0.3164841830730438,-3.563912868499756,0.24604152143001556,3.4882330894470215
150,209454,209456,0.023541679605841637,0.004603095352649689,0.915971577167511,-60.217918395996094,-28.803836822509766,-33.17513656616211,-0.5054747462272644,1.5404229164123535,0.32848358154296875,-3.091590404510498,-0.5542535185813904,3.2318739891052246
151,209464,209466,0.09308189898729324,0.045970309525728226,1.0605841875076294,-39.509132385253906,-10.260819435119629,-37.224815368652344,-0.5069746375083923,1.529923439025879,0.3119843900203705,-2.8547980785369873,-1.1481817960739136,2.9465911388397217
152,209474,209476,0.06863227486610413,0.051126766949892044,1.160659909248352,-4.402085304260254,14.17966079711914,-36.30694580078125,-0.4949752390384674,1.5449227094650269,0.30898454785346985,-2.8772659301757812,-1.5959492921829224,2.5820953845977783
153,209484,209486,0.12533441185951233,0.05605768784880638,1.1187868118286133,26.7760009765625,32.37173080444336,-32.975982666015625,-0.5159741640090942,1.5479226112365723,0.3059847056865692,-3.024259567260742,-1.6557923555374146,2.2435758113861084
154,209494,209496,0.16351771354675293,-0.011454778723418713,1.0256710052490234,42.99644470214844,33.01853561401367,-30.057228088378906,-0.5144742727279663,1.5464226007461548,0.3014849126338959,-3.280122756958008,-1.2339118719100952,2.0185277462005615
155,209504,209506,0.013731446117162704,0.07355687022209167,1.0716735124588013,73.66564178466797,25.30525779724121,-27.130430221557617,-0.5114744305610657,1.5404229164123535,0.3254837095737457,-3.6660051345825195,-0.8646314740180969,1.70757257938385
156,209514,209516,0.10760603845119476,0.020939860492944717,1.106505036354065,105.3876724243164,5.495183944702148,-22.196533203125,-0.5159741640090942,1.5479226112365723,0.3119843900203705,-3.9999868869781494,0.13019677996635437,1.6200858354568481
157,209524,209526,0.0752045065164566,-0.023442883044481277,1.035008192062378,119.92229461669922,-19.914745330810547,-20.497295379638672,-0.5234737992286682,1.5494225025177002,0.3164841830730438,-3.8573648929595947,0.7431103587150574,1.1319423913955688
158,209534,209536,0.14275076985359192,-0.07517661899328232,0.9642585515975952,105.58867645263672,-32.955787658691406,-21.402849197387695,-0.5159741640090942,1.5359231233596802,0.3329833447933197,-3.529909133911133,1.7464778423309326,0.802391767501831
159,209544,209546,0.1477501094341278,0.06480953842401505,1.0086201429367065,52.17837905883789,-40.0793342590332,-18.671085357666016,-0.5129743218421936,1.529923439025879,0.3329833447933197,-3.231072425842285,2.803431510925293,0.5795937776565552
160,209554,209556,0.1175098568201065,0.11950169503688812,1.0167350769042969,-9.08591365814209,-34.87635040283203,-15.513862609863281,-0.5159741640090942,1.511924386024475,0.3149842321872711,-2.8127872943878174,3.2075765132904053,0.26556915044784546
161,209564,209566,0.036489617079496384,0.07011748105287552,1.0724166631698608,-63.54375457763672,-17.153451919555664,-11.206896781921387,-0.4964751601219177,1.498425006866455,0.3314834237098694,-2.471440553665161,2.8860812187194824,-0.0743650421500206
162,209574,209576,0.06701324135065079,-0.10782183706760406,1.010892391204834,-101.53518676757812,-2.082249164581299,-6.065936088562012,-0.4964751601219177,1.5254236459732056,0.3254837095737457,-2.3725857734680176,2.3556017875671387,-0.17373579740524292
163,209584,209586,0.08142749220132828,-0.12033739686012268,1.0728168487548828,-111.33695220947266,7.482625484466553,-4.6591339111328125,-0.5009749531745911,1.5449227094650269,0.3209839463233948,-2.4169256687164307,1.154996633529663,-0.3634902536869049
164,209594,209596,0.014878712594509125,-0.07746102660894394,1.02113938331604,-90.43012237548828,-0.5845125317573547,-3.927384614944458,-0.5069746375083923,1.541922926902771,0.32698363065719604,-2.4944210052490234,0.23566603660583496,-0.3140539228916168
165,209604,209606,0.05477603152394295,0.043159205466508865,1.0757168531417847,-48.358890533447266,-18.784982681274414,-3.4946982860565186,-0.4964751601219177,1.5374231338500977,0.3314834237098694,-2.4033453464508057,-0.5473570823669434,-0.27420997619628906
166,209614,209616,0.0776059478521347,0.16223986446857452,0.9798795580863953,-5.132987976074219,-34.90565490722656,-1.9676645994186401,-0.4949752390384674,1.5329233407974243,0.32998350262641907,-2.1805129051208496,-0.9505563974380493,-0.23899121582508087
167,209624,209626,0.10139517486095428,0.01556279044598341,0.9715195894241333,35.72684097290039,-43.41693878173828,0.60878986120224,-0.48747560381889343,1.504424810409546,0.3014849126338959,-1.8794288635253906,-0.885837733745575,-0.17687536776065826
168,209634,209636,0.09022040665149689,-0.11626607179641724,1.0510647296905518,71.63646697998047,-42.634552001953125,5.117752552032471,-0.48747560381889343,1.5224238634109497,0.30748462677001953,-1.4789279699325562,-0.5385973453521729,-0.15303795039653778
169,209644,209646,-0.002940442878752947,-0.16074801981449127,0.9841002821922302,87.3082046508789,-40.58766174316406,9.694709777832031,-0.48747560381889343,1.5194239616394043,0.3254837095737457,-1.080445408821106,-0.08091553300619125,-0.18913693726062775
170,209654,209656,-0.029960421845316887,-0.12159997969865799,0.9719732999801636,87.7826156616211,-31.778409957885742,11.74466323852539,-0.48747560381889343,1.5164241790771484,0.3224838674068451,-0.6900719404220581,0.9916777014732361,-0.015353941358625889
171,209664,209666,-0.02419670671224594,-0.003520792117342353,0.9695521593093872,70.75102233886719,-14.430716514587402,10.776702880859375,-0.4859756827354431,1.5089244842529297,0.3119843900203705,-0.4160640239715576,1.6953688859939575,0.03467965126037598
172,209674,209676,0.09965109825134277,-0.060358040034770966,0.9153522849082947,38.39802169799805,-0.41920217871665955,8.0016508102417,-0.4829758405685425,1.5089244842529297,0.32698363065719604,-0.17197683453559875,2.3399674892425537,0.10731220245361328
173,209684,209686,0.060127850621938705,-0.06374401599168777,0.9035319089889526,-2.7195026874542236,5.326774597167969,5.321333885192871,-0.49047547578811646,1.4804259538650513,0.30748462677001953,-0.2507410943508148,2.6360864639282227,0.15559829771518707
174,209694,209696,-0.008759116753935814,-0.029698027297854424,0.8861507177352905,-35.57951736450195,5.217854976654053,3.7466468811035156,-0.4769761562347412,1.4999250173568726,0.31798410415649414,-0.32607346773147583,2.486980438232422,0.16876967251300812
175,209704,209706,-0.020577572286128998,-0.04041546583175659,0.9254190325737,-54.34696578979492,2.6857283115386963,3.67384672164917,-0.47997599840164185,1.4999250173568726,0.3059847056865692,-0.399921178817749,2.1603407859802246,0.204484224319458
176,209714,209716,-0.03908455744385719,-0.1258791834115982,0.9543320536613464,-55.76799392700195,3.177123785018921,3.4253475666046143,-0.47847607731819153,1.5074245929718018,0.3164841830730438,-0.31619518995285034,1.7471060752868652,0.26578429341316223
177,209724,209726,0.0034671700559556484,-0.08813250809907913,1.0140340328216553,-40.561134338378906,6.731835842132568,2.59155011177063,-0.47847607731819153,1.513424277305603,0.30748462677001953,-0.39525407552719116,1.1056439876556396,0.2833268642425537
178,209734,209736,0.023416388779878616,0.026656681671738625,0.9859821200370789,-18.67347526550293,10.455607414245605,2.43919038772583,-0.48147591948509216,1.513424277305603,0.3014849126338959,-0.5203726887702942,0.7965503931045532,0.32231074571609497
179,209744,209746,0.029941314831376076,0.12231476604938507,0.9312880635261536,5.837608814239502,15.785202980041504,2.30489444732666,-0.4739762842655182,1.511924386024475,0.3119843900203705,-0.5773303508758545,0.8352111577987671,0.3811017870903015
180,209754,209756,0.0321865975856781,0.07162830233573914,0.9785162210464478,21.866151809692383,11.494683265686035,-0.7922827005386353,-0.49047547578811646,1.504424810409546,0.3164841830730438,-0.7266538739204407,0.7237532734870911,0.39204928278923035
181,209764,209766,0.09099160879850388,0.010597956366837025,0.9075334072113037,21.480506896972656,-4.65458869934082,-0.9718940854072571,-0.49047547578811646,1.498425006866455,0.3044847846031189,-0.74405437707901,1.0688151121139526,0.40717169642448425
182,209774,209776,0.033095866441726685,0.09612737596035004,0.8700635433197021,9.13464069366455,-17.115999221801758,2.9348552227020264,-0.48147591948509216,1.4954252243041992,0.3134843111038208,-0.6838259696960449,1.199321985244751,0.3934597671031952
183,209784,209786,0.10162396728992462,0.08421733975410461,0.9047685861587524,-3.209723711013794,-26.862524032592773,4.807122230529785,-0.4664766788482666,1.504424810409546,0.3044847846031189,-0.5049655437469482,1.1549923419952393,0.40405526757240295
184,209794,209796,0.16491729021072388,0.04880625382065773,1.0209084749221802,-12.654101371765137,-32.1030387878418,3.5932037830352783,-0.4844757616519928,1.4924253225326538,0.31048446893692017,-0.32531774044036865,1.1486541032791138,0.43718087673187256
185,209804,209806,0.1396450698375702,0.07106517255306244,0.9485204219818115,-15.666230201721191,-34.70586013793945,3.447389602661133,-0.46947652101516724,1.5014249086380005,0.30748462677001953,0.009411792270839214,1.170638084411621,0.47541823983192444
186,209814,209816,0.02697128988802433,0.09488916397094727,0.9372753500938416,-18.113346099853516,-32.07039260864258,4.485078811645508,-0.4739762842655182,1.5089244842529297,0.3059847056865692,0.5654863119125366,0.8989342451095581,0.5198138952255249
187,209824,209826,0.030919956043362617,0.059358835220336914,0.944009006023407,-15.008915901184082,-26.553686141967773,4.186847686767578,-0.4649767279624939,1.511924386024475,0.3149842321872711,0.8402566313743591,0.7153872847557068,0.5539812445640564
188,209834,209836,0.04970984533429146,-0.10490354150533676,0.8719503283500671,-14.997408866882324,-15.985368728637695,3.9879865646362305,-0.47997599840164185,1.511924386024475,0.3149842321872711,1.0012000799179077,0.4809473752975464,0.5914679765701294
189,209844,209846,0.006267141550779343,-0.0954076424241066,0.8852407932281494,-18.88474464416504,10.067898750305176,2.9350414276123047,-0.46947652101516724,1.498425006866455,0.3134843111038208,1.3093502521514893,0.36666691303253174,0.6350303292274475
190,209854,209856,0.02758791483938694,0.14594289660453796,0.9760529398918152,-31.38036346435547,36.57038879394531,4.170722484588623,-0.4754762053489685,1.5194239616394043,0.3044847846031189,1.0579109191894531,0.1988513022661209,0.6540814638137817
191,209864,209866,0.06714963912963867,0.16668206453323364,0.9455049633979797,-38.16978073120117,46.69911193847656,5.788510322570801,-0.4829758405685425,1.541922926902771,0.30898454785346985,0.7716243267059326,-0.1236235648393631,0.697613000869751
192,209874,209876,0.1429813951253891,-0.01959453523159027,0.990415632724762,-20.251720428466797,38.43203353881836,8.157031059265137,-0.4949752390384674,1.5479226112365723,0.3149842321872711,0.28032928705215454,-0.3265174925327301,0.7232090830802917
193,209884,209886,0.07350627332925797,-0.012014621868729591,1.056551218032837,10.21618366241455,27.48417091369629,9.780049324035645,-0.4964751601219177,1.5464226007461548,0.3134843111038208,-0.0110053401440382,-0.5551596879959106,0.8033531308174133
194,209894,209896,0.027433665469288826,0.016954533755779266,0.9877681732177734,44.852088928222656,10.3052978515625,7.235738277435303,-0.4829758405685425,1.5359231233596802,0.2969851493835449,-0.24858002364635468,-0.48387837409973145,0.893709123134613
195,209904,209906,-0.0006545011419802904,0.01150220725685358,0.948616623878479,73.95356750488281,-8.286245346069336,6.0811920166015625,-0.48747560381889343,1.5404229164123535,0.31048446893692017,-0.20200589299201965,-0.1745360642671585,0.9815850257873535
196,209914,209916,-0.027470115572214127,0.16890926659107208,0.9729518890380859,93.225830078125,-16.617324829101562,6.053020477294922,-0.5009749531745911,1.5479226112365723,0.30898454785346985,-0.07540672272443771,0.6244881749153137,1.0242834091186523
197,209924,209926,-0.01324406173080206,0.16470706462860107,0.8872787356376648,96.09059143066406,-18.94334602355957,5.374488353729248,-0.5054747462272644,1.5344232320785522,0.31948402523994446,0.08904875069856644,1.853818416595459,1.0240026712417603
198,209934,209936,-0.006319557316601276,0.028050607070326805,0.9019162058830261,76.67841339111328,-12.893659591674805,3.627556324005127,-0.4769761562347412,1.526923656463623,0.3209839463233948,0.2476573884487152,2.493882417678833,1.1269632577896118
199,209944,209946,0.030738117173314095,0.0093604177236557,0.9697660803794861,35.6107292175293,-6.97191858291626,2.759208917617798,-0.49797508120536804,1.5209239721298218,0.31798410415649414,0.39601826667785645,3.4401957988739014,1.1289995908737183
200,209954,209956,0.051770295947790146,-0.039628490805625916,0.9353258013725281,-16.56144905090332,-4.557337284088135,0.7334858775138855,-0.4844757616519928,1.5254236459732056,0.3164841830730438,0.47282546758651733,3.593653917312622,1.2050787210464478
201,209964,209966,0.043573468923568726,-0.032792989164590836,0.9418314099311829,-66.45933532714844,-1.2926851511001587,-0.4935683608055115,-0.4919753968715668,1.514924168586731,0.3149842321872711,0.4192647933959961,3.2222585678100586,1.2637267112731934
202,209974,209976,-0.009606432169675827,0.04143894463777542,1.0621331930160522,-94.27140808105469,1.8198121786117554,-0.6985080242156982,-0.48147591948509216,1.5494225025177002,0.31948402523994446,0.4628807604312897,2.825005531311035,1.2204010486602783
203,209984,209986,0.03625250607728958,-0.023967919871211052,0.9666663408279419,-96.6218032836914,1.052256464958191,-1.043441653251648,-0.4949752390384674,1.5719213485717773,0.2969851493835449,0.5518308281898499,2.01120924949646,1.2056471109390259
204,209994,209996,0.031463269144296646,-0.05273588374257088,1.0550241470336914,-87.72642517089844,-0.13985052704811096,-2.574622392654419,-0.47247636318206787,1.5614218711853027,0.3254837095737457,0.5716496109962463,0.8342894911766052,1.2483538389205933
205,210004,210006,0.06555504351854324,-0.037395089864730835,1.00379478931427,-62.221046447753906,-6.832029342651367,-4.028459072113037,-0.4844757616519928,1.5584220886230469,0.31048446893692017,0.6446065306663513,0.12666252255439758,1.19395911693573
206,210014,210016,0.002136159921064973,0.04070339724421501,1.070599913597107,-30.590280532836914,-8.899629592895508,-6.028221130371094,-0.46947652101516724,1.5494225025177002,0.31048446893692017,0.7768920063972473,-0.5225065350532532,1.1644537448883057
207,210024,210026,-0.014903726056218147,0.03044283203780651,1.0629551410675049,3.827634334564209,-7.1331915855407715,-7.177192687988281,-0.47997599840164185,1.5449227094650269,0.30898454785346985,0.9223180413246155,-0.7228206992149353,1.0759782791137695
208,210034,210036,-0.033324576914310455,0.09478513151407242,0.9463467597961426,29.087345123291016,-1.8193310499191284,-5.4371256828308105,-0.48147591948509216,1.5494225025177002,0.31048446893692017,0.948331356048584,-0.5714243054389954,0.962507426738739
209,210044,210046,-0.005972797982394695,0.15729230642318726,0.9688136577606201,42.58311080932617,9.32154655456543,-3.7598021030426025,-0.47997599840164185,1.541922926902771,0.3119843900203705,0.9862222671508789,-0.3640148937702179,0.9140281081199646
210,210054,210056,0.007287951186299324,0.027630914002656937,0.9704957008361816,40.811370849609375,15.33552360534668,-3.0730302333831787,-0.48747560381889343,1.543422818183899,0.31048446893692017,0.8868346214294434,-0.014303606003522873,0.8851848840713501
211,210064,210066,0.029525315389037132,0.016260983422398567,1.0179671049118042,33.729984283447266,25.482086181640625,-2.8842310905456543,-0.4859756827354431,1.5389230251312256,0.3119843900203705,0.6531733274459839,0.3027229607105255,0.8813400268554688
212,210074,210076,-0.0224288459867239,0.03139009699225426,0.9854772686958313,21.63278579711914,30.434289932250977,-4.054835319519043,-0.4844757616519928,1.5344232320785522,0.31048446893692017,0.7270897626876831,0.6314374804496765,0.8585606813430786
213,210084,210086,-0.04434443637728691,0.0035836510360240936,0.9739705920219421,4.123664379119873,32.44574737548828,-5.887837886810303,-0.4859756827354431,1.5329233407974243,0.31798410415649414,0.1345224380493164,0.8688606023788452,0.8231969475746155
214,210094,210096,0.006837191991508007,-0.025653639808297157,0.9791091680526733,-14.026162147521973,29.006134033203125,-7.17774772644043,-0.48897555470466614,1.5479226112365723,0.3149842321872711,0.12592555582523346,0.8278763294219971,0.796820878982544
215,210104,210106,0.049498483538627625,0.051127415150403976,1.002116322517395,-28.359607696533203,25.99137306213379,-8.352808952331543,-0.49797508120536804,1.5479226112365723,0.31798410415649414,-0.13748183846473694,0.5957098007202148,0.7625284194946289
216,210114,210116,0.050234876573085785,0.10758081078529358,1.0723872184753418,-36.89317321777344,17.094085693359375,-11.244733810424805,-0.508474588394165,1.5374231338500977,0.31048446893692017,-0.37793228030204773,0.44728028774261475,0.6537800431251526
217,210124,210126,-0.021638566628098488,0.02000725455582142,1.023787260055542,-36.32941436767578,9.16594409942627,-13.1538667678833,-0.49947500228881836,1.5494225025177002,0.31948402523994446,-0.6312529444694519,-0.0737471729516983,0.5906181335449219
218,210134,210136,0.05539395660161972,0.0022465090733021498,1.02620530128479,-30.331186294555664,7.50050163269043,-13.223959922790527,-0.4859756827354431,1.5389230251312256,0.30898454785346985,-0.5078993439674377,-0.13322791457176208,0.39474278688430786
219,210144,210146,0.017444174736738205,0.0658600702881813,1.0964266061782837,-27.26527976989746,8.73137378692627,-12.29790210723877,-0.4949752390384674,1.541922926902771,0.3059847056865692,-0.5974794030189514,-0.5683355927467346,0.289572536945343
220,210154,210156,0.015168379992246628,0.02758244052529335,1.0233814716339111,-18.416805267333984,10.741985321044922,-10.220294952392578,-0.5009749531745911,1.5359231233596802,0.3239837884902954,-0.6325661540031433,-0.696332573890686,0.132085919380188
221,210164,210166,0.06027530878782272,0.02890862338244915,1.0246548652648926,-6.20198392868042,11.772269248962402,-8.185998916625977,-0.5054747462272644,1.5344232320785522,0.30748462677001953,-0.9043964147567749,-0.8125848174095154,0.022182725369930267
222,210174,210176,0.03496513143181801,0.043559812009334564,1.0471786260604858,-2.189469814300537,17.163482666015625,-5.2609758377075195,-0.48897555470466614,1.529923439025879,0.30898454785346985,-0.9996762275695801,-0.9303016066551208,-0.05837031453847885
223,210184,210186,0.026527084410190582,0.055131133645772934,1.0756137371063232,-2.763976573944092,28.968225479125977,-0.752626895904541,-0.5039747953414917,1.5449227094650269,0.3149842321872711,-1.0777971744537354,-0.9963921904563904,-0.11760356277227402
224,210194,210196,0.01733592338860035,-0.003941388335078955,1.0184897184371948,-7.846950531005859,44.947200775146484,5.765091419219971,-0.5069746375083923,1.5329233407974243,0.3149842321872711,-1.5127508640289307,-1.0909159183502197,-0.10828501731157303
225,210204,210206,0.08871328830718994,-0.005157066974788904,1.1538389921188354,-8.699175834655762,62.934974670410156,10.569639205932617,-0.508474588394165,1.5464226007461548,0.3134843111038208,-1.9172552824020386,-1.1577773094177246,-0.06957701593637466
226,210214,210216,0.07070966809988022,0.026651492342352867,1.1487065553665161,4.475377082824707,70.00707244873047,18.516963958740234,-0.5159741640090942,1.5569220781326294,0.31798410415649414,-2.6081900596618652,-1.1537188291549683,0.03267010673880577
227,210224,210226,0.10342728346586227,0.004862154368311167,1.0908112525939941,27.99909210205078,69.21977233886719,21.540302276611328,-0.5204739570617676,1.5524224042892456,0.31948402523994446,-3.0282115936279297,-0.962431788444519,0.14753855764865875
228,210234,210236,0.11618958413600922,-0.10168782621622086,1.064682126045227,41.91525650024414,47.605106353759766,18.547225952148438,-0.5219739079475403,1.5479226112365723,0.3239837884902954,-3.9603347778320312,-0.6757487654685974,0.3947978913784027
229,210244,210246,0.07908003777265549,0.00285904249176383,1.1211614608764648,44.77550506591797,7.03741455078125,13.933219909667969,-0.5144742727279663,1.5314234495162964,0.3314834237098694,-4.2820820808410645,-0.35192975401878357,0.5441156029701233
230,210254,210256,0.06074974685907364,-0.0016174775082617998,1.0612512826919556,28.031902313232422,-17.74711036682129,12.252986907958984,-0.5144742727279663,1.5194239616394043,0.3314834237098694,-4.364193916320801,-0.0190366730093956,0.6638994216918945
231,210264,210266,0.05658400431275368,-0.05878785625100136,1.0664886236190796,7.478607654571533,-26.64618492126465,13.471961975097656,-0.5129743218421936,1.5239237546920776,0.3209839463233948,-4.1133809089660645,0.25918206572532654,0.7595169544219971
232,210274,210276,0.06190507486462593,-0.05454910174012184,0.9934003353118896,-10.406401634216309,-27.995616912841797,14.724845886230469,-0.5114744305610657,1.5164241790771484,0.31048446893692017,-3.8869972229003906,0.2932940125465393,0.8777942061424255
233,210284,210286,0.01675880327820778,0.04446814954280853,1.0779975652694702,-17.551071166992188,-21.03050994873047,14.676556587219238,-0.5129743218421936,1.5209239721298218,0.3209839463233948,-3.675950050354004,0.17284689843654633,1.023484706878662
234,210294,210296,0.06356125324964523,-0.02847478725016117,0.9951633810997009,-18.285608291625977,-14.117006301879883,14.656730651855469,-0.5189740657806396,1.5089244842529297,0.31798410415649414,-3.4924416542053223,-0.098543182015419,1.1433439254760742
235,210304,210306,0.033973634243011475,-0.012413266114890575,0.9954317808151245,-7.647497653961182,-1.2146306037902832,14.474822044372559,-0.508474588394165,1.5074245929718018,0.3134843111038208,-3.522449493408203,-0.31182730197906494,1.3047497272491455
236,210314,210316,0.04889776185154915,0.008221915923058987,1.0434112548828125,6.009101867675781,5.2803497314453125,14.664273262023926,-0.5174741148948669,1.5254236459732056,0.31048446893692017,-3.481853723526001,-0.20670339465141296,1.5089677572250366
237,210324,210326,0.12814241647720337,0.05714274197816849,1.0150012969970703,12.013798713684082,8.549994468688965,15.217658042907715,-0.5054747462272644,1.5314234495162964,0.3164841830730438,-3.4629628658294678,-0.08994850516319275,1.6724870204925537
238,210334,210336,0.02152586169540882,0.043299656361341476,0.9743611216545105,20.280624389648438,3.3719379901885986,14.803533554077148,-0.5129743218421936,1.5239237546920776,0.30898454785346985,-3.5156683921813965,-0.05637665092945099,1.7902463674545288
239,210344,210346,0.016391808167099953,0.017471252009272575,0.9648455381393433,27.609420776367188,-11.21738052368164,11.510224342346191,-0.5069746375083923,1.5179240703582764,0.3209839463233948,-3.518394708633423,0.3233048617839813,1.9947222471237183
240,210354,210356,0.02414594031870365,-0.010753355920314789,0.9575706124305725,30.734643936157227,-28.39333724975586,9.963762283325195,-0.502474844455719,1.4954252243041992,0.3164841830730438,-3.4838435649871826,0.35209280252456665,2.0266947746276855
241,210364,210366,0.05012156441807747,-0.00467465166002512,0.9586104154586792,27.011520385742188,-42.58885955810547,9.46591854095459,-0.4949752390384674,1.514924168586731,0.3149842321872711,-3.2561419010162354,0.766278862953186,2.1721343994140625
242,210374,210376,0.062381427735090256,-0.04041699320077896,0.900972306728363,13.937052726745605,-41.90523910522461,7.662292003631592,-0.502474844455719,1.513424277305603,0.31948402523994446,-2.73870587348938,1.070327877998352,2.251826047897339
243,210384,210386,0.03776940703392029,-0.013964028097689152,0.9027087092399597,-0.7728442549705505,-34.31495666503906,5.691710472106934,-0.48897555470466614,1.4879255294799805,0.31798410415649414,-2.253697156906128,1.0760371685028076,2.2564620971679688
244,210394,210396,0.0012641932116821408,0.04412136971950531,0.964157223701477,-15.39951229095459,-25.8167781829834,3.779789686203003,-0.5054747462272644,1.513424277305603,0.31048446893692017,-1.7599550485610962,1.062118649482727,2.285733461380005
245,210404,210406,0.0450098030269146,0.0046533518470823765,0.910700798034668,-15.246341705322266,-21.321199417114258,-0.20794899761676788,-0.4934753179550171,1.5164241790771484,0.3044847846031189,-2.074857473373413,0.9810975790023804,2.3842146396636963
246,210414,210416,0.038866739720106125,0.004088289104402065,0.9082651138305664,-8.726256370544434,-12.83899211883545,-5.2989678382873535,-0.5114744305610657,1.5194239616394043,0.31048446893692017,-1.817829966545105,1.0510817766189575,2.4666762351989746
247,210424,210426,-0.01041481550782919,0.031695492565631866,0.9561223983764648,-9.123772621154785,-4.088734149932861,-9.264708518981934,-0.5009749531745911,1.5239237546920776,0.3119843900203705,-1.6961430311203003,1.0101652145385742,2.444075345993042
248,210434,210436,0.05165886878967285,-0.005956662353128195,0.9082373976707458,-11.914380073547363,-2.414886474609375,-11.049201965332031,-0.502474844455719,1.5404229164123535,0.3044847846031189,-1.534424901008606,0.8187726140022278,2.3187975883483887
249,210444,210446,0.018062757328152657,0.05724208429455757,0.895301342010498,-11.804596900939941,-6.1366071701049805,-12.269377708435059,-0.502474844455719,1.5314234495162964,0.31048446893692017,-1.5942758321762085,0.8914433121681213,2.2720441818237305
250,210454,210456,-0.008743525482714176,-0.02065018191933632,0.9354204535484314,-12.5515718460083,-3.213879346847534,-11.527688980102539,-0.49797508120536804,1.5389230251312256,0.31798410415649414,-1.4929918050765991,0.7356879711151123,2.1349081993103027
251,210464,210466,0.03027467429637909,-0.010552492924034595,0.9782134890556335,-21.56121253967285,4.700800895690918,-8.032317161560059,-0.508474588394165,1.5464226007461548,0.3164841830730438,-1.4559986591339111,0.4508337080478668,1.969975233078003
252,210474,210476,0.001145462621934712,-0.023239808157086372,0.9622918367385864,-30.790729522705078,4.931524276733398,-1.7148772478103638,-0.5129743218421936,1.5479226112365723,0.3149842321872711,-1.4947857856750488,0.3222517967224121,1.903764009475708
253,210484,210486,-0.07283579558134079,0.150517538189888,1.031111478805542,-27.836366653442383,-3.399573564529419,2.759169340133667,-0.5129743218421936,1.5509223937988281,0.31798410415649414,-1.4993401765823364,-0.02509430982172489,1.857419490814209
254,210494,210496,0.04453442245721817,0.04606904834508896,0.951772928237915,-14.491408348083496,-15.719843864440918,4.490688323974609,-0.49797508120536804,1.5629218816757202,0.3119843900203705,-1.489003300666809,-0.27648302912712097,1.885630488395691
255,210504,210506,0.1031552255153656,-0.03215422108769417,1.0550785064697266,18.996919631958008,-31.056140899658203,3.6987524032592773,-0.4964751601219177,1.543422818183899,0.30748462677001953,-1.0412160158157349,-0.26229822635650635,1.9634795188903809
256,210514,210516,-0.012033975683152676,-0.015199627727270126,1.0344940423965454,53.07243728637695,-33.43545150756836,6.546757221221924,-0.502474844455719,1.5614218711853027,0.32848358154296875,-0.9498897194862366,-0.09070070832967758,2.017914056777954
257,210524,210526,0.02402590773999691,-0.01258372887969017,0.9690656661987305,62.79595947265625,-25.591630935668945,8.076017379760742,-0.5114744305610657,1.5494225025177002,0.3014849126338959,-0.42701008915901184,0.5430020093917847,2.0978927612304688
258,210534,210536,-0.048518843948841095,0.08791017532348633,0.977742612361908,50.51408386230469,-18.226449966430664,8.723706245422363,-0.5009749531745911,1.5359231233596802,0.32998350262641907,-0.24290835857391357,0.8729519844055176,2.126927137374878
259,210544,210546,-0.06760172545909882,0.11739743500947952,1.033314824104309,19.865453720092773,-5.71069860458374,7.862888813018799,-0.49797508120536804,1.5479226112365723,0.3239837884902954,-0.07496710866689682,1.488136649131775,2.2215585708618164
260,210554,210556,-0.04175044968724251,0.02206551842391491,1.0582294464111328,-23.28138542175293,9.364402770996094,6.127981662750244,-0.48747560381889343,1.5494225025177002,0.3164841830730438,0.026333171874284744,1.6012922525405884,2.2872002124786377
261,210564,210566,-0.03129129856824875,-0.09792300313711166,1.014431357383728,-58.43394088745117,15.664507865905762,5.74332332611084,-0.4949752390384674,1.5569220781326294,0.31798410415649414,-0.1270853877067566,1.5098782777786255,2.361165761947632
262,210574,210576,-0.043555088341236115,-0.0168361347168684,1.0039482116699219,-80.61450958251953,7.965027332305908,7.940902233123779,-0.4919753968715668,1.5779210329055786,0.3149842321872711,-0.2315039336681366,0.7017102837562561,2.4108569622039795
263,210584,210586,-0.039323996752500534,0.15115849673748016,0.9736214280128479,-82.76485443115234,-3.4175314903259277,10.683279037475586,-0.49947500228881836,1.5734213590621948,0.31048446893692017,-0.28737664222717285,0.013040725141763687,2.492340326309204
264,210594,210596,0.044842679053545,0.0782473012804985,0.9723406434059143,-70.09738159179688,-22.567224502563477,12.304587364196777,-0.4964751601219177,1.5614218711853027,0.30748462677001953,-0.17283207178115845,-1.0008138418197632,2.593076229095459
265,210604,210606,0.016266271471977234,-0.04341767728328705,0.9562581777572632,-45.837303161621094,-36.94291687011719,13.15273380279541,-0.48147591948509216,1.567421555519104,0.3224838674068451,0.12278095632791519,-1.6028743982315063,2.719489574432373
266,210614,210616,0.001911695348098874,0.011324787512421608,1.0030958652496338,-10.172562599182129,-38.50088882446289,12.024370193481445,-0.508474588394165,1.567421555519104,0.3134843111038208,0.42434489727020264,-1.8175994157791138,2.852336883544922
267,210624,210626,0.026021244004368782,0.07554025202989578,1.0587424039840698,15.65867805480957,-29.75672721862793,11.60111141204834,-0.49047547578811646,1.5884205102920532,0.3224838674068451,0.9930396676063538,-1.9127006530761719,2.9734647274017334
268,210634,210636,0.07573872804641724,0.07195404917001724,1.076677918434143,28.825115203857422,-10.957225799560547,10.32915210723877,-0.502474844455719,1.5704214572906494,0.31048446893692017,1.2134790420532227,-1.656373143196106,3.093463897705078
269,210644,210646,0.039337482303380966,0.03641776368021965,1.0279319286346436,26.358238220214844,18.982027053833008,11.282548904418945,-0.4829758405685425,1.580920934677124,0.3149842321872711,1.2196670770645142,-1.265677809715271,3.201354503631592
270,210654,210656,0.0718098059296608,-0.011730380356311798,0.9889382123947144,12.563677787780762,47.162872314453125,15.300455093383789,-0.4829758405685425,1.580920934677124,0.3149842321872711,1.070698618888855,-1.4680771827697754,3.3808581829071045
271,210664,210666,0.06223265081644058,-0.009644503705203533,1.0319780111312866,-7.987042427062988,57.868408203125,18.46624755859375,-0.4829758405685425,1.580920934677124,0.3149842321872711,0.4138779640197754,-1.3237649202346802,3.5469257831573486
272,210674,210676,0.09144130349159241,0.022723333910107613,0.9738008379936218,-15.971046447753906,54.257144927978516,23.570505142211914,-0.4829758405685425,1.580920934677124,0.3149842321872711,-0.06604849547147751,-1.2013161182403564,3.6699295043945312
273,210684,210686,0.06179637461900711,0.002895411802455783,0.979983925819397,-15.64491081237793,37.52035140991211,26.585195541381836,-0.4829758405685425,1.580920934677124,0.3149842321872711,-0.557360827922821,-1.421760082244873,3.8850455284118652
274,210694,210696,0.09415677189826965,-0.012392298318445683,1.067805528640747,-4.0280938148498535,16.153667449951172,28.39858627319336,-0.5039747953414917,1.595920205116272,0.3149842321872711,-0.9050416350364685,-1.618403434753418,4.1350417137146
275,210704,210706,0.03599335253238678,-0.010207412764430046,1.0602397918701172,20.08702278137207,-8.451486587524414,28.205272674560547,-0.5114744305610657,1.5884205102920532,0.3134843111038208,-0.9680406451225281,-1.5437594652175903,4.367303371429443
276,210714,210716,-0.052234210073947906,-0.025709601119160652,1.0676130056381226,35.81231689453125,-24.79684829711914,29.15243148803711,-0.5114744305610657,1.582420825958252,0.3164841830730438,-0.8284505009651184,-1.4596538543701172,4.64440393447876
277,210724,210726,-0.005263390950858593,0.03467559069395065,1.0402110815048218,59.25643539428711,-30.023996353149414,32.11752700805664,-0.5069746375083923,1.5929203033447266,0.31798410415649414,-0.7076938152313232,-1.0955883264541626,4.963915824890137
278,210734,210736,0.0025186126586049795,-0.17592673003673553,1.0495489835739136,58.278167724609375,-36.9051628112793,29.51051139831543,-0.508474588394165,1.5944201946258545,0.3164841830730438,-0.18313606083393097,-0.39017388224601746,5.206381797790527
279,210744,210746,-0.027441896498203278,-0.1069083958864212,1.1153062582015991,55.590599060058594,-41.67267608642578,24.006553649902344,-0.5069746375083923,1.5929203033447266,0.3239837884902954,-0.009727832861244678,0.24201509356498718,5.54484224319458
280,210754,210756,-0.0042667328380048275,-0.03576597943902016,1.192391037940979,44.606815338134766,-39.13717269897461,18.09441375732422,-0.509974479675293,1.595920205116272,0.32698363065719604,0.575758159160614,0.7081262469291687,5.764834880828857
281,210764,210766,-0.029567210003733635,0.025158986449241638,1.0320619344711304,33.63490295410156,-28.456470489501953,13.537851333618164,-0.5054747462272644,1.5764211416244507,0.3134843111038208,0.9225380420684814,1.0735540390014648,5.9726881980896
282,210774,210776,-0.003683033399283886,0.019589805975556374,1.096226692199707,15.532334327697754,-10.898979187011719,7.83568000793457,-0.49947500228881836,1.5704214572906494,0.3254837095737457,1.1957920789718628,1.4929486513137817,6.091121673583984
283,210784,210786,0.002400960074737668,-0.05949203297495842,1.085201382637024,-6.091527938842773,8.108333587646484,4.1190266609191895,-0.49797508120536804,1.5749212503433228,0.3209839463233948,1.253901481628418,1.605736494064331,6.196021556854248
284,210794,210796,0.06027257442474365,-0.006789018865674734,1.070556640625,-27.472707748413086,21.750110626220703,-0.4611293375492096,-0.5114744305610657,1.5554221868515015,0.3134843111038208,1.120633840560913,1.4417493343353271,6.281233787536621
285,210804,210806,-0.007350085768848658,0.029419632628560066,1.0052906274795532,-37.15950012207031,28.07903289794922,-4.518856048583984,-0.4949752390384674,1.565921664237976,0.3119843900203705,0.8754203915596008,1.3022507429122925,6.2643842697143555
286,210814,210816,0.01355812419205904,0.09981106966733932,1.1260735988616943,-44.69507598876953,37.89899444580078,-9.461779594421387,-0.502474844455719,1.5644217729568481,0.32848358154296875,0.5594503879547119,0.8464708924293518,6.253164768218994
287,210824,210826,0.015955688431859016,-0.03430953621864319,1.0636606216430664,-42.6856803894043,47.470882415771484,-12.14457893371582,-0.5009749531745911,1.5839207172393799,0.3209839463233948,0.172719806432724,0.5415323376655579,6.133828639984131
288,210834,210836,0.10965041071176529,-0.006316875107586384,1.0940159559249878,-36.73128890991211,61.641048431396484,-11.537233352661133,-0.509974479675293,1.5749212503433228,0.32698363065719604,-0.18554064631462097,0.13561683893203735,6.01059103012085
289,210844,210846,0.023739581927657127,-0.10266181081533432,1.125663161277771,-36.67766189575195,62.43628692626953,-10.91132926940918,-0.5204739570617676,1.5884205102920532,0.3164841830730438,-0.754352331161499,-0.36564144492149353,5.922957420349121
290,210854,210856,0.035719964653253555,0.033990513533353806,1.0162240266799927,-24.189579010009766,56.409786224365234,-8.152235984802246,-0.5309734344482422,1.5839207172393799,0.3329833447933197,-1.1932830810546875,-0.543246865272522,5.769817352294922
291,210864,210866,0.09722209721803665,0.09061615914106369,1.0709837675094604,-0.9006742238998413,28.408000946044922,-7.698436737060547,-0.5264736413955688,1.579421043395996,0.3254837095737457,-1.8916724920272827,-0.7015920877456665,5.662121295928955
292,210874,210876,0.0804218053817749,0.03196946159005165,1.0686835050582886,42.00715255737305,-6.484486103057861,-8.684783935546875,-0.5234737992286682,1.5764211416244507,0.3224838674068451,-2.1791958808898926,-0.6006004810333252,5.555927753448486
293,210884,210886,0.02125675231218338,-0.08439233899116516,1.06179940700531,70.11219024658203,-31.422700881958008,-9.718794822692871,-0.5174741148948669,1.567421555519104,0.3254837095737457,-1.9695801734924316,-0.13783584535121918,5.447482585906982
294,210894,210896,-0.0002868399315048009,-0.11364517360925674,1.0163825750350952,65.99673461914062,-54.25338363647461,-6.844715118408203,-0.5294735431671143,1.5644217729568481,0.31948402523994446,-1.6496796607971191,0.46740278601646423,5.357415199279785
295,210904,210906,0.05634722486138344,-0.04096001386642456,0.9982300400733948,23.28095817565918,-53.25096130371094,-5.084314346313477,-0.5174741148948669,1.5524224042892456,0.33748310804367065,-1.1774026155471802,0.9375136494636536,5.295120716094971
296,210914,210916,0.042943280190229416,-0.040874894708395004,1.0081645250320435,-16.411296844482422,-39.52659606933594,-5.58155632019043,-0.48897555470466614,1.5389230251312256,0.31798410415649414,-0.5581799149513245,1.1566112041473389,5.234534740447998
297,210924,210926,0.038474954664707184,-0.11502820998430252,1.0421236753463745,-57.87135314941406,-26.208518981933594,-2.8002026081085205,-0.4919753968715668,1.5329233407974243,0.3119843900203705,-0.20898309350013733,1.055587887763977,5.174712181091309
298,210934,210936,0.03396206349134445,-0.07858579605817795,1.047822117805481,-77.94828033447266,-5.388884544372559,6.768598556518555,-0.48897555470466614,1.5509223937988281,0.31798410415649414,-0.052890390157699585,0.42179083824157715,5.152168273925781
299,210944,210946,-0.0024770505260676146,-0.036715198308229446,0.9930112361907959,-76.79466247558594,29.702659606933594,15.596724510192871,-0.4949752390384674,1.5689215660095215,0.30898454785346985,-0.1058005839586258,-0.22060886025428772,5.198950290679932
300,210954,210956,0.03912302479147911,0.006969069130718708,1.0225027799606323,-67.75675201416016,61.06357955932617,19.319509506225586,-0.508474588394165,1.5704214572906494,0.31048446893692017,-0.5979892015457153,-1.2467784881591797,5.358125686645508
301,210964,210966,0.08173733949661255,0.006473741494119167,0.9247413277626038,-29.818614959716797,78.72319793701172,20.57551383972168,-0.5189740657806396,1.595920205116272,0.3239837884902954,-0.9505223631858826,-1.5694446563720703,5.506012439727783
302,210974,210976,0.02162771299481392,0.01962064392864704,0.9782232046127319,1.867526650428772,78.10894775390625,16.615156173706055,-0.5189740657806396,1.5869206190109253,0.32998350262641907,-1.9319515228271484,-1.8966310024261475,5.692160129547119
303,210984,210986,0.07952796667814255,-0.07483144849538803,1.045122504234314,35.52900695800781,56.15980529785156,10.894278526306152,-0.5234737992286682,1.5704214572906494,0.3044847846031189,-2.492239236831665,-1.7259094715118408,5.818998336791992
304,210994,210996,0.08351104706525803,0.04699691757559776,1.018490195274353,63.74938201904297,15.958958625793457,3.3874948024749756,-0.5189740657806396,1.5569220781326294,0.30898454785346985,-3.038316488265991,-1.6097749471664429,5.9084649085998535
305,211004,211006,0.06581232696771622,0.005025044549256563,0.990696907043457,82.17593383789062,-38.571556091308594,-3.5494284629821777,-0.49947500228881836,1.5464226007461548,0.33748310804367065,-3.0056703090667725,-0.6004215478897095,5.937041759490967
306,211014,211016,-0.008110449649393559,0.013820119202136993,1.0132845640182495,83.3480224609375,-77.08544158935547,-3.603142499923706,-0.5264736413955688,1.5704214572906494,0.32848358154296875,-2.778541326522827,-0.05001771077513695,5.901605129241943
307,211024,211026,0.016917679458856583,-0.034809064120054245,0.9682689309120178,57.706993103027344,-92.27745056152344,1.4204672574996948,-0.5069746375083923,1.580920934677124,0.3209839463233948,-1.8268048763275146,0.6746591329574585,5.818125247955322
308,211034,211036,0.04344296082854271,-0.011221807450056076,0.9858719706535339,15.034509658813477,-83.60572052001953,5.08364725112915,-0.5159741640090942,1.565921664237976,0.32698363065719604,-1.17538583278656,1.3458456993103027,5.845809459686279
309,211044,211046,0.07614035904407501,0.0846242755651474,0.9560721516609192,-27.142499923706055,-59.349815368652344,11.68994426727295,-0.4934753179550171,1.5614218711853027,0.32848358154296875,-0.23437970876693726,1.3437418937683105,5.836056232452393
310,211054,211056,0.005757346283644438,0.054967477917671204,1.062613844871521,-54.45624542236328,-36.87434005737305,15.258569717407227,-0.4919753968715668,1.5569220781326294,0.3239837884902954,0.18770714104175568,1.2046527862548828,5.952311038970947
311,211064,211066,-0.02148245833814144,0.10432692617177963,1.139410138130188,-59.14091873168945,-22.23421287536621,19.35698890686035,-0.4919753968715668,1.5569220781326294,0.31798410415649414,0.5946771502494812,0.5627468228340149,6.086731910705566
312,211074,211076,0.02869771048426628,0.0896974727511406,1.080538272857666,-56.82586669921875,-0.5966407656669617,17.739198684692383,-0.4829758405685425,1.5539222955703735,0.3149842321872711,0.7035383582115173,0.07117322832345963,6.276486873626709
313,211084,211086,0.16828446090221405,-0.04098976030945778,1.0360230207443237,-54.024574279785156,12.04411792755127,15.697502136230469,-0.49047547578811646,1.5644217729568481,0.3314834237098694,0.7005821466445923,-0.3989802896976471,6.456202983856201
314,211094,211096,0.0957062840461731,-0.06608262658119202,1.0514339208602905,-40.52410125732422,17.96981430053711,12.755776405334473,-0.4919753968715668,1.5749212503433228,0.3209839463233948,0.5019343495368958,-1.0248185396194458,6.61736536026001
315,211104,211106,-0.03890850022435188,0.042118508368730545,1.067441463470459,-32.48267364501953,15.543150901794434,8.390267372131348,-0.4919753968715668,1.5629218816757202,0.3059847056865692,0.33250710368156433,-1.4283432960510254,6.744335651397705
316,211114,211116,-0.04625286906957626,0.05074121057987213,1.016215205192566,-13.055606842041016,21.982131958007812,3.8714749813079834,-0.4949752390384674,1.5749212503433228,0.3149842321872711,0.04934944957494736,-1.667028546333313,6.829545497894287
317,211124,211126,0.05440380051732063,0.0143656050786376,1.0105148553848267,-6.905078411102295,23.382736206054688,2.274305820465088,-0.5009749531745911,1.5539222955703735,0.29998499155044556,-0.11733590811491013,-1.7245419025421143,6.858797550201416
318,211134,211136,0.05028855800628662,0.08203145116567612,1.01164972782135,2.7824158668518066,27.771686553955078,4.495121955871582,-0.4934753179550171,1.5614218711853027,0.3164841830730438,-0.48485615849494934,-1.8393980264663696,6.888772487640381
319,211144,211146,0.07259748131036758,-0.004812449682503939,1.0127280950546265,2.74521803855896,25.074993133544922,3.960731267929077,-0.49047547578811646,1.5554221868515015,0.3134843111038208,-0.851029634475708,-1.8722420930862427,6.935603141784668
320,211154,211156,0.1364467442035675,-0.06520078331232071,1.0215836763381958,8.308778762817383,24.870210647583008,4.802180290222168,-0.5009749531745911,1.5509223937988281,0.3059847056865692,-1.06878662109375,-1.8288978338241577,6.963776111602783
321,211164,211166,0.062858447432518,0.070937879383564,1.0004080533981323,8.30036735534668,18.259485244750977,4.694108486175537,-0.4964751601219177,1.5584220886230469,0.31048446893692017,-1.1707537174224854,-1.6700172424316406,6.976444721221924
322,211174,211176,0.07332383841276169,-0.04066910222172737,0.9796192646026611,8.12013053894043,0.7546364068984985,4.895972728729248,-0.509974479675293,1.5539222955703735,0.30898454785346985,-1.5314643383026123,-1.5835366249084473,7.049056053161621
323,211184,211186,0.07289735227823257,-0.04233791306614876,1.0232234001159668,19.454692840576172,-21.287160873413086,6.814621925354004,-0.4919753968715668,1.5539222955703735,0.31798410415649414,-1.435003638267517,-1.4909183979034424,7.074907302856445
324,211194,211196,0.07477515935897827,0.007724246010184288,0.8962979912757874,36.20357131958008,-40.269840240478516,7.85487174987793,-0.5129743218421936,1.5569220781326294,0.31798410415649414,-1.085517406463623,-1.126203179359436,7.111321449279785
325,211204,211206,0.06397315114736557,0.013924322091042995,1.0296844244003296,43.212703704833984,-51.43170166015625,8.903776168823242,-0.4949752390384674,1.5539222955703735,0.3149842321872711,-0.7630677819252014,-0.845482587814331,7.208089351654053
326,211214,211216,0.06524130702018738,-0.06364055722951889,1.0198081731796265,33.126461029052734,-47.489009857177734,12.174032211303711,-0.48147591948509216,1.5584220886230469,0.31048446893692017,-0.2701195180416107,-0.33263805508613586,7.302470684051514
327,211224,211226,0.04277758672833443,0.08188778162002563,1.0040218830108643,11.90978717803955,-41.065765380859375,12.386054039001465,-0.49797508120536804,1.5479226112365723,0.3059847056865692,0.3795740306377411,0.041546449065208435,7.388241767883301
328,211234,211236,0.07682786881923676,0.06449045240879059,1.0444389581680298,-15.598665237426758,-41.241851806640625,11.830917358398438,-0.49047547578811646,1.5524224042892456,0.31048446893692017,0.6029417514801025,0.02718663401901722,7.55360221862793
329,211244,211246,0.05923674628138542,-0.04205730929970741,0.9878460168838501,-25.395248413085938,-26.68245506286621,11.877263069152832,-0.47997599840164185,1.541922926902771,0.3119843900203705,1.0838873386383057,-0.09015057235956192,7.658130645751953
330,211254,211256,0.054720439016819,-0.07136818021535873,0.8832958936691284,-25.656478881835938,-12.95508861541748,11.962180137634277,-0.48747560381889343,1.5554221868515015,0.31048446893692017,1.4186713695526123,-0.407634973526001,7.776495456695557
331,211264,211266,0.0393223837018013,-0.05980371683835983,0.9075855612754822,-18.992389678955078,-4.972161769866943,11.754257202148438,-0.4859756827354431,1.5569220781326294,0.3149842321872711,1.4177545309066772,-0.5487378239631653,7.902061462402344
332,211274,211276,0.09209520369768143,-0.07656536251306534,0.9543893933296204,-5.684820652008057,0.6356402039527893,8.979262351989746,-0.48897555470466614,1.565921664237976,0.3149842321872711,1.3709033727645874,-0.7012535929679871,8.02480411529541
333,211284,211286,0.08463581651449203,-0.016330454498529434,1.036422610282898,-3.202310800552368,12.118695259094238,7.188536167144775,-0.49047547578811646,1.5584220886230469,0.3044847846031189,1.4118025302886963,-0.7149286270141602,8.098621368408203
334,211294,211296,0.056047845631837845,-0.08279920369386673,0.927716851234436,-3.0262391567230225,26.569665908813477,7.315331935882568,-0.49047547578811646,1.5614218711853027,0.3044847846031189,1.18896484375,-0.76082444190979,8.189251899719238
335,211304,211306,0.009292680770158768,0.022469479590654373,1.02950918674469,0.8478524684906006,35.70954132080078,8.17345905303955,-0.49947500228881836,1.5524224042892456,0.3134843111038208,0.7688106298446655,-0.916546106338501,8.305074691772461
336,211314,211316,0.05523022636771202,-0.013119730167090893,1.0085375308990479,4.183416843414307,34.539756774902344,6.953830242156982,-0.49947500228881836,1.567421555519104,0.3044847846031189,0.4808123707771301,-0.9374729990959167,8.37540054321289
337,211324,211326,0.059652164578437805,-0.04420715570449829,0.9928266406059265,-0.49452266097068787,24.965133666992188,4.434756755828857,-0.508474588394165,1.5644217729568481,0.3164841830730438,0.2370223104953766,-0.7375887632369995,8.390883445739746
338,211334,211336,0.04549657180905342,-0.027891185134649277,1.0102263689041138,-8.249764442443848,10.993841171264648,-0.10250824689865112,-0.5009749531745911,1.5629218816757202,0.31798410415649414,-0.04592527449131012,-0.8345403671264648,8.46039867401123
339,211344,211346,0.0553283654153347,0.05000033974647522,0.9687151312828064,-7.326224327087402,-12.962679862976074,-6.795910835266113,-0.49047547578811646,1.5644217729568481,0.3224838674068451,-0.04761773347854614,-0.9261112809181213,8.449458122253418
340,211354,211356,0.07123051583766937,-0.008004406467080116,1.0430914163589478,-7.636487007141113,-36.905250549316406,-12.928407669067383,-0.4949752390384674,1.5599219799041748,0.30898454785346985,0.11708024144172668,-1.0911474227905273,8.39895248413086
341,211364,211366,0.02455509826540947,-0.008892476558685303,1.0196503400802612,-7.335418701171875,-49.729644775390625,-12.158452033996582,-0.4844757616519928,1.5524224042892456,0.30748462677001953,0.5337072610855103,-0.828234076499939,8.207209587097168
342,211374,211376,0.04524008184671402,0.002646474167704582,0.9624298810958862,-18.7706241607666,-55.93386459350586,-7.943747520446777,-0.47847607731819153,1.5374231338500977,0.2954852283000946,0.9803956747055054,-1.0772897005081177,8.13249397277832
343,211384,211386,0.11294044554233551,-0.038315337151288986,1.020298957824707,-29.312990188598633,-50.6103515625,-0.20682929456233978,-0.4754762053489685,1.567421555519104,0.31048446893692017,1.535334587097168,-1.1977978944778442,8.048858642578125
344,211394,211396,0.05227694287896156,0.03939252719283104,1.004904866218567,-31.11893081665039,-30.091114044189453,5.439521789550781,-0.4829758405685425,1.5479226112365723,0.3119843900203705,1.9852385520935059,-1.4419589042663574,8.051689147949219
345,211404,211406,0.005511738359928131,1.4954664948163554e-05,1.0562876462936401,-19.836454391479492,-2.4551689624786377,8.51044750213623,-0.48897555470466614,1.5569220781326294,0.31798410415649414,2.2855353355407715,-1.788164734840393,8.121136665344238
346,211414,211416,0.03735113516449928,-0.06979511678218842,0.9188655018806458,2.6963179111480713,39.05843734741211,7.8170623779296875,-0.4859756827354431,1.5719213485717773,0.30898454785346985,2.122573137283325,-2.0276896953582764,8.248686790466309
347,211424,211426,0.06893288344144821,-0.03851127624511719,0.9395217895507812,6.425511837005615,61.71174240112305,6.047371864318848,-0.4844757616519928,1.5884205102920532,0.31048446893692017,1.6498664617538452,-1.7523164749145508,8.249757766723633
348,211434,211436,0.0779750868678093,0.007445058319717646,1.0005759000778198,6.2888360023498535,71.39942932128906,3.9372189044952393,-0.4949752390384674,1.5779210329055786,0.3059847056865692,1.0728096961975098,-1.9165377616882324,8.360854148864746
349,211444,211446,-0.012643025256693363,-0.04737333580851555,1.0534839630126953,9.669163703918457,64.18171691894531,1.2965669631958008,-0.5009749531745911,1.5749212503433228,0.3119843900203705,0.5053374171257019,-1.6258410215377808,8.276994705200195
350,211454,211456,0.021251896396279335,-0.045165903866291046,1.1022406816482544,10.123387336730957,39.53794860839844,-2.949812412261963,-0.502474844455719,1.5584220886230469,0.31948402523994446,-0.004910380579531193,-1.7302218675613403,8.306674003601074
351,211464,211466,0.051080044358968735,0.021478939801454544,0.9951748251914978,13.288782119750977,0.5049509406089783,-10.503514289855957,-0.49047547578811646,1.5584220886230469,0.3014849126338959,-0.4003807604312897,-1.5830003023147583,8.249236106872559
352,211474,211476,0.08070827275514603,-0.043793145567178726,1.0466631650924683,20.580554962158203,-41.9261589050293,-18.919981002807617,-0.4919753968715668,1.5479226112365723,0.3029848337173462,-0.2961323857307434,-1.4343475103378296,8.11214542388916
353,211484,211486,0.02505986951291561,-0.01007195096462965,0.9781709909439087,41.53765869140625,-72.33570098876953,-22.701440811157227,-0.48897555470466614,1.5629218816757202,0.3119843900203705,0.2688150405883789,-1.011087417602539,7.842317581176758
354,211494,211496,0.02578883245587349,-0.019128186628222466,0.9152049422264099,62.56354904174805,-80.84088134765625,-21.93511390686035,-0.49797508120536804,1.5689215660095215,0.3209839463233948,0.9848083257675171,-0.5560271143913269,7.610451698303223
355,211504,211506,0.02974623255431652,-0.1111416444182396,1.0433398485183716,56.23902893066406,-65.5291976928711,-17.491167068481445,-0.49047547578811646,1.5584220886230469,0.3224838674068451,1.5667470693588257,-0.1440063714981079,7.492039203643799
356,211514,211516,0.06955334544181824,-0.12286222726106644,0.9995229840278625,31.779022216796875,-35.58897018432617,-12.699102401733398,-0.48747560381889343,1.543422818183899,0.3134843111038208,2.3304760456085205,0.582245945930481,7.250682353973389
357,211524,211526,0.0829211175441742,-0.07358580827713013,0.9185168743133545,-12.999838829040527,6.4099860191345215,-6.977207660675049,-0.4739762842655182,1.541922926902771,0.3119843900203705,2.675776958465576,0.789291501045227,7.1628336906433105
358,211534,211536,0.02988656423985958,-0.02757885493338108,0.9821240901947021,-63.86232376098633,39.04335403442383,1.7409729957580566,-0.48897555470466614,1.5479226112365723,0.3119843900203705,2.4225716590881348,0.3383910357952118,7.242672443389893
359,211544,211546,-0.010229101404547691,-0.03516165167093277,1.0745474100112915,-99.74566650390625,52.69673538208008,9.20522689819336,-0.4949752390384674,1.5989199876785278,0.3149842321872711,1.9733928442001343,-0.2419758439064026,7.262837886810303
360,211554,211556,-0.0006431967485696077,0.03115067631006241,1.0038490295410156,-116.9552230834961,56.22636413574219,17.479204177856445,-0.49947500228881836,1.6034197807312012,0.31948402523994446,1.5509783029556274,-0.9689707159996033,7.2505998611450195
361,211564,211566,0.0232208464294672,-0.00047587492736056447,1.1374062299728394,-112.72643280029297,42.54359436035156,22.584270477294922,-0.49797508120536804,1.5989199876785278,0.3239837884902954,0.8775652050971985,-2.574195384979248,7.570986747741699
362,211574,211576,0.05257011577486992,0.03318013623356819,1.017370581626892,-83.1637954711914,15.674409866333008,24.808841705322266,-0.4934753179550171,1.5974200963974,0.30748462677001953,0.7749215960502625,-3.1027166843414307,7.527700424194336
363,211584,211586,0.044350624084472656,-0.02780267409980297,1.1549105644226074,-44.55986404418945,-5.431442737579346,23.9543399810791,-0.4844757616519928,1.579421043395996,0.3134843111038208,0.6049817800521851,-3.8646552562713623,7.724179267883301
364,211594,211596,0.016376176849007607,0.04101359471678734,1.1881000995635986,2.937987804412842,-9.702665328979492,20.266145706176758,-0.4844757616519928,1.579421043395996,0.3044847846031189,0.677257776260376,-4.372514724731445,7.964660167694092
365,211604,211606,0.043394092470407486,0.031212911009788513,1.1631437540054321,41.170494079589844,-13.537128448486328,13.964173316955566,-0.47997599840164185,1.5599219799041748,0.30898454785346985,0.8285055756568909,-4.171677112579346,8.09310531616211
366,211614,211616,0.0423300676047802,-0.00012403365690261126,1.1455237865447998,79.23953247070312,-12.070281982421875,4.475795745849609,-0.48147591948509216,1.5704214572906494,0.3014849126338959,1.0057423114776611,-3.6958189010620117,8.202369689941406
367,211624,211626,0.10378239303827286,-0.021365877240896225,1.1778451204299927,87.67098236083984,-7.185568809509277,-2.604245662689209,-0.48897555470466614,1.5689215660095215,0.3029848337173462,1.0828393697738647,-2.951667070388794,8.281214714050293
368,211634,211636,0.11930300295352936,-0.02649691328406334,1.0652573108673096,59.57648468017578,2.797431707382202,-7.236907005310059,-0.47997599840164185,1.541922926902771,0.3059847056865692,1.121071696281433,-2.248629093170166,8.325531005859375
369,211644,211646,0.04629278928041458,-0.006246388424187899,1.0585359334945679,30.25728988647461,17.49336051940918,-8.70405101776123,-0.47847607731819153,1.5344232320785522,0.3014849126338959,0.9889036417007446,-1.7264275550842285,8.334419250488281
370,211654,211656,0.04571665823459625,-0.0458364263176918,0.9867081642150879,-0.811739444732666,32.06970977783203,-8.245582580566406,-0.4634768068790436,1.5254236459732056,0.30748462677001953,0.7041956186294556,-1.4075018167495728,8.297429084777832
371,211664,211666,0.03878598287701607,0.06072348728775978,0.8874346613883972,-29.75084686279297,37.72222900390625,-6.619450092315674,-0.47847607731819153,1.5314234495162964,0.3044847846031189,0.5116731524467468,-1.4369925260543823,8.188417434692383
372,211674,211676,0.053651534020900726,0.05246477946639061,0.9347639679908752,-42.31049728393555,47.08403396606445,-8.74726390838623,-0.47847607731819153,1.543422818183899,0.31048446893692017,-0.026072826236486435,-1.7638239860534668,8.174178123474121
373,211684,211686,0.08230941742658615,-0.061590902507305145,1.0286533832550049,-36.58780288696289,40.111351013183594,-7.472610950469971,-0.4964751601219177,1.5554221868515015,0.31048446893692017,-0.44660332798957825,-2.1918320655822754,8.072758674621582
374,211694,211696,0.0616045817732811,-0.0522816963493824,0.935542106628418,-18.814687728881836,14.362082481384277,-8.09724235534668,-0.4739762842655182,1.5509223937988281,0.29998499155044556,-0.8799560070037842,-2.7434394359588623,8.023457527160645
375,211704,211706,0.08097205311059952,0.03005845844745636,0.8893178105354309,9.92779541015625,-3.091468334197998,-9.783525466918945,-0.48147591948509216,1.5344232320785522,0.3014849126338959,-1.0507099628448486,-2.8924481868743896,7.916204929351807
376,211714,211716,0.07565981894731522,0.012254713103175163,0.9149495363235474,50.924198150634766,-24.296756744384766,-11.719513893127441,-0.47997599840164185,1.529923439025879,0.2969851493835449,-0.8077412247657776,-2.494170904159546,7.705451011657715
377,211724,211726,0.040828824043273926,-0.0023603884037584066,0.963177502155304,81.48627471923828,-52.06420135498047,-10.634132385253906,-0.502474844455719,1.5344232320785522,0.3014849126338959,-0.3655209541320801,-1.8427335023880005,7.494351387023926
378,211734,211736,0.034444231539964676,0.029853885993361473,0.9129321575164795,103.79927062988281,-64.16226196289062,-9.642228126525879,-0.4859756827354431,1.5479226112365723,0.3149842321872711,-0.21619608998298645,-1.4199265241622925,7.541563987731934
379,211744,211746,0.043177928775548935,-0.0118340365588665,0.9068205952644348,106.77469635009766,-54.40806579589844,-11.924420356750488,-0.4754762053489685,1.5554221868515015,0.3224838674068451,0.25689244270324707,-0.5017116665840149,7.511598110198975
380,211754,211756,0.05746271833777428,-0.03742510452866554,0.9075077772140503,82.94190216064453,-34.15320587158203,-15.593655586242676,-0.4859756827354431,1.5359231233596802,0.3059847056865692,0.7644439935684204,0.40920451283454895,7.433218479156494
381,211764,211766,0.020643606781959534,-0.04218185693025589,0.9360218644142151,39.27449035644531,-12.979859352111816,-20.268516540527344,-0.47847607731819153,1.5254236459732056,0.2954852283000946,1.1552592515945435,1.420947551727295,7.259146690368652
382,211774,211776,0.016536232084035873,-0.11788153648376465,0.9467645287513733,5.991341590881348,1.4238288402557373,-23.551498413085938,-0.47247636318206787,1.5194239616394043,0.3014849126338959,1.3104299306869507,1.7498749494552612,7.079259872436523
383,211784,211786,0.0031716872472316027,-0.08722801506519318,0.9253795742988586,-38.043556213378906,12.90561294555664,-25.458843231201172,-0.4739762842655182,1.5329233407974243,0.3059847056865692,1.162023901939392,1.6468873023986816,6.897681713104248
384,211794,211796,0.030287960544228554,-0.0029206445906311274,0.9199345111846924,-73.88605499267578,18.583560943603516,-25.061229705810547,-0.4919753968715668,1.5449227094650269,0.3059847056865692,1.0118454694747925,1.2084760665893555,6.673288822174072
385,211804,211806,-0.0008317670435644686,0.05525717884302139,0.9793333411216736,-89.59268188476562,23.160869598388672,-23.834856033325195,-0.49047547578811646,1.5524224042892456,0.29848507046699524,0.8439940214157104,0.45228511095046997,6.4386773109436035
386,211814,211816,0.044695619493722916,-0.020484060049057007,0.8866106867790222,-84.21900939941406,21.131868362426758,-22.353271484375,-0.4769761562347412,1.565921664237976,0.30898454785346985,0.852990448474884,0.01921077072620392,6.133234977722168
387,211824,211826,0.024495108053088188,-0.0030714364256709814,0.9510785341262817,-57.333831787109375,14.468823432922363,-22.505691528320312,-0.4859756827354431,1.5629218816757202,0.30898454785346985,0.6826112270355225,-0.956095814704895,5.924777030944824
388,211834,211836,0.07964546978473663,-0.021632377058267593,0.9754232168197632,-10.094301223754883,2.7583425045013428,-22.846113204956055,-0.48147591948509216,1.5584220886230469,0.31948402523994446,0.5220602750778198,-1.3391637802124023,5.672460556030273
389,211844,211846,0.044121913611888885,0.03711992874741554,1.0299255847930908,32.55287551879883,-7.602511882781982,-24.146923065185547,-0.4934753179550171,1.5554221868515015,0.3044847846031189,0.5296156406402588,-1.4775241613388062,5.442825794219971
390,211854,211856,0.0825514867901802,-0.0006173481815494597,1.0078659057617188,60.442020416259766,-0.3110337555408478,-26.137454986572266,-0.49797508120536804,1.5599219799041748,0.3119843900203705,0.45609667897224426,-0.8785913586616516,5.1675496101379395
391,211864,211866,0.03552837669849396,0.007590101100504398,1.0409475564956665,70.7715072631836,23.377796173095703,-27.352855682373047,-0.4934753179550171,1.543422818183899,0.3134843111038208,0.536404550075531,-0.3568388521671295,4.91685152053833
392,211874,211876,0.06866006553173065,-0.05803949758410454,1.0262672901153564,59.8813362121582,47.74190139770508,-27.6535587310791,-0.5039747953414917,1.5479226112365723,0.3149842321872711,0.23912344872951508,0.445596307516098,4.6366167068481445
393,211884,211886,0.09903871268033981,-0.13357503712177277,0.9744791388511658,27.32219886779785,66.43795013427734,-26.480337142944336,-0.5129743218421936,1.5479226112365723,0.3149842321872711,-0.07754558324813843,0.730459451675415,4.403019428253174
394,211894,211896,0.0666734129190445,-0.05177901312708855,1.0081756114959717,-10.199442863464355,68.90428161621094,-24.51154899597168,-0.502474844455719,1.5554221868515015,0.31948402523994446,-1.029950737953186,0.997826874256134,4.142947673797607
395,211904,211906,0.062124721705913544,0.015107734128832817,1.0306426286697388,-31.25133514404297,57.36977005004883,-20.824337005615234,-0.508474588394165,1.5614218711853027,0.3224838674068451,-1.4433562755584717,0.7678782343864441,3.9306373596191406
396,211914,211916,0.05816418305039406,-0.0031153771560639143,1.0379996299743652,-50.56039810180664,30.964942932128906,-16.318992614746094,-0.5129743218421936,1.5599219799041748,0.31798410415649414,-1.9515149593353271,0.89849853515625,3.7208588123321533
397,211924,211926,0.06486308574676514,-0.07248218357563019,0.9711970090866089,-58.033897399902344,-13.410761833190918,-14.295089721679688,-0.49947500228881836,1.5404229164123535,0.30748462677001953,-2.2209835052490234,0.044580649584531784,3.5568344593048096
398,211934,211936,0.08281688392162323,0.012927074916660786,1.02595055103302,-52.1353645324707,-38.558502197265625,-8.606772422790527,-0.4934753179550171,1.5344232320785522,0.30748462677001953,-2.0548901557922363,-0.2719780504703522,3.439265251159668
399,211944,211946,0.10332728177309036,-0.00012841874558944255,1.0104376077651978,-29.793121337890625,-44.77564239501953,-5.141121864318848,-0.48147591948509216,1.543422818183899,0.31048446893692017,-1.8658217191696167,-1.0539913177490234,3.30281400680542
400,211954,211956,0.07691945135593414,0.05629948154091835,1.0857478380203247,-11.617409706115723,-42.8629264831543,-2.33996319770813,-0.4829758405685425,1.526923656463623,0.30898454785346985,-1.2955015897750854,-1.1530579328536987,3.300691604614258
401,211964,211966,0.11982052773237228,0.0063879298977553844,1.0072641372680664,0.550652801990509,-28.62014389038086,-1.317645788192749,-0.5054747462272644,1.543422818183899,0.31048446893692017,-0.9755431413650513,-1.2853044271469116,3.271641492843628
402,211974,211976,0.05918092280626297,0.06484288722276688,1.0952131748199463,17.337520599365234,-16.071699142456055,-3.779649257659912,-0.49797508120536804,1.5359231233596802,0.3149842321872711,-0.7090116739273071,-1.1700139045715332,3.2786378860473633
403,211984,211986,0.12685629725456238,0.010641952976584435,1.031611680984497,38.3023567199707,-12.314029693603516,-6.5047149658203125,-0.4844757616519928,1.543422818183899,0.32848358154296875,-0.5924274921417236,-1.2041782140731812,3.2191929817199707
404,211994,211996,0.07045628130435944,0.07225888222455978,1.0825308561325073,61.369895935058594,-9.69693660736084,-9.347942352294922,-0.49047547578811646,1.5374231338500977,0.3044847846031189,-0.5372588634490967,-0.7316872477531433,3.176175355911255
405,212004,212006,0.09923908859491348,0.01377689279615879,1.0339891910552979,76.21490478515625,6.36094856262207,-11.935606002807617,-0.4949752390384674,1.5239237546920776,0.3149842321872711,-0.5305976271629333,-0.3656463921070099,3.049370050430298
406,212014,212016,0.0705886259675026,-0.008848927915096283,0.9850590229034424,85.03633880615234,22.275543212890625,-16.65940284729004,-0.48897555470466614,1.526923656463623,0.32998350262641907,-0.6929411292076111,0.4391755163669586,2.941113233566284
407,212024,212026,0.0483037494122982,-0.06316583603620529,0.9703166484832764,80.19035339355469,32.9593391418457,-18.67310333251953,-0.4964751601219177,1.5254236459732056,0.3164841830730438,-1.076971173286438,1.103790044784546,2.7468016147613525
408,212034,212036,0.016620008274912834,-0.15354739129543304,0.9286268353462219,54.72428894042969,32.56424331665039,-19.994577407836914,-0.502474844455719,1.5194239616394043,0.3224838674068451,-1.3453449010849,2.074488401412964,2.6047356128692627
409,212044,212046,0.03417782858014107,-0.11231404542922974,0.9110585451126099,13.805700302124023,16.990440368652344,-23.8652400970459,-0.5069746375083923,1.5059247016906738,0.30898454785346985,-1.7484629154205322,2.4029247760772705,2.3642208576202393
410,212054,212056,0.07790729403495789,-0.005985116586089134,0.9159166216850281,-21.416820526123047,-3.917884349822998,-30.02923583984375,-0.4934753179550171,1.5254236459732056,0.31948402523994446,-1.8214375972747803,2.5002026557922363,2.1416990756988525
411,212064,212066,0.09066841751337051,0.00863333884626627,0.9391739964485168,-46.67363739013672,-28.726255416870117,-36.28094482421875,-0.4919753968715668,1.5179240703582764,0.3119843900203705,-1.7381572723388672,2.3326575756073,1.8706461191177368
412,212074,212076,0.08847139030694962,0.03989439830183983,1.055402159690857,-48.58409881591797,-51.23013687133789,-41.221981048583984,-0.48897555470466614,1.5359231233596802,0.3239837884902954,-1.4175752401351929,1.8197661638259888,1.5091376304626465
413,212084,212086,0.04578476771712303,0.05212733894586563,0.9947774410247803,-39.64665222167969,-66.2230224609375,-44.97185134887695,-0.4769761562347412,1.529923439025879,0.3119843900203705,-0.9256642460823059,1.385466456413269,1.1160528659820557
414,212094,212096,0.0075043863616883755,0.006008724682033062,0.9416261911392212,-19.752704620361328,-79.2437973022461,-45.98297882080078,-0.4769761562347412,1.529923439025879,0.32698363065719604,-0.5297953486442566,1.0292127132415771,0.6069435477256775
415,212104,212106,0.02771941013634205,-0.07601668685674667,0.9651678204536438,0.1943797767162323,-73.46419525146484,-46.46478271484375,-0.4769761562347412,1.529923439025879,0.3029848337173462,0.3308795690536499,0.7639904618263245,0.15404072403907776
416,212114,212116,-0.005398918874561787,-0.13990768790245056,0.9701756238937378,12.598262786865234,-58.49911117553711,-47.406368255615234,-0.47997599840164185,1.5179240703582764,0.3149842321872711,0.9170399308204651,0.8625074028968811,-0.3364855945110321
417,212124,212126,-0.02680208347737789,-0.0851970985531807,1.0000176429748535,10.86540412902832,-34.441810607910156,-47.765106201171875,-0.47847607731819153,1.5224238634109497,0.31048446893692017,1.640784502029419,0.9299512505531311,-0.7890229225158691
418,212134,212136,-0.028498182073235512,0.004622933454811573,0.9797571301460266,5.853075981140137,-8.824795722961426,-47.96793746948242,-0.4859756827354431,1.529923439025879,0.3149842321872711,1.9666764736175537,0.9828284978866577,-1.2909526824951172
419,212144,212146,-0.07769031822681427,0.024873647838830948,0.9515642523765564,-1.859483003616333,11.45805549621582,-47.265525817871094,-0.48747560381889343,1.5404229164123535,0.3224838674068451,1.9141740798950195,1.0899393558502197,-1.8117436170578003
420,212154,212156,-0.03095192275941372,0.05421917885541916,1.0110548734664917,-4.024432182312012,21.03840446472168,-44.497337341308594,-0.48897555470466614,1.5449227094650269,0.3239837884902954,1.8831266164779663,1.0960917472839355,-2.2623865604400635
421,212164,212166,-0.011996543034911156,-0.00012989553215447813,0.9780150055885315,0.6186333298683167,17.890640258789062,-40.188880920410156,-0.47097644209861755,1.5329233407974243,0.30898454785346985,1.751181721687317,1.0985444784164429,-2.6831142902374268
422,212174,212176,0.018454859033226967,-0.019726503640413284,1.0440962314605713,1.7741450071334839,10.481842041015625,-34.51311111450195,-0.47997599840164185,1.5329233407974243,0.3149842321872711,1.595108985900879,1.071085810661316,-3.0719265937805176
423,212184,212186,-0.008999566547572613,-0.10698522627353668,1.0090844631195068,-0.9322920441627502,-4.464676380157471,-27.769636154174805,-0.47997599840164185,1.5329233407974243,0.3149842321872711,1.5343997478485107,1.0385135412216187,-3.401510238647461
424,212194,212196,0.007131191901862621,-0.0616159625351429,0.9907174110412598,-1.801641583442688,-17.021574020385742,-21.77591896057129,-0.47997599840164185,1.5329233407974243,0.3149842321872711,1.4783697128295898,1.0591175556182861,-3.7109763622283936
425,212204,212206,0.041612863540649414,0.021791085600852966,1.0027883052825928,-2.0451343059539795,-17.64828872680664,-17.45536994934082,-0.47997599840164185,1.5329233407974243,0.3149842321872711,1.772619605064392,1.1270103454589844,-3.8975794315338135
426,212214,212216,-0.012902220711112022,0.0046536861918866634,0.9864488840103149,-7.9118876457214355,-8.307106971740723,-13.866399765014648,-0.4739762842655182,1.5239237546920776,0.3029848337173462,2.0107474327087402,1.0823689699172974,-4.054017066955566
427,212224,212226,0.026022987440228462,0.06409044563770294,1.0316377878189087,-12.682245254516602,-0.5674983859062195,-11.392234802246094,-0.46047696471214294,1.5164241790771484,0.3044847846031189,2.1163136959075928,0.9559049010276794,-4.187101364135742
428,212234,212236,-0.021979952231049538,0.02503630518913269,0.9800927042961121,-12.35486125946045,1.4721852540969849,-9.828845977783203,-0.4649767279624939,1.526923656463623,0.3239837884902954,2.1205852031707764,0.7789388298988342,-4.297797679901123
429,212244,212246,0.029730817303061485,-0.018559424206614494,0.979854941368103,-7.127841472625732,-1.7351576089859009,-9.759897232055664,-0.4649767279624939,1.5389230251312256,0.3059847056865692,2.042705535888672,0.6368625164031982,-4.413656711578369
430,212254,212256,0.11197081208229065,0.0173135157674551,1.0277180671691895,2.4231574535369873,-8.525837898254395,-10.236393928527832,-0.4664766788482666,1.5224238634109497,0.3044847846031189,2.034217119216919,0.6034041047096252,-4.522448539733887
431,212264,212266,0.13407696783542633,0.016442077234387398,0.9963430762290955,9.833089828491211,-12.704148292541504,-10.017724990844727,-0.4649767279624939,1.5239237546920776,0.30898454785346985,2.042548656463623,0.70701664686203,-4.658083915710449
432,212274,212276,0.0845075324177742,0.046749893575906754,0.9746561050415039,5.238743305206299,-8.352434158325195,-8.658201217651367,-0.47247636318206787,1.528423547744751,0.31048446893692017,2.2080390453338623,0.7784618139266968,-4.738524436950684
433,212284,212286,0.0364672876894474,0.023387901484966278,0.9854574203491211,-21.37457847595215,12.214420318603516,-5.257891654968262,-0.4679765999317169,1.5239237546920776,0.3059847056865692,2.2812588214874268,0.7225619554519653,-4.80128288269043
434,212294,212296,0.011035467498004436,-0.019968368113040924,0.9894375801086426,-51.754791259765625,37.98218536376953,2.911027193069458,-0.46947652101516724,1.5404229164123535,0.2954852283000946,2.2323570251464844,0.33425283432006836,-4.789267539978027
435,212304,212306,-0.0029560751281678677,-0.018723884597420692,1.0213664770126343,-57.54984664916992,52.01431655883789,15.169474601745605,-0.4844757616519928,1.5464226007461548,0.31948402523994446,1.6192044019699097,-0.32354244589805603,-4.79508113861084
436,212314,212316,-0.019832642748951912,0.013868927024304867,1.0513648986816406,-45.89724349975586,46.11685562133789,26.246904373168945,-0.48147591948509216,1.5584220886230469,0.3164841830730438,1.3360836505889893,-0.5831512212753296,-4.69290018081665
437,212324,212326,-0.015366627834737301,0.03639610856771469,1.009934663772583,-21.480255126953125,33.952476501464844,35.0789794921875,-0.49047547578811646,1.5644217729568481,0.3254837095737457,0.7184008359909058,-1.1637611389160156,-4.461122512817383
438,212334,212336,0.013916216790676117,0.06816765666007996,1.111224889755249,8.535502433776855,36.01021194458008,39.24508285522461,-0.4829758405685425,1.5479226112365723,0.3149842321872711,0.5569118857383728,-1.4738249778747559,-4.075150012969971
439,212344,212346,0.06015139818191528,-0.014458462595939636,1.0022639036178589,29.625564575195312,39.33245849609375,42.06582260131836,-0.49047547578811646,1.5404229164123535,0.31948402523994446,0.070371113717556,-1.1855263710021973,-3.769202947616577
440,212354,212356,0.06260327994823456,0.026918331161141396,1.103092074394226,39.053138732910156,34.18362045288086,47.66460418701172,-0.49797508120536804,1.5239237546920776,0.3209839463233948,-0.12730924785137177,-1.2723814249038696,-3.2613954544067383
441,212364,212366,0.08163172006607056,-0.0837269127368927,1.0227527618408203,47.94955062866211,22.4641170501709,55.3549690246582,-0.4829758405685425,1.5479226112365723,0.3209839463233948,-0.5089799165725708,-0.5436046123504639,-2.8693079948425293
442,212374,212376,0.0761670246720314,-0.10628964006900787,0.9745960831642151,55.28574752807617,6.457075119018555,57.657527923583984,-0.49047547578811646,1.5344232320785522,0.31948402523994446,-0.6566421389579773,-0.31934458017349243,-2.279862880706787
443,212384,212386,0.06751084327697754,-0.10992131382226944,0.8961120843887329,61.88964080810547,-5.876430034637451,59.658660888671875,-0.4964751601219177,1.5314234495162964,0.3044847846031189,-0.7887705564498901,0.25041258335113525,-1.7134625911712646
444,212394,212396,0.06315183639526367,-0.003595585934817791,0.9753161072731018,56.23853302001953,-11.651697158813477,60.65957260131836,-0.47997599840164185,1.5239237546920776,0.3239837884902954,-0.6157228350639343,0.9917497038841248,-1.1259431838989258
445,212404,212406,0.10279153287410736,0.060421064496040344,1.0135443210601807,50.37514877319336,-23.895606994628906,59.22698211669922,-0.47097644209861755,1.5239237546920776,0.32698363065719604,-0.42747005820274353,1.3710646629333496,-0.5070335865020752
446,212414,212416,0.0842428132891655,-0.01249719224870205,0.9789062142372131,48.63139724731445,-25.750932693481445,57.646976470947266,-0.48897555470466614,1.5239237546920776,0.3209839463233948,-0.2792220711708069,2.1005358695983887,0.06173545494675636
447,212424,212426,-0.0012121035251766443,-0.057172201573848724,0.981469988822937,43.588619232177734,-28.610414505004883,53.520286560058594,-0.48747560381889343,1.5164241790771484,0.3044847846031189,0.09898761659860611,2.339709758758545,0.6444775462150574
448,212434,212436,-0.004693244118243456,-0.05930560827255249,0.9962774515151978,33.781150817871094,-25.705265045166016,48.62913513183594,-0.47997599840164185,1.5089244842529297,0.3059847056865692,0.399029940366745,2.896557331085205,1.1653532981872559
449,212444,212446,0.01479386631399393,0.0064366539008915424,0.9758796691894531,19.749034881591797,-14.594038963317871,41.08156967163086,-0.4769761562347412,1.4939253330230713,0.3149842321872711,0.6774578094482422,3.1135811805725098,1.6420140266418457
450,212454,212456,-0.04088039696216583,-0.005785638000816107,0.989652156829834,9.399105072021484,3.0766067504882812,33.936309814453125,-0.46947652101516724,1.5224238634109497,0.31048446893692017,0.7428478002548218,3.4218039512634277,2.018598794937134
451,212464,212466,0.03257298097014427,-0.07574047148227692,0.9394963979721069,-8.016087532043457,26.97347640991211,30.13195037841797,-0.47847607731819153,1.5074245929718018,0.3014849126338959,0.6390539407730103,3.500154733657837,2.3361880779266357
452,212474,212476,-0.020549273118376732,0.024061761796474457,0.9429969191551208,-18.101667404174805,47.84096145629883,28.252798080444336,-0.4859756827354431,1.511924386024475,0.30898454785346985,0.5340653657913208,3.368326425552368,2.6915745735168457
453,212484,212486,0.015141002833843231,-0.03353997319936752,0.9457145929336548,-27.413837432861328,52.14392852783203,23.59663200378418,-0.4934753179550171,1.528423547744751,0.3164841830730438,-0.11204173415899277,3.1276180744171143,2.9340436458587646
454,212494,212496,0.09750290960073471,-0.06288404762744904,1.0056228637695312,-24.113059997558594,38.787479400634766,13.67763900756836,-0.4934753179550171,1.5224238634109497,0.3134843111038208,-0.31582391262054443,2.9644010066986084,3.317126512527466
455,212504,212506,0.05896027386188507,-0.024405356496572495,0.9693768620491028,-13.175085067749023,9.153169631958008,3.9900858402252197,-0.4934753179550171,1.5104244947433472,0.31948402523994446,-0.800216555595398,2.7286081314086914,3.454270601272583
456,212514,212516,0.04167648032307625,-0.0364547073841095,0.9422436952590942,-1.1924095153808594,-14.6626615524292,-1.0975666046142578,-0.4964751601219177,1.5104244947433472,0.3134843111038208,-0.8587923645973206,2.6660056114196777,3.5408248901367188
457,212524,212526,0.010753432288765907,-0.010105330497026443,0.9828401803970337,15.492918968200684,-34.320045471191406,-4.386279582977295,-0.48747560381889343,1.513424277305603,0.3134843111038208,-0.5562935471534729,2.821099281311035,3.6116254329681396
458,212534,212536,-0.005803460255265236,0.013995683752000332,0.988297164440155,26.792240142822266,-37.439048767089844,-6.957757472991943,-0.49047547578811646,1.5074245929718018,0.3164841830730438,-0.11971226334571838,3.112812042236328,3.617568016052246
459,212544,212546,-0.004282109905034304,0.035790808498859406,0.9254921674728394,31.51313591003418,-25.927845001220703,-7.774930477142334,-0.49047547578811646,1.5254236459732056,0.3164841830730438,0.15459956228733063,3.469425678253174,3.493138551712036
460,212554,212556,-0.0017861680826172233,-0.01725449226796627,0.9167517423629761,20.679729461669922,-4.727676868438721,-5.649169445037842,-0.49797508120536804,1.5239237546920776,0.3119843900203705,0.3571288585662842,3.875190019607544,3.3646624088287354
461,212564,212566,-0.006304234266281128,-0.08246343582868576,0.9016872048377991,2.8984642028808594,15.776667594909668,-6.202286720275879,-0.4949752390384674,1.5239237546920776,0.3209839463233948,0.4580916464328766,3.9429736137390137,3.2960147857666016
462,212574,212576,0.020048191770911217,-0.04463684558868408,0.9512670636177063,-23.346315383911133,33.31906509399414,-9.147629737854004,-0.4919753968715668,1.514924168586731,0.3119843900203705,0.15468306839466095,3.887080430984497,3.1551668643951416
463,212584,212586,0.010052599012851715,-0.006373427342623472,0.9581977128982544,-50.02676773071289,36.11515808105469,-11.214736938476562,-0.49797508120536804,1.529923439025879,0.31798410415649414,0.02019396238029003,3.8624746799468994,3.1877570152282715
464,212594,212596,-0.00036653922870755196,-0.011428670957684517,0.9361278414726257,-68.07015228271484,30.68710708618164,-12.538832664489746,-0.502474844455719,1.543422818183899,0.32848358154296875,-0.43540212512016296,3.218554735183716,3.0472476482391357
465,212604,212606,0.020597711205482483,-0.08944803476333618,0.869683563709259,-72.78558349609375,24.772554397583008,-12.9993896484375,-0.5039747953414917,1.5449227094650269,0.3059847056865692,-0.7377060651779175,2.704803943634033,2.964831590652466
466,212614,212616,0.03975273296236992,-0.022381922230124474,0.9761990308761597,-66.12310028076172,14.476885795593262,-11.963123321533203,-0.4964751601219177,1.5494225025177002,0.3224838674068451,-0.8321122527122498,1.943015217781067,2.933955430984497
467,212624,212626,0.03935043513774872,0.010228383354842663,1.0147184133529663,-59.766929626464844,3.061339855194092,-10.144752502441406,-0.4949752390384674,1.565921664237976,0.31798410415649414,-0.9866745471954346,1.4835671186447144,2.8434107303619385
468,212634,212636,0.008098756894469261,0.03540446236729622,1.080112099647522,-51.64523696899414,-9.234087944030762,-8.301525115966797,-0.5129743218421936,1.5599219799041748,0.3149842321872711,-0.8128623366355896,0.761508047580719,2.85799503326416
469,212644,212646,0.02611175738275051,-0.005387652665376663,1.01931893825531,-40.904415130615234,-17.92140007019043,-7.747546195983887,-0.49947500228881836,1.5524224042892456,0.32848358154296875,-0.6817961931228638,0.33828142285346985,2.812448024749756
470,212654,212656,0.05022811144590378,0.022902734577655792,1.0692260265350342,-26.178464889526367,-20.71246910095215,-9.87300968170166,-0.49947500228881836,1.5554221868515015,0.3134843111038208,-0.5112786889076233,0.0973893329501152,2.7592227458953857
471,212664,212666,0.08947505801916122,0.04251512885093689,1.0861836671829224,-11.830992698669434,-17.134647369384766,-12.090559959411621,-0.49947500228881836,1.5614218711853027,0.3224838674068451,-0.2585112750530243,-0.0715688094496727,2.702465534210205
472,212674,212676,0.04921495169401169,0.013490254990756512,1.0305249691009521,-10.28099536895752,-17.528329849243164,-12.449450492858887,-0.5009749531745911,1.5629218816757202,0.32698363065719604,-0.03408616781234741,-0.08097667247056961,2.616487503051758
473,212684,212686,0.031636662781238556,0.022755665704607964,0.9888976812362671,-14.014431953430176,-11.544814109802246,-13.311320304870605,-0.48897555470466614,1.565921664237976,0.3119843900203705,0.14273683726787567,-0.3726223409175873,2.4734816551208496
474,212694,212696,0.0270786564797163,0.09339985251426697,0.9631800651550293,-17.39795684814453,1.8675258159637451,-14.3363618850708,-0.502474844455719,1.5524224042892456,0.3134843111038208,0.19524666666984558,-0.6289660334587097,2.3072869777679443
475,212704,212706,0.038238734006881714,0.06380487233400345,1.055875539779663,-25.214462280273438,16.686635971069336,-16.43084144592285,-0.4934753179550171,1.5584220886230469,0.31048446893692017,0.034250736236572266,-0.8881583213806152,2.113485097885132
476,212714,212716,0.06610467284917831,-0.012656638398766518,0.979189932346344,-35.97663879394531,26.165456771850586,-16.30293846130371,-0.4964751601219177,1.5704214572906494,0.3164841830730438,-0.03490448743104935,-0.8589233756065369,1.9955188035964966
477,212724,212726,0.04284262657165527,0.03341450169682503,1.068078875541687,-39.04220199584961,21.552093505859375,-14.050165176391602,-0.502474844455719,1.5734213590621948,0.3134843111038208,-0.3316943943500519,-1.3956890106201172,1.7994463443756104
