,timestamp_start,timestamp_end,acc.x,acc.y,acc.z,gyro.x,gyro.y,gyro.z,mag.x,mag.y,mag.z,stabilizer.pitch,stabilizer.roll,stabilizer.yaw
0,594823,594824,0.0790313109755516,-0.0351988822221756,1.150083065032959,-6.205541133880615,71.82281494140625,8.129005432128906,-0.4859756827354431,1.5089244842529297,0.31798410415649414,-2.583326816558838,1.0601097345352173,3.2156786918640137
1,594833,594834,0.14679846167564392,-0.06577780097723007,1.1645182371139526,3.0485615730285645,35.68235397338867,10.248977661132812,-0.502474844455719,1.5254236459732056,0.30748462677001953,-2.9446475505828857,1.1705222129821777,3.3135039806365967
2,594843,594844,0.20672348141670227,0.0777350664138794,0.9460291266441345,-2.773045063018799,-24.847047805786133,11.12771224975586,-0.4964751601219177,1.5224238634109497,0.3224838674068451,-3.560488224029541,1.170872688293457,3.4180870056152344
3,594853,594854,0.17563264071941376,0.03499060124158859,0.9025734663009644,-22.058565139770508,-82.76343536376953,6.388515472412109,-0.4829758405685425,1.4939253330230713,0.3209839463233948,-3.2597975730895996,1.1508089303970337,3.531832695007324
4,594863,594864,0.201904296875,0.10880924016237259,0.8990999460220337,-16.576496124267578,-135.69483947753906,3.1917757987976074,-0.48147591948509216,1.4954252243041992,0.3014849126338959,-2.4403464794158936,0.8443499803543091,3.583641290664673
5,594873,594874,0.11519008129835129,0.07543885707855225,0.892986536026001,-6.096231460571289,-168.43618774414062,3.319669485092163,-0.4769761562347412,1.514924168586731,0.3029848337173462,-1.3579388856887817,0.6830374598503113,3.611457109451294
6,594883,594884,0.07335354387760162,-0.01123353373259306,0.8597632050514221,-1.7841358184814453,-173.3500213623047,3.1030774116516113,-0.4574771225452423,1.513424277305603,0.3044847846031189,-0.2599934935569763,0.5430520176887512,3.5981762409210205
7,594893,594894,0.05206187814474106,0.0904974639415741,0.9549666047096252,3.4417684078216553,-150.5703582763672,2.41691255569458,-0.44997748732566833,1.514924168586731,0.3059847056865692,1.8976627588272095,0.4976349174976349,3.6233558654785156
8,594903,594904,0.016639139503240585,-0.004591349977999926,0.9805455207824707,13.522398948669434,-108.58504486083984,-2.2593908309936523,-0.4184790551662445,1.5014249086380005,0.2924853563308716,3.070085287094116,0.5284441113471985,3.6319899559020996
9,594913,594914,0.07643811404705048,0.015003425069153309,0.9199682474136353,15.43496322631836,-54.45441818237305,-5.201136112213135,-0.43347832560539246,1.513424277305603,0.28948551416397095,4.506006240844727,0.7163034081459045,3.617074489593506
10,594923,594924,0.06338846683502197,-0.010126631706953049,0.8095702528953552,4.561091899871826,-6.131363868713379,-7.707960605621338,-0.4079796075820923,1.4879255294799805,0.2759861946105957,4.959812164306641,0.8876954317092896,3.557530641555786
11,594933,594934,0.07498830556869507,-0.025681236758828163,0.7886934280395508,-7.644659996032715,31.153039932250977,-9.27639102935791,-0.42447876930236816,1.47442626953125,0.277486115694046,5.100039958953857,0.8492330312728882,3.5012786388397217
12,594943,594944,0.0862719938158989,-0.00979368481785059,0.8047651648521423,-16.301055908203125,56.999900817871094,-11.169151306152344,-0.43197840452194214,1.4939253330230713,0.2759861946105957,4.745672225952148,0.7509484887123108,3.4261889457702637
13,594953,594954,0.06728266179561615,0.011752856895327568,0.8355933427810669,-20.53691864013672,68.77017974853516,-13.896663665771484,-0.44997748732566833,1.514924168586731,0.28498575091362,4.025285720825195,0.5182215571403503,3.34942364692688
14,594963,594964,0.06466511636972427,0.0204917062073946,0.8731710910797119,-14.455731391906738,66.4260025024414,-17.996423721313477,-0.45297732949256897,1.529923439025879,0.30898454785346985,3.555159091949463,0.34843891859054565,3.223583698272705
15,594973,594974,0.08214820921421051,0.033936578780412674,0.8710694313049316,-10.22986125946045,46.67739486694336,-21.646373748779297,-0.46197688579559326,1.526923656463623,0.29098543524742126,2.663086414337158,0.16992954909801483,3.061662197113037
16,594983,594984,0.04003629460930824,0.10906581580638885,0.7814408540725708,-12.323837280273438,17.44091033935547,-24.374347686767578,-0.46047696471214294,1.5194239616394043,0.29848507046699524,2.0364058017730713,0.01749086193740368,2.8755393028259277
17,594993,594994,0.04119139164686203,0.02644364908337593,0.8398017287254333,-11.984164237976074,-24.91339111328125,-25.061931610107422,-0.44997748732566833,1.4999250173568726,0.28798559308052063,2.081834316253662,-0.02604498900473118,2.614419460296631
18,595003,595004,0.06578736752271652,0.006467451807111502,0.863254725933075,-3.272656202316284,-61.017723083496094,-24.11263656616211,-0.44397780299186707,1.4969251155853271,0.28798559308052063,2.3404200077056885,-0.14405320584774017,2.3606717586517334
19,595013,595014,0.04291687533259392,-0.0016231483314186335,0.8607063293457031,5.406233787536621,-76.61213684082031,-24.408859252929688,-0.4394780099391937,1.504424810409546,0.2864856719970703,2.9212403297424316,-0.20388489961624146,2.118825674057007
20,595023,595024,0.12285372614860535,0.036862410604953766,0.8720825910568237,14.747042655944824,-61.135414123535156,-26.79871940612793,-0.4349782466888428,1.5059247016906738,0.29098543524742126,3.8594672679901123,-0.12353505194187164,1.8550916910171509
21,595033,595034,0.06090342625975609,0.018907511606812477,0.8951164484024048,10.494738578796387,-24.579063415527344,-30.034019470214844,-0.4394780099391937,1.5014249086380005,0.30748462677001953,4.388703346252441,-0.4263444244861603,1.7951964139938354
22,595043,595044,0.0431855283677578,-0.0016820661257952452,0.8836351633071899,-1.2221412658691406,8.748274803161621,-29.774667739868164,-0.4454777240753174,1.4954252243041992,0.2924853563308716,4.733095645904541,0.15988853573799133,1.3032128810882568
23,595053,595054,0.07481031119823456,-0.004545961041003466,0.9281188249588013,-9.885424613952637,41.047813415527344,-25.981853485107422,-0.43197840452194214,1.5089244842529297,0.27898603677749634,4.717161655426025,0.19904492795467377,1.0024131536483765
24,595063,595064,0.06680750846862793,-0.0029547642916440964,0.9349191188812256,-18.467214584350586,65.32759094238281,-19.631103515625,-0.4574771225452423,1.5224238634109497,0.2954852283000946,4.193330764770508,0.0902848020195961,0.7795124650001526
25,595073,595074,0.08405105024576187,0.031149227172136307,0.9811604022979736,-6.856832981109619,59.84369659423828,-16.09833526611328,-0.45297732949256897,1.526923656463623,0.28198590874671936,3.5369482040405273,-0.16677063703536987,0.6232963800430298
26,595083,595084,0.1096465066075325,0.0416891910135746,0.9926968216896057,14.34335994720459,39.82487106323242,-18.83163833618164,-0.4349782466888428,1.526923656463623,0.3029848337173462,2.9526960849761963,-0.2845286428928375,0.4561537206172943
27,595093,595094,0.1005355641245842,0.03997524827718735,1.0341300964355469,37.12436294555664,14.761468887329102,-23.929161071777344,-0.4544772803783417,1.5194239616394043,0.3014849126338959,2.7182836532592773,-0.08412318676710129,0.1928642839193344
28,595103,595104,0.16400286555290222,0.01726420409977436,1.0107216835021973,27.246702194213867,-5.515198230743408,-25.215957641601562,-0.455977201461792,1.5029247999191284,0.29998499155044556,2.521872043609619,0.20142723619937897,-0.012944008223712444
29,595113,595114,0.15060772001743317,0.06899379938840866,1.0828959941864014,0.8712591528892517,-13.115880012512207,-24.070613861083984,-0.448477566242218,1.5104244947433472,0.2954852283000946,2.647618055343628,0.6407561302185059,-0.3268062174320221
30,595123,595124,0.13092105090618134,0.039374712854623795,1.0505449771881104,-28.29215431213379,1.5948392152786255,-27.31429672241211,-0.448477566242218,1.4864256381988525,0.28948551416397095,2.7862541675567627,0.46698519587516785,-0.4292912185192108
31,595133,595134,0.14178158342838287,0.06584193557500839,1.064710259437561,-46.92106246948242,14.8668212890625,-29.312471389770508,-0.44397780299186707,1.5089244842529297,0.2969851493835449,2.810878276824951,0.25869739055633545,-0.6753924489021301
32,595143,595144,0.10755343735218048,0.05669063702225685,1.0877225399017334,-60.8486442565918,19.717243194580078,-27.718896865844727,-0.4544772803783417,1.5164241790771484,0.3044847846031189,2.6657984256744385,-0.14782120287418365,-0.967128574848175
33,595153,595154,0.13070347905158997,0.05492297187447548,1.1449528932571411,-70.25110626220703,15.377164840698242,-21.603229522705078,-0.4454777240753174,1.5254236459732056,0.28948551416397095,2.4240925312042236,-0.7046160101890564,-1.2488207817077637
34,595163,595164,0.13461065292358398,0.04431772604584694,1.1117593050003052,-68.0040283203125,9.154871940612793,-16.472991943359375,-0.44997748732566833,1.5359231233596802,0.3029848337173462,2.3055624961853027,-1.5062694549560547,-1.4283136129379272
35,595173,595174,0.14266322553157806,0.05173682048916817,1.1032546758651733,-51.3869743347168,2.5683751106262207,-12.27806568145752,-0.455977201461792,1.526923656463623,0.29998499155044556,2.155402660369873,-2.0852582454681396,-1.6560977697372437
36,595183,595184,0.13708274066448212,0.010845386423170567,0.9990537762641907,-11.162581443786621,-1.4288073778152466,-7.338687419891357,-0.45297732949256897,1.5239237546920776,0.29998499155044556,2.036680221557617,-2.6484625339508057,-1.7866486310958862
37,595193,595194,0.13017679750919342,0.047522496432065964,0.9806475043296814,39.2933464050293,-18.329265594482422,-2.494239091873169,-0.4394780099391937,1.5104244947433472,0.3014849126338959,2.113571882247925,-2.9043350219726562,-1.8838928937911987
38,595203,595204,0.11206027865409851,0.06720053404569626,1.013670563697815,95.73772430419922,-6.222985744476318,0.5254234075546265,-0.43047845363616943,1.5074245929718018,0.28948551416397095,2.302642583847046,-2.418790102005005,-2.0284526348114014
39,595213,595214,0.09217095375061035,0.02013537846505642,0.9816989302635193,125.3377456665039,38.65222930908203,-0.35592690110206604,-0.46197688579559326,1.5089244842529297,0.2939853072166443,2.5066545009613037,-1.6115657091140747,-2.050520658493042
40,595223,595224,0.09274239093065262,-0.017780866473913193,0.9650387167930603,123.59770202636719,74.45899200439453,-5.7213239669799805,-0.44997748732566833,1.5389230251312256,0.3119843900203705,1.9791127443313599,-0.23775988817214966,-2.0554566383361816
41,595233,595234,0.16807052493095398,-0.01114309299737215,0.9835053086280823,97.16413879394531,87.29309844970703,-7.906540870666504,-0.4634768068790436,1.5344232320785522,0.29848507046699524,1.548892855644226,0.6133700609207153,-1.9851057529449463
42,595243,595244,0.12075882405042648,-0.029843250289559364,0.9739347100257874,64.6458740234375,68.27251434326172,-8.939726829528809,-0.4769761562347412,1.529923439025879,0.31798410415649414,0.2098967581987381,1.9680205583572388,-2.031419038772583
43,595253,595254,0.09801023453474045,-0.0017775545129552484,1.0283360481262207,32.0268440246582,44.94827651977539,-9.82680606842041,-0.47997599840164185,1.5029247999191284,0.3119843900203705,-0.188250333070755,2.4317703247070312,-2.0667502880096436
44,595263,595264,0.1036161556839943,0.011081491596996784,1.0447776317596436,10.45158576965332,16.13136100769043,-14.980753898620605,-0.46197688579559326,1.4939253330230713,0.31798410415649414,-0.5946792364120483,2.607391357421875,-2.087662935256958
45,595273,595274,0.148357093334198,0.06011129170656204,1.0260874032974243,-3.855569839477539,-16.50255012512207,-22.167570114135742,-0.4739762842655182,1.4789260625839233,0.3209839463233948,-0.8141024708747864,2.744056463241577,-2.203916549682617
46,595283,595284,0.12452635914087296,0.01807550899684429,0.9896167516708374,-11.48617935180664,-36.52693557739258,-28.741456985473633,-0.4574771225452423,1.489425539970398,0.30748462677001953,-0.6898639798164368,2.7729198932647705,-2.4127871990203857
47,595293,595294,0.1548965573310852,0.14198358356952667,1.0062655210494995,-35.6882209777832,-57.55944061279297,-34.82876205444336,-0.4574771225452423,1.489425539970398,0.3164841830730438,-0.32461684942245483,2.6498584747314453,-2.691471576690674
48,595303,595304,0.10156016051769257,0.08701193332672119,0.962512731552124,-62.33195495605469,-58.1818733215332,-35.30105209350586,-0.4634768068790436,1.4924253225326538,0.31048446893692017,0.14306014776229858,2.334103584289551,-3.034205198287964
49,595313,595314,0.08576730638742447,0.04529020935297012,0.9337112307548523,-80.13143920898438,-45.70241165161133,-33.57442855834961,-0.4574771225452423,1.5074245929718018,0.31048446893692017,0.7677987813949585,1.5159828662872314,-3.384772300720215
50,595323,595324,0.03301560506224632,0.18872375786304474,0.9517285227775574,-76.27926635742188,-39.324851989746094,-30.054367065429688,-0.4589770436286926,1.5239237546920776,0.3239837884902954,1.0754685401916504,0.7536705732345581,-3.749058723449707
51,595333,595334,0.014270162209868431,0.037513162940740585,0.9990488290786743,-48.034400939941406,-31.380149841308594,-25.915645599365234,-0.44997748732566833,1.514924168586731,0.2939853072166443,1.4939820766448975,-0.07685993611812592,-4.0642242431640625
52,595343,595344,-0.03438476100564003,-0.01781916804611683,0.9976321458816528,-25.137351989746094,-24.24650001525879,-20.750978469848633,-0.45147740840911865,1.5164241790771484,0.32848358154296875,1.7952139377593994,-0.3742772340774536,-4.3606181144714355
53,595353,595354,0.04435565695166588,-0.06654845178127289,0.9336664080619812,-21.63028335571289,-15.951766014099121,-13.142082214355469,-0.44097793102264404,1.511924386024475,0.31798410415649414,2.0379443168640137,-0.6381439566612244,-4.594661712646484
54,595363,595364,0.07764370739459991,0.03911659121513367,0.9613913893699646,-11.157251358032227,-8.707971572875977,-7.609402179718018,-0.44247788190841675,1.5014249086380005,0.29848507046699524,2.224365472793579,-0.9383183121681213,-4.739701747894287
55,595373,595374,0.02609405480325222,-0.02265513502061367,0.9115561246871948,13.562573432922363,7.149463653564453,-4.8552350997924805,-0.43347832560539246,1.4864256381988525,0.3014849126338959,2.3582587242126465,-1.0268738269805908,-4.8339080810546875
56,595383,595384,0.06695932894945145,-0.024269109591841698,0.9271962642669678,40.638511657714844,23.53158187866211,-4.411571979522705,-0.4364781677722931,1.489425539970398,0.2864856719970703,2.1941850185394287,-0.901013970375061,-4.900463581085205
57,595393,595394,0.025328921154141426,0.02048473432660103,0.9283973574638367,58.465110778808594,38.53007888793945,-5.338446617126465,-0.4544772803783417,1.4954252243041992,0.29848507046699524,2.0471279621124268,-0.547753632068634,-4.951698303222656
58,595403,595404,0.12454669177532196,0.0809711366891861,0.91522616147995,62.437477111816406,37.72692108154297,-3.546111822128296,-0.46197688579559326,1.511924386024475,0.3209839463233948,1.497896671295166,0.19476033747196198,-5.021483898162842
59,595413,595414,0.07237860560417175,0.029171384871006012,0.8726215958595276,49.63037109375,28.532514572143555,-1.8626022338867188,-0.4544772803783417,1.5104244947433472,0.3134843111038208,1.1856968402862549,0.5380927920341492,-5.034848690032959
60,595423,595424,0.06154421716928482,-0.07810815423727036,0.8837151527404785,25.771162033081055,29.463834762573242,0.34432387351989746,-0.44247788190841675,1.489425539970398,0.30748462677001953,1.0222686529159546,1.2223098278045654,-5.0767083168029785
61,595433,595434,0.12415242195129395,0.008407250978052616,0.8812226057052612,-0.9253491759300232,36.77995681762695,2.2895901203155518,-0.45297732949256897,1.4849257469177246,0.3149842321872711,0.5896502733230591,1.3351552486419678,-5.045563697814941
62,595443,595444,0.13942940533161163,0.08123448491096497,0.8729832768440247,-17.234045028686523,34.28396987915039,0.22452619671821594,-0.4649767279624939,1.4999250173568726,0.3059847056865692,0.32626819610595703,1.308885931968689,-5.010542869567871
63,595453,595454,0.10450918227434158,-0.007540772669017315,0.9633828997612,-20.7617244720459,30.369125366210938,-1.51754891872406,-0.44997748732566833,1.5059247016906738,0.3119843900203705,0.14901819825172424,1.1287150382995605,-4.989821434020996
64,595463,595464,0.18452952802181244,0.08073273301124573,0.9715862274169922,-21.129047393798828,20.35715675354004,-1.5613713264465332,-0.46047696471214294,1.4924253225326538,0.3044847846031189,-0.12787021696567535,0.866717517375946,-4.991522789001465
65,595473,595474,0.10750256478786469,-0.00897817313671112,0.8887481689453125,-13.918286323547363,0.23888322710990906,1.3296966552734375,-0.4544772803783417,1.504424810409546,0.3044847846031189,-0.54547119140625,0.5930037498474121,-5.007528305053711
66,595483,595484,0.09900491684675217,0.026411397382616997,0.9597570300102234,-5.5378289222717285,-15.9447603225708,5.982450008392334,-0.455977201461792,1.511924386024475,0.31798410415649414,-0.4985736906528473,0.41601070761680603,-5.003686904907227
67,595493,595494,0.032793838530778885,-0.009571817703545094,0.8982436060905457,-1.401379108428955,-23.405075073242188,11.035150527954102,-0.46197688579559326,1.511924386024475,0.30898454785346985,-0.3317089080810547,0.3743797838687897,-4.956335067749023
68,595503,595504,0.08092476427555084,0.1226963996887207,0.9492411613464355,0.6274007558822632,-24.546037673950195,15.323095321655273,-0.4574771225452423,1.5104244947433472,0.30748462677001953,-0.09127943217754364,0.41262519359588623,-4.8605804443359375
69,595513,595514,0.09115498512983322,0.14139236509799957,1.0127298831939697,6.109126091003418,-15.420405387878418,19.516939163208008,-0.45297732949256897,1.529923439025879,0.3119843900203705,0.2560630440711975,0.48530253767967224,-4.7183637619018555
70,595523,595524,0.06713729351758957,0.083309106528759,1.0624957084655762,14.647534370422363,-4.905862331390381,23.93064308166504,-0.4649767279624939,1.526923656463623,0.3209839463233948,0.4720748960971832,0.4877140522003174,-4.54285192489624
71,595533,595534,0.07335458695888519,0.04494418203830719,1.0672945976257324,25.223190307617188,12.60426139831543,28.10842514038086,-0.46947652101516724,1.5224238634109497,0.3224838674068451,0.5164686441421509,0.5484730005264282,-4.324718475341797
72,595543,595544,0.07752107083797455,-0.027013136073946953,0.9601156711578369,24.9969425201416,37.90446472167969,30.16034507751465,-0.47097644209861755,1.5239237546920776,0.3119843900203705,0.3770991563796997,0.7808816432952881,-4.056159973144531
73,595553,595554,0.07021545618772507,0.0508466474711895,1.0380594730377197,11.126018524169922,52.853214263916016,31.11879539489746,-0.48147591948509216,1.543422818183899,0.3254837095737457,0.059979718178510666,1.047873854637146,-3.7568929195404053
74,595563,595564,0.048888545483350754,0.04828605055809021,1.054908275604248,9.708110809326172,39.15389633178711,32.53836441040039,-0.47997599840164185,1.5329233407974243,0.3149842321872711,-0.45971235632896423,1.188845157623291,-3.44335675239563
75,595573,595574,0.07843273133039474,-0.013675280846655369,0.9859522581100464,17.258586883544922,17.011886596679688,33.057403564453125,-0.47997599840164185,1.5389230251312256,0.3149842321872711,-0.7689211964607239,1.2675838470458984,-3.1107184886932373
76,595583,595584,0.042193569242954254,-0.02475295402109623,1.0621246099472046,22.730314254760742,3.319939374923706,31.285526275634766,-0.46947652101516724,1.5254236459732056,0.3314834237098694,-1.155463457107544,1.5892776250839233,-2.7586655616760254
77,595593,595594,0.0375666469335556,0.003387046279385686,1.0511575937271118,23.49907684326172,0.8866385817527771,28.789518356323242,-0.47997599840164185,1.5209239721298218,0.30898454785346985,-1.0677286386489868,1.7129042148590088,-2.4433963298797607
78,595603,595604,0.11782384663820267,-0.013667873106896877,1.0187501907348633,23.8745059967041,3.185638189315796,25.658658981323242,-0.4829758405685425,1.514924168586731,0.3059847056865692,-1.0623259544372559,1.9371362924575806,-2.1468963623046875
79,595613,595614,0.010116585530340672,-0.1151195839047432,1.0455937385559082,8.408201217651367,6.936968803405762,24.487857818603516,-0.48747560381889343,1.5194239616394043,0.3224838674068451,-1.0762001276016235,2.3019769191741943,-1.856557846069336
80,595623,595624,0.057255614548921585,-0.012752284295856953,1.0746736526489258,-6.160954475402832,5.303110599517822,26.011552810668945,-0.47247636318206787,1.5194239616394043,0.3164841830730438,-0.7927612066268921,2.2612335681915283,-1.6179137229919434
81,595633,595634,0.07425063848495483,0.019599834457039833,1.0781766176223755,-14.393275260925293,0.8597777485847473,24.11985969543457,-0.4679765999317169,1.514924168586731,0.31798410415649414,-0.9585694074630737,2.2491323947906494,-1.371975064277649
82,595643,595644,0.08328963071107864,0.05386257916688919,1.0159434080123901,-12.558501243591309,-13.588650703430176,18.56812858581543,-0.48147591948509216,1.5344232320785522,0.3134843111038208,-0.831765353679657,2.013324499130249,-1.125576138496399
83,595653,595654,0.08679983764886856,0.08841504156589508,1.103899598121643,3.662430763244629,-30.384883880615234,15.848512649536133,-0.46197688579559326,1.514924168586731,0.3149842321872711,-0.7261722683906555,1.860122561454773,-0.9243171811103821
84,595663,595664,0.10988852381706238,0.02768406644463539,1.044968605041504,14.936903953552246,-37.178001403808594,17.997081756591797,-0.47097644209861755,1.5179240703582764,0.3239837884902954,-0.49831804633140564,1.9259917736053467,-0.7506624460220337
85,595673,595674,0.07347054779529572,0.003110573161393404,1.0446770191192627,18.196969985961914,-38.91908645629883,20.660799026489258,-0.47247636318206787,1.5074245929718018,0.2954852283000946,-0.04587177559733391,2.191112518310547,-0.5433396697044373
86,595683,595684,0.06803695857524872,-0.10447145253419876,0.9944670796394348,18.827001571655273,-24.517894744873047,20.06639862060547,-0.4634768068790436,1.5314234495162964,0.31948402523994446,0.30391669273376465,2.297121524810791,-0.3856143653392792
87,595693,595694,0.037343043833971024,-0.05658971518278122,0.998600959777832,23.538896560668945,-7.824743270874023,20.50844955444336,-0.46047696471214294,1.5164241790771484,0.3014849126338959,0.6826196312904358,2.567650318145752,-0.1630648374557495
88,595703,595704,-0.004954928997904062,0.049599356949329376,0.9630191326141357,7.200260639190674,9.854277610778809,20.755495071411133,-0.47097644209861755,1.541922926902771,0.30898454785346985,0.6381716728210449,2.6070306301116943,-0.04382738843560219
89,595713,595714,0.023716336116194725,0.0392664298415184,1.0170989036560059,-15.13295841217041,25.297950744628906,21.458595275878906,-0.4739762842655182,1.529923439025879,0.3119843900203705,0.5371175408363342,2.524332284927368,0.10430064052343369
90,595723,595724,0.020992055535316467,0.016782479360699654,0.9950953722000122,-31.482818603515625,32.81510543823242,22.179853439331055,-0.48147591948509216,1.5344232320785522,0.30748462677001953,0.463959664106369,2.4539849758148193,0.3541050851345062
91,595733,595734,0.05307289585471153,0.005210453178733587,1.0023964643478394,-40.01469802856445,30.204042434692383,23.41731071472168,-0.46947652101516724,1.5464226007461548,0.30748462677001953,0.16332216560840607,2.24063777923584,0.5944043397903442
92,595743,595744,0.022250089794397354,0.027281319722533226,1.053328037261963,-38.34966278076172,21.12629508972168,24.80791473388672,-0.4829758405685425,1.5389230251312256,0.31798410415649414,-0.26045647263526917,1.7968008518218994,0.7925297617912292
93,595753,595754,0.08916802704334259,0.03857257962226868,1.0467778444290161,-30.978933334350586,12.503788948059082,24.890430450439453,-0.4844757616519928,1.5494225025177002,0.31048446893692017,-0.26973339915275574,1.5669450759887695,1.1284358501434326
94,595763,595764,0.03183712065219879,-0.03577006980776787,1.0849130153656006,-20.73761558532715,-0.9241207838058472,24.727243423461914,-0.4679765999317169,1.529923439025879,0.3209839463233948,-0.29295429587364197,1.1441402435302734,1.4001052379608154
95,595773,595774,-0.0010066787945106626,-0.00753293139860034,1.076608657836914,-7.532722473144531,-16.118837356567383,25.847707748413086,-0.4649767279624939,1.5389230251312256,0.3059847056865692,-0.4688412845134735,1.028778076171875,1.6301261186599731
96,595783,595784,0.030718468129634857,0.0007104441174305975,1.0782523155212402,9.214437484741211,-20.874061584472656,25.799701690673828,-0.46047696471214294,1.5404229164123535,0.3134843111038208,-0.2559612989425659,1.0352702140808105,1.929937720298767
97,595793,595794,0.0671406015753746,-0.03812849521636963,1.0212681293487549,23.454011917114258,-15.800152778625488,26.17841339111328,-0.4754762053489685,1.528423547744751,0.31948402523994446,-0.07615780830383301,1.078325629234314,2.1790668964385986
98,595803,595804,0.04285728558897972,-0.036549415439367294,1.1008884906768799,41.13676834106445,-0.5727671384811401,24.490644454956055,-0.47097644209861755,1.5239237546920776,0.30898454785346985,0.18714627623558044,1.3716020584106445,2.466855764389038
99,595813,595814,0.013199947774410248,0.020663682371377945,1.1137595176696777,56.43932342529297,20.80612564086914,18.536951065063477,-0.46197688579559326,1.5209239721298218,0.3029848337173462,0.22202524542808533,1.8478962182998657,2.733405828475952
100,595823,595824,0.041471537202596664,0.010786902159452438,1.1227203607559204,53.09587860107422,33.56193923950195,10.00367546081543,-0.4934753179550171,1.5254236459732056,0.3014849126338959,0.21467888355255127,2.2257895469665527,2.9459240436553955
101,595833,595834,0.04895692691206932,-0.05050027742981911,1.0302754640579224,34.94573974609375,35.02245330810547,2.156869649887085,-0.47247636318206787,1.5164241790771484,0.3224838674068451,-0.1133643239736557,2.8890044689178467,3.099862813949585
102,595843,595844,-0.019213417544960976,-0.040899891406297684,0.9796320796012878,7.018135070800781,30.082582473754883,-3.599987506866455,-0.4769761562347412,1.5179240703582764,0.3149842321872711,-0.3462808132171631,3.1577155590057373,3.1654555797576904
103,595853,595854,-0.032243210822343826,-0.004335114732384682,0.9852709770202637,-21.869773864746094,22.57931900024414,-6.626955032348633,-0.4769761562347412,1.5089244842529297,0.3059847056865692,-0.7445248365402222,3.347317695617676,3.1493935585021973
104,595863,595864,0.03713392838835716,0.014405043795704842,1.0090839862823486,-40.18397903442383,17.381418228149414,-10.82851791381836,-0.47997599840164185,1.5059247016906738,0.2969851493835449,-0.8168666362762451,3.2022974491119385,3.150026559829712
105,595873,595874,0.049952372908592224,0.01724662445485592,1.0146851539611816,-52.94750213623047,12.482994079589844,-13.284139633178711,-0.4859756827354431,1.5209239721298218,0.3059847056865692,-1.1554456949234009,2.720367670059204,3.0010204315185547
106,595883,595884,0.04388429597020149,0.04967531934380531,1.0624899864196777,-57.75896453857422,0.0972166359424591,-13.751753807067871,-0.47247636318206787,1.5104244947433472,0.3014849126338959,-1.1258753538131714,2.375417470932007,2.957733631134033
107,595893,595894,0.08927727490663528,0.04501193016767502,1.0532822608947754,-52.48353958129883,-9.169326782226562,-14.917184829711914,-0.48147591948509216,1.5344232320785522,0.30748462677001953,-1.279650092124939,1.570059895515442,2.744626522064209
108,595903,595904,0.07046055048704147,0.08520278334617615,1.0300272703170776,-45.909454345703125,-21.193151473999023,-16.332740783691406,-0.4739762842655182,1.526923656463623,0.30898454785346985,-0.9857328534126282,1.3227880001068115,2.7282350063323975
109,595913,595914,0.030797269195318222,0.07378721982240677,1.0006639957427979,-32.27733612060547,-28.696901321411133,-16.898574829101562,-0.4679765999317169,1.514924168586731,0.31798410415649414,-0.798194408416748,0.8700687289237976,2.5813112258911133
110,595923,595924,0.005358216818422079,0.024885719642043114,1.0066072940826416,-16.690322875976562,-26.240140914916992,-15.037027359008789,-0.4589770436286926,1.5179240703582764,0.3119843900203705,-0.40029197931289673,0.4015074670314789,2.4208004474639893
111,595933,595934,0.06323541700839996,0.030419884249567986,1.0039280652999878,-8.05838394165039,-14.688291549682617,-11.055867195129395,-0.46047696471214294,1.5164241790771484,0.3044847846031189,-0.09453123062849045,0.3295949399471283,2.3007137775421143
112,595943,595944,0.06953459978103638,0.025251399725675583,1.000406265258789,-9.341964721679688,2.1160941123962402,-6.740070819854736,-0.46047696471214294,1.5164241790771484,0.3044847846031189,0.05008707568049431,0.14125344157218933,2.1470494270324707
113,595953,595954,0.030297089368104935,0.05993200093507767,1.0548981428146362,-16.549163818359375,22.28217887878418,-2.941094398498535,-0.46047696471214294,1.5164241790771484,0.3044847846031189,0.14549508690834045,-0.03237137943506241,2.0556013584136963
114,595963,595964,0.09065982699394226,0.07071617245674133,1.0178580284118652,-26.25482749938965,44.18012237548828,1.6910649538040161,-0.46047696471214294,1.5164241790771484,0.3044847846031189,-0.1507374495267868,-0.17650805413722992,1.994266390800476
115,595973,595974,0.05518656224012375,-0.024447636678814888,0.9855934381484985,-32.232704162597656,57.29948425292969,8.058648109436035,-0.47997599840164185,1.5359231233596802,0.30898454785346985,-0.6403738260269165,-0.398030549287796,1.9810676574707031
116,595983,595984,0.11758226901292801,-0.1350785493850708,1.0248298645019531,-32.97287368774414,67.24993133544922,14.112737655639648,-0.48747560381889343,1.5344232320785522,0.3014849126338959,-1.1553566455841064,-0.7211114764213562,2.031764507293701
117,595993,595994,0.022991642355918884,-0.12213198095560074,1.0234832763671875,-23.146984100341797,70.54652404785156,20.801733016967773,-0.4964751601219177,1.543422818183899,0.30748462677001953,-1.775281310081482,-0.9370789527893066,2.167311429977417
118,596003,596004,0.042854439467191696,0.05382949486374855,1.089835286140442,-4.67077112197876,68.0689697265625,24.419918060302734,-0.49797508120536804,1.5539222955703735,0.3209839463233948,-2.1218419075012207,-1.233655333518982,2.3404581546783447
119,596013,596014,0.09729206562042236,-0.028725458309054375,1.0760880708694458,14.668041229248047,63.36532211303711,25.00554847717285,-0.49797508120536804,1.5389230251312256,0.30898454785346985,-3.1644630432128906,-1.381598711013794,2.5538203716278076
120,596023,596024,0.10360438376665115,0.050623904913663864,1.063624620437622,18.846189498901367,37.37936019897461,24.767881393432617,-0.4964751601219177,1.5344232320785522,0.31948402523994446,-3.4192888736724854,-1.2071539163589478,2.790553331375122
121,596033,596034,0.07413890212774277,0.06520019471645355,1.1153972148895264,15.794928550720215,-0.22333231568336487,25.214448928833008,-0.502474844455719,1.5374231338500977,0.3224838674068451,-3.9659996032714844,-1.0537636280059814,3.016165018081665
122,596043,596044,0.06471128016710281,0.07565584778785706,1.0916343927383423,28.245752334594727,-30.190593719482422,24.700664520263672,-0.4949752390384674,1.5179240703582764,0.3119843900203705,-4.054879665374756,-0.8669642806053162,3.26924729347229
123,596053,596054,0.10921233147382736,-0.00350472261197865,1.0728200674057007,34.12244415283203,-41.99626159667969,23.566661834716797,-0.49947500228881836,1.5164241790771484,0.3044847846031189,-3.6985292434692383,-0.44643235206604004,3.571631669998169
124,596063,596064,0.1411282867193222,-0.011439117603003979,0.9870244860649109,29.060592651367188,-39.345008850097656,19.643856048583984,-0.4949752390384674,1.5029247999191284,0.30898454785346985,-3.3878839015960693,-0.20612157881259918,3.7807891368865967
125,596073,596074,0.058716826140880585,0.1267451047897339,1.0056748390197754,33.9073486328125,-23.807937622070312,13.991418838500977,-0.4859756827354431,1.5179240703582764,0.3119843900203705,-2.9911913871765137,-0.0005043735145591199,3.940380811691284
126,596083,596084,0.08356545120477676,0.12385061383247375,1.0405023097991943,39.15517807006836,4.6651930809021,3.6256473064422607,-0.4754762053489685,1.5014249086380005,0.3134843111038208,-2.7440736293792725,0.38620951771736145,4.136687755584717
127,596093,596094,0.17061085999011993,9.025234612636268e-05,1.0534249544143677,34.32849884033203,15.918014526367188,-6.334043025970459,-0.4769761562347412,1.5059247016906738,0.3119843900203705,-2.7230710983276367,0.7144484519958496,4.204349517822266
128,596103,596104,0.060439031571149826,-0.08928905427455902,0.9954911470413208,19.952587127685547,22.080257415771484,-16.79462432861328,-0.4919753968715668,1.5059247016906738,0.3059847056865692,-3.042067527770996,1.0669666528701782,4.1999053955078125
129,596113,596114,0.1134316548705101,-0.041915684938430786,0.9392008781433105,-2.7743518352508545,18.09906768798828,-23.991069793701172,-0.4919753968715668,1.4879255294799805,0.3059847056865692,-3.0485663414001465,1.2656261920928955,4.024914264678955
130,596123,596124,0.14712756872177124,0.07685157656669617,0.9782487154006958,-30.471302032470703,-2.3737967014312744,-24.624948501586914,-0.4949752390384674,1.4999250173568726,0.3149842321872711,-3.4554131031036377,1.2605726718902588,3.809157133102417
131,596133,596134,0.09819909930229187,0.04515470564365387,0.9907721281051636,-52.792213439941406,-24.328739166259766,-23.08515167236328,-0.4859756827354431,1.4909254312515259,0.3059847056865692,-3.283357858657837,0.9636479616165161,3.4952385425567627
132,596143,596144,0.06527603417634964,-0.015188808552920818,0.9307718873023987,-52.05788803100586,-41.05781555175781,-23.9805850982666,-0.5054747462272644,1.5074245929718018,0.28948551416397095,-3.240187406539917,0.35195910930633545,3.19921612739563
133,596153,596154,0.07178772985935211,-0.01280180923640728,0.9932485818862915,-37.63506317138672,-56.405738830566406,-23.69972801208496,-0.48147591948509216,1.5224238634109497,0.3134843111038208,-2.69403338432312,-0.027810940518975258,3.0392329692840576
134,596163,596164,0.10582113265991211,0.05519549921154976,0.996039867401123,-20.01778221130371,-61.909114837646484,-23.115541458129883,-0.4844757616519928,1.5104244947433472,0.30748462677001953,-2.037687301635742,-0.5641882419586182,2.7416844367980957
135,596173,596174,0.05714590102434158,0.014190999791026115,0.9678089022636414,4.54892635345459,-53.155189514160156,-22.216535568237305,-0.4769761562347412,1.5209239721298218,0.3149842321872711,-1.7587214708328247,-0.6684385538101196,2.6357805728912354
136,596183,596184,0.07276302576065063,-0.08017895370721817,0.9923681616783142,22.550487518310547,-29.69985008239746,-23.6702823638916,-0.48897555470466614,1.5179240703582764,0.3119843900203705,-1.197747826576233,-0.6188470721244812,2.468891143798828
137,596193,596194,0.040517210960388184,-0.0028102563228458166,0.9644324779510498,35.602508544921875,-7.251272678375244,-26.58431053161621,-0.4829758405685425,1.4999250173568726,0.3149842321872711,-0.770240843296051,-0.4675392210483551,2.229816436767578
138,596203,596204,0.024716593325138092,0.038506343960762024,0.9234291315078735,35.944759368896484,13.748517990112305,-30.136445999145508,-0.46947652101516724,1.5074245929718018,0.3134843111038208,-0.6411697268486023,-0.15335670113563538,1.9779014587402344
139,596213,596214,0.036697253584861755,0.03781835362315178,0.9077972769737244,34.23367691040039,28.854156494140625,-31.74687385559082,-0.47997599840164185,1.5059247016906738,0.30898454785346985,-0.8580095171928406,0.3333068788051605,1.7677714824676514
140,596223,596224,0.03297841548919678,0.009700372815132141,0.8874074220657349,25.81890296936035,36.2402458190918,-30.548965454101562,-0.4844757616519928,1.5104244947433472,0.30748462677001953,-1.049033284187317,0.579369306564331,1.409970998764038
141,596233,596234,0.03984347730875015,-0.0004640993138309568,0.8628378510475159,13.611905097961426,30.15331268310547,-29.150358200073242,-0.48147591948509216,1.5104244947433472,0.31948402523994446,-1.3874870538711548,0.8548750281333923,1.098694920539856
142,596243,596244,0.05181974172592163,0.024741673842072487,0.9075340628623962,-3.8273375034332275,18.396726608276367,-27.04020118713379,-0.4844757616519928,1.504424810409546,0.30748462677001953,-1.7412487268447876,1.0107296705245972,0.8043611645698547
143,596253,596254,0.06273453682661057,0.04740786924958229,0.9461005926132202,-18.88234519958496,4.072068691253662,-23.839380264282227,-0.47997599840164185,1.4999250173568726,0.3059847056865692,-1.9848121404647827,0.9677848219871521,0.5109732747077942
144,596263,596264,-0.011382753029465675,0.034071121364831924,0.8756775259971619,-29.04063606262207,-8.470124244689941,-19.652761459350586,-0.48897555470466614,1.4999250173568726,0.3059847056865692,-1.9241886138916016,0.8072603344917297,0.2421518862247467
145,596273,596274,-0.11126558482646942,-0.007884474471211433,0.9696119427680969,-27.94304084777832,-22.489547729492188,-17.158132553100586,-0.46947652101516724,1.4924253225326538,0.3044847846031189,-1.9253226518630981,0.6173497438430786,0.06430191546678543
146,596283,596284,0.0022756329271942377,0.006309259217232466,0.9360740184783936,-22.652727127075195,-29.30904769897461,-15.395691871643066,-0.47097644209861755,1.4909254312515259,0.30898454785346985,-1.7209770679473877,0.12877841293811798,-0.18600435554981232
147,596293,596294,0.04818665236234665,0.06710676103830338,0.9032637476921082,-18.224382400512695,-28.875019073486328,-14.644425392150879,-0.4664766788482666,1.5104244947433472,0.3044847846031189,-1.311109185218811,0.007914377376437187,-0.3175337016582489
148,596303,596304,0.013858395628631115,0.15289615094661713,1.0013492107391357,-19.568126678466797,-21.840702056884766,-13.514741897583008,-0.4844757616519928,1.504424810409546,0.3164841830730438,-0.8204405307769775,-0.33472704887390137,-0.5265767574310303
149,596313,596314,0.03344463184475899,0.12813271582126617,0.9972097277641296,-17.77387809753418,-13.445576667785645,-11.759567260742188,-0.47247636318206787,1.5014249086380005,0.3164841830730438,-0.7757530212402344,-0.2345607727766037,-0.5584042072296143
150,596323,596324,0.06007998809218407,0.10266732424497604,0.9507553577423096,-14.292908668518066,-5.392387866973877,-10.378918647766113,-0.47097644209861755,1.514924168586731,0.30898454785346985,-0.6519273519515991,-0.5652021765708923,-0.7167825698852539
151,596333,596334,0.04891818016767502,0.083759605884552,0.9697274565696716,-11.960089683532715,6.266294479370117,-9.496874809265137,-0.48147591948509216,1.5104244947433472,0.31048446893692017,-0.5768061876296997,-0.6901647448539734,-0.8146867156028748
152,596343,596344,0.04866174980998039,0.05395888537168503,0.9640142917633057,0.9756107330322266,7.834067344665527,-9.059294700622559,-0.4844757616519928,1.5254236459732056,0.3134843111038208,-0.6814928650856018,-0.9119731187820435,-0.922458291053772
153,596353,596354,0.05105190351605415,0.04100709408521652,0.9855977296829224,15.844149589538574,9.01530647277832,-7.368252277374268,-0.47997599840164185,1.5209239721298218,0.3149842321872711,-0.6328203082084656,-1.0252842903137207,-1.049561858177185
154,596363,596364,0.033084187656641006,-0.007445852737873793,0.9946585893630981,26.9244384765625,7.1726226806640625,-6.570446491241455,-0.47247636318206787,1.5164241790771484,0.3044847846031189,-0.6054201126098633,-0.8257865905761719,-1.1289138793945312
155,596373,596374,0.003229926573112607,-0.015281379222869873,0.9436837434768677,32.38197326660156,5.600553512573242,-6.477166652679443,-0.4829758405685425,1.526923656463623,0.29998499155044556,-0.5614601373672485,-0.4453865885734558,-1.1883834600448608
156,596383,596384,-0.05920793116092682,-0.10762739926576614,0.9955035448074341,30.267423629760742,6.066740989685059,-6.588747978210449,-0.48747560381889343,1.513424277305603,0.31048446893692017,-0.5731996297836304,-0.09838339686393738,-1.2562205791473389
157,596393,596394,-0.0050547425635159016,-0.1268390566110611,0.9213054180145264,17.227706909179688,7.7773261070251465,-6.567249774932861,-0.4859756827354431,1.5179240703582764,0.31798410415649414,-0.5283652544021606,0.08953429758548737,-1.3619669675827026
158,596403,596404,0.010233561508357525,0.003622316522523761,0.9327521920204163,-1.5532819032669067,1.3258103132247925,-6.43555212020874,-0.4934753179550171,1.5314234495162964,0.3134843111038208,-0.6566935777664185,0.3851705491542816,-1.4087797403335571
159,596413,596414,0.08125082403421402,0.16929912567138672,0.9503306150436401,-21.100284576416016,-6.031697750091553,-4.869055271148682,-0.49797508120536804,1.526923656463623,0.3029848337173462,-0.6965370178222656,0.3837457299232483,-1.4799200296401978
160,596423,596424,0.011056819930672646,-0.08973737806081772,0.9459236264228821,-36.10557556152344,-11.574414253234863,-3.750157356262207,-0.48147591948509216,1.5314234495162964,0.31048446893692017,-0.6072306036949158,0.06731011718511581,-1.560257077217102
161,596433,596434,-0.0014102061977609992,0.0029440668877214193,1.0695626735687256,-36.277339935302734,-13.619107246398926,-0.546926736831665,-0.4859756827354431,1.526923656463623,0.32998350262641907,-0.4968145787715912,-0.42368030548095703,-1.622391700744629
162,596443,596444,-0.025736423209309578,0.02210792526602745,1.0254970788955688,-26.5052547454834,-10.57810115814209,2.180837869644165,-0.48147591948509216,1.5374231338500977,0.30748462677001953,-0.20259757339954376,-0.6599516868591309,-1.6484287977218628
163,596453,596454,0.0049013542011380196,0.063432976603508,1.0334582328796387,-10.794232368469238,-4.757270336151123,5.479197025299072,-0.4844757616519928,1.5404229164123535,0.31048446893692017,-0.10083252191543579,-0.8499778509140015,-1.6226361989974976
164,596463,596464,0.020237373188138008,0.05804337561130524,1.028326153755188,5.02953577041626,6.985562801361084,8.175212860107422,-0.48897555470466614,1.5479226112365723,0.31798410415649414,0.05651254206895828,-1.088604211807251,-1.595407247543335
165,596473,596474,0.07132948935031891,0.012446106411516666,1.043150782585144,19.261442184448242,21.068328857421875,9.475354194641113,-0.4829758405685425,1.5329233407974243,0.3119843900203705,-0.03853790462017059,-1.0580830574035645,-1.5092709064483643
166,596483,596484,0.10445023328065872,-0.0296180360019207,1.0294564962387085,26.820444107055664,35.18508529663086,9.393014907836914,-0.4739762842655182,1.5449227094650269,0.3209839463233948,-0.21432046592235565,-0.7258998155593872,-1.4136404991149902
167,596493,596494,0.10895237326622009,-0.013489807955920696,1.042594313621521,25.408992767333984,44.66000747680664,8.577012062072754,-0.4949752390384674,1.5359231233596802,0.3119843900203705,-0.4794579744338989,-0.6112802028656006,-1.3331094980239868
168,596503,596504,0.05771883577108383,0.020803658291697502,1.0385591983795166,18.702022552490234,46.58187484741211,6.413166522979736,-0.502474844455719,1.5374231338500977,0.31948402523994446,-1.12302827835083,-0.19903616607189178,-1.2014036178588867
169,596513,596514,0.0318991094827652,-0.004151695873588324,1.0160540342330933,11.522040367126465,38.834716796875,2.7067713737487793,-0.502474844455719,1.543422818183899,0.32848358154296875,-1.4468564987182617,0.04119614511728287,-1.1551146507263184
170,596523,596524,0.042096998542547226,0.019958587363362312,1.052837610244751,-2.4963996410369873,20.461477279663086,-0.4820858836174011,-0.4919753968715668,1.5359231233596802,0.33598318696022034,-1.895448088645935,0.08267538249492645,-1.1140047311782837
171,596533,596534,0.11269726604223251,0.11996815353631973,1.0609546899795532,-16.529626846313477,5.190342426300049,-1.3427107334136963,-0.4964751601219177,1.5464226007461548,0.3224838674068451,-1.8594168424606323,0.06427809596061707,-1.163184404373169
172,596543,596544,0.09074345231056213,-0.015129475854337215,0.9857466220855713,-25.12234878540039,-6.7965922355651855,-2.195666551589966,-0.4844757616519928,1.5374231338500977,0.3164841830730438,-1.7944352626800537,-0.17832836508750916,-1.209773302078247
173,596553,596554,0.06599265336990356,0.10465791076421738,1.0143508911132812,-23.170495986938477,-7.697778701782227,-2.694709539413452,-0.4949752390384674,1.5329233407974243,0.3239837884902954,-1.9481130838394165,-0.5697750449180603,-1.2114759683609009
174,596563,596564,0.06835342943668365,0.15406161546707153,1.0494153499603271,-14.811290740966797,-5.693942070007324,-2.1308045387268066,-0.49947500228881836,1.528423547744751,0.3224838674068451,-1.7645386457443237,-0.5944194793701172,-1.2310184240341187
175,596573,596574,0.026952091604471207,0.09832746535539627,1.1197850704193115,-1.079167127609253,-6.230875015258789,-1.5452131032943726,-0.48747560381889343,1.5404229164123535,0.3164841830730438,-1.6177655458450317,-0.7973989844322205,-1.2692593336105347
176,596583,596584,0.019879374653100967,0.07963348180055618,1.0257654190063477,10.458070755004883,-3.4264190196990967,0.3280581533908844,-0.49047547578811646,1.5344232320785522,0.3314834237098694,-1.6139106750488281,-0.6443148851394653,-1.2560536861419678
177,596593,596594,0.02591232769191265,0.10905368626117706,1.0023397207260132,19.300670623779297,-1.1334890127182007,2.025446653366089,-0.4964751601219177,1.5374231338500977,0.3044847846031189,-1.498414158821106,-0.5919619202613831,-1.2713375091552734
178,596603,596604,0.012614930979907513,0.00575657282024622,0.993584394454956,19.718189239501953,0.31480658054351807,2.8231699466705322,-0.502474844455719,1.543422818183899,0.33748310804367065,-1.5651285648345947,-0.31456202268600464,-1.229063630104065
179,596613,596614,0.01720774732530117,0.012602997943758965,1.060587763786316,9.53168773651123,2.1590888500213623,3.003624439239502,-0.48897555470466614,1.5509223937988281,0.3209839463233948,-1.5817745923995972,-0.08958353102207184,-1.1974159479141235
180,596623,596624,0.04021983593702316,-0.12019509822130203,0.9598543047904968,-6.580219268798828,3.619100570678711,3.2262096405029297,-0.49797508120536804,1.541922926902771,0.3209839463233948,-1.5528364181518555,-0.06991719454526901,-1.1889994144439697
181,596633,596634,0.03152948245406151,0.0007607139996252954,1.061463475227356,-18.14811897277832,4.500094413757324,3.15254282951355,-0.49947500228881836,1.5374231338500977,0.3224838674068451,-1.553002119064331,-0.15855948626995087,-1.171563744544983
182,596643,596644,0.026871951296925545,0.017439983785152435,1.009045124053955,-24.477951049804688,10.291284561157227,2.559253692626953,-0.4964751601219177,1.5494225025177002,0.32848358154296875,-1.4984030723571777,-0.4447011351585388,-1.1689867973327637
183,596653,596654,0.06918509304523468,-0.026819895952939987,1.016015648841858,-19.263322830200195,16.935649871826172,0.09699741005897522,-0.49797508120536804,1.5599219799041748,0.31798410415649414,-1.3888171911239624,-0.6951652765274048,-1.1726999282836914
184,596663,596664,0.05142759531736374,0.05398620292544365,1.1193047761917114,-12.78239631652832,28.665897369384766,-5.72952938079834,-0.49947500228881836,1.543422818183899,0.32848358154296875,-1.7462036609649658,-0.8916946053504944,-1.1247475147247314
185,596673,596674,0.03416772931814194,0.09257183969020844,1.0129669904708862,-12.824963569641113,45.9316291809082,-10.440634727478027,-0.4964751601219177,1.5494225025177002,0.3404829800128937,-1.8504512310028076,-1.0444902181625366,-1.1931525468826294
186,596683,596684,0.07667224109172821,0.18180538713932037,1.0501903295516968,-18.7287540435791,54.10072326660156,-11.900390625,-0.5054747462272644,1.543422818183899,0.3404829800128937,-2.3572750091552734,-1.0414780378341675,-1.253328800201416
187,596693,596694,0.1240309327840805,0.2042054533958435,1.1859594583511353,-31.954137802124023,55.410160064697266,-8.496001243591309,-0.5069746375083923,1.5569220781326294,0.32698363065719604,-2.883277177810669,-1.2756123542785645,-1.39174485206604
188,596703,596704,0.1588178128004074,0.17549479007720947,1.2073123455047607,-36.89767837524414,44.663108825683594,-0.06726133823394775,-0.5009749531745911,1.5629218816757202,0.3209839463233948,-3.577008008956909,-1.4893139600753784,-1.4703799486160278
189,596713,596714,0.10187960416078568,0.04381944239139557,1.1903070211410522,-28.931385040283203,10.183605194091797,11.157719612121582,-0.5159741640090942,1.5569220781326294,0.32998350262641907,-3.769090175628662,-2.0868964195251465,-1.618948221206665
190,596723,596724,0.12035468965768814,0.014338850043714046,1.2767374515533447,5.852382659912109,-15.817429542541504,20.635560989379883,-0.5174741148948669,1.5524224042892456,0.33448326587677,-3.960420846939087,-2.3427820205688477,-1.535709261894226
191,596733,596734,0.06956397742033005,0.06330213695764542,1.2862696647644043,54.43129348754883,-18.649538040161133,26.99087905883789,-0.5114744305610657,1.5614218711853027,0.3164841830730438,-3.7246241569519043,-2.1918911933898926,-1.3338898420333862
192,596743,596744,0.10667943209409714,-0.007934760302305222,1.143066167831421,88.77595520019531,1.3050905466079712,26.356168746948242,-0.5069746375083923,1.5539222955703735,0.3119843900203705,-3.582613706588745,-1.745949387550354,-1.051613211631775
193,596753,596754,0.051380544900894165,-0.018069647252559662,1.1751383543014526,91.83206939697266,13.119154930114746,23.249523162841797,-0.5114744305610657,1.543422818183899,0.3254837095737457,-3.626375198364258,-0.7896265983581543,-0.7084634900093079
194,596763,596764,0.11653932183980942,-0.023999616503715515,1.0963730812072754,77.62677764892578,16.90496253967285,24.759309768676758,-0.5129743218421936,1.5089244842529297,0.31798410415649414,-3.797356128692627,0.02595018409192562,-0.49262234568595886
195,596773,596774,0.08564069867134094,-0.05926685035228729,1.0474885702133179,46.475223541259766,4.267775535583496,22.07048225402832,-0.5069746375083923,1.5059247016906738,0.32698363065719604,-4.1162848472595215,1.0756531953811646,-0.1375814974308014
196,596783,596784,0.07819563895463943,-0.031491655856370926,1.0404592752456665,14.89000129699707,-18.61790657043457,20.022499084472656,-0.4964751601219177,1.498425006866455,0.31948402523994446,-3.913928270339966,1.299208641052246,-0.11266642063856125
197,596793,596794,0.12086024135351181,0.029877878725528717,1.0340689420700073,-13.019304275512695,-38.42710876464844,17.037078857421875,-0.49047547578811646,1.4924253225326538,0.3224838674068451,-3.8563804626464844,1.6575369834899902,0.14157064259052277
198,596803,596804,0.1301717311143875,-0.019615719094872475,0.9376382231712341,-45.822147369384766,-46.9166145324707,13.910014152526855,-0.4919753968715668,1.4969251155853271,0.3119843900203705,-3.450458288192749,1.4747463464736938,0.23744052648544312
199,596813,596814,0.1101185604929924,0.1352819949388504,1.0133392810821533,-67.27537536621094,-40.63334274291992,8.629361152648926,-0.4859756827354431,1.4939253330230713,0.3029848337173462,-2.944905996322632,0.8619300723075867,0.2547401189804077
200,596823,596824,0.11110232770442963,0.07960409671068192,0.9564350247383118,-70.92194366455078,-33.257972717285156,5.426522254943848,-0.47997599840164185,1.5059247016906738,0.30898454785346985,-2.715654134750366,0.22451160848140717,0.354641854763031
201,596833,596834,0.1392303854227066,0.025097839534282684,0.996891438961029,-61.61772155761719,-23.443069458007812,2.9608027935028076,-0.4964751601219177,1.5194239616394043,0.3134843111038208,-2.603963851928711,-0.25199419260025024,0.5273361206054688
202,596843,596844,0.09757892787456512,0.06670582294464111,1.023960828781128,-44.49103927612305,0.3944789469242096,2.64756441116333,-0.4829758405685425,1.5179240703582764,0.3149842321872711,-2.196202278137207,-1.1029261350631714,0.4770668148994446
203,596853,596854,0.05503733828663826,0.036360688507556915,0.9837216138839722,-11.985426902770996,13.071109771728516,4.608236789703369,-0.4949752390384674,1.526923656463623,0.30898454785346985,-2.2772469520568848,-1.4917807579040527,0.5561603903770447
204,596863,596864,0.07291176915168762,0.11701943725347519,1.0273319482803345,14.793740272521973,23.473190307617188,1.577028512954712,-0.4859756827354431,1.511924386024475,0.3059847056865692,-2.59201979637146,-1.6212400197982788,0.6556795239448547
205,596873,596874,0.1055474728345871,0.023899972438812256,1.0433921813964844,45.955501556396484,21.313926696777344,-1.0961116552352905,-0.48897555470466614,1.5089244842529297,0.32698363065719604,-2.850484848022461,-1.4891430139541626,0.7092744708061218
206,596883,596884,0.07237403094768524,0.022319655865430832,1.0403152704238892,67.0929946899414,8.316973686218262,-1.591306209564209,-0.48747560381889343,1.5074245929718018,0.3014849126338959,-3.1125621795654297,-1.0154945850372314,0.7453852891921997
207,596893,596894,0.04507328197360039,0.02045079693198204,0.9626011848449707,65.79662322998047,-9.380387306213379,-1.4886138439178467,-0.49047547578811646,1.504424810409546,0.31048446893692017,-3.3833398818969727,-0.38258451223373413,0.752450704574585
208,596903,596904,0.04920637980103493,0.017711535096168518,0.9711496829986572,54.78044128417969,-26.43867301940918,-0.24419714510440826,-0.48897555470466614,1.4969251155853271,0.3209839463233948,-3.030484437942505,0.4258042275905609,0.7502718567848206
209,596913,596914,0.0904984250664711,0.012854651547968388,0.9672426581382751,31.553300857543945,-44.587730407714844,3.7414934635162354,-0.4769761562347412,1.4849257469177246,0.3119843900203705,-2.8260366916656494,0.6529602408409119,0.6053911447525024
210,596923,596924,0.04909764975309372,0.017992384731769562,0.9515524506568909,12.616156578063965,-51.93748474121094,5.104127883911133,-0.46047696471214294,1.4714263677597046,0.3164841830730438,-2.6083593368530273,1.0493643283843994,0.6406724452972412
211,596933,596934,0.07111340761184692,0.04034356027841568,0.9383817315101624,8.256478309631348,-50.92268371582031,3.1282105445861816,-0.4769761562347412,1.4639267921447754,0.31798410415649414,-1.9355937242507935,1.2669124603271484,0.6820552945137024
212,596943,596944,0.06532718241214752,-0.004334464203566313,0.9413453340530396,10.612997055053711,-29.05600357055664,2.272218942642212,-0.46947652101516724,1.4654266834259033,0.31048446893692017,-1.807443380355835,1.436683177947998,0.752689778804779
213,596953,596954,0.08123103529214859,-0.072572261095047,0.9724451303482056,9.33565902709961,9.687633514404297,-1.6485778093338013,-0.48147591948509216,1.4684265851974487,0.30748462677001953,-1.265723466873169,1.4172067642211914,0.7262161374092102
214,596963,596964,-0.03739359602332115,-0.10384280234575272,0.9757360816001892,4.096704006195068,35.327884674072266,-5.219054222106934,-0.47997599840164185,1.4879255294799805,0.30898454785346985,-1.4670381546020508,1.3909969329833984,0.6855102777481079
215,596973,596974,-0.05387143790721893,-0.06705455482006073,0.8891468048095703,8.860371589660645,32.375980377197266,-9.880120277404785,-0.49797508120536804,1.5239237546920776,0.30898454785346985,-1.8454126119613647,1.5090103149414062,0.6661525368690491
216,596983,596984,-0.004300790373235941,0.06308092176914215,0.9159398674964905,23.79523277282715,13.735503196716309,-15.8558349609375,-0.48747560381889343,1.498425006866455,0.3134843111038208,-2.114912986755371,1.584338903427124,0.6068346500396729
217,596993,596994,0.059634000062942505,0.06354779750108719,0.9041202664375305,38.29234313964844,-18.346105575561523,-21.906631469726562,-0.47847607731819153,1.4954252243041992,0.30748462677001953,-2.1552207469940186,1.942009449005127,0.5340921878814697
218,597003,597004,-0.03108810819685459,0.0038472400046885014,0.9603192210197449,33.4709358215332,-47.3199462890625,-23.74910545349121,-0.49047547578811646,1.5014249086380005,0.3134843111038208,-2.0808160305023193,2.245371103286743,0.3189357817173004
219,597013,597014,-0.030774695798754692,0.04865288734436035,0.9865849614143372,13.71862506866455,-56.831600189208984,-22.17780303955078,-0.4829758405685425,1.475926160812378,0.3029848337173462,-1.8974827527999878,2.5319228172302246,0.033842287957668304
220,597023,597024,-0.0035237926058471203,0.15648184716701508,0.9568638205528259,-12.788338661193848,-67.32461547851562,-22.45047950744629,-0.48147591948509216,1.4924253225326538,0.30748462677001953,-1.1166151762008667,2.6023778915405273,-0.20909297466278076
221,597033,597034,-0.11748246103525162,0.033294640481472015,0.9224961400032043,-38.59086608886719,-62.098297119140625,-23.907079696655273,-0.47847607731819153,1.504424810409546,0.30748462677001953,-0.551645815372467,2.5574190616607666,-0.4740728437900543
222,597043,597044,-0.03743915632367134,-0.026027360931038857,0.89441978931427,-56.45530700683594,-43.40060043334961,-20.18963050842285,-0.4844757616519928,1.504424810409546,0.3254837095737457,0.11272347718477249,2.093742847442627,-0.7543753981590271
223,597053,597054,0.05623674765229225,0.07901360094547272,0.9161219000816345,-61.65964889526367,-31.239164352416992,-15.452597618103027,-0.4769761562347412,1.5209239721298218,0.3119843900203705,0.5250359773635864,1.6691534519195557,-0.9911193251609802
224,597063,597064,0.0808422863483429,0.04743940010666847,0.968613862991333,-49.90806579589844,-27.592342376708984,-8.906756401062012,-0.47997599840164185,1.526923656463623,0.3149842321872711,0.9394345283508301,0.9100503921508789,-1.1638590097427368
225,597073,597074,-0.02364850416779518,0.11022964864969254,0.9741721749305725,-19.59593963623047,-26.43157386779785,-2.6528468132019043,-0.4649767279624939,1.5089244842529297,0.3059847056865692,1.1306686401367188,0.5184966325759888,-1.2987048625946045
226,597083,597084,-0.040711529552936554,0.1689126193523407,0.9839948415756226,24.89725112915039,-16.261112213134766,2.2892210483551025,-0.46197688579559326,1.5059247016906738,0.3119843900203705,1.573786973953247,0.269967645406723,-1.3104395866394043
227,597093,597094,-0.006853149272501469,0.04708665981888771,0.9695534110069275,55.75861740112305,-2.9689249992370605,1.0001566410064697,-0.4769761562347412,1.5209239721298218,0.29098543524742126,1.5879805088043213,0.567626953125,-1.3557907342910767
228,597103,597104,0.0024847621098160744,-0.028454676270484924,0.9653566479682922,62.11288070678711,-4.258986949920654,-0.5894542336463928,-0.47997599840164185,1.529923439025879,0.3209839463233948,1.6066970825195312,0.9127064943313599,-1.3340754508972168
229,597113,597114,-0.03653451055288315,-0.07570400834083557,1.0019677877426147,49.904842376708984,-1.3649346828460693,-1.2796282768249512,-0.48147591948509216,1.5104244947433472,0.3164841830730438,1.5336893796920776,1.8516703844070435,-1.407676100730896
230,597123,597124,0.0006729687447659671,-0.10908672213554382,0.9803330302238464,24.16613006591797,-1.9525598287582397,-1.1391054391860962,-0.46947652101516724,1.5074245929718018,0.3224838674068451,1.6393675804138184,2.331423044204712,-1.3869013786315918
231,597133,597134,0.06886707246303558,-0.02369002439081669,0.9644044041633606,-5.522727012634277,-12.473410606384277,-1.4013994932174683,-0.4664766788482666,1.504424810409546,0.3134843111038208,1.7537485361099243,2.7111823558807373,-1.380170226097107
232,597143,597144,0.09342735260725021,0.09696289896965027,0.9770609140396118,-36.04323196411133,-29.67610740661621,-2.6964833736419678,-0.46197688579559326,1.4999250173568726,0.3059847056865692,1.804124116897583,2.6723573207855225,-1.384507656097412
233,597153,597154,0.03314084932208061,0.029162883758544922,0.91364985704422,-61.63676834106445,-43.56386184692383,-6.93320894241333,-0.4589770436286926,1.514924168586731,0.2969851493835449,2.2436368465423584,2.211843967437744,-1.3084087371826172
234,597163,597164,-0.013152318075299263,-0.007502655498683453,0.9660472273826599,-70.9643783569336,-54.50846862792969,-9.513856887817383,-0.45147740840911865,1.5224238634109497,0.3044847846031189,2.6729063987731934,1.6159273386001587,-1.3450207710266113
235,597173,597174,-0.07438606023788452,0.004727458115667105,1.000819444656372,-71.6254653930664,-49.925148010253906,-8.579408645629883,-0.44097793102264404,1.5359231233596802,0.3119843900203705,3.069392442703247,0.9764420986175537,-1.4900555610656738
236,597183,597184,-0.11480605602264404,0.01255660131573677,0.9943963289260864,-56.662437438964844,-35.21580505371094,-6.514620780944824,-0.4589770436286926,1.529923439025879,0.30898454785346985,3.5120151042938232,0.29707789421081543,-1.623816728591919
237,597193,597194,-0.01613515056669712,0.09631957858800888,1.051400899887085,-32.48783493041992,-15.761919975280762,-3.8531126976013184,-0.4574771225452423,1.5254236459732056,0.3044847846031189,4.104442119598389,-0.11600347608327866,-1.747827172279358
238,597203,597204,0.021677257493138313,0.0412917360663414,1.0020962953567505,-5.9436564445495605,0.013974723406136036,0.11670581996440887,-0.4574771225452423,1.5224238634109497,0.30748462677001953,4.388063430786133,-0.3839743137359619,-1.8563836812973022
239,597213,597214,0.002182367956265807,-0.03774971142411232,0.9525231122970581,12.374481201171875,14.975958824157715,3.8339152336120605,-0.4664766788482666,1.5314234495162964,0.30748462677001953,4.382913112640381,-0.516007661819458,-1.8851312398910522
240,597223,597224,0.018688702955842018,-0.013636254705488682,1.0576783418655396,21.247318267822266,26.293041229248047,5.977602005004883,-0.48147591948509216,1.5314234495162964,0.3014849126338959,4.2706990242004395,-0.39645376801490784,-1.8919957876205444
241,597233,597234,0.007123100571334362,-0.11320125311613083,0.9807750582695007,23.034610748291016,36.66864013671875,7.333696365356445,-0.4634768068790436,1.5374231338500977,0.3014849126338959,4.165369987487793,-0.2592739760875702,-1.7932666540145874
242,597243,597244,0.01950574666261673,-0.04211704432964325,1.0468733310699463,20.29710578918457,40.0290641784668,8.065664291381836,-0.4649767279624939,1.5329233407974243,0.3029848337173462,3.6633174419403076,0.007064918987452984,-1.7714333534240723
243,597253,597254,-0.025490008294582367,-0.03399808332324028,0.9961827993392944,9.222610473632812,37.56745147705078,7.1245646476745605,-0.4754762053489685,1.5254236459732056,0.31948402523994446,3.228517770767212,0.1506301313638687,-1.656553030014038
244,597263,597264,-0.0960930660367012,-0.021588636562228203,1.0357749462127686,-9.467475891113281,33.35622024536133,5.446263790130615,-0.4634768068790436,1.5164241790771484,0.31048446893692017,3.0963010787963867,0.21224841475486755,-1.5071429014205933
245,597273,597274,-0.07876644283533096,-0.08230117708444595,1.0009344816207886,-31.95708465576172,32.3071174621582,4.828127384185791,-0.47097644209861755,1.526923656463623,0.30898454785346985,2.868892192840576,0.1391449123620987,-1.4063365459442139
246,597283,597284,-0.06078055500984192,-0.0467086061835289,1.0626540184020996,-48.08586883544922,33.323001861572266,6.829122066497803,-0.4634768068790436,1.5374231338500977,0.3014849126338959,2.667309522628784,-0.14340314269065857,-1.323647379875183
247,597293,597294,-0.034152619540691376,-0.033283453434705734,1.0993303060531616,-52.85252380371094,34.77012252807617,10.06555461883545,-0.47997599840164185,1.5479226112365723,0.30898454785346985,2.2909445762634277,-0.8541002869606018,-1.0670180320739746
248,597303,597304,-0.08471514284610748,-0.0011942189885303378,1.0610568523406982,-39.74578094482422,32.897056579589844,12.459575653076172,-0.4739762842655182,1.541922926902771,0.3029848337173462,2.104509115219116,-1.143833041191101,-1.1426377296447754
249,597313,597314,0.05869236961007118,0.017943060025572777,1.0995734930038452,-12.487360954284668,31.06035041809082,13.156210899353027,-0.46947652101516724,1.5584220886230469,0.31048446893692017,1.773615837097168,-1.7926428318023682,-0.8973524570465088
250,597323,597324,0.09907600283622742,0.04804456979036331,1.1567471027374268,24.577634811401367,17.028453826904297,6.625392436981201,-0.4844757616519928,1.5494225025177002,0.30748462677001953,1.4115512371063232,-1.9399465322494507,-0.8354573845863342
251,597333,597334,0.07764869928359985,0.03478914871811867,1.113596796989441,50.60268783569336,4.559603691101074,3.5420634746551514,-0.49947500228881836,1.5404229164123535,0.31948402523994446,1.1910921335220337,-1.5689808130264282,-0.929865300655365
252,597343,597344,0.060538679361343384,0.05356403812766075,1.0735763311386108,54.962547302246094,1.2417596578598022,4.081038951873779,-0.48897555470466614,1.5359231233596802,0.3209839463233948,1.3226269483566284,-1.1061224937438965,-0.9187533259391785
253,597353,597354,0.09133387356996536,0.06112365424633026,1.0409902334213257,38.079139709472656,-3.384180784225464,2.685025215148926,-0.4934753179550171,1.543422818183899,0.29848507046699524,1.2383151054382324,-0.3112867474555969,-1.0303857326507568
254,597363,597364,0.13828854262828827,0.013420470990240574,1.0083461999893188,12.897961616516113,-6.210679054260254,1.367401123046875,-0.4844757616519928,1.528423547744751,0.3044847846031189,1.3707058429718018,-0.19019261002540588,-0.8090260624885559
255,597373,597374,0.17508569359779358,0.08240987360477448,1.0277645587921143,-7.496577262878418,4.746333122253418,-3.3605806827545166,-0.47247636318206787,1.5254236459732056,0.3134843111038208,1.4767365455627441,-0.018920574337244034,-0.7753002643585205
256,597383,597384,0.16547857224941254,0.05709429085254669,1.0081692934036255,-26.608985900878906,28.988571166992188,-10.020306587219238,-0.4769761562347412,1.5329233407974243,0.30898454785346985,1.3590365648269653,-0.11239087581634521,-0.7323739528656006
257,597393,597394,0.03221413493156433,0.04307319223880768,1.0915690660476685,-41.43400955200195,34.52322769165039,-14.62225341796875,-0.4949752390384674,1.5569220781326294,0.3149842321872711,1.2284854650497437,-0.3013136386871338,-0.8323405385017395
258,597403,597404,-0.03081580623984337,-0.020224686712026596,1.0862592458724976,-49.95158386230469,26.201566696166992,-14.248291015625,-0.49797508120536804,1.5479226112365723,0.29998499155044556,0.8629068732261658,-0.8794097304344177,-0.8500228524208069
259,597413,597414,-0.02843252569437027,-0.07557672262191772,1.1003519296646118,-43.05109786987305,14.71068000793457,-14.909563064575195,-0.4859756827354431,1.5509223937988281,0.3119843900203705,0.6056003570556641,-1.169727087020874,-1.1037501096725464
260,597423,597424,-0.0049251168966293335,0.011297632940113544,1.1137861013412476,-26.53445816040039,5.337712287902832,-14.606706619262695,-0.48747560381889343,1.5494225025177002,0.31048446893692017,0.3954707980155945,-1.7543545961380005,-1.1843416690826416
261,597433,597434,0.010148555971682072,0.12595412135124207,1.1408904790878296,-10.249103546142578,7.160381317138672,-12.252681732177734,-0.5039747953414917,1.5449227094650269,0.3119843900203705,0.5642227530479431,-2.0138134956359863,-1.3949613571166992
262,597443,597444,0.09949983656406403,0.018643302842974663,1.1618646383285522,2.2406322956085205,30.981828689575195,-8.971109390258789,-0.4934753179550171,1.543422818183899,0.32848358154296875,0.4238799512386322,-2.1361312866210938,-1.5219653844833374
263,597453,597454,0.08570646494626999,-0.08313878625631332,1.147782564163208,9.777892112731934,55.018653869628906,-6.8774285316467285,-0.4919753968715668,1.5479226112365723,0.31798410415649414,0.16598230600357056,-2.0721404552459717,-1.6523123979568481
264,597463,597464,0.08442962914705276,-0.021705055609345436,1.1703544855117798,21.39166259765625,71.31208801269531,-5.1161298751831055,-0.4949752390384674,1.5479226112365723,0.3149842321872711,-0.1907031238079071,-1.9213720560073853,-1.7892067432403564
265,597473,597474,0.05912155285477638,0.028175698593258858,1.1157474517822266,31.09223175048828,69.19466400146484,-5.6375579833984375,-0.502474844455719,1.5464226007461548,0.29848507046699524,-1.1388789415359497,-1.7389830350875854,-1.8013372421264648
266,597483,597484,0.04972132295370102,-0.0444573275744915,1.072473406791687,32.25394058227539,54.613929748535156,-7.382578372955322,-0.5039747953414917,1.529923439025879,0.3209839463233948,-1.5108040571212769,-1.4685510396957397,-1.9478076696395874
267,597493,597494,0.07971131056547165,-0.10560481995344162,1.063769817352295,11.285000801086426,35.4694709777832,-3.354623794555664,-0.5039747953414917,1.529923439025879,0.3209839463233948,-2.2585480213165283,-1.0195155143737793,-2.021883010864258
268,597503,597504,0.09082698822021484,-0.07334255427122116,1.0629596710205078,-23.762449264526367,12.68618392944336,3.3963701725006104,-0.5039747953414917,1.529923439025879,0.3209839463233948,-2.6098718643188477,-1.0589405298233032,-2.044278621673584
269,597513,597514,0.08862873911857605,-0.04556241258978844,0.9890449643135071,-41.49322509765625,-1.2984386682510376,11.970233917236328,-0.5039747953414917,1.529923439025879,0.3209839463233948,-2.953223466873169,-1.2660273313522339,-1.9832240343093872
270,597523,597524,0.0631549060344696,0.03108328953385353,0.9447657465934753,-36.21426773071289,-17.274700164794922,17.887617111206055,-0.4949752390384674,1.529923439025879,0.3209839463233948,-2.8859810829162598,-1.6628117561340332,-1.908241868019104
271,597533,597534,0.06537628173828125,0.11064258217811584,1.0121345520019531,-12.506854057312012,-26.9674015045166,23.2943115234375,-0.4964751601219177,1.528423547744751,0.3224838674068451,-2.7213191986083984,-2.168229579925537,-1.751015543937683
272,597543,597544,0.039352428168058395,0.059367142617702484,1.0407885313034058,25.571327209472656,-32.639591217041016,24.26709747314453,-0.48747560381889343,1.504424810409546,0.31048446893692017,-2.664982557296753,-2.386756420135498,-1.4735807180404663
273,597553,597554,0.089732825756073,0.026702046394348145,1.045563817024231,67.83965301513672,-33.46896743774414,23.86713981628418,-0.4949752390384674,1.529923439025879,0.31798410415649414,-2.220832586288452,-2.019713878631592,-1.248792290687561
274,597563,597564,0.06366128474473953,-0.010008560493588448,1.0123063325881958,94.67251586914062,-22.216432571411133,23.701982498168945,-0.5069746375083923,1.5209239721298218,0.31798410415649414,-2.0310277938842773,-1.214181900024414,-0.9272255301475525
275,597573,597574,0.0639592781662941,-0.02437605708837509,0.9835355877876282,100.94755554199219,-10.134559631347656,22.209121704101562,-0.502474844455719,1.5404229164123535,0.3224838674068451,-1.7578043937683105,-0.6320350170135498,-0.7253414988517761
276,597583,597584,0.03266939893364906,-0.02694864384829998,1.0052649974822998,84.38243865966797,-0.6415725350379944,21.168609619140625,-0.5039747953414917,1.5239237546920776,0.33898305892944336,-1.8225353956222534,0.550755500793457,-0.412353515625
277,597593,597594,0.06347177177667618,-0.030531523749232292,0.9690489172935486,47.61483383178711,3.2744266986846924,18.602310180664062,-0.509974479675293,1.5179240703582764,0.3239837884902954,-1.810239315032959,1.3084561824798584,-0.21797218918800354
278,597603,597604,0.04579111933708191,0.005542864091694355,1.0095959901809692,6.327651500701904,4.568953990936279,15.219080924987793,-0.5039747953414917,1.5029247999191284,0.32998350262641907,-1.6673659086227417,1.949892520904541,-0.056112922728061676
279,597613,597614,0.0664626806974411,-0.02374185249209404,0.9899118542671204,-27.964344024658203,3.3841471672058105,12.440668106079102,-0.49047547578811646,1.5104244947433472,0.3134843111038208,-1.8407083749771118,2.060558795928955,0.11387414485216141
280,597623,597624,0.07233572751283646,0.03316579386591911,0.9881306886672974,-49.35639572143555,-2.666473388671875,10.299551010131836,-0.4934753179550171,1.5224238634109497,0.3134843111038208,-1.9212123155593872,1.8110202550888062,0.23442955315113068
281,597633,597634,0.04693879559636116,0.1500871628522873,1.0497909784317017,-49.39380645751953,-11.026202201843262,5.542911052703857,-0.48897555470466614,1.526923656463623,0.3149842321872711,-1.9186344146728516,1.3175899982452393,0.3270232379436493
282,597643,597644,0.09949638694524765,0.08302190154790878,0.9400280714035034,-29.04855728149414,-23.48397445678711,1.9562909603118896,-0.4934753179550171,1.528423547744751,0.31948402523994446,-1.7784614562988281,0.9028558731079102,0.4131280779838562
283,597653,597654,0.11673276871442795,-0.004905467387288809,0.992006242275238,4.142391204833984,-27.748727798461914,-1.035169005393982,-0.4829758405685425,1.5179240703582764,0.31798410415649414,-1.5015449523925781,0.5489956736564636,0.4407225251197815
284,597663,597664,0.05328061059117317,-0.12071544677019119,0.9916722774505615,37.12242126464844,-18.904619216918945,-1.1174583435058594,-0.48147591948509216,1.5254236459732056,0.3164841830730438,-1.3377248048782349,0.5652951598167419,0.4609043002128601
285,597673,597674,0.0599968247115612,-0.16864390671253204,0.921960711479187,60.495216369628906,0.4471832513809204,2.0336685180664062,-0.4859756827354431,1.5179240703582764,0.30898454785346985,-1.0747413635253906,1.1118314266204834,0.5161482691764832
286,597683,597684,-0.01544431783258915,-0.07551946491003036,0.9460408687591553,65.6623764038086,23.735971450805664,5.772027969360352,-0.5114744305610657,1.5254236459732056,0.3314834237098694,-1.04249906539917,1.476540446281433,0.4832032024860382
287,597693,597694,0.0138024240732193,-0.05375513806939125,0.9356549382209778,51.51383972167969,37.80560302734375,9.463766098022461,-0.4919753968715668,1.526923656463623,0.30898454785346985,-1.3728854656219482,2.337575912475586,0.5769696831703186
288,597703,597704,0.041646551340818405,-0.019355623051524162,0.9526869058609009,20.99701499938965,42.09928512573242,12.270923614501953,-0.5039747953414917,1.5239237546920776,0.3119843900203705,-1.736872911453247,2.7203545570373535,0.6250479221343994
289,597713,597714,0.01301548257470131,-0.045752063393592834,0.9820079207420349,-11.132845878601074,27.190507888793945,14.674783706665039,-0.4919753968715668,1.5209239721298218,0.32998350262641907,-2.2595858573913574,3.0220985412597656,0.7418848872184753
290,597723,597724,0.01976417377591133,-0.04503466933965683,0.976469099521637,-43.99871063232422,5.587432861328125,17.125131607055664,-0.509974479675293,1.5209239721298218,0.3239837884902954,-2.3697550296783447,2.939213752746582,0.9060813188552856
291,597733,597734,0.08164367079734802,-0.01216124091297388,0.964337170124054,-65.09716033935547,-18.547380447387695,17.55683708190918,-0.5069746375083923,1.5329233407974243,0.32698363065719604,-2.485955238342285,2.739720106124878,1.1155647039413452
292,597743,597744,0.06826018542051315,0.004619852639734745,1.0295021533966064,-68.40257263183594,-38.11014938354492,15.402030944824219,-0.4949752390384674,1.5359231233596802,0.3209839463233948,-2.3451955318450928,2.081301212310791,1.264643669128418
293,597753,597754,0.03384026885032654,-0.04531461000442505,1.091129183769226,-55.4893684387207,-50.5262565612793,11.6769437789917,-0.4859756827354431,1.529923439025879,0.3239837884902954,-2.090698719024658,1.459393858909607,1.4177135229110718
294,597763,597764,0.02257666178047657,-0.09789623320102692,1.0706418752670288,-37.092288970947266,-56.59001541137695,7.800521373748779,-0.4934753179550171,1.5254236459732056,0.31948402523994446,-1.4110686779022217,0.7990399599075317,1.5731079578399658
295,597773,597774,-0.07209800183773041,0.07303910702466965,1.0734859704971313,-16.51117515563965,-51.26837921142578,4.8504791259765625,-0.48897555470466614,1.529923439025879,0.3059847056865692,-1.0751447677612305,0.5644107460975647,1.6669245958328247
296,597783,597784,-0.023896565660834312,0.12219209969043732,1.0421000719070435,-3.103372812271118,-31.486236572265625,2.326767921447754,-0.47997599840164185,1.5359231233596802,0.30898454785346985,-0.2858120799064636,0.22276444733142853,1.75095796585083
297,597793,597794,-0.013242260552942753,0.08451999723911285,1.0760586261749268,-2.1331849098205566,-8.333771705627441,0.970500111579895,-0.4949752390384674,1.5329233407974243,0.32698363065719604,-0.1282566487789154,0.26747676730155945,1.7523714303970337
298,597803,597804,0.02807854674756527,0.039629824459552765,1.0303250551223755,-5.270473003387451,7.6972737312316895,-0.2493574172258377,-0.4919753968715668,1.5359231233596802,0.31798410415649414,0.08657658845186234,0.360754132270813,1.8030370473861694
299,597813,597814,0.09637994319200516,0.08643674850463867,0.9935279488563538,-7.6415534019470215,13.056718826293945,-3.6947033405303955,-0.4739762842655182,1.5239237546920776,0.31798410415649414,0.009746636264026165,0.4628075063228607,1.8232649564743042
300,597823,597824,0.11990608274936676,0.15295849740505219,1.0568363666534424,-11.973487854003906,9.083051681518555,-7.26900053024292,-0.4769761562347412,1.5329233407974243,0.3059847056865692,-0.17679347097873688,0.29815712571144104,1.767715573310852
301,597833,597834,0.12789376080036163,0.039889588952064514,0.9973838925361633,-16.56962776184082,1.4324723482131958,-9.996554374694824,-0.4919753968715668,1.5209239721298218,0.31798410415649414,-0.2948656380176544,0.143975630402565,1.6934047937393188
302,597843,597844,0.11712353676557541,-0.013303278014063835,1.045684814453125,-22.425189971923828,-10.603739738464355,-12.672440528869629,-0.4829758405685425,1.5239237546920776,0.3209839463233948,-0.2854757606983185,-0.0014099068939685822,1.6089106798171997
303,597853,597854,0.051473673433065414,-0.11354903131723404,1.0099635124206543,-27.58035659790039,-27.89972496032715,-13.522003173828125,-0.48147591948509216,1.5224238634109497,0.3134843111038208,-0.10233163088560104,-0.2400377243757248,1.5059140920639038
304,597863,597864,-0.034119490534067154,-0.12586912512779236,1.024924397468567,-26.632001876831055,-35.963871002197266,-12.700453758239746,-0.47097644209861755,1.5209239721298218,0.3209839463233948,0.11535349488258362,-0.42464134097099304,1.3842129707336426
305,597873,597874,-0.05645274370908737,-0.032890599220991135,1.046859622001648,-22.489330291748047,-32.3787841796875,-10.837998390197754,-0.46947652101516724,1.5314234495162964,0.3164841830730438,0.6916428804397583,-0.6804134845733643,1.2924096584320068
306,597883,597884,-0.026315838098526,0.059996090829372406,1.0535328388214111,-13.65444278717041,-18.316431045532227,-9.851401329040527,-0.4769761562347412,1.5359231233596802,0.3209839463233948,0.9409880638122559,-0.8813506364822388,1.1760092973709106
307,597893,597894,0.035488396883010864,0.06406398117542267,1.0273348093032837,-6.515998840332031,-1.954819679260254,-9.181371688842773,-0.47097644209861755,1.5329233407974243,0.31798410415649414,1.2834503650665283,-1.02532958984375,1.0873712301254272
308,597903,597904,0.019293755292892456,-0.04497905820608139,0.9797861576080322,-1.081062912940979,8.027985572814941,-8.81755542755127,-0.4754762053489685,1.528423547744751,0.30748462677001953,1.3666337728500366,-1.1825037002563477,0.9977924227714539
309,597913,597914,-0.010318446904420853,-0.1070859357714653,1.0046463012695312,3.3355910778045654,15.069746971130371,-7.98380708694458,-0.47097644209861755,1.5239237546920776,0.3059847056865692,1.2637563943862915,-1.162042260169983,0.9088351726531982
310,597923,597924,-0.0532730408012867,-0.10028182715177536,1.0591027736663818,2.6138458251953125,20.48501968383789,-7.194637298583984,-0.47097644209861755,1.526923656463623,0.3029848337173462,1.0359452962875366,-1.1394801139831543,0.8280274271965027
311,597933,597934,-0.07843384146690369,-0.09395130723714828,1.0328420400619507,-7.436732769012451,25.237606048583984,-6.035419940948486,-0.48747560381889343,1.5194239616394043,0.3134843111038208,0.8538511991500854,-1.1166749000549316,0.7540668845176697
312,597943,597944,-0.15560267865657806,-0.07024257630109787,1.041853666305542,-15.0496244430542,24.638147354125977,-3.4895200729370117,-0.4859756827354431,1.529923439025879,0.3119843900203705,0.587901771068573,-1.233556866645813,0.6945592761039734
313,597953,597954,-0.04658285900950432,0.051443856209516525,1.0867666006088257,-14.8313570022583,31.04166030883789,-2.1228270530700684,-0.4829758405685425,1.5209239721298218,0.30898454785346985,0.5235206484794617,-1.340740442276001,0.6342900991439819
314,597963,597964,-0.001074624015018344,0.10735796391963959,1.0270850658416748,-9.509324073791504,27.663463592529297,-4.3289361000061035,-0.4844757616519928,1.5314234495162964,0.3164841830730438,0.077915720641613,-1.464418649673462,0.6068199872970581
315,597973,597974,0.046373624354600906,0.16370099782943726,1.0110459327697754,-4.469076633453369,14.59053897857666,-6.74022102355957,-0.4934753179550171,1.5224238634109497,0.3224838674068451,-0.04193660244345665,-1.5119060277938843,0.5385875105857849
316,597983,597984,0.10605496168136597,0.11819929629564285,1.0476038455963135,-5.770472049713135,3.874500274658203,-6.852989196777344,-0.4754762053489685,1.5164241790771484,0.3224838674068451,-0.18980425596237183,-1.6181713342666626,0.469868004322052
317,597993,597994,0.13678967952728271,0.020228629931807518,1.0663005113601685,-0.36512356996536255,3.2971839904785156,-6.7641730308532715,-0.49047547578811646,1.5194239616394043,0.31948402523994446,-0.1544559895992279,-1.6621984243392944,0.3832305669784546
318,598003,598004,0.10137923061847687,0.03518443554639816,1.0830845832824707,20.495922088623047,3.2300686836242676,-6.589728832244873,-0.48147591948509216,1.5104244947433472,0.3224838674068451,-0.22886933386325836,-1.7040914297103882,0.32033127546310425
319,598013,598014,0.06000013276934624,0.10866528004407883,1.0225334167480469,44.02388000488281,5.727333068847656,-6.5742034912109375,-0.4844757616519928,1.5194239616394043,0.3254837095737457,-0.1655460000038147,-1.4361201524734497,0.2257830947637558
320,598023,598024,0.03549422323703766,0.17593105137348175,0.9769530892372131,62.037742614746094,2.4719133377075195,-10.463257789611816,-0.4829758405685425,1.5209239721298218,0.3329833447933197,-0.2152228206396103,-1.0770891904830933,0.16341015696525574
321,598033,598034,-0.003419009502977133,0.1848125159740448,1.008989691734314,57.32574462890625,0.26802706718444824,-14.599949836730957,-0.4829758405685425,1.514924168586731,0.3119843900203705,-0.16719092428684235,-0.4042986035346985,0.042108044028282166
322,598043,598044,-0.0008793663582764566,0.048917774111032486,0.9760931134223938,36.61598587036133,5.415066719055176,-17.507619857788086,-0.4934753179550171,1.513424277305603,0.3164841830730438,-0.2954834997653961,0.03152279928326607,-0.058881621807813644
323,598053,598054,-0.0057492973282933235,-0.11459828168153763,0.9396381974220276,-2.9894299507141113,14.108993530273438,-19.684751510620117,-0.4844757616519928,1.5074245929718018,0.31048446893692017,-0.3550167381763458,0.3868274986743927,-0.21852904558181763
324,598063,598064,0.011048629879951477,-0.16722843050956726,0.9800865650177002,-47.615882873535156,14.299095153808594,-17.582805633544922,-0.5009749531745911,1.5089244842529297,0.3119843900203705,-0.5989365577697754,0.42147529125213623,-0.3841896653175354
325,598073,598074,0.0937291607260704,-0.11599879711866379,0.9814971685409546,-80.58761596679688,15.584319114685059,-11.373085021972656,-0.4949752390384674,1.529923439025879,0.3209839463233948,-0.6313723921775818,-0.1963883340358734,-0.560635507106781
326,598083,598084,0.14483879506587982,-0.0011357612675055861,1.0826038122177124,-95.64398956298828,17.140758514404297,-3.5412166118621826,-0.4964751601219177,1.5524224042892456,0.3134843111038208,-0.8755115270614624,-0.8627068400382996,-0.6838461756706238
327,598093,598094,0.06725720316171646,0.1127549409866333,1.0336720943450928,-83.46819305419922,11.316194534301758,4.034579277038574,-0.4919753968715668,1.5509223937988281,0.32998350262641907,-1.0754311084747314,-2.2319202423095703,-0.7162258625030518
328,598103,598104,-0.014115329831838608,0.06757580488920212,1.0867880582809448,-43.97776794433594,3.1059393882751465,10.579527854919434,-0.48747560381889343,1.5494225025177002,0.3134843111038208,-0.9963342547416687,-2.672954797744751,-0.7457678318023682
329,598113,598114,0.03870571404695511,0.014519636519253254,1.1597963571548462,-1.4460968971252441,-0.5283527374267578,13.746194839477539,-0.47247636318206787,1.5374231338500977,0.31048446893692017,-1.091012716293335,-3.121640920639038,-0.6580499410629272
330,598123,598124,0.05783242732286453,-0.10048197954893112,1.1131867170333862,51.5633659362793,-6.405561923980713,15.78062915802002,-0.4934753179550171,1.528423547744751,0.3134843111038208,-1.1045982837677002,-3.166796922683716,-0.5269922018051147
331,598133,598134,0.022576244547963142,-0.06618524342775345,1.075718879699707,91.1695327758789,-13.034270286560059,15.474822044372559,-0.4919753968715668,1.5329233407974243,0.31798410415649414,-1.0408467054367065,-2.7649357318878174,-0.3764214813709259
332,598143,598144,-0.05942842364311218,0.002342561725527048,0.9812911152839661,105.40690612792969,-17.8858699798584,16.85050392150879,-0.5009749531745911,1.5359231233596802,0.3119843900203705,-0.7415959239006042,-1.8458969593048096,-0.2701338231563568
333,598153,598154,-0.0832076221704483,0.005026309285312891,0.9576350450515747,93.30006408691406,-17.734651565551758,19.183059692382812,-0.4829758405685425,1.526923656463623,0.31798410415649414,-0.6502693295478821,-0.9915909171104431,-0.09184911102056503
334,598163,598164,-0.09882834553718567,-0.017558354884386063,1.0051522254943848,59.39628982543945,-5.846080303192139,21.671491622924805,-0.47247636318206787,1.5074245929718018,0.3164841830730438,-0.46765875816345215,0.16206519305706024,0.09141477942466736
335,598173,598174,-0.12332677096128464,-0.04846173897385597,1.0401296615600586,25.206314086914062,2.085914373397827,20.972694396972656,-0.4859756827354431,1.4939253330230713,0.30898454785346985,-0.3676058351993561,0.5311403870582581,0.29087719321250916
336,598183,598184,-0.11587292701005936,-0.09735510498285294,0.9767268896102905,-5.601330280303955,9.685847282409668,18.408700942993164,-0.4739762842655182,1.5059247016906738,0.31798410415649414,-0.4131541848182678,0.9868271946907043,0.5175041556358337
337,598193,598194,-0.05865669250488281,-0.09061300754547119,0.9587356448173523,-27.018423080444336,9.2769136428833,16.451322555541992,-0.47997599840164185,1.4909254312515259,0.30898454785346985,-0.499252051115036,0.926047146320343,0.713024377822876
338,598203,598204,0.008851299993693829,0.004087875597178936,1.0132344961166382,-30.754549026489258,2.6909821033477783,11.522821426391602,-0.4844757616519928,1.5014249086380005,0.31048446893692017,-0.6691199541091919,0.5717015266418457,0.8925554752349854
339,598213,598214,0.043755464255809784,-0.0067756399512290955,0.9837696552276611,-18.2136173248291,-3.881357431411743,5.742505073547363,-0.4859756827354431,1.5089244842529297,0.3119843900203705,-0.6004993319511414,0.2544598877429962,1.012263536453247
340,598223,598224,0.017800284549593925,-0.05440438538789749,1.0253617763519287,6.608758926391602,-7.5059404373168945,-2.8542816638946533,-0.4739762842655182,1.4909254312515259,0.3059847056865692,-0.6424620747566223,-0.031843844801187515,1.09432852268219
341,598233,598234,0.01895834505558014,-0.02304007299244404,1.0043312311172485,34.18320846557617,-7.6592230796813965,-11.135785102844238,-0.49947500228881836,1.4864256381988525,0.3164841830730438,-0.6179227828979492,0.19189998507499695,1.1058374643325806
342,598243,598244,0.04196615889668465,0.03535914048552513,1.0111600160598755,50.85381317138672,-9.604043960571289,-17.032567977905273,-0.4859756827354431,1.4939253330230713,0.30898454785346985,-0.5087152123451233,0.4910779893398285,1.0184481143951416
343,598253,598254,0.025936724618077278,0.02978193201124668,0.9794887900352478,45.10501480102539,1.2087757587432861,-20.948917388916016,-0.47997599840164185,1.4909254312515259,0.30898454785346985,-0.4496214687824249,1.223868489265442,0.8763495087623596
344,598263,598264,0.017196740955114365,0.013236884959042072,0.9374260902404785,25.465087890625,11.699994087219238,-24.130979537963867,-0.4844757616519928,1.4924253225326538,0.3224838674068451,-0.447157621383667,1.3557080030441284,0.6705647706985474
345,598273,598274,0.030880939215421677,-0.013281219638884068,0.8773185610771179,-6.646373748779297,20.748018264770508,-23.127696990966797,-0.48147591948509216,1.4804259538650513,0.3044847846031189,-0.5536107420921326,1.6425414085388184,0.4406004846096039
346,598283,598284,0.0472310408949852,0.0011551129864528775,0.8911318182945251,-35.54524612426758,26.477798461914062,-19.685007095336914,-0.4859756827354431,1.5089244842529297,0.3029848337173462,-0.8791773319244385,1.592851996421814,0.20275381207466125
347,598293,598294,0.05185205116868019,0.007449638098478317,0.9043824076652527,-54.820491790771484,28.92305564880371,-13.813288688659668,-0.4934753179550171,1.513424277305603,0.31048446893692017,-1.0889625549316406,1.4090520143508911,0.00214956421405077
348,598303,598304,0.091148242354393,0.16217023134231567,0.9768644571304321,-56.14678955078125,27.436410903930664,-5.568151473999023,-0.4919753968715668,1.526923656463623,0.3239837884902954,-1.561893105506897,0.6642428636550903,-0.18015627562999725
349,598313,598314,0.09289177507162094,0.2071395218372345,0.9499026536941528,-43.62481689453125,16.971698760986328,5.208089828491211,-0.5009749531745911,1.5239237546920776,0.3149842321872711,-1.718161702156067,0.3523307144641876,-0.2356269657611847
350,598323,598324,0.12442144751548767,0.11395177990198135,0.9863700270652771,-9.509608268737793,6.798057556152344,8.86257266998291,-0.4919753968715668,1.526923656463623,0.3239837884902954,-1.746065378189087,-0.2286473512649536,-0.2091170847415924
351,598333,598334,0.05258173868060112,-0.00248846341855824,0.9516533017158508,32.178672790527344,-1.7902475595474243,8.444087982177734,-0.4934753179550171,1.5194239616394043,0.31948402523994446,-1.883453130722046,-0.29702481627464294,-0.11726516485214233
352,598343,598344,-0.06323035061359406,0.032444197684526443,0.9827640652656555,63.90741729736328,2.6757607460021973,8.02632999420166,-0.49797508120536804,1.514924168586731,0.3239837884902954,-1.8846327066421509,0.07702402025461197,-0.005143979098647833
353,598353,598354,-0.03141380101442337,-0.011225886642932892,0.947983980178833,83.0233154296875,9.894234657287598,7.423243999481201,-0.4934753179550171,1.5344232320785522,0.32848358154296875,-1.923842191696167,0.6276630759239197,0.073997862637043
354,598363,598364,0.04713203385472298,-0.04541853070259094,0.9498026967048645,87.4675064086914,17.5428524017334,9.069231986999512,-0.5189740657806396,1.5239237546920776,0.3239837884902954,-1.9864914417266846,1.5919777154922485,0.1771911382675171
355,598373,598374,0.11086877435445786,-0.03543078154325485,0.935601532459259,71.10623931884766,19.6036376953125,9.390013694763184,-0.5189740657806396,1.5329233407974243,0.3119843900203705,-2.1670968532562256,2.224921941757202,0.22443173825740814
356,598383,598384,0.11014565825462341,0.05308252200484276,0.9524672031402588,28.711376190185547,8.597146987915039,7.702179908752441,-0.5144742727279663,1.528423547744751,0.3254837095737457,-2.458482503890991,2.8033699989318848,0.2748734951019287
357,598393,598394,0.09143511205911636,0.029027819633483887,0.9322655200958252,-22.41959571838379,-12.696300506591797,7.483959674835205,-0.508474588394165,1.513424277305603,0.3254837095737457,-2.6743199825286865,3.3277924060821533,0.3654356598854065
358,598403,598404,0.06864161789417267,-0.07955092191696167,0.924385666847229,-58.32022476196289,-34.730445861816406,7.466115474700928,-0.5009749531745911,1.529923439025879,0.32998350262641907,-2.4876632690429688,3.0928783416748047,0.4251965880393982
359,598413,598414,0.03657488152384758,-0.08712596446275711,0.9847961664199829,-75.84422302246094,-55.58528137207031,6.6061320304870605,-0.5144742727279663,1.5344232320785522,0.3224838674068451,-1.9409879446029663,2.388582229614258,0.4946769177913666
360,598423,598424,0.06122077628970146,-0.10505418479442596,0.9726499319076538,-75.40989685058594,-76.87163543701172,6.461995601654053,-0.49797508120536804,1.5389230251312256,0.32998350262641907,-1.6979494094848633,1.9232662916183472,0.537834107875824
361,598433,598434,0.01907707005739212,-0.0749385729432106,1.0578142404556274,-52.03984069824219,-80.80890655517578,5.718044281005859,-0.49047547578811646,1.543422818183899,0.3134843111038208,-0.8877589702606201,0.9828978776931763,0.572790265083313
362,598443,598444,0.018626205623149872,-0.08543166518211365,0.9681891202926636,-17.57089614868164,-65.02310943603516,6.605064868927002,-0.4859756827354431,1.5479226112365723,0.31798410415649414,-0.11123108863830566,0.44708287715911865,0.6301990151405334
363,598453,598454,-0.009455190040171146,0.0871414840221405,1.0495929718017578,15.784709930419922,-28.128557205200195,6.244023323059082,-0.4754762053489685,1.5374231338500977,0.3134843111038208,0.4436682164669037,0.37105467915534973,0.6860688924789429
364,598463,598464,0.04433010146021843,-0.08845867961645126,0.9003507494926453,49.39835739135742,18.521013259887695,9.818000793457031,-0.4949752390384674,1.529923439025879,0.31798410415649414,0.6838002800941467,0.5473952889442444,0.71949702501297
365,598473,598474,-0.011118282563984394,-0.05900812894105911,1.0057114362716675,62.78003692626953,47.87921905517578,12.570100784301758,-0.5054747462272644,1.5554221868515015,0.3224838674068451,0.5629972219467163,1.035452961921692,0.7920262813568115
366,598483,598484,-0.0073671345598995686,-0.09984061866998672,1.0128581523895264,60.57499313354492,61.19339370727539,15.63675594329834,-0.5054747462272644,1.5554221868515015,0.3314834237098694,0.052401646971702576,1.656801462173462,0.8923362493515015
367,598493,598494,0.008910886012017727,-0.1144733652472496,1.006365418434143,53.02427291870117,52.588191986083984,21.285503387451172,-0.5054747462272644,1.5524224042892456,0.3254837095737457,-0.42309629917144775,2.3527920246124268,1.0910277366638184
368,598503,598504,0.03479998931288719,-0.14527925848960876,1.0034871101379395,34.006263732910156,31.102964401245117,27.33354377746582,-0.508474588394165,1.5494225025177002,0.3254837095737457,-1.024684190750122,2.9209768772125244,1.299364447593689
369,598513,598514,0.025869468227028847,-0.1784091740846634,1.0105754137039185,8.522669792175293,4.6302103996276855,31.048809051513672,-0.5144742727279663,1.5314234495162964,0.3404829800128937,-1.369219422340393,3.2094757556915283,1.5769351720809937
370,598523,598524,-0.006265551783144474,-0.1522103101015091,1.0465562343597412,-23.46477699279785,-21.034317016601562,32.2130012512207,-0.508474588394165,1.5344232320785522,0.33748310804367065,-1.3498672246932983,3.386369228363037,1.9275237321853638
371,598533,598534,0.0038427338004112244,-0.1343614161014557,1.0368534326553345,-51.68537521362305,-43.562095642089844,32.43598937988281,-0.49947500228881836,1.543422818183899,0.3164841830730438,-0.9860061407089233,3.199694871902466,2.305234670639038
372,598543,598544,0.005209964234381914,-0.12259130924940109,1.0497084856033325,-71.08843994140625,-58.00883102416992,30.304346084594727,-0.4829758405685425,1.5359231233596802,0.32998350262641907,-0.4085557162761688,2.464066743850708,2.6593499183654785
373,598553,598554,-0.007350027095526457,-0.03143269196152687,1.0235354900360107,-80.75106048583984,-50.69745635986328,28.686220169067383,-0.4949752390384674,1.5509223937988281,0.3209839463233948,-0.09807826578617096,1.9031389951705933,2.8606765270233154
374,598563,598564,0.008143294602632523,0.12992587685585022,1.1322853565216064,-74.32623291015625,-24.290857315063477,27.857391357421875,-0.4964751601219177,1.5704214572906494,0.30748462677001953,0.5170560479164124,1.3641915321350098,3.172865152359009
375,598573,598574,0.03866547718644142,0.08592618256807327,1.1407876014709473,-52.604827880859375,3.8904998302459717,26.7602481842041,-0.49797508120536804,1.580920934677124,0.3029848337173462,0.74968022108078,0.5045841336250305,3.4028475284576416
376,598583,598584,0.030515987426042557,0.06851081550121307,1.0825210809707642,-23.0570011138916,37.734683990478516,23.73741340637207,-0.49947500228881836,1.5884205102920532,0.3254837095737457,0.7241702079772949,0.11772550642490387,3.6422464847564697
377,598593,598594,0.017294729128479958,-0.11024849861860275,1.042191743850708,-2.5698118209838867,51.68789291381836,22.028289794921875,-0.5069746375083923,1.5779210329055786,0.3209839463233948,0.38710644841194153,-0.3288803994655609,3.868347406387329
378,598603,598604,-0.05765864998102188,-0.025182809680700302,1.0613272190093994,20.291051864624023,63.361351013183594,23.550817489624023,-0.502474844455719,1.5734213590621948,0.3254837095737457,-0.09614577889442444,-0.24391812086105347,4.08463191986084
379,598613,598614,0.08533739298582077,0.0021859286352992058,1.044086217880249,46.12413024902344,69.71520233154297,20.748737335205078,-0.5144742727279663,1.5704214572906494,0.33448326587677,-0.6309027075767517,0.03799871727824211,4.320767879486084
380,598623,598624,0.11707277595996857,0.000450117455329746,1.0892748832702637,60.31731414794922,62.575401306152344,17.388328552246094,-0.5054747462272644,1.5494225025177002,0.32848358154296875,-1.2074379920959473,0.2318752259016037,4.57224702835083
381,598633,598634,0.1288391798734665,0.035206083208322525,1.1673657894134521,63.913612365722656,37.6428108215332,10.4642915725708,-0.5129743218421936,1.5569220781326294,0.3239837884902954,-2.136113405227661,1.123138666152954,4.699285984039307
382,598643,598644,0.1571625918149948,-0.04473525285720825,1.1108438968658447,52.30785369873047,-9.133421897888184,1.9659335613250732,-0.5114744305610657,1.543422818183899,0.3254837095737457,-2.294590711593628,1.6000967025756836,4.893448829650879
383,598653,598654,0.11854944378137589,-0.08063706010580063,1.0248953104019165,17.03366470336914,-47.38203048706055,-5.239243984222412,-0.5069746375083923,1.5449227094650269,0.33598318696022034,-2.3475568294525146,2.0617575645446777,4.9394450187683105
384,598663,598664,0.02390793152153492,-0.002523088129237294,1.004078984260559,-41.04446792602539,-70.5390625,-12.721487045288086,-0.49947500228881836,1.5494225025177002,0.31948402523994446,-1.9510729312896729,2.417452573776245,4.903514862060547
385,598673,598674,0.04322014003992081,0.032277628779411316,1.0132321119308472,-114.44668579101562,-67.35704040527344,-18.154848098754883,-0.4934753179550171,1.5704214572906494,0.30748462677001953,-1.0692211389541626,2.062152147293091,4.8135457038879395
386,598683,598684,0.013567223213613033,-0.014396291226148605,1.0491656064987183,-165.7464599609375,-47.911380767822266,-18.60389518737793,-0.5189740657806396,1.6079195737838745,0.3329833447933197,-0.48183533549308777,0.6944774985313416,4.568042278289795
387,598693,598694,-0.00845410767942667,0.11377085745334625,1.0722345113754272,-195.0391387939453,-10.10569953918457,-11.876859664916992,-0.5159741640090942,1.619918942451477,0.32698363065719604,-0.11082224547863007,-0.5448264479637146,4.35618782043457
388,598703,598704,0.11613466590642929,0.06824474036693573,1.1569280624389648,-211.38551330566406,-1.4264692068099976,-5.030584335327148,-0.5039747953414917,1.649917483329773,0.3149842321872711,0.12672530114650726,-2.889906883239746,4.205525875091553
389,598713,598714,0.1138717532157898,-0.009068327024579048,1.1569523811340332,-189.1608123779297,-16.670761108398438,4.452980041503906,-0.5039747953414917,1.6379181146621704,0.3149842321872711,0.22036677598953247,-4.774474620819092,4.156640529632568
390,598723,598724,0.030970409512519836,0.05383794382214546,1.2526655197143555,-133.55625915527344,-22.998754501342773,11.18642520904541,-0.49797508120536804,1.6289185285568237,0.3119843900203705,0.4921988844871521,-7.017232894897461,4.198936939239502
391,598733,598734,0.0013505991082638502,0.13026948273181915,1.0934360027313232,-37.87313461303711,-21.093002319335938,15.91819953918457,-0.4964751601219177,1.636418104171753,0.30748462677001953,0.5246134996414185,-7.916632652282715,4.316537380218506
392,598743,598744,0.07481800019741058,0.08620565384626389,1.2793442010879517,54.58453369140625,-11.881996154785156,17.032470703125,-0.48747560381889343,1.6214189529418945,0.30748462677001953,0.6879705190658569,-8.395400047302246,4.488063335418701
393,598753,598754,0.0650283694267273,0.011328586377203465,1.2559268474578857,129.416748046875,13.104430198669434,19.0700626373291,-0.4919753968715668,1.595920205116272,0.3059847056865692,0.7083194255828857,-7.7950615882873535,4.6889238357543945
394,598763,598764,0.05722801759839058,-0.057897184044122696,1.2316142320632935,156.54733276367188,7.066068172454834,23.249353408813477,-0.5069746375083923,1.5839207172393799,0.31798410415649414,0.6728790402412415,-6.950171947479248,4.870893955230713
395,598773,598774,0.03835092484951019,0.004878965672105551,1.1189725399017334,164.08946228027344,0.9458287358283997,29.07917594909668,-0.49947500228881836,1.579421043395996,0.3164841830730438,0.48352938890457153,-4.901910305023193,5.054429054260254
396,598783,598784,0.031056545674800873,0.10968878120183945,1.0942109823226929,139.04530334472656,-7.858797550201416,33.592098236083984,-0.4859756827354431,1.5719213485717773,0.3209839463233948,0.5005440711975098,-3.5702872276306152,5.323099613189697
397,598793,598794,0.07285207509994507,0.030946411192417145,1.059585452079773,107.41908264160156,-11.969412803649902,35.27161407470703,-0.48747560381889343,1.5374231338500977,0.3224838674068451,0.6502612829208374,-1.910044550895691,5.559434413909912
398,598803,598804,0.11362006515264511,-0.08429259061813354,1.0138616561889648,58.262535095214844,-13.176386833190918,34.519309997558594,-0.47997599840164185,1.5209239721298218,0.31798410415649414,0.5948158502578735,-0.9925442337989807,6.053036212921143
399,598813,598814,0.07335317134857178,-0.10791008174419403,1.0065876245498657,6.506359100341797,-6.8049397468566895,29.62543296813965,-0.47997599840164185,1.5359231233596802,0.29998499155044556,0.8505828380584717,-0.2258182317018509,6.31317663192749
400,598823,598824,0.065290667116642,-0.08785070478916168,0.9644145369529724,-34.231231689453125,-6.6836700439453125,23.221725463867188,-0.4634768068790436,1.5254236459732056,0.2834858298301697,0.7495369911193848,-0.3173656165599823,6.784359931945801
401,598833,598834,0.054025836288928986,0.039091356098651886,1.0088403224945068,-57.155250549316406,-18.421403884887695,16.089916229248047,-0.4634768068790436,1.5494225025177002,0.29848507046699524,0.6373540163040161,-0.7071664333343506,7.157101631164551
402,598843,598844,0.047722235321998596,0.0372471809387207,1.065794825553894,-63.02350997924805,-33.77505874633789,7.134118556976318,-0.4829758405685425,1.5359231233596802,0.29998499155044556,0.7656483054161072,-1.2886645793914795,7.361281394958496
403,598853,598854,0.04910636320710182,-0.012501630932092667,1.0097343921661377,-44.0996208190918,-47.96969985961914,-2.825406312942505,-0.47097644209861755,1.5329233407974243,0.3029848337173462,1.1324889659881592,-1.5959627628326416,7.372171878814697
404,598863,598864,0.09008818119764328,0.04267275333404541,0.995589554309845,-13.49148941040039,-50.13274383544922,-14.031009674072266,-0.448477566242218,1.528423547744751,0.2954852283000946,1.5895912647247314,-2.368252754211426,7.428687572479248
405,598873,598874,0.08123710751533508,-0.010153643786907196,0.954895555973053,17.76369857788086,-51.439842224121094,-22.73865509033203,-0.455977201461792,1.5359231233596802,0.2969851493835449,2.045944929122925,-2.3637757301330566,7.316658020019531
406,598883,598884,0.014328178018331528,0.030924055725336075,0.8602243065834045,43.96553421020508,-35.31127166748047,-28.471111297607422,-0.47247636318206787,1.528423547744751,0.29848507046699524,2.5240087509155273,-2.3574740886688232,7.170135974884033
407,598893,598894,-0.00553999375551939,0.026836328208446503,0.9547447562217712,58.51400375366211,-17.35617446899414,-34.33161926269531,-0.4679765999317169,1.5239237546920776,0.28498575091362,2.727536201477051,-2.101670980453491,7.06121826171875
408,598903,598904,0.027242742478847504,-0.05751905217766762,0.9457931518554688,61.54765701293945,2.4435577392578125,-39.13124465942383,-0.4634768068790436,1.5314234495162964,0.3014849126338959,3.140596866607666,-1.5564247369766235,6.669172286987305
409,598913,598914,0.08444282412528992,-0.006096315570175648,0.938220739364624,41.535362243652344,21.32697105407715,-43.23121643066406,-0.4664766788482666,1.5404229164123535,0.29848507046699524,3.015507221221924,-0.8600788116455078,6.353031635284424
410,598923,598924,0.008596887812018394,0.07323566824197769,1.005361795425415,6.789646625518799,41.83273696899414,-42.30011749267578,-0.48147591948509216,1.5404229164123535,0.3134843111038208,2.8668417930603027,-0.4089481234550476,5.968564987182617
411,598933,598934,0.060103509575128555,0.0005380747024901211,0.9335161447525024,-21.38924217224121,52.6202507019043,-36.981109619140625,-0.47847607731819153,1.5374231338500977,0.31048446893692017,2.4578745365142822,-0.2098686546087265,5.572375774383545
412,598943,598944,0.03535425290465355,0.04147399589419365,1.0043950080871582,-38.47060775756836,46.39574432373047,-30.695039749145508,-0.4739762842655182,1.5389230251312256,0.3119843900203705,1.8314805030822754,-0.42541027069091797,5.276958465576172
413,598953,598954,0.04332172870635986,0.020085010677576065,0.9325251579284668,-41.21628952026367,20.832664489746094,-25.650333404541016,-0.47997599840164185,1.5359231233596802,0.3059847056865692,1.4020346403121948,-0.8693097829818726,4.9780168533325195
414,598963,598964,0.06621550768613815,-0.006941512227058411,0.9242756962776184,-27.88368797302246,-9.88538646697998,-22.93006706237793,-0.4739762842655182,1.529923439025879,0.3059847056865692,1.3982641696929932,-1.122902512550354,4.531381607055664
415,598973,598974,0.02395075373351574,0.04071160405874252,0.9776602387428284,2.2060322761535645,-32.13935089111328,-21.989337921142578,-0.4574771225452423,1.5104244947433472,0.3224838674068451,1.5109368562698364,-1.429176926612854,4.249851703643799
416,598983,598984,0.005519175436347723,0.002190573140978813,0.9808301329612732,34.90386199951172,-42.60384750366211,-21.26995849609375,-0.4634768068790436,1.528423547744751,0.30748462677001953,1.6548843383789062,-1.499695062637329,4.061094284057617
417,598993,598994,-0.01143987849354744,-0.009573417715728283,0.9924652576446533,67.70283508300781,-40.7303466796875,-19.853944778442383,-0.46197688579559326,1.5239237546920776,0.3059847056865692,2.1545047760009766,-0.9711435437202454,3.696300506591797
418,599003,599004,0.030761178582906723,0.031228573992848396,0.9528462290763855,75.69084167480469,-32.977874755859375,-19.050662994384766,-0.4634768068790436,1.5254236459732056,0.3134843111038208,2.4372236728668213,-0.48060521483421326,3.587057590484619
419,599013,599014,0.024671196937561035,0.06668154895305634,0.9288683533668518,65.19505310058594,-14.735050201416016,-19.797889709472656,-0.4634768068790436,1.513424277305603,0.3044847846031189,2.955989360809326,0.4211737811565399,3.2756776809692383
420,599023,599024,0.023825060576200485,0.04466179013252258,0.9495434761047363,45.949737548828125,9.013221740722656,-21.909528732299805,-0.4769761562347412,1.5089244842529297,0.30898454785346985,2.9921345710754395,0.9849307537078857,3.1900229454040527
421,599033,599034,-0.015851279720664024,-0.0011451647151261568,0.9775370955467224,22.149307250976562,19.810455322265625,-24.014949798583984,-0.4634768068790436,1.5014249086380005,0.3134843111038208,2.8762707710266113,1.4114938974380493,3.063462734222412
422,599043,599044,-0.08598846942186356,-0.026072070002555847,1.0158754587173462,-0.22786816954612732,28.26054573059082,-24.489429473876953,-0.47097644209861755,1.514924168586731,0.3119843900203705,2.747365951538086,1.7460026741027832,2.8174495697021484
423,599053,599054,-0.04034919664263725,-0.04666469618678093,0.9730647802352905,-21.661758422851562,30.886669158935547,-22.31022834777832,-0.46197688579559326,1.5029247999191284,0.31798410415649414,2.5417933464050293,1.8407008647918701,2.5632433891296387
424,599063,599064,0.0066865552216768265,-0.03280647099018097,0.9560689330101013,-29.3551082611084,27.203290939331055,-21.322311401367188,-0.4679765999317169,1.529923439025879,0.3149842321872711,2.1278581619262695,1.594966173171997,2.4087870121002197
425,599073,599074,-0.03997435420751572,-0.013947986997663975,0.9867261648178101,-30.280921936035156,16.725664138793945,-20.69683074951172,-0.4649767279624939,1.529923439025879,0.3149842321872711,1.9706521034240723,1.2472864389419556,2.242056369781494
426,599083,599084,0.015057572163641453,0.00048110014176927507,0.9923782348632812,-12.030192375183105,-2.2735366821289062,-21.721336364746094,-0.4649767279624939,1.529923439025879,0.3149842321872711,1.8880921602249146,0.8753661513328552,2.079097270965576
427,599093,599094,0.042552411556243896,-0.007752310484647751,0.9798956513404846,11.994492530822754,-11.23871898651123,-23.17263412475586,-0.4649767279624939,1.529923439025879,0.3149842321872711,1.646735429763794,0.7432757616043091,1.825407862663269
428,599103,599104,0.010611484758555889,-0.001850310480222106,0.9709123969078064,34.95865249633789,-13.568214416503906,-21.957876205444336,-0.4649767279624939,1.529923439025879,0.3149842321872711,1.8836275339126587,0.9223575592041016,1.5395828485488892
429,599113,599114,0.015180299058556557,0.032822564244270325,0.988185703754425,39.40109634399414,-8.206512451171875,-19.574050903320312,-0.4664766788482666,1.513424277305603,0.3164841830730438,2.0864195823669434,1.4000710248947144,1.2241593599319458
430,599123,599124,0.03957287222146988,0.013529755175113678,0.9649331569671631,28.305431365966797,-0.42087528109550476,-17.080835342407227,-0.4739762842655182,1.5089244842529297,0.33598318696022034,2.2086234092712402,1.149786353111267,1.3483597040176392
431,599133,599134,0.013868741691112518,0.0029282011091709137,0.9655442833900452,3.4255027770996094,6.776681423187256,-13.964733123779297,-0.4574771225452423,1.513424277305603,0.3044847846031189,2.220966100692749,1.6479785442352295,1.0881528854370117
432,599143,599144,-0.005462901666760445,-0.002757543697953224,0.9687407612800598,-18.6159725189209,9.402146339416504,-10.032455444335938,-0.47097644209861755,1.5179240703582764,0.3119843900203705,2.250511884689331,1.7695863246917725,0.9535756707191467
433,599153,599154,0.014623390510678291,0.023874813690781593,1.0105348825454712,-31.65497398376465,5.567849636077881,-6.196650505065918,-0.4634768068790436,1.5254236459732056,0.31048446893692017,2.2182726860046387,1.587939739227295,0.8933874368667603
434,599163,599164,0.07678989320993423,0.006723006255924702,0.9463158249855042,-30.936450958251953,2.9573910236358643,-2.84497332572937,-0.4679765999317169,1.526923656463623,0.3119843900203705,2.077665328979492,1.237471103668213,0.8450923562049866
435,599173,599174,0.15594163537025452,0.03187614679336548,0.9216576218605042,-20.489830017089844,3.11252760887146,0.6116705536842346,-0.4679765999317169,1.5329233407974243,0.3149842321872711,2.1288435459136963,1.0035817623138428,0.7872734665870667
436,599183,599184,0.06636185199022293,0.004229334648698568,0.9518780708312988,2.143580913543701,13.848939895629883,3.761195421218872,-0.4544772803783417,1.5254236459732056,0.3134843111038208,2.096787452697754,0.6952393651008606,0.8155677914619446
437,599193,599194,0.04798546060919762,0.02233569324016571,1.0220043659210205,27.09004020690918,39.11531448364258,5.568228721618652,-0.47997599840164185,1.5239237546920776,0.30898454785346985,1.9336827993392944,0.7199295163154602,0.7878498435020447
438,599203,599204,0.03504408150911331,0.019218526780605316,1.0487091541290283,50.946678161621094,75.22784423828125,6.543010234832764,-0.4829758405685425,1.5359231233596802,0.31798410415649414,1.6232308149337769,1.129105806350708,0.727797269821167
439,599213,599214,0.02810220792889595,0.007450144737958908,1.0188616514205933,57.54969787597656,87.43024444580078,6.711162567138672,-0.4934753179550171,1.5374231338500977,0.3314834237098694,0.8975082635879517,1.4912272691726685,0.8082495927810669
440,599223,599224,0.032566796988248825,-0.04542776942253113,0.9719871878623962,52.91313552856445,82.4287109375,5.446259498596191,-0.48147591948509216,1.5404229164123535,0.33448326587677,-0.11340083926916122,2.161203622817993,0.8205457329750061
441,599233,599234,0.08891262859106064,-0.010451282374560833,0.9880188703536987,50.216575622558594,70.81005096435547,1.6614742279052734,-0.49047547578811646,1.528423547744751,0.33748310804367065,-0.7163244485855103,2.630733013153076,1.0027525424957275
442,599243,599244,0.0421016588807106,-0.0014914036728441715,1.0011622905731201,39.27756118774414,40.97771072387695,-2.4556667804718018,-0.4964751601219177,1.5224238634109497,0.3314834237098694,-1.811966896057129,3.1308019161224365,0.9808722138404846
443,599253,599254,0.04180454462766647,0.0021490103099495173,1.0176050662994385,18.473066329956055,-3.7384581565856934,-6.164907932281494,-0.509974479675293,1.5179240703582764,0.3329833447933197,-1.8822499513626099,3.5424728393554688,1.1610006093978882
444,599263,599264,0.06954821944236755,-0.006398404017090797,1.0039169788360596,-16.32904815673828,-42.03192901611328,-8.47424602508545,-0.5039747953414917,1.5089244842529297,0.31798410415649414,-1.9974404573440552,3.7801027297973633,1.128194808959961
445,599273,599274,0.0941675454378128,-0.004867172800004482,1.0181968212127686,-52.504356384277344,-62.17875289916992,-8.257851600646973,-0.49797508120536804,1.5239237546920776,0.31798410415649414,-1.6236238479614258,3.6441259384155273,1.080909252166748
446,599283,599284,0.06661326438188553,0.0201245304197073,1.0459929704666138,-77.57073211669922,-70.04796600341797,-8.146011352539062,-0.5069746375083923,1.526923656463623,0.31798410415649414,-0.8629370927810669,3.0494470596313477,1.0703402757644653
447,599293,599294,0.07312839478254318,0.027065284550189972,1.064526915550232,-81.84563446044922,-72.13545227050781,-7.796288013458252,-0.4829758405685425,1.541922926902771,0.31798410415649414,-0.164347842335701,2.455775260925293,0.9640839099884033
448,599303,599304,0.04327564314007759,0.06208407133817673,1.0302999019622803,-72.3555908203125,-62.79564666748047,-4.3748297691345215,-0.48147591948509216,1.5344232320785522,0.32848358154296875,0.3773936927318573,1.9159213304519653,0.7635632157325745
449,599313,599314,0.06831961125135422,0.08933933824300766,1.0565727949142456,-51.7771110534668,-36.45718002319336,0.5776016712188721,-0.4754762053489685,1.5554221868515015,0.31048446893692017,1.2219529151916504,0.9946041703224182,0.7851738929748535
450,599323,599324,0.07515709847211838,0.03652169555425644,1.1304579973220825,-25.014163970947266,9.844339370727539,5.090310096740723,-0.4634768068790436,1.543422818183899,0.31048446893692017,1.5356993675231934,0.6718732118606567,0.6923812627792358
451,599333,599334,0.04230464622378349,-0.08629846572875977,1.1143473386764526,-2.0989441871643066,47.633094787597656,7.387247562408447,-0.4964751601219177,1.5344232320785522,0.3134843111038208,1.4494216442108154,0.17788775265216827,0.6667115092277527
452,599343,599344,0.0343853123486042,-0.05759168416261673,1.0683472156524658,21.470966339111328,62.73278045654297,7.927232265472412,-0.4934753179550171,1.5524224042892456,0.3164841830730438,0.9281832575798035,0.3642091751098633,0.6531707048416138
453,599353,599354,0.04944112151861191,0.029384970664978027,1.0770424604415894,35.9209098815918,63.824066162109375,9.183755874633789,-0.48897555470466614,1.5479226112365723,0.32698363065719604,0.18261413276195526,0.6261144876480103,0.6672840714454651
454,599363,599364,0.048640187829732895,0.03822299465537071,1.0516618490219116,30.501373291015625,48.26524353027344,12.294007301330566,-0.48747560381889343,1.5464226007461548,0.3254837095737457,-0.03430933132767677,0.7946904301643372,0.92728191614151
455,599373,599374,0.07967563718557358,0.013175698928534985,1.0130975246429443,18.26985740661621,22.494041442871094,17.32718849182129,-0.49797508120536804,1.5359231233596802,0.32998350262641907,-0.8490309119224548,1.289512038230896,0.9459251165390015
456,599383,599384,0.06164487823843956,0.016933288425207138,1.0034297704696655,-1.763588786125183,3.0632193088531494,21.443540573120117,-0.5009749531745911,1.5329233407974243,0.3209839463233948,-0.9619617462158203,1.2390074729919434,1.172569751739502
457,599393,599394,0.012991872616112232,0.07053568214178085,0.9730410575866699,-10.46561050415039,-6.3930277824401855,23.707944869995117,-0.4829758405685425,1.526923656463623,0.32698363065719604,-1.0252792835235596,1.2578175067901611,1.3821803331375122
458,599403,599404,-0.0014085413422435522,0.12978284060955048,0.9579988121986389,-1.6926957368850708,-7.591440677642822,24.051000595092773,-0.49047547578811646,1.5314234495162964,0.3164841830730438,-0.9811760187149048,1.0906329154968262,1.6048219203948975
459,599413,599414,-0.0023298899177461863,0.07528030127286911,0.9891163110733032,15.02839183807373,-2.5767619609832764,21.957992553710938,-0.5039747953414917,1.5179240703582764,0.30898454785346985,-0.8991143107414246,1.0349514484405518,1.8419990539550781
460,599423,599424,0.0382467657327652,-0.05804983898997307,0.9889248013496399,29.756160736083984,9.18582820892334,18.31134605407715,-0.48747560381889343,1.5164241790771484,0.31948402523994446,-0.8864743113517761,1.2328941822052002,2.0653445720672607
461,599433,599434,0.02821941301226616,-0.1292034089565277,0.9889262914657593,22.68975257873535,20.550512313842773,14.335556030273438,-0.5069746375083923,1.526923656463623,0.3209839463233948,-0.770013153553009,1.5312947034835815,2.317131757736206
462,599443,599444,0.04361081123352051,-0.06155354902148247,1.0015223026275635,-8.72310733795166,30.893949508666992,10.67349624633789,-0.5054747462272644,1.513424277305603,0.32848358154296875,-1.0584015846252441,1.8336724042892456,2.445148229598999
463,599453,599454,0.016748391091823578,0.0421132855117321,1.039366364479065,-32.23195266723633,41.68470001220703,8.900636672973633,-0.502474844455719,1.5464226007461548,0.3314834237098694,-1.2908560037612915,1.8304600715637207,2.579442024230957
464,599463,599464,0.05286727100610733,0.12949411571025848,1.0942307710647583,-47.65395736694336,46.87834548950195,6.848119735717773,-0.5204739570617676,1.5464226007461548,0.3224838674068451,-1.7772817611694336,1.327078104019165,2.604323625564575
465,599473,599474,0.09828697144985199,0.09687190502882004,1.0631316900253296,-45.72371292114258,33.419002532958984,6.696788311004639,-0.5264736413955688,1.5614218711853027,0.3134843111038208,-2.2879958152770996,0.9212771058082581,2.67738938331604
466,599483,599484,0.11973848938941956,0.05785316228866577,1.146093726158142,-35.23843002319336,1.7821104526519775,6.776240825653076,-0.502474844455719,1.5464226007461548,0.3314834237098694,-2.758594512939453,0.7175822257995605,2.7940468788146973
467,599493,599494,0.06261073797941208,0.006298971828073263,1.0019917488098145,-31.76172637939453,-37.44436264038086,9.920632362365723,-0.49947500228881836,1.5374231338500977,0.3164841830730438,-2.6081087589263916,0.29961922764778137,2.9278476238250732
468,599503,599504,0.03799648955464363,0.00702824629843235,1.0563279390335083,-30.825511932373047,-58.33845901489258,13.783495903015137,-0.48147591948509216,1.5224238634109497,0.3164841830730438,-2.357637643814087,0.03217240422964096,3.03423810005188
469,599513,599514,0.01027252059429884,-0.05502137541770935,0.9550361633300781,-17.011964797973633,-54.173927307128906,17.443565368652344,-0.49047547578811646,1.5164241790771484,0.3224838674068451,-1.7061927318572998,-0.15102121233940125,3.2343013286590576
470,599523,599524,0.04329377040266991,0.05070538446307182,0.9637646675109863,5.500364303588867,-40.6126823425293,18.786853790283203,-0.48747560381889343,1.528423547744751,0.3254837095737457,-1.26387357711792,-0.3686457872390747,3.3715667724609375
471,599533,599534,0.11583975702524185,-0.04076410084962845,1.0607117414474487,18.213844299316406,-21.97114372253418,20.15066146850586,-0.4859756827354431,1.5329233407974243,0.31798410415649414,-0.8853018879890442,-0.3874632716178894,3.5427849292755127
472,599543,599544,0.1010737493634224,-0.017629772424697876,1.0469834804534912,20.808364868164062,6.617379665374756,22.527996063232422,-0.49047547578811646,1.5254236459732056,0.3164841830730438,-0.5784638524055481,-0.17591392993927002,3.772146701812744
473,599553,599554,0.058744143694639206,-0.004047019872814417,1.0011355876922607,19.856569290161133,31.12117576599121,26.654748916625977,-0.4919753968715668,1.514924168586731,0.31798410415649414,-0.6430559754371643,0.046940021216869354,3.977560043334961
474,599563,599564,0.009767003357410431,0.006428765133023262,1.0480620861053467,12.157608032226562,39.848060607910156,29.06852912902832,-0.4949752390384674,1.511924386024475,0.3239837884902954,-0.8341790437698364,0.3237447440624237,4.258480072021484
475,599573,599574,0.030658571049571037,0.0012343277921900153,1.0354198217391968,7.942668437957764,38.86157989501953,26.082155227661133,-0.5069746375083923,1.5209239721298218,0.3209839463233948,-1.2693616151809692,0.34903958439826965,4.4959282875061035
476,599583,599584,0.09494282305240631,0.019475355744361877,1.0225419998168945,5.9743828773498535,25.353404998779297,18.89678955078125,-0.4919753968715668,1.5359231233596802,0.32998350262641907,-1.7029547691345215,0.44931191205978394,4.768481254577637
