,timestamp_start,timestamp_end,acc.x,acc.y,acc.z,gyro.x,gyro.y,gyro.z,mag.x,mag.y,mag.z,stabilizer.pitch,stabilizer.roll,stabilizer.yaw
0,98977,98979,0.06966017931699753,0.00502857007086277,0.8912782669067383,54.27197265625,-12.23747730255127,-17.903474807739258,1.1699414253234863,-0.05999699980020523,-0.2189890444278717,2.7678632736206055,0.5101909041404724,-4.567427635192871
1,98987,98989,0.016568388789892197,0.02599572390317917,0.935409426689148,31.184755325317383,10.315346717834473,-14.923851013183594,1.180440902709961,-0.07349632680416107,-0.2384880781173706,2.9916255474090576,1.0124764442443848,-4.762190341949463
2,98997,98999,0.04644567146897316,0.006940301973372698,0.9210806488990784,13.945669174194336,29.336288452148438,-13.867315292358398,1.1864407062530518,-0.058497074991464615,-0.22048896551132202,2.7282469272613525,1.4764785766601562,-4.8826212882995605
3,99007,99009,0.039951473474502563,0.048056069761514664,0.9658383131027222,-5.043534755706787,41.97784423828125,-13.592474937438965,1.180440902709961,-0.07049647718667984,-0.23548822104930878,2.5113039016723633,1.4837875366210938,-5.00679349899292
4,99017,99019,0.07283445447683334,0.055434200912714005,0.9603442549705505,-21.38172721862793,35.811317443847656,-14.901569366455078,1.1744412183761597,-0.07049647718667984,-0.23248836398124695,1.9573572874069214,1.476231575012207,-5.116776466369629
5,99027,99029,0.01303187943994999,0.01618237793445587,1.0989248752593994,-23.47545623779297,23.447525024414062,-11.325191497802734,1.1864407062530518,-0.06149692460894585,-0.24448777735233307,1.696344017982483,1.1424229145050049,-5.248651504516602
6,99037,99039,0.06692563742399216,0.05647287890315056,1.053335428237915,-12.09346866607666,11.15450668334961,-6.154764652252197,1.1759412288665771,-0.07199639827013016,-0.21598920226097107,1.422499418258667,0.9452551007270813,-5.366435527801514
7,99047,99049,0.07008402049541473,0.05994562432169914,1.0106070041656494,8.198063850402832,7.470463275909424,-2.6721627712249756,1.1759412288665771,-0.07499624788761139,-0.23098844289779663,1.3747003078460693,0.8125857710838318,-5.442008018493652
8,99057,99059,0.08953028917312622,0.05299699306488037,1.0363589525222778,19.692312240600586,3.9079649448394775,0.9310938715934753,1.1759412288665771,-0.08399579674005508,-0.21298934519290924,1.3135383129119873,0.8839921951293945,-5.476190090179443
9,99067,99069,0.00018006592290475965,0.025774070993065834,0.9738372564315796,20.62796401977539,0.9046358466148376,2.5533037185668945,1.1684415340423584,-0.06749662756919861,-0.2174891233444214,1.2360045909881592,0.9805881381034851,-5.461014747619629
10,99077,99079,0.02018388919532299,0.0636802390217781,1.0881856679916382,3.446607828140259,9.370330810546875,7.584441184997559,1.1609419584274292,-0.06899654865264893,-0.2189890444278717,1.1424684524536133,1.1158709526062012,-5.423651218414307
11,99087,99089,0.07878991216421127,0.06574875861406326,1.0523761510849,-7.7557220458984375,11.536819458007812,8.806366920471191,1.1699414253234863,-0.06299684941768646,-0.2099895030260086,1.0270518064498901,1.1569403409957886,-5.3493123054504395
12,99097,99099,0.02342873625457287,-0.05464046448469162,0.9947025179862976,-12.156882286071777,-0.40169981122016907,7.728550910949707,1.1744412183761597,-0.07949602603912354,-0.2174891233444214,0.9451524615287781,1.0264613628387451,-5.253133296966553
13,99107,99109,0.10347380489110947,0.04725975543260574,1.0853263139724731,5.403692245483398,-20.218765258789062,9.812850952148438,1.177441120147705,-0.07049647718667984,-0.21148942410945892,1.043634295463562,0.9065850377082825,-5.178171157836914
14,99117,99119,0.1488220989704132,0.15683582425117493,1.129599928855896,31.68069076538086,-27.02107048034668,5.080273628234863,1.1729413270950317,-0.07799609750509262,-0.21298934519290924,1.3030979633331299,1.121944785118103,-5.099603176116943
15,99127,99129,0.0927351862192154,0.0688026025891304,1.0839602947235107,42.638671875,-26.700965881347656,1.7500346899032593,1.180440902709961,-0.07949602603912354,-0.22648866474628448,1.4102193117141724,1.271688461303711,-5.025047779083252
16,99137,99139,0.07441771030426025,0.033454447984695435,1.0988749265670776,39.44648361206055,-26.606983184814453,-1.1521329879760742,1.1744412183761597,-0.06149692460894585,-0.2294885218143463,1.67849600315094,1.6513926982879639,-5.0067548751831055
17,99147,99149,0.051580172032117844,-0.0033261296339333057,1.0694093704223633,29.639408111572266,-19.360326766967773,-5.524840831756592,1.177441120147705,-0.0764961764216423,-0.23248836398124695,1.7673792839050293,1.9838536977767944,-5.019160747528076
18,99157,99159,0.09246859699487686,0.011416441760957241,0.9978071451187134,-0.6212111115455627,-4.525394916534424,-4.737024307250977,1.177441120147705,-0.05549722537398338,-0.22048896551132202,2.011586904525757,2.2880849838256836,-5.0666375160217285
19,99167,99169,0.061508744955062866,0.037964046001434326,1.0204824209213257,-23.155277252197266,2.3522589206695557,-2.124309539794922,1.177441120147705,-0.05549722537398338,-0.22048896551132202,2.0537097454071045,2.216891050338745,-5.11072301864624
20,99177,99179,0.07669413834810257,0.01650211587548256,1.0401638746261597,-35.36309814453125,-5.373296737670898,4.82660436630249,1.178941011428833,-0.056997150182724,-0.22498874366283417,2.0856432914733887,2.0120785236358643,-5.1314568519592285
21,99187,99189,0.16942408680915833,0.1527448147535324,1.002245545387268,-27.173381805419922,-10.24305534362793,12.554691314697266,1.1729413270950317,-0.05399730056524277,-0.21298934519290924,1.989975929260254,1.6172730922698975,-5.097391128540039
22,99197,99199,0.1142570897936821,0.1382128745317459,1.0921432971954346,-5.6092209815979,-3.968625783920288,18.408918380737305,1.1819409132003784,-0.05999699980020523,-0.2099895030260086,2.1645028591156006,1.359905481338501,-4.987123966217041
23,99207,99209,0.11509531736373901,0.052348650991916656,0.9874770641326904,14.082756996154785,4.03601598739624,20.392822265625,1.1744412183761597,-0.05549722537398338,-0.20548972487449646,2.257446527481079,1.4057254791259766,-4.835577964782715
24,99217,99219,0.026545852422714233,0.007186129689216614,0.9346939325332642,33.380123138427734,18.1528263092041,22.196081161499023,1.1609419584274292,-0.056997150182724,-0.21598920226097107,2.064007043838501,1.7881391048431396,-4.688950538635254
25,99227,99229,0.10675905644893646,0.023873230442404747,0.9008322954177856,43.52492904663086,31.854305267333984,23.546043395996094,1.154942274093628,-0.06299684941768646,-0.20698964595794678,1.8778139352798462,1.7895067930221558,-4.425972938537598
26,99237,99239,0.030520090833306313,-0.13888601958751678,0.8324304223060608,46.176666259765625,32.591148376464844,22.513771057128906,1.1579420566558838,-0.03899804875254631,-0.2099895030260086,1.4135303497314453,2.256251573562622,-4.210030555725098
27,99247,99249,0.08448592573404312,-0.03510519117116928,0.9549259543418884,42.68904113769531,16.918441772460938,22.739538192749023,1.1669416427612305,-0.06299684941768646,-0.22498874366283417,0.9564172625541687,2.682050943374634,-3.9694368839263916
28,99257,99259,0.11638407409191132,0.0459425188601017,0.9593347907066345,40.515987396240234,-11.176362037658691,20.916536331176758,1.1609419584274292,-0.06899654865264893,-0.2099895030260086,0.9472431540489197,3.1138436794281006,-3.6987380981445312
29,99267,99269,0.03709808364510536,-0.08434084057807922,0.8536178469657898,40.35960388183594,-34.75120162963867,20.107664108276367,1.1579420566558838,-0.08399579674005508,-0.20698964595794678,1.1876134872436523,3.4311368465423584,-3.456418514251709
30,99277,99279,0.004591548815369606,-0.03761256858706474,0.9573997259140015,33.81726837158203,-51.713409423828125,17.76140594482422,1.1714414358139038,-0.07349632680416107,-0.22348882257938385,1.6104815006256104,4.0110883712768555,-3.2848169803619385
31,99287,99289,0.07486812025308609,-0.013303644023835659,0.910822868347168,20.23052215576172,-61.013389587402344,18.513744354248047,1.1744412183761597,-0.09149542450904846,-0.22348882257938385,2.267204761505127,4.248902320861816,-3.087508201599121
32,99297,99299,0.017059804871678352,-0.12211604416370392,0.9040210247039795,10.543511390686035,-51.156192779541016,12.712321281433105,1.1744412183761597,-0.0944952741265297,-0.2294885218143463,2.834895610809326,4.546703338623047,-2.970290184020996
33,99307,99309,0.005691434256732464,-0.12552693486213684,0.7840476036071777,2.998234510421753,-24.383691787719727,6.616682052612305,1.1819409132003784,-0.07499624788761139,-0.2189890444278717,3.4688968658447266,4.632871150970459,-2.8522942066192627
34,99317,99319,0.022738730534911156,-0.03484741970896721,0.8598496913909912,-15.038055419921875,2.4397709369659424,-0.22899280488491058,1.1864407062530518,-0.06749662756919861,-0.23548822104930878,3.594531536102295,4.550858020782471,-2.82444429397583
35,99327,99329,0.03160059452056885,-0.011754617094993591,0.8539093136787415,-37.85883331298828,27.22169303894043,-3.6234216690063477,1.1864407062530518,-0.06449677050113678,-0.22648866474628448,3.4877352714538574,4.437353610992432,-2.8590354919433594
36,99337,99339,0.01803155243396759,0.029299037531018257,0.9468656778335571,-53.14455795288086,36.23722457885742,-4.3589348793029785,1.1819409132003784,-0.04199789837002754,-0.2189890444278717,3.129570960998535,3.9252774715423584,-2.876983642578125
37,99347,99349,0.07094158977270126,0.08399741351604462,0.919299840927124,-58.650123596191406,46.2098388671875,-4.065803527832031,1.1879405975341797,-0.0659966990351677,-0.227988600730896,2.7476437091827393,3.4879696369171143,-2.926079034805298
38,99357,99359,0.05163555219769478,0.010551526211202145,0.9583985209465027,-54.82302474975586,52.51152038574219,-5.633823871612549,1.1984400749206543,-0.04649767279624939,-0.22348882257938385,2.1752004623413086,3.029520034790039,-3.0228817462921143
39,99367,99369,0.06848447769880295,0.039829663932323456,0.9366576075553894,-42.0713996887207,50.28820037841797,-6.639509201049805,1.1744412183761597,-0.06449677050113678,-0.2174891233444214,1.6678475141525269,2.5649468898773193,-3.0816452503204346
40,99377,99379,-0.17958533763885498,-0.2587255835533142,0.9664619565010071,-30.277360916137695,43.213172912597656,-8.045371055603027,1.177441120147705,-0.06749662756919861,-0.2294885218143463,1.1806104183197021,2.150909185409546,-3.125516176223755
41,99387,99389,-0.12603890895843506,-0.16269740462303162,0.955342710018158,-21.540977478027344,32.14889907836914,-7.997588634490967,1.1729413270950317,-0.056997150182724,-0.2189890444278717,0.8035944700241089,1.9847049713134766,-3.194927215576172
42,99397,99399,0.05323750525712967,0.0738353356719017,1.0374096632003784,-13.107789039611816,11.242452621459961,-3.9375061988830566,1.1684415340423584,-0.06749662756919861,-0.22048896551132202,0.4732661247253418,1.8123127222061157,-3.265017509460449
43,99407,99409,0.11146026104688644,0.057967185974121094,1.019463300704956,-4.338555335998535,-23.215442657470703,3.0922088623046875,1.1744412183761597,-0.0764961764216423,-0.22048896551132202,0.38937103748321533,1.6190139055252075,-3.272587299346924
44,99417,99419,0.08255328238010406,0.03452353924512863,0.9875205755233765,16.506837844848633,-59.426578521728516,11.54561710357666,1.178941011428833,-0.10199490189552307,-0.21598920226097107,0.6651110649108887,1.600520372390747,-3.237093210220337
45,99427,99429,0.11628302186727524,0.03150073438882828,1.0025463104248047,49.97239303588867,-72.14336395263672,16.63848114013672,1.1969401836395264,-0.1049947515130043,-0.227988600730896,1.2874053716659546,1.8099534511566162,-3.146073579788208
46,99437,99439,0.0705437883734703,-0.03443194553256035,1.0183831453323364,69.50545501708984,-58.22127914428711,18.5410099029541,1.1954401731491089,-0.10349482297897339,-0.23548822104930878,2.0277605056762695,2.2952687740325928,-3.010903835296631
47,99447,99449,0.032142430543899536,-0.07047495990991592,0.9875016808509827,59.05258560180664,-33.89548110961914,18.00020980834961,1.1954401731491089,-0.10049497336149216,-0.25348731875419617,2.5955238342285156,3.0133016109466553,-2.872464179992676
48,99457,99459,0.09651950001716614,-0.03448708355426788,1.0270192623138428,31.4271183013916,-4.4557414054870605,14.989104270935059,1.1879405975341797,-0.10199490189552307,-0.24298784136772156,3.043342351913452,3.5288515090942383,-2.6854279041290283
49,99467,99469,0.21061813831329346,0.10582912713289261,0.9906570315361023,-3.325205087661743,28.623140335083008,12.878375053405762,1.1834408044815063,-0.0944952741265297,-0.23248836398124695,2.98610782623291,3.845262289047241,-2.5652289390563965
50,99477,99479,0.12134000658988953,0.0645882785320282,1.0246236324310303,-52.967254638671875,57.93141555786133,12.004121780395508,1.1894404888153076,-0.085495725274086,-0.22648866474628448,2.5005342960357666,3.6201016902923584,-2.44258975982666
51,99487,99489,-0.005933583248406649,0.03004264272749424,1.1149373054504395,-82.74127197265625,65.67339324951172,9.599802017211914,1.2029398679733276,-0.07199639827013016,-0.22198890149593353,2.1621429920196533,3.210176944732666,-2.2448253631591797
52,99497,99499,0.13331887125968933,0.03888951241970062,1.0573627948760986,-95.52758026123047,62.78036117553711,6.686770439147949,1.1834408044815063,-0.06749662756919861,-0.23548822104930878,1.3394922018051147,2.3367371559143066,-2.1593105792999268
53,99507,99509,0.10603553056716919,0.006008327938616276,1.077986717224121,-95.87670135498047,52.476905822753906,4.420533180236816,1.1684415340423584,-0.04649767279624939,-0.24148792028427124,0.6331894993782043,1.2791869640350342,-2.072970390319824
54,99517,99519,0.12230375409126282,-0.05536680668592453,1.0582281351089478,-82.07025909423828,39.13630294799805,4.193441390991211,1.178941011428833,-0.05399730056524277,-0.21298934519290924,0.14328289031982422,0.6060491800308228,-2.033315420150757
55,99527,99529,0.023295467719435692,-0.12560376524925232,1.0893532037734985,-61.103179931640625,22.85599136352539,5.799891471862793,1.163941740989685,-0.026998650282621384,-0.21598920226097107,-0.3483128845691681,-0.27504655718803406,-2.003382682800293
56,99537,99539,0.006605206057429314,-0.06012486666440964,1.0997036695480347,-32.57281494140625,5.013731002807617,8.444891929626465,1.1669416427612305,-0.029998499900102615,-0.22198890149593353,-0.5771441459655762,-0.6626479625701904,-1.951448917388916
57,99547,99549,0.01791946403682232,0.03835403546690941,1.101410150527954,-0.087118960916996,-8.902188301086426,10.615679740905762,1.163941740989685,-0.03299834951758385,-0.20698964595794678,-0.5306680202484131,-1.0332541465759277,-1.850669503211975
58,99557,99559,0.0349784716963768,0.054735515266656876,1.0892353057861328,33.464988708496094,-20.38713264465332,12.288114547729492,1.1759412288665771,-0.044997747987508774,-0.21598920226097107,-0.39570653438568115,-1.0001219511032104,-1.7385594844818115
59,99567,99569,0.016271859407424927,0.050973206758499146,1.1118659973144531,50.3640022277832,-35.72706604003906,13.212979316711426,1.1594419479370117,-0.05549722537398338,-0.21148942410945892,-0.1260664016008377,-0.5713337659835815,-1.6068543195724487
60,99577,99579,0.13177555799484253,0.0696287602186203,1.10861074924469,67.81683349609375,-40.58243179321289,15.333279609680176,1.1654417514801025,-0.07049647718667984,-0.22348882257938385,0.3992198705673218,-0.058267153799533844,-1.4751250743865967
61,99587,99589,0.17814964056015015,0.1565016359090805,1.0173529386520386,76.92684936523438,-34.273719787597656,15.567197799682617,1.177441120147705,-0.07349632680416107,-0.24448777735233307,0.6262315511703491,0.5491108298301697,-1.3233649730682373
62,99597,99599,0.14901986718177795,0.12935733795166016,1.0502432584762573,75.27176666259766,-12.491382598876953,11.809488296508789,1.1534422636032104,-0.06449677050113678,-0.2294885218143463,0.9523572325706482,1.2786314487457275,-1.1705254316329956
63,99607,99609,0.021052062511444092,-0.025707004591822624,0.9734632968902588,55.57175827026367,10.314010620117188,4.356680393218994,1.1459426879882812,-0.056997150182724,-0.2189890444278717,1.0395535230636597,1.8120540380477905,-1.0574921369552612
64,99617,99619,0.10333899408578873,-0.0053574638441205025,0.9691641330718994,6.384263515472412,26.08259391784668,-2.9614124298095703,1.1459426879882812,-0.056997150182724,-0.21298934519290924,0.9684442281723022,2.5208120346069336,-0.9913537502288818
65,99627,99629,0.1279280036687851,0.05349100008606911,0.9606406092643738,-54.456138610839844,35.755401611328125,-4.544389247894287,1.1714414358139038,-0.028498575091362,-0.21148942410945892,0.5573282241821289,2.4235613346099854,-1.009959101676941
66,99637,99639,0.11842849850654602,0.06828206032514572,1.035098671913147,-88.89228820800781,31.71428680419922,-6.461053848266602,1.178941011428833,-0.044997747987508774,-0.22498874366283417,0.19881689548492432,1.8221174478530884,-1.0545471906661987
67,99647,99649,-0.03596673160791397,-0.0889614075422287,1.0111006498336792,-96.26129913330078,25.575838088989258,-9.550270080566406,1.1669416427612305,-0.029998499900102615,-0.21598920226097107,-0.0965629294514656,0.8589962124824524,-1.1198227405548096
68,99657,99659,0.10906760394573212,0.03287012130022049,1.009067416191101,-85.98748016357422,24.849769592285156,-11.212945938110352,1.1624418497085571,-0.03449827432632446,-0.22348882257938385,-0.4481547772884369,0.22484885156154633,-1.1724166870117188
69,99667,99669,0.09105144441127777,0.055460620671510696,1.057992935180664,-73.47940063476562,32.787776947021484,-9.148777961730957,1.1624418497085571,-0.03449827432632446,-0.22348882257938385,-0.5371793508529663,-0.7640124559402466,-1.300849199295044
70,99677,99679,0.1376049816608429,0.11218151450157166,1.0792410373687744,-63.73893356323242,33.979244232177734,-4.332352161407471,1.1624418497085571,-0.03449827432632446,-0.22348882257938385,-0.7785866856575012,-1.2091857194900513,-1.3572171926498413
71,99687,99689,0.08920101076364517,0.022548776119947433,1.0874124765396118,-48.48561096191406,33.53215789794922,6.155709266662598,1.1624418497085571,-0.03449827432632446,-0.22348882257938385,-1.253404140472412,-2.065267562866211,-1.4412131309509277
72,99697,99699,0.13741271197795868,0.02735201269388199,1.0692631006240845,-7.00816011428833,19.875213623046875,13.042377471923828,1.141442894935608,-0.010499474592506886,-0.2084895670413971,-1.4739294052124023,-2.48755145072937,-1.4079604148864746
73,99707,99709,0.03320114314556122,-0.1719067245721817,1.0816234350204468,44.86021041870117,3.600911855697632,15.904192924499512,1.13994300365448,-0.01799909956753254,-0.20698964595794678,-1.7171427011489868,-2.5214779376983643,-1.2684085369110107
74,99717,99719,0.06654723733663559,-0.12363867461681366,1.1102761030197144,89.34600830078125,-10.038578033447266,15.630784034729004,1.1489425897598267,-0.04199789837002754,-0.21298934519290924,-1.7884111404418945,-1.8976744413375854,-1.0482579469680786
75,99727,99729,0.09734658151865005,0.029472384601831436,1.1145790815353394,124.04582214355469,-24.886157989501953,14.191099166870117,1.1459426879882812,-0.050997450947761536,-0.21598920226097107,-1.6832988262176514,-1.2883588075637817,-0.9579012393951416
76,99737,99739,0.047426752746105194,-0.047765254974365234,0.9823359847068787,131.09620666503906,-44.864871978759766,10.181537628173828,1.1594419479370117,-0.0764961764216423,-0.22048896551132202,-1.3008614778518677,0.03526637330651283,-0.8088657855987549
77,99747,99749,0.040035367012023926,-0.013484728522598743,1.026112675666809,116.70867156982422,-54.19170379638672,5.926994323730469,1.1729413270950317,-0.08399579674005508,-0.22498874366283417,-0.6729469299316406,1.4489332437515259,-0.7450536489486694
78,99757,99759,0.0806480124592781,-0.10283514112234116,0.9842026829719543,74.22482299804688,-48.182518005371094,8.212220191955566,1.1594419479370117,-0.085495725274086,-0.22048896551132202,-0.3474401831626892,2.3110365867614746,-0.7487309575080872
79,99767,99769,0.03422705456614494,-0.06350626796483994,0.8947544693946838,16.538089752197266,-26.272811889648438,10.007521629333496,1.1609419584274292,-0.07199639827013016,-0.22198890149593353,0.14210490882396698,3.2022430896759033,-0.6769493222236633
80,99777,99779,0.07216726243495941,-0.019380830228328705,0.967331051826477,-52.289878845214844,-8.589738845825195,6.195885181427002,1.1519423723220825,-0.050997450947761536,-0.2099895030260086,0.5099928379058838,3.3299248218536377,-0.6593929529190063
81,99787,99789,0.023147352039813995,-0.062593474984169,0.9525231719017029,-124.11608123779297,8.342451095581055,4.183199882507324,1.1759412288665771,-0.056997150182724,-0.21298934519290924,0.5299641489982605,2.696329116821289,-0.6495107412338257
82,99797,99799,0.08850027620792389,0.0559116005897522,1.0494602918624878,-159.44461059570312,33.985450744628906,7.585494041442871,1.1819409132003784,-0.044997747987508774,-0.2189890444278717,0.30984461307525635,1.816641926765442,-0.5306960940361023
83,99807,99809,0.13321147859096527,0.07323876023292542,0.9936206936836243,-159.55625915527344,57.16059494018555,7.114069938659668,1.1729413270950317,-0.03599819913506508,-0.2189890444278717,-0.1377468854188919,0.13102790713310242,-0.4813784062862396
84,99817,99819,0.029562776908278465,0.0073666051030159,1.0003331899642944,-144.34548950195312,66.80992889404297,5.7526116371154785,1.1519423723220825,-0.005999699700623751,-0.22198890149593353,-0.8210621476173401,-1.81778085231781,-0.48780307173728943
85,99827,99829,0.057814501225948334,0.042618002742528915,1.0904576778411865,-111.07405853271484,58.633544921875,5.01263427734375,1.1489425897598267,0.00899954978376627,-0.21298934519290924,-1.4287925958633423,-2.889552593231201,-0.35037389397621155
86,99837,99839,0.08545412123203278,0.026431217789649963,1.0106045007705688,-57.097476959228516,43.98332595825195,1.122507095336914,1.1489425897598267,0.005999699700623751,-0.2189890444278717,-2.1980292797088623,-4.237189769744873,-0.35789331793785095
87,99847,99849,0.07927390933036804,0.02342829667031765,1.046308994293213,1.3334121704101562,17.301992416381836,-3.290679931640625,1.138443112373352,0.013499325141310692,-0.20548972487449646,-2.615163564682007,-4.507622718811035,-0.2532396912574768
88,99857,99859,0.2642470896244049,0.2738300859928131,0.9934380650520325,51.32852554321289,-18.6524715423584,-6.747794151306152,1.1219438314437866,0.014999249950051308,-0.20398980379104614,-2.719006061553955,-4.453028678894043,-0.2726481258869171
89,99867,99869,0.22618842124938965,0.1815689504146576,0.980122447013855,81.71021270751953,-55.92948532104492,-8.57624626159668,1.138443112373352,-0.013499325141310692,-0.2084895670413971,-2.384892225265503,-3.8751726150512695,-0.32821303606033325
90,99877,99879,-0.04042870178818703,-0.0534513033926487,0.9967356324195862,97.19071960449219,-81.44759368896484,-9.18106460571289,1.1564421653747559,-0.03149842470884323,-0.21148942410945892,-1.8322842121124268,-3.1696877479553223,-0.4228205382823944
91,99887,99889,0.005999211687594652,0.029746435582637787,0.9917786717414856,105.58724975585938,-100.72525787353516,-10.286201477050781,1.1369431018829346,-0.026998650282621384,-0.21298934519290924,-0.7780053019523621,-2.1229333877563477,-0.5624073147773743
92,99897,99899,0.10481323301792145,0.15256546437740326,0.9828720092773438,84.23363494873047,-116.52333068847656,-10.977005958557129,1.1669416427612305,-0.050997450947761536,-0.20398980379104614,0.09283624589443207,-1.3937098979949951,-0.7226703763008118
93,99907,99909,-0.0196389090269804,-0.01936892792582512,0.899550199508667,59.90264892578125,-111.00048065185547,-14.127760887145996,1.1714414358139038,-0.037498123943805695,-0.22048896551132202,1.2492244243621826,-0.3805781900882721,-0.7769639492034912
94,99917,99919,-0.03890363872051239,0.030241485685110092,0.8861895799636841,37.056339263916016,-86.17535400390625,-18.390596389770508,1.177441120147705,-0.040497973561286926,-0.21148942410945892,2.319596290588379,0.17786924540996552,-0.9236060976982117
95,99927,99929,0.08409185707569122,0.08576210588216782,0.9095119833946228,15.793173789978027,-48.99019241333008,-24.391281127929688,1.180440902709961,-0.03449827432632446,-0.2174891233444214,3.1786246299743652,0.6390672922134399,-1.0722126960754395
96,99937,99939,0.05972965806722641,0.04896663501858711,0.8863527774810791,-5.0846052169799805,-12.437753677368164,-31.113338470458984,1.1729413270950317,-0.026998650282621384,-0.20698964595794678,3.8805136680603027,0.8234071135520935,-1.3695091009140015
97,99947,99949,0.035792652517557144,0.11729522049427032,0.8064005374908447,-34.47100830078125,20.566864013671875,-37.10283279418945,1.1684415340423584,-0.010499474592506886,-0.21148942410945892,3.775235414505005,0.6652098894119263,-1.5806423425674438
98,99957,99959,0.09817256033420563,0.13246288895606995,0.954755425453186,-63.397796630859375,43.52550506591797,-40.60298156738281,1.180440902709961,-0.007499624975025654,-0.2174891233444214,3.399428606033325,0.2683570384979248,-1.8644171953201294
99,99967,99969,-0.0347786545753479,-0.0420115627348423,0.9642505049705505,-84.46755981445312,52.77491760253906,-41.8060188293457,1.177441120147705,0.010499474592506886,-0.2174891233444214,3.1489226818084717,-0.23239192366600037,-2.3023014068603516
100,99977,99979,0.003993181511759758,0.023484596982598305,0.8946307301521301,-89.75956726074219,57.9815559387207,-43.0587272644043,1.1729413270950317,-0.00899954978376627,-0.20398980379104614,2.5809736251831055,-1.23555326461792,-2.6974000930786133
101,99987,99989,0.019723456352949142,0.07319995760917664,0.8865125179290771,-81.5810546875,53.95780563354492,-43.51484298706055,1.1714414358139038,0.0014999249251559377,-0.19649016857147217,1.8788011074066162,-2.2900190353393555,-3.0904128551483154
102,99997,99999,-0.07008126378059387,-0.011816602200269699,0.9063348174095154,-58.369510650634766,41.984066009521484,-43.775753021240234,1.154942274093628,0.00899954978376627,-0.20698964595794678,1.4394360780715942,-2.7557826042175293,-3.598493814468384
103,100007,100009,0.012833194807171822,0.09670840948820114,0.9033482074737549,-26.537288665771484,29.310779571533203,-43.70264434814453,1.1579420566558838,0.011999399401247501,-0.19499024748802185,0.8596683740615845,-3.330962896347046,-4.010922908782959
104,100017,100019,0.06511567533016205,0.0806792601943016,0.8943852782249451,5.9820051193237305,12.589612007141113,-43.699947357177734,1.1624418497085571,-0.004499774891883135,-0.2084895670413971,0.8088722229003906,-3.700873374938965,-4.555596828460693
105,100027,100029,-0.03818358853459358,0.0027008589822798967,0.8873000741004944,40.39505386352539,-2.6490044593811035,-43.880714416503906,1.1699414253234863,-0.02099894918501377,-0.23098844289779663,0.7431228160858154,-3.5146284103393555,-5.033459186553955
106,100037,100039,0.05648144707083702,0.05551588535308838,0.9471361637115479,73.43762969970703,-23.112682342529297,-43.83008575439453,1.1714414358139038,-0.03449827432632446,-0.2084895670413971,0.9975615739822388,-2.795830249786377,-5.596447944641113
107,100047,100049,-0.0064864023588597775,-0.018864789977669716,0.8894309997558594,95.291015625,-39.1035270690918,-44.97277069091797,1.1669416427612305,-0.047997597604990005,-0.227988600730896,1.2470647096633911,-2.439582109451294,-6.024306774139404
108,100057,100059,0.06420939415693283,-0.007615355774760246,0.8683510422706604,100.97980499267578,-50.62382507324219,-44.9831657409668,1.1624418497085571,-0.058497074991464615,-0.21448926627635956,1.8810429573059082,-1.3920838832855225,-6.588889122009277
109,100067,100069,0.015601426362991333,0.003448390867561102,0.8850588202476501,90.69104766845703,-58.51396179199219,-43.10040283203125,1.1654417514801025,-0.04349782317876816,-0.21448926627635956,2.3084282875061035,-0.8381766080856323,-6.956488609313965
110,100077,100079,-0.007086239289492369,0.0019431711407378316,0.8894965052604675,71.8592758178711,-60.29204559326172,-40.05685806274414,1.177441120147705,-0.07049647718667984,-0.2294885218143463,3.0714194774627686,0.3371792733669281,-7.498529434204102
111,100087,100089,0.014796465635299683,0.050406601279973984,0.9278536438941956,48.045082092285156,-50.74578094482422,-35.280662536621094,1.1759412288665771,-0.047997597604990005,-0.227988600730896,3.710439920425415,0.9147694110870361,-7.899296760559082
112,100097,100099,-0.038065094500780106,-0.02508115954697132,0.8799850940704346,27.132801055908203,-32.93500518798828,-30.915061950683594,1.1984400749206543,-0.07349632680416107,-0.2384880781173706,4.391303062438965,1.6214112043380737,-8.363645553588867
113,100107,100109,0.010888556949794292,-0.002627490321174264,0.8663179278373718,9.156999588012695,-10.803725242614746,-23.756799697875977,1.180440902709961,-0.07949602603912354,-0.22048896551132202,4.692532539367676,1.7708516120910645,-8.626896858215332
114,100117,100119,-0.01901332102715969,0.004517389927059412,0.9223129153251648,-6.776666164398193,16.57857322692871,-18.57465934753418,1.1894404888153076,-0.06449677050113678,-0.22048896551132202,4.699947357177734,1.9259763956069946,-8.842387199401855
115,100127,100129,-0.02369089610874653,-0.008575193583965302,0.9255304336547852,-19.336387634277344,45.46590805053711,-14.700394630432129,1.1864407062530518,-0.07349632680416107,-0.2384880781173706,4.262628078460693,1.8229470252990723,-8.922832489013672
116,100137,100139,-0.0007772956159897149,-0.002701967488974333,0.9270089864730835,-25.182968139648438,73.77113342285156,-11.720459938049316,1.177441120147705,-0.05249737575650215,-0.2294885218143463,3.9996297359466553,1.7930629253387451,-9.14306354522705
117,100147,100149,0.0002663482737261802,-0.01591748744249344,0.9130339622497559,-23.31913948059082,86.66608428955078,-10.605925559997559,1.1834408044815063,-0.04649767279624939,-0.22048896551132202,3.47420597076416,1.3874276876449585,-9.210680961608887
118,100157,100159,0.02292361855506897,0.009946361184120178,1.0030092000961304,-14.970620155334473,88.80779266357422,-9.586969375610352,1.1834408044815063,-0.06749662756919861,-0.21448926627635956,2.3079674243927,1.1172665357589722,-9.242831230163574
119,100167,100169,0.0353909470140934,0.00039305503014475107,0.9564986824989319,1.2676082849502563,78.82970428466797,-9.91998291015625,1.1714414358139038,-0.07349632680416107,-0.21148942410945892,1.7192165851593018,0.865016758441925,-9.326669692993164
120,100177,100179,0.045161932706832886,-0.006550597492605448,0.973660409450531,16.925355911254883,54.8023681640625,-10.289709091186523,1.1834408044815063,-0.07949602603912354,-0.22048896551132202,0.8370019793510437,1.0743366479873657,-9.484367370605469
121,100187,100189,0.028552446514368057,0.0504097081720829,0.9719929099082947,33.67045974731445,30.743471145629883,-9.247960090637207,1.1744412183761597,-0.07349632680416107,-0.2174891233444214,0.3759945034980774,1.2656469345092773,-9.60569953918457
122,100197,100199,0.015552148222923279,-0.028664881363511086,0.8867796063423157,37.65119934082031,5.825191497802734,-9.683919906616211,1.1624418497085571,-0.08249587565660477,-0.21148942410945892,0.00985014159232378,1.595571756362915,-9.691679000854492
123,100207,100209,0.07893557846546173,-0.021876830607652664,0.9756172299385071,27.694826126098633,-14.649114608764648,-10.490234375,1.178941011428833,-0.09899504482746124,-0.21298934519290924,0.17469319701194763,1.7898221015930176,-9.751712799072266
124,100217,100219,0.05717552825808525,0.03389383479952812,1.0773589611053467,11.539915084838867,-22.503522872924805,-11.87222671508789,1.1849406957626343,-0.11099445074796677,-0.227988600730896,0.4129401743412018,2.196204900741577,-9.889900207519531
125,100227,100229,0.09205128252506256,0.05507131665945053,0.9882485270500183,-9.75318431854248,-18.185998916625977,-12.279892921447754,1.1834408044815063,-0.0944952741265297,-0.2174891233444214,0.6092121005058289,2.026277780532837,-9.944003105163574
126,100237,100239,0.03849902004003525,0.005625924561172724,1.0121015310287476,-25.459680557250977,-1.186942219734192,-12.123703956604004,1.1879405975341797,-0.10199490189552307,-0.22198890149593353,0.8431223630905151,2.0644891262054443,-10.087714195251465
127,100247,100249,0.03269049897789955,0.003638271242380142,0.9595379829406738,-31.852169036865234,19.966859817504883,-11.800613403320312,1.1819409132003784,-0.08099594712257385,-0.227988600730896,0.7941277623176575,1.8096188306808472,-10.20815658569336
128,100257,100259,0.06624066829681396,0.0904729887843132,1.0895358324050903,-39.055091857910156,39.148380279541016,-7.946242332458496,1.180440902709961,-0.08249587565660477,-0.2084895670413971,0.9832162261009216,1.6892138719558716,-10.322964668273926
129,100267,100269,-0.0410393662750721,-0.02893240377306938,0.9943883419036865,-43.604793548583984,52.341983795166016,-4.271702766418457,1.180440902709961,-0.07949602603912354,-0.21148942410945892,0.44250690937042236,1.1768462657928467,-10.40426254272461
130,100277,100279,0.10650529712438583,0.12070061266422272,0.9592336416244507,-49.06642532348633,66.18183898925781,-0.3092384934425354,1.1654417514801025,-0.06449677050113678,-0.2174891233444214,-0.2602084279060364,0.8844656944274902,-10.485516548156738
131,100287,100289,0.06822085380554199,0.06906923651695251,0.965469479560852,-49.96428298950195,70.1780014038086,3.83590030670166,1.1594419479370117,-0.06149692460894585,-0.22048896551132202,-0.6235077381134033,0.489438533782959,-10.46235466003418
132,100297,100299,0.045968204736709595,0.044247761368751526,1.0235745906829834,-37.00352478027344,66.9049072265625,7.119402885437012,1.1609419584274292,-0.07199639827013016,-0.21598920226097107,-1.4839681386947632,-0.13123509287834167,-10.44207763671875
133,100307,100309,0.07093538343906403,0.09770341962575912,1.0850120782852173,-28.9497013092041,56.7118034362793,9.744032859802246,1.1609419584274292,-0.0659966990351677,-0.21298934519290924,-1.9870902299880981,-0.37937015295028687,-10.365397453308105
134,100317,100319,0.012105976231396198,0.10426001250743866,0.9818819165229797,-20.974506378173828,40.61994934082031,13.210643768310547,1.154942274093628,-0.07499624788761139,-0.227988600730896,-2.5913445949554443,-0.5678520202636719,-10.277114868164062
135,100327,100329,-0.012762118130922318,0.044485051184892654,1.043673038482666,-18.124591827392578,33.81500244140625,18.760177612304688,1.1534422636032104,-0.06749662756919861,-0.22048896551132202,-2.8347418308258057,-0.7830604314804077,-10.143720626831055
136,100337,100339,0.009184613823890686,-0.033568985760211945,1.0897279977798462,-19.42085075378418,27.187137603759766,24.91588020324707,1.1579420566558838,-0.07199639827013016,-0.22498874366283417,-3.2430801391601562,-1.1019877195358276,-10.001157760620117
137,100347,100349,0.014639653265476227,0.018807189539074898,0.9684741497039795,-19.996171951293945,17.270742416381836,31.859025955200195,1.1609419584274292,-0.08699564635753632,-0.21298934519290924,-3.6845192909240723,-1.2623318433761597,-9.775964736938477
138,100357,100359,0.18877644836902618,0.12185530364513397,1.0737584829330444,-22.20073127746582,4.8362250328063965,40.46306228637695,1.1729413270950317,-0.08399579674005508,-0.22198890149593353,-3.9024009704589844,-1.3723905086517334,-9.463171005249023
139,100367,100369,0.06365901976823807,0.0743803158402443,1.108268141746521,-24.666746139526367,-11.384248733520508,48.153892517089844,1.180440902709961,-0.10649467259645462,-0.2174891233444214,-3.7169981002807617,-1.6655538082122803,-9.107743263244629
140,100377,100379,-0.11080601066350937,-0.08396051079034805,1.1161454916000366,-5.925909996032715,-11.252796173095703,55.488426208496094,1.1654417514801025,-0.10949452221393585,-0.22648866474628448,-3.620076894760132,-1.6815080642700195,-8.571134567260742
141,100387,100389,-0.27774253487586975,-0.22619307041168213,1.1112655401229858,24.045198440551758,0.7409444451332092,58.384586334228516,1.1579420566558838,-0.08699564635753632,-0.21598920226097107,-3.5488786697387695,-1.8833041191101074,-8.084586143493652
142,100397,100399,-0.12165000289678574,-0.049212366342544556,1.0744047164916992,43.90511703491211,21.895462036132812,62.5720100402832,1.1609419584274292,-0.11099445074796677,-0.22498874366283417,-3.584362268447876,-1.459731936454773,-7.422829627990723
143,100407,100409,0.06831333041191101,-0.21872520446777344,1.013108253479004,48.92158889770508,45.63733673095703,64.28128051757812,1.1474425792694092,-0.09149542450904846,-0.2384880781173706,-3.9562387466430664,-0.9948205351829529,-6.788612365722656
144,100417,100419,-0.015418325550854206,-0.12551146745681763,1.0127590894699097,41.522281646728516,50.88613510131836,65.28089141845703,1.1534422636032104,-0.07349632680416107,-0.21148942410945892,-4.343943119049072,-0.32562440633773804,-6.088876724243164
145,100427,100429,0.02186194807291031,-0.045627038925886154,1.0633074045181274,30.066564559936523,40.51143264770508,61.635215759277344,1.1489425897598267,-0.08699564635753632,-0.22498874366283417,-4.619296073913574,-0.0032131928019225597,-5.557182312011719
146,100437,100439,0.10522201657295227,0.03177889809012413,1.0385866165161133,23.57170867919922,31.345901489257812,60.898887634277344,1.1339433193206787,-0.1049947515130043,-0.227988600730896,-5.1301960945129395,0.45190125703811646,-4.8792243003845215
147,100447,100449,0.21590527892112732,0.1380869448184967,1.0596805810928345,21.442405700683594,23.502578735351562,55.869022369384766,1.1474425792694092,-0.09149542450904846,-0.22048896551132202,-5.337917327880859,0.6570591926574707,-4.338256359100342
148,100457,100459,0.024935688823461533,-0.0014265021309256554,1.090401291847229,17.22747230529785,13.25556755065918,50.47768783569336,1.1429427862167358,-0.09899504482746124,-0.227988600730896,-5.666248321533203,0.8936581611633301,-3.7790918350219727
149,100467,100469,0.06379223614931107,-0.007226921152323484,1.097630500793457,7.6323676109313965,-1.6889369487762451,44.20248794555664,1.13994300365448,-0.09899504482746124,-0.2189890444278717,-5.861415386199951,1.1872584819793701,-3.214446783065796
150,100477,100479,-0.01834842748939991,-0.002807615092024207,1.0863183736801147,1.5848749876022339,-17.523860931396484,34.45283126831055,1.1429427862167358,-0.09599519520998001,-0.22198890149593353,-5.506608963012695,1.355230450630188,-2.742412567138672
151,100487,100489,0.02128749154508114,-0.06209619343280792,1.165397047996521,-6.864166259765625,-33.065223693847656,27.156112670898438,1.1489425897598267,-0.10199490189552307,-0.23098844289779663,-5.346201419830322,1.3653671741485596,-2.4309492111206055
152,100497,100499,-0.006112574599683285,-0.006771537009626627,1.088779091835022,-9.684245109558105,-39.23544692993164,18.0576171875,1.1594419479370117,-0.09749512374401093,-0.22648866474628448,-5.041035175323486,1.2540003061294556,-2.212459087371826
153,100507,100509,0.03310231491923332,0.036605529487133026,1.1922698020935059,-7.962299823760986,-40.265663146972656,11.636207580566406,1.1594419479370117,-0.09749512374401093,-0.22648866474628448,-4.5657124519348145,1.1164740324020386,-2.0692341327667236
154,100517,100519,0.06774218380451202,-0.03211941570043564,1.1189507246017456,-4.043120384216309,-38.099822998046875,7.016798496246338,1.1594419479370117,-0.09749512374401093,-0.22648866474628448,-4.083591938018799,1.0039061307907104,-1.9754908084869385
155,100527,100529,0.1273706704378128,0.06188083067536354,1.1205135583877563,1.2021257877349854,-31.400863647460938,2.230769395828247,1.13994300365448,-0.07499624788761139,-0.22198890149593353,-3.810612678527832,1.1641274690628052,-1.7350125312805176
156,100537,100539,0.013690311461687088,-0.04520178958773613,1.0416977405548096,8.31500244140625,-24.730024337768555,-1.4530915021896362,1.13994300365448,-0.08399579674005508,-0.2189890444278717,-3.415982961654663,1.1862117052078247,-1.6808104515075684
157,100547,100549,-0.036641675978899,-0.036679308861494064,1.1077096462249756,10.409663200378418,-18.848398208618164,-3.7287213802337646,1.1324433088302612,-0.0764961764216423,-0.21448926627635956,-3.126657724380493,1.3033918142318726,-1.6508277654647827
158,100557,100559,-0.007725242525339127,-0.0036907955072820187,0.955823540687561,2.0035150051116943,-14.610176086425781,-4.512940406799316,1.141442894935608,-0.07349632680416107,-0.21148942410945892,-2.7822601795196533,1.347794771194458,-1.7207598686218262
159,100567,100569,-0.0419599749147892,-0.15291063487529755,1.0681260824203491,-11.323822975158691,-9.467866897583008,-3.2069826126098633,1.138443112373352,-0.06149692460894585,-0.21148942410945892,-2.650914192199707,1.3185451030731201,-1.827620029449463
160,100577,100579,-0.1297709047794342,-0.1005321815609932,1.0492961406707764,-19.330129623413086,-2.9183804988861084,-2.0392587184906006,1.1474425792694092,-0.058497074991464615,-0.21448926627635956,-2.800926685333252,1.32301664352417,-1.8330848217010498
161,100587,100589,-0.03994714468717575,-0.02447023056447506,1.0533356666564941,-27.41216468811035,1.7209687232971191,-1.7670754194259644,1.1489425897598267,-0.06299684941768646,-0.21598920226097107,-2.612682580947876,1.0995198488235474,-1.8709022998809814
162,100597,100599,0.00018663563241716474,-0.00586598739027977,1.036607027053833,-28.757192611694336,5.6135711669921875,0.06746335327625275,1.141442894935608,-0.04949752241373062,-0.2174891233444214,-2.725417137145996,0.9859106540679932,-1.7931482791900635
163,100607,100609,-0.014537871815264225,0.017106080427765846,1.0754467248916626,-24.94476318359375,6.384028911590576,0.6159834861755371,1.1324433088302612,-0.04649767279624939,-0.20548972487449646,-2.8060202598571777,0.7064279317855835,-1.8004742860794067
164,100617,100619,-0.014767913147807121,0.005833484698086977,1.0696312189102173,-15.151135444641113,6.264204025268555,0.7036893963813782,1.1369431018829346,-0.044997747987508774,-0.20698964595794678,-2.9640848636627197,0.5708947777748108,-1.7244179248809814
165,100627,100629,0.018940109759569168,-0.034049250185489655,1.0669583082199097,-7.421257972717285,4.4372148513793945,-0.4965771734714508,1.1459426879882812,-0.05399730056524277,-0.19799008965492249,-3.1086537837982178,0.3620438873767853,-1.7572553157806396
166,100637,100639,0.007539993617683649,0.0007674929220229387,1.0769859552383423,-0.1432308852672577,-0.03246229887008667,-1.5726895332336426,1.1474425792694092,-0.03449827432632446,-0.21148942410945892,-3.0014703273773193,0.2256757616996765,-1.7719699144363403
167,100647,100649,-0.0019062752835452557,0.013542692176997662,1.0684034824371338,3.7085139751434326,-5.291788101196289,-3.3932688236236572,1.141442894935608,-0.04949752241373062,-0.20548972487449646,-3.0314481258392334,0.1951599270105362,-1.8033467531204224
168,100657,100659,0.040028370916843414,0.026532480493187904,1.0422130823135376,-0.5057858228683472,-7.255537033081055,-2.093376398086548,1.1189440488815308,-0.050997450947761536,-0.21598920226097107,-2.9925153255462646,0.18632890284061432,-1.8613182306289673
169,100667,100669,0.05380764603614807,0.01273336261510849,1.0317540168762207,-4.6497979164123535,-12.660942077636719,-1.0322647094726562,1.1354432106018066,-0.04349782317876816,-0.20248986780643463,-2.758805274963379,0.3343210518360138,-1.7674894332885742
170,100677,100679,-0.0039691380225121975,0.004168559331446886,1.056381106376648,-7.07447624206543,-21.539077758789062,-2.7064390182495117,1.138443112373352,-0.04349782317876816,-0.199490025639534,-2.570890188217163,0.34082967042922974,-1.7429863214492798
171,100687,100689,0.0021471811924129725,-0.021189866587519646,1.0347070693969727,-2.6935367584228516,-34.499061584472656,-3.992694139480591,1.138443112373352,-0.04349782317876816,-0.20248986780643463,-2.2311935424804688,0.20007598400115967,-1.798170566558838
172,100697,100699,0.014041980728507042,-0.006081494968384504,1.0034468173980713,-1.7886911630630493,-44.65771484375,-5.0047502517700195,1.1444427967071533,-0.04949752241373062,-0.19349032640457153,-1.9141185283660889,0.11584094911813736,-1.870197057723999
173,100707,100709,0.031916532665491104,0.029446572065353394,0.9952959418296814,-11.008501052856445,-45.50114059448242,-5.563319683074951,1.1429427862167358,-0.044997747987508774,-0.21298934519290924,-1.3954336643218994,0.3581220209598541,-1.768357515335083
174,100717,100719,0.007191226817667484,0.03092014789581299,0.9832600355148315,-22.960634231567383,-37.51577377319336,-6.710265636444092,1.1519423723220825,-0.05999699980020523,-0.2099895030260086,-1.027154564857483,0.1985456794500351,-1.8644514083862305
175,100727,100729,0.014639880508184433,-0.013179413974285126,0.9613934755325317,-41.18844223022461,-21.870040893554688,-6.28798246383667,1.1564421653747559,-0.05549722537398338,-0.20548972487449646,-0.6504083871841431,-0.11066820472478867,-1.9653847217559814
176,100737,100739,-0.019817037507891655,0.01778632216155529,0.9784998297691345,-43.928382873535156,-3.053098201751709,-6.323367595672607,1.1579420566558838,-0.04199789837002754,-0.20398980379104614,-0.3892376720905304,-0.4669267535209656,-2.017833709716797
177,100747,100749,-0.013626650907099247,0.013782723806798458,1.000699520111084,-41.31312561035156,14.586360931396484,-6.318800926208496,1.1459426879882812,-0.023998798802495003,-0.19799008965492249,-0.42865216732025146,-0.8742495775222778,-2.080322504043579
178,100757,100759,0.002577086677774787,0.038633015006780624,1.0169624090194702,-31.125871658325195,28.573352813720703,-5.70065450668335,1.141442894935608,0.0014999249251559377,-0.20248986780643463,-0.6679925918579102,-1.2090550661087036,-2.1260809898376465
179,100767,100769,0.036514997482299805,0.034699421375989914,0.9952979683876038,-21.348981857299805,29.955188751220703,-4.814849376678467,1.1444427967071533,-0.022498873993754387,-0.2084895670413971,-0.8733594417572021,-1.6071041822433472,-2.2111153602600098
180,100777,100779,-0.053945738822221756,-0.005807141773402691,1.0336816310882568,-5.415563106536865,19.22337532043457,-1.9442650079727173,1.1444427967071533,0.0014999249251559377,-0.20248986780643463,-1.2840083837509155,-1.8180840015411377,-2.2647416591644287
181,100787,100789,0.022086123004555702,0.030129581689834595,0.971558153629303,12.227190017700195,4.2843828201293945,2.240800380706787,1.141442894935608,-0.016499174758791924,-0.20248986780643463,-1.2971395254135132,-1.9153224229812622,-2.3013951778411865
182,100797,100799,0.04565029963850975,0.04570936784148216,0.9563003778457642,31.78736686706543,-3.618885040283203,5.779938697814941,1.1489425897598267,-0.014999249950051308,-0.19799008965492249,-1.323401689529419,-1.7242321968078613,-2.262491464614868
183,100807,100809,-0.06047461926937103,-0.03059052862226963,0.9350760579109192,50.535125732421875,-7.4256720542907715,9.010602951049805,1.1429427862167358,-0.02099894918501377,-0.18599069118499756,-1.2972662448883057,-1.2163341045379639,-2.153327465057373
184,100817,100819,0.007117609493434429,0.0180013757199049,0.9317024946212769,57.93333053588867,-8.33635425567627,13.653897285461426,1.138443112373352,-0.040497973561286926,-0.1904904693365097,-1.078015685081482,-0.926979660987854,-2.124525308609009
185,100827,100829,0.048908866941928864,0.020305195823311806,0.9143682718276978,61.197113037109375,-9.350765228271484,17.745166778564453,1.123443841934204,-0.03449827432632446,-0.21148942410945892,-0.9239118695259094,-0.16407644748687744,-1.964367151260376
186,100837,100839,0.0035664807073771954,-0.03785032778978348,0.8994929194450378,47.17521667480469,-10.631834030151367,19.89959716796875,1.1459426879882812,-0.047997597604990005,-0.21298934519290924,-0.8212947249412537,0.15546947717666626,-1.8477274179458618
187,100847,100849,-0.03531387448310852,-0.05714835599064827,0.9253833293914795,21.23777198791504,-10.553685188293457,21.064481735229492,1.1354432106018066,-0.04349782317876816,-0.199490025639534,-0.6909701824188232,0.5261930823326111,-1.6815636157989502
188,100857,100859,0.00612054904922843,-0.01906648464500904,0.9232836961746216,-7.863059043884277,-4.246824264526367,21.493999481201172,1.1459426879882812,-0.029998499900102615,-0.2099895030260086,-0.5893129706382751,0.7554192543029785,-1.4789754152297974
189,100867,100869,0.04285170137882233,-0.022215094417333603,0.9199208617210388,-31.39006996154785,3.6117639541625977,21.339685440063477,1.1579420566558838,-0.03899804875254631,-0.19799008965492249,-0.5910148620605469,0.7440576553344727,-1.2578037977218628
190,100877,100879,0.023745644837617874,-0.01605021208524704,0.9565243721008301,-44.07694625854492,6.69201135635376,19.336027145385742,1.1504424810409546,-0.037498123943805695,-0.20248986780643463,-0.6905223727226257,0.3225886821746826,-1.0583360195159912
191,100887,100889,0.024615325033664703,0.07436201721429825,0.9912859797477722,-47.870365142822266,10.398990631103516,17.412246704101562,1.1369431018829346,-0.029998499900102615,-0.20098994672298431,-0.6510828733444214,-0.13715553283691406,-0.8668228983879089
192,100897,100899,0.09422580897808075,0.036035165190696716,0.9682515263557434,-42.12150955200195,11.493926048278809,14.857016563415527,1.1444427967071533,-0.03449827432632446,-0.20548972487449646,-0.7349849939346313,-0.42430415749549866,-0.67512047290802
193,100907,100909,-0.05680517107248306,-0.037906255573034286,0.9938096404075623,-32.27008056640625,7.262292385101318,10.985494613647461,1.1564421653747559,-0.037498123943805695,-0.20548972487449646,-0.8695956468582153,-0.7637926936149597,-0.5183531045913696
194,100917,100919,0.028968652710318565,0.046566952019929886,0.9866084456443787,-17.01563835144043,3.972327470779419,8.689774513244629,1.1444427967071533,-0.03449827432632446,-0.2084895670413971,-0.9495172500610352,-1.2019739151000977,-0.4093283712863922
195,100927,100929,-0.025996997952461243,-0.043143145740032196,0.9969170093536377,-2.5958921909332275,2.23065185546875,7.000729560852051,1.1444427967071533,-0.037498123943805695,-0.199490025639534,-0.8458438515663147,-1.2495737075805664,-0.3172985017299652
196,100937,100939,0.0201309472322464,0.008913320489227772,0.9712556004524231,8.838342666625977,1.3913294076919556,6.368412017822266,1.13994300365448,-0.029998499900102615,-0.21598920226097107,-0.9289159178733826,-1.2959321737289429,-0.24577026069164276
197,100947,100949,-0.012160043232142925,0.0017361100763082504,0.9946976900100708,18.502901077270508,0.29351913928985596,6.436574935913086,1.1534422636032104,-0.03449827432632446,-0.20548972487449646,-0.9968889951705933,-1.1508052349090576,-0.17759235203266144
198,100957,100959,0.016817830502986908,0.04454771801829338,0.9797869324684143,20.153892517089844,1.001939058303833,6.937859535217285,1.1324433088302612,-0.03449827432632446,-0.19649016857147217,-1.0539284944534302,-0.8948493003845215,-0.10743927955627441
199,100967,100969,-0.0188919510692358,-0.00751833152025938,0.9851720333099365,11.781601905822754,2.386559009552002,5.533315658569336,1.1369431018829346,-0.029998499900102615,-0.19799008965492249,-0.9842533469200134,-0.7172893285751343,-0.04832103103399277
200,100977,100979,-0.04137365147471428,-0.030595937743782997,0.9560872912406921,1.1245346069335938,-0.4429088532924652,3.4474806785583496,1.12644362449646,-0.04349782317876816,-0.2084895670413971,-1.0617715120315552,-0.5345960855484009,0.01621786504983902
201,100987,100989,0.019374631345272064,0.03592655435204506,0.9874106049537659,-9.191792488098145,-3.887943983078003,3.3819992542266846,1.1534422636032104,-0.025498725473880768,-0.20548972487449646,-1.0813416242599487,-0.5995382070541382,0.055189669132232666
202,100997,100999,-0.03987978398799896,-0.05092569813132286,0.977387011051178,-17.102153778076172,-8.53181266784668,3.081921339035034,1.1459426879882812,-0.029998499900102615,-0.20398980379104614,-0.7575028538703918,-0.8082953095436096,0.059507254511117935
203,101007,101009,0.027465561404824257,0.040232039988040924,0.9887313842773438,-22.367876052856445,-9.818461418151855,2.132737636566162,1.141442894935608,-0.03449827432632446,-0.2174891233444214,-0.6066721081733704,-0.920730710029602,0.08449885994195938
204,101017,101019,0.02705353870987892,-0.00044432078721001744,0.9811319708824158,-19.64344596862793,-6.305865287780762,-0.30529704689979553,1.1444427967071533,-0.028498575091362,-0.2084895670413971,-0.5956325531005859,-1.0856586694717407,0.11482745409011841
205,101027,101029,0.006373970303684473,-0.015547338873147964,0.9825926423072815,-14.906949996948242,0.4483506679534912,-1.9715300798416138,1.1489425897598267,-0.011999399401247501,-0.20398980379104614,-0.4998827874660492,-1.3500059843063354,0.11314410716295242
206,101037,101039,0.052701108157634735,0.04975925385951996,1.0076043605804443,-12.730447769165039,12.019118309020996,-2.3810207843780518,1.141442894935608,-0.016499174758791924,-0.22048896551132202,-0.6002674698829651,-1.4097545146942139,0.10791272670030594
207,101047,101049,-0.024505192413926125,0.005519081838428974,1.0084114074707031,-10.367767333984375,17.041854858398438,-2.2651610374450684,1.1369431018829346,-0.00899954978376627,-0.2099895030260086,-0.6333115100860596,-1.6392734050750732,0.07669251412153244
208,101057,101059,-0.005519528407603502,0.005102962721139193,0.9717239737510681,-7.313445568084717,13.119799613952637,-1.1061543226242065,1.1369431018829346,-0.0029998498503118753,-0.20398980379104614,-0.8720570802688599,-1.6190639734268188,0.05348308011889458
209,101067,101069,0.009929199703037739,0.017941700294613838,1.0016391277313232,1.839866042137146,8.558687210083008,-0.6787269115447998,1.12644362449646,-0.019499024376273155,-0.20548972487449646,-0.9754542708396912,-1.7387348413467407,0.03569670766592026
210,101077,101079,-0.02486252412199974,-0.02522752806544304,1.010111927986145,13.315384864807129,1.2263373136520386,1.2350388765335083,1.13994300365448,-0.023998798802495003,-0.1889905482530594,-0.9903802275657654,-1.755204677581787,0.01503446139395237
211,101087,101089,0.04187241569161415,0.032483167946338654,0.9780753254890442,17.817890167236328,-7.479489803314209,1.413665771484375,1.1429427862167358,-0.03599819913506508,-0.21298934519290924,-0.8207967877388,-1.5449652671813965,-0.013239294290542603
212,101097,101099,-0.017310606315732002,-0.06403294205665588,0.9691930413246155,19.272008895874023,-10.082257270812988,0.21155722439289093,1.1429427862167358,-0.044997747987508774,-0.20398980379104614,-1.1121737957000732,-1.6998820304870605,0.07469724118709564
213,101107,101109,-0.011264752596616745,0.006478873547166586,0.9335419535636902,21.034717559814453,-5.698851108551025,-0.7944326400756836,1.1429427862167358,-0.03899804875254631,-0.20398980379104614,-0.7317150235176086,-1.320203185081482,0.023855751380324364
214,101117,101119,0.07641804963350296,0.0382978655397892,0.9322572350502014,18.057153701782227,1.2672078609466553,-0.9316480159759521,1.1459426879882812,-0.03599819913506508,-0.2099895030260086,-0.7122913002967834,-1.0006192922592163,0.023826587945222855
215,101127,101129,0.003926252946257591,-0.015802089124917984,0.9678176045417786,0.6618298292160034,9.674970626831055,-0.10508173704147339,1.1459426879882812,-0.014999249950051308,-0.20398980379104614,-0.45842796564102173,-0.9188026785850525,-0.029678603634238243
216,101137,101139,-0.08052221685647964,-0.11110389977693558,0.9423314929008484,-23.1241455078125,20.019062042236328,4.6602301597595215,1.1519423723220825,-0.03599819913506508,-0.20698964595794678,-0.49403175711631775,-0.9744711518287659,-0.036638300865888596
217,101147,101149,-0.047426287084817886,-0.16304711997509003,0.9521310925483704,-36.817604064941406,27.50122833251953,10.385549545288086,1.1594419479370117,-0.022498873993754387,-0.21148942410945892,-0.830132007598877,-1.08329439163208,0.022326219826936722
218,101157,101159,-0.0434509702026844,-0.13030192255973816,1.0044004917144775,-26.65780258178711,39.34572219848633,14.512794494628906,1.1429427862167358,-0.026998650282621384,-0.21298934519290924,-1.27274751663208,-1.6046491861343384,0.14541931450366974
219,101167,101169,0.19062961637973785,0.0678030326962471,0.9628157615661621,-17.699832916259766,41.7601203918457,16.350244522094727,1.141442894935608,-0.04349782317876816,-0.2174891233444214,-1.501309871673584,-1.7334908246994019,0.23807087540626526
220,101177,101179,0.12566985189914703,0.07910586148500443,0.9581156373023987,-0.935173749923706,32.75927734375,17.968393325805664,1.1429427862167358,-0.023998798802495003,-0.22198890149593353,-1.802847146987915,-1.7673170566558838,0.3548705577850342
221,101187,101189,0.01448884792625904,0.006697235628962517,0.9862573742866516,24.41701889038086,17.837329864501953,17.089025497436523,1.12644362449646,-0.037498123943805695,-0.21148942410945892,-2.350104331970215,-1.7082747220993042,0.5619228482246399
222,101197,101199,-0.06958618760108948,-0.1485634297132492,0.9699718356132507,51.75199508666992,10.075223922729492,16.117761611938477,1.1354432106018066,-0.04649767279624939,-0.21148942410945892,-2.3886072635650635,-1.6722583770751953,0.6909537315368652
223,101207,101209,0.03677576780319214,-0.03680196404457092,0.9284467101097107,70.37145233154297,3.498586893081665,16.703590393066406,1.13994300365448,-0.056997150182724,-0.2189890444278717,-2.3054163455963135,-0.9093585014343262,0.8195411562919617
224,101217,101219,-0.00803068745881319,-0.044568099081516266,0.9638512134552002,74.38377380371094,-1.4775687456130981,21.877182006835938,1.138443112373352,-0.058497074991464615,-0.19649016857147217,-2.4329850673675537,-0.056766364723443985,1.0065500736236572
225,101227,101229,0.10231957584619522,-0.00017702559125609696,0.967404305934906,67.25719451904297,5.220491886138916,24.143789291381836,1.1204439401626587,-0.06449677050113678,-0.21148942410945892,-2.2509279251098633,0.479464054107666,1.155322551727295
226,101237,101239,0.09320535510778427,0.010979054495692253,0.9345278739929199,49.748653411865234,17.707780838012695,21.386911392211914,1.1354432106018066,-0.06449677050113678,-0.20248986780643463,-2.436006546020508,1.2353711128234863,1.4255683422088623
227,101247,101249,-0.14967554807662964,-0.09794469177722931,0.9189090728759766,28.666996002197266,27.52187156677246,12.9146089553833,1.1309434175491333,-0.056997150182724,-0.19499024748802185,-2.6229240894317627,1.6359068155288696,1.6452341079711914
228,101257,101259,-0.04534904658794403,-0.04283812642097473,0.9985681772232056,-5.49029541015625,28.197101593017578,3.950054168701172,1.1324433088302612,-0.04649767279624939,-0.2084895670413971,-2.8371005058288574,1.8024672269821167,1.7735748291015625
229,101267,101269,0.05631503090262413,0.04978761821985245,1.059028148651123,-48.52383041381836,15.851957321166992,-2.237189769744873,1.138443112373352,-0.05549722537398338,-0.21148942410945892,-3.1721043586730957,1.9699939489364624,1.8674062490463257
230,101277,101279,-0.005419205408543348,-0.05131866782903671,1.0124872922897339,-93.2293930053711,0.35763636231422424,-4.798660755157471,1.1489425897598267,-0.0659966990351677,-0.20398980379104614,-3.497232437133789,1.4885143041610718,1.8525031805038452
231,101287,101289,-0.013060490600764751,-0.046142421662807465,1.0572376251220703,-124.81378173828125,-16.208789825439453,-6.217225551605225,1.1519423723220825,-0.05999699980020523,-0.21598920226097107,-3.2696218490600586,0.2391153872013092,1.7349224090576172
232,101297,101299,0.09828431904315948,0.04455021396279335,1.1161185503005981,-127.26518249511719,-38.57063674926758,-5.7095537185668945,1.1534422636032104,-0.05249737575650215,-0.2174891233444214,-3.2224669456481934,-0.699055552482605,1.7251288890838623
233,101307,101309,0.22019024193286896,0.12181869149208069,1.108019232749939,-99.37553405761719,-52.86628341674805,-3.8045554161071777,1.1519423723220825,-0.047997597604990005,-0.2189890444278717,-2.78450608253479,-2.177980422973633,1.636047601699829
234,101317,101319,0.08935410529375076,0.0395951010286808,1.0908539295196533,-50.140499114990234,-53.632041931152344,-3.0826292037963867,1.1504424810409546,-0.04349782317876816,-0.22348882257938385,-2.4371700286865234,-2.9458863735198975,1.6848292350769043
235,101327,101329,0.029954910278320312,-0.011343616060912609,1.0334765911102295,15.480445861816406,-41.5924072265625,-5.013229846954346,1.1474425792694092,-0.03449827432632446,-0.21448926627635956,-1.6712164878845215,-3.5311152935028076,1.6888322830200195
236,101337,101339,-0.028254114091396332,-0.005866991821676493,1.0278586149215698,78.6409912109375,-26.757476806640625,-6.642775058746338,1.1429427862167358,-0.047997597604990005,-0.21598920226097107,-1.4393032789230347,-3.150839328765869,1.761725664138794
237,101347,101349,0.008502861484885216,-0.0023544724099338055,1.0342450141906738,116.80878448486328,-14.878453254699707,-8.34518814086914,1.1624418497085571,-0.058497074991464615,-0.2174891233444214,-1.3195312023162842,-2.6336112022399902,1.7052531242370605
238,101357,101359,0.07470716536045074,0.04744110256433487,0.9990692734718323,135.50367736816406,0.8369224071502686,-8.940229415893555,1.141442894935608,-0.06749662756919861,-0.2084895670413971,-1.05527925491333,-1.3530055284500122,1.6597408056259155
239,101367,101369,0.03819834440946579,-0.014811105094850063,0.9866454005241394,133.0835723876953,13.551031112670898,-8.56055736541748,1.141442894935608,-0.06749662756919861,-0.2084895670413971,-1.1128807067871094,-0.37800076603889465,1.5281871557235718
240,101377,101379,-0.035732463002204895,-0.04954913258552551,0.9390817284584045,108.34712982177734,15.913972854614258,-8.667372703552246,1.141442894935608,-0.06749662756919861,-0.2084895670413971,-1.116837501525879,1.290104866027832,1.4754453897476196
241,101387,101389,-0.15235969424247742,-0.23566114902496338,0.9615934491157532,63.578208923339844,8.142972946166992,-10.530814170837402,1.1354432106018066,-0.058497074991464615,-0.2174891233444214,-1.2803947925567627,2.3600094318389893,1.3873238563537598
242,101397,101399,-0.13041839003562927,-0.11857549846172333,0.963804304599762,3.3356270790100098,1.5069711208343506,-10.343328475952148,1.1354432106018066,-0.058497074991464615,-0.2084895670413971,-1.4190834760665894,2.8490939140319824,1.259763479232788
243,101407,101409,-0.128633514046669,0.0603269524872303,0.9440494775772095,-57.63616943359375,-7.368037700653076,-10.946955680847168,1.1429427862167358,-0.04199789837002754,-0.20398980379104614,-1.3652452230453491,2.6864829063415527,1.1183923482894897
244,101417,101419,-0.13427041471004486,-0.042090754956007004,0.9492959976196289,-103.36209106445312,-12.862813949584961,-14.169745445251465,1.163941740989685,-0.047997597604990005,-0.21598920226097107,-1.3107596635818481,2.3689513206481934,1.0264918804168701
245,101427,101429,-0.034777816385030746,-0.1005646213889122,0.9810563325881958,-121.89684295654297,-20.601680755615234,-16.869962692260742,1.1594419479370117,-0.05249737575650215,-0.2174891233444214,-1.089870572090149,1.0288678407669067,0.851909875869751
246,101437,101439,0.04204981401562691,0.06824874132871628,0.9835708141326904,-123.5310287475586,-23.081504821777344,-19.27544403076172,1.1699414253234863,-0.0659966990351677,-0.22198890149593353,-0.799352765083313,0.14124098420143127,0.7252721786499023
247,101447,101449,0.11389879137277603,0.05847124755382538,1.0655319690704346,-105.33322143554688,-24.28204917907715,-19.417007446289062,1.1684415340423584,-0.05549722537398338,-0.22348882257938385,-0.748551607131958,-1.0997391939163208,0.5190098881721497
248,101457,101459,0.07168629765510559,0.03574807569384575,1.03030264377594,-68.69754791259766,-21.311264038085938,-19.327795028686523,1.1714414358139038,-0.03449827432632446,-0.22348882257938385,-0.39256200194358826,-2.35251522064209,0.3320353329181671
249,101467,101469,-0.07252269238233566,0.003175751306116581,1.0869300365447998,-18.066675186157227,-19.19113540649414,-16.958887100219727,1.1609419584274292,-0.03899804875254631,-0.22198890149593353,-0.2050805389881134,-2.5958805084228516,0.1639886200428009
250,101477,101479,-0.07884186506271362,-0.02816864848136902,1.1156256198883057,33.59501647949219,-12.757247924804688,-15.055586814880371,1.1579420566558838,-0.047997597604990005,-0.2189890444278717,0.013213363476097584,-2.663959503173828,0.004442737437784672
251,101487,101489,0.0035093447659164667,0.0710492879152298,1.0312607288360596,69.49809265136719,-0.6128057837486267,-13.077940940856934,1.1609419584274292,-0.05399730056524277,-0.22498874366283417,0.09701129794120789,-2.5873963832855225,-0.1399555653333664
252,101497,101499,0.05154542624950409,0.11511610448360443,1.0532481670379639,89.75720977783203,12.288012504577637,-11.670445442199707,1.1519423723220825,-0.056997150182724,-0.23098844289779663,-0.01933480054140091,-1.688148021697998,-0.2703721821308136
253,101507,101509,0.05153511464595795,0.014733093790709972,1.0147793292999268,91.75028228759766,20.491552352905273,-10.16552448272705,1.1444427967071533,-0.05549722537398338,-0.2174891233444214,-0.1743965446949005,-0.7415227293968201,-0.39054790139198303
254,101517,101519,0.08310694992542267,0.048140689730644226,1.092348337173462,74.2987289428711,23.346261978149414,-7.579297065734863,1.138443112373352,-0.07349632680416107,-0.22048896551132202,-0.3066438138484955,-0.09822200983762741,-0.4843427240848541
255,101527,101529,0.0009789759060367942,-0.01807543821632862,0.9860351085662842,40.674224853515625,15.782186508178711,-7.142152309417725,1.12644362449646,-0.04649767279624939,-0.22048896551132202,-0.6375479698181152,0.7100393772125244,-0.5566343665122986
256,101537,101539,-0.07215861231088638,-0.11294421553611755,0.934413731098175,1.7268434762954712,5.113048076629639,-5.223784923553467,1.1354432106018066,-0.03449827432632446,-0.20248986780643463,-0.7175450921058655,0.8787909150123596,-0.6082612872123718
257,101547,101549,-0.00523601658642292,0.022265169769525528,0.9896736145019531,-29.464662551879883,-5.95419454574585,-4.225722312927246,1.1369431018829346,-0.029998499900102615,-0.19799008965492249,-0.7645447254180908,1.0011178255081177,-0.6627135872840881
258,101557,101559,0.03813100606203079,0.10488568246364594,1.033047080039978,-55.076622009277344,-15.28714656829834,-3.978013277053833,1.1444427967071533,-0.03449827432632446,-0.2084895670413971,-0.7511637210845947,0.7618777751922607,-0.7032662630081177
259,101567,101569,-0.01726965606212616,-0.052824705839157104,1.0091946125030518,-63.335968017578125,-21.99536895751953,-3.3060765266418457,1.1489425897598267,-0.03599819913506508,-0.20098994672298431,-0.43564996123313904,-0.015921564772725105,-0.720517635345459
260,101577,101579,-0.1378198266029358,-0.11244484782218933,1.0553114414215088,-59.073116302490234,-23.609092712402344,-4.099487781524658,1.1564421653747559,-0.03449827432632446,-0.21148942410945892,0.02524806559085846,-0.6505416631698608,-0.7485081553459167
261,101587,101589,-0.11045153439044952,-0.22156597673892975,1.0393046140670776,-40.79536056518555,-19.134296417236328,-4.592328071594238,1.1519423723220825,-0.029998499900102615,-0.20398980379104614,0.2432776391506195,-0.8730055689811707,-0.8306387662887573
262,101597,101599,-0.12466412782669067,-0.25783771276474,1.0600839853286743,-14.352188110351562,-12.651945114135742,-4.269850254058838,1.1489425897598267,-0.023998798802495003,-0.2189890444278717,0.2927917540073395,-1.4143790006637573,-0.8630680441856384
263,101607,101609,-0.04492861405014992,-0.19339056313037872,0.9807468056678772,13.773832321166992,-1.3654060363769531,-3.650888681411743,1.13994300365448,-0.026998650282621384,-0.20698964595794678,0.42152053117752075,-1.5111173391342163,-0.913314938545227
264,101617,101619,0.01415457483381033,-0.023320075124502182,0.9932152032852173,34.02989196777344,5.973833084106445,-3.131575584411621,1.141442894935608,-0.03149842470884323,-0.21148942410945892,0.3264954686164856,-1.2042597532272339,-0.9824590682983398
265,101627,101629,-0.018621306866407394,0.00055624422384426,1.0162956714630127,47.44032287597656,10.434000015258789,-3.2001752853393555,1.1429427862167358,-0.026998650282621384,-0.20098994672298431,0.26574015617370605,-0.9654462337493896,-1.001208782196045
266,101637,101639,-0.021483303979039192,-0.0010154414921998978,0.9960386157035828,43.1229362487793,11.572978973388672,-2.9051992893218994,1.1474425792694092,-0.025498725473880768,-0.20248986780643463,0.285141259431839,-0.5150147080421448,-1.0347763299942017
267,101647,101649,0.08472301065921783,0.05099915340542793,1.0424331426620483,33.05125045776367,11.552515983581543,-1.6720935106277466,1.1354432106018066,-0.028498575091362,-0.19349032640457153,0.07406651228666306,0.003159172600135207,-1.0759679079055786
268,101657,101659,0.05855259299278259,0.11226390302181244,1.0234386920928955,17.894994735717773,9.603415489196777,-0.11711142957210541,1.1459426879882812,-0.03299834951758385,-0.20098994672298431,0.11699219793081284,0.1813361495733261,-1.0680180788040161
269,101667,101669,0.0291344802826643,-0.008154287002980709,0.92656010389328,-1.349798321723938,4.394146919250488,0.9829968810081482,1.1444427967071533,-0.022498873993754387,-0.2084895670413971,0.007700723595917225,0.3881740868091583,-1.0786882638931274
270,101677,101679,-0.020887630060315132,-0.019780591130256653,0.9777070879936218,-16.17528533935547,0.67689448595047,1.4137588739395142,1.1354432106018066,-0.016499174758791924,-0.21148942410945892,-0.051559142768383026,0.3049507439136505,-1.0575196743011475
271,101687,101689,-0.020198890939354897,0.013452587649226189,1.045032024383545,-23.502431869506836,-2.361056089401245,0.6114229559898376,1.1309434175491333,-0.026998650282621384,-0.20398980379104614,-0.0021576746366918087,0.09144684672355652,-1.0310031175613403
272,101697,101699,0.038031477481126785,0.08347993344068527,1.0475636720657349,-25.173431396484375,-3.6971027851104736,1.1622852087020874,1.1594419479370117,-0.037498123943805695,-0.20248986780643463,0.03841792419552803,-0.1494641900062561,-1.020713448524475
273,101707,101709,-0.049774643033742905,-0.07860241085290909,0.995635449886322,-20.511198043823242,-4.248968124389648,0.7977899312973022,1.1429427862167358,-0.023998798802495003,-0.20098994672298431,0.18957707285881042,-0.3857882618904114,-1.0105845928192139
274,101717,101719,-0.17707283794879913,-0.11556769162416458,1.0045688152313232,-9.769076347351074,-2.8174631595611572,0.28277987241744995,1.1489425897598267,-0.014999249950051308,-0.20698964595794678,0.2384682446718216,-0.5154139995574951,-1.0189160108566284
275,101727,101729,-0.002213668543845415,0.004907689522951841,0.9720532894134521,2.4889867305755615,2.188267469406128,0.7872579097747803,1.138443112373352,-0.007499624975025654,-0.19349032640457153,0.21706345677375793,-0.6088464260101318,-1.0180336236953735
276,101737,101739,0.08674311637878418,0.058676593005657196,0.9143653512001038,12.357783317565918,6.508947849273682,-0.7701773643493652,1.138443112373352,-0.007499624975025654,-0.20248986780643463,0.3106410503387451,-0.585820198059082,-1.0113104581832886
277,101747,101749,0.16445796191692352,0.12843768298625946,0.9945224523544312,15.842714309692383,8.116632461547852,-0.6460075378417969,1.1279436349868774,-0.02099894918501377,-0.19499024748802185,0.14032158255577087,-0.37861308455467224,-1.0417821407318115
278,101757,101759,0.12574473023414612,0.13823075592517853,0.9933575987815857,15.199165344238281,4.176576137542725,-1.048287034034729,1.1279436349868774,-0.023998798802495003,-0.19799008965492249,0.02661328949034214,-0.28473058342933655,-1.038615107536316
279,101767,101769,-0.059427063912153244,-0.04466930031776428,0.9528504610061646,12.40928840637207,-2.5970373153686523,-1.0117594003677368,1.1294435262680054,-0.010499474592506886,-0.1904904693365097,0.0794738382101059,-0.057255931198596954,-1.0662466287612915
280,101777,101779,-0.2315865159034729,-0.220357745885849,0.9949191212654114,5.462546348571777,-5.192846775054932,-0.38597312569618225,1.1294435262680054,-0.025498725473880768,-0.1904904693365097,0.46389734745025635,-0.02588474377989769,-1.0512418746948242
281,101787,101789,-0.05646052584052086,-0.027981573715806007,0.9748446941375732,1.4681838750839233,-4.512087821960449,-0.8192239999771118,1.123443841934204,-0.016499174758791924,-0.20248986780643463,0.46430450677871704,0.007154314313083887,-1.047368049621582
282,101797,101799,0.02637600526213646,-0.016571596264839172,0.9286732077598572,-4.676133155822754,0.6587462425231934,-0.9252739548683167,1.1369431018829346,-0.03599819913506508,-0.20098994672298431,0.43924397230148315,0.01699448935687542,-1.0473604202270508
283,101807,101809,-0.06454488635063171,-0.025335509330034256,0.952041506767273,-11.419266700744629,7.025716304779053,-1.383440375328064,1.1369431018829346,-0.023998798802495003,-0.20098994672298431,0.3580477237701416,0.06323760747909546,-1.0797450542449951
284,101817,101819,-0.07292792946100235,-0.034658174961805344,0.9082580804824829,-18.129743576049805,14.297191619873047,-1.0804669857025146,1.138443112373352,-0.03449827432632446,-0.19349032640457153,0.33357518911361694,-0.14757466316223145,-1.0671610832214355
285,101827,101829,-0.03892919793725014,-0.0659206211566925,0.9280351400375366,-19.56338882446289,21.36720085144043,-1.4907662868499756,1.1279436349868774,-0.011999399401247501,-0.19799008965492249,0.23708537220954895,-0.29050013422966003,-1.089983582496643
286,101837,101839,-0.1148362010717392,-0.014109957963228226,1.040436863899231,-18.64746856689453,26.153350830078125,-1.5120023488998413,1.1354432106018066,-0.010499474592506886,-0.2084895670413971,-0.1991472840309143,-0.5894308686256409,-1.0890666246414185
287,101847,101849,0.013521743007004261,0.05840606614947319,0.9916241765022278,-16.007381439208984,27.938594818115234,-0.73940509557724,1.1309434175491333,-0.01799909956753254,-0.20698964595794678,-0.17846177518367767,-0.7896482944488525,-1.08986234664917
288,101857,101859,-0.03697006031870842,0.07126538455486298,1.0043262243270874,-2.523683547973633,21.660268783569336,-0.5623551607131958,1.1279436349868774,-0.023998798802495003,-0.19199039041996002,-0.507636547088623,-0.8840559720993042,-1.11622953414917
289,101867,101869,-0.023707734420895576,0.005825251806527376,0.9768295884132385,6.415460586547852,12.788272857666016,-0.35992559790611267,1.124943733215332,-0.014999249950051308,-0.19199039041996002,-0.8439523577690125,-0.8845483064651489,-1.137771487236023
290,101877,101879,-0.1507662832736969,-0.14771069586277008,0.9724869132041931,12.317558288574219,4.168835163116455,-0.08322608470916748,1.1324433088302612,-0.016499174758791924,-0.19349032640457153,-0.7620253562927246,-0.8056036829948425,-1.1480411291122437
291,101887,101889,-0.03373562917113304,-0.017238248139619827,0.9807371497154236,16.419878005981445,-2.339853286743164,0.8456000685691833,1.138443112373352,-0.025498725473880768,-0.22048896551132202,-0.8168666958808899,-0.6352769732475281,-1.157578945159912
292,101897,101899,0.023920824751257896,0.06602441519498825,0.9347319602966309,5.458056926727295,-6.0240349769592285,2.2225449085235596,1.1309434175491333,-0.02099894918501377,-0.2099895030260086,-0.8451015949249268,-0.6349319219589233,-1.1204249858856201
293,101907,101909,0.10987721383571625,0.10023269802331924,0.8473522663116455,0.6540153622627258,-9.833333969116211,3.040889024734497,1.1279436349868774,-0.023998798802495003,-0.19799008965492249,-0.7095974683761597,-0.539032518863678,-1.1030758619308472
294,101917,101919,-0.05177120491862297,0.0362526960670948,0.8706092238426208,-2.3312172889709473,-16.084341049194336,3.1979763507843018,1.1474425792694092,-0.022498873993754387,-0.199490025639534,-0.6319970488548279,-0.5193732976913452,-1.0759918689727783
295,101927,101929,-0.04944285377860069,-0.014529424719512463,0.9193034768104553,-1.9912077188491821,-13.555829048156738,3.9684886932373047,1.138443112373352,-0.019499024376273155,-0.2084895670413971,-0.583017885684967,-0.5289081931114197,-1.042763590812683
296,101937,101939,-0.0012497483985498548,-0.010583886876702309,0.9677773118019104,4.951043128967285,-7.951389789581299,3.457165241241455,1.1339433193206787,-0.02099894918501377,-0.19499024748802185,-0.3864278495311737,-0.496271014213562,-1.0083189010620117
297,101947,101949,0.0159398652613163,0.05407987907528877,0.965725302696228,14.862016677856445,-0.29009804129600525,3.487959861755371,1.141442894935608,-0.03149842470884323,-0.199490025639534,-0.22963938117027283,-0.5596494078636169,-0.9552472829818726
298,101957,101959,0.10939126461744308,0.1453988254070282,0.9186643958091736,26.277788162231445,8.251080513000488,3.577807903289795,1.141442894935608,-0.04949752241373062,-0.21148942410945892,-0.33124494552612305,-0.24373619258403778,-0.9419370293617249
299,101967,101969,0.1279466152191162,0.15148133039474487,1.0170135498046875,29.415882110595703,11.54935073852539,3.7416939735412598,1.1324433088302612,-0.04349782317876816,-0.199490025639534,-0.49778422713279724,0.05052996054291725,-0.9098036885261536
300,101977,101979,-0.04964253306388855,-0.004812604282051325,0.9839144349098206,31.588218688964844,14.25704574584961,3.8129470348358154,1.1489425897598267,-0.044997747987508774,-0.20698964595794678,-0.27459391951560974,0.12270723283290863,-0.846867024898529
301,101987,101989,-0.10345389693975449,-0.07659786939620972,0.95389723777771,24.861568450927734,14.548110008239746,4.699292182922363,1.141442894935608,-0.05249737575650215,-0.21448926627635956,-0.4017455279827118,0.6330540180206299,-0.8311282396316528
302,101997,101999,-0.07450653612613678,-0.05870555341243744,0.9729386568069458,15.871902465820312,14.241093635559082,4.917135715484619,1.1354432106018066,-0.04649767279624939,-0.21148942410945892,-0.4917379915714264,0.7478546500205994,-0.7671675086021423
303,102007,102009,-0.003704037982970476,0.001283904304727912,0.95913165807724,5.26101016998291,14.888480186462402,6.196771144866943,1.138443112373352,-0.05249737575650215,-0.2084895670413971,-0.5995747447013855,0.9930087924003601,-0.7242756485939026
304,102017,102019,0.04503552243113518,-0.0751403197646141,1.022621750831604,-0.6038986444473267,17.393264770507812,5.766143798828125,1.1309434175491333,-0.047997597604990005,-0.2099895030260086,-0.9366207122802734,1.0051422119140625,-0.6645271182060242
305,102027,102029,-0.042353998869657516,-0.08565466850996017,0.9897000193595886,-7.768249988555908,15.121397018432617,5.820268630981445,1.141442894935608,-0.04649767279624939,-0.2084895670413971,-1.2494969367980957,0.9714682102203369,-0.6123936176300049
306,102037,102039,0.03189278766512871,0.014975860714912415,0.946874737739563,-12.044820785522461,14.231088638305664,5.317899227142334,1.138443112373352,-0.04649767279624939,-0.199490025639534,-1.0982844829559326,0.7755181193351746,-0.523016631603241
307,102047,102049,-0.06073892489075661,-0.014141052961349487,0.9933894276618958,-10.028838157653809,13.986196517944336,3.673835039138794,1.1429427862167358,-0.0659966990351677,-0.2099895030260086,-1.105257511138916,0.6218284964561462,-0.4550701379776001
308,102057,102059,-0.09148745238780975,-0.12903419137001038,0.9369252920150757,-2.5459628105163574,15.397356986999512,2.546290636062622,1.1429427862167358,-0.050997450947761536,-0.21298934519290924,-1.3643907308578491,0.4529665410518646,-0.4252704679965973
309,102067,102069,-0.020958319306373596,0.030669601634144783,0.9064038991928101,8.551854133605957,13.717876434326172,1.1550359725952148,1.1309434175491333,-0.03899804875254631,-0.21298934519290924,-1.6440142393112183,0.490109384059906,-0.4104377031326294
310,102077,102079,0.10735861212015152,0.0956585630774498,0.9655271768569946,12.452859878540039,11.78557014465332,1.6052783727645874,1.1369431018829346,-0.044997747987508774,-0.2099895030260086,-1.8895418643951416,0.672139585018158,-0.40271738171577454
311,102087,102089,0.1296553611755371,0.1370639055967331,0.9807475209236145,10.95372200012207,12.712993621826172,3.1397554874420166,1.1444427967071533,-0.06149692460894585,-0.21448926627635956,-2.1610121726989746,0.8789770007133484,-0.3967626690864563
312,102097,102099,0.03701992705464363,0.06567392498254776,1.0427696704864502,4.472352027893066,6.946840286254883,3.5358006954193115,1.1444427967071533,-0.06749662756919861,-0.21148942410945892,-1.9420177936553955,0.8268688321113586,-0.3242882788181305
313,102107,102109,-0.03722963109612465,-0.002271654549986124,1.0081883668899536,-3.751991033554077,4.325370788574219,5.936388969421387,1.1579420566558838,-0.07499624788761139,-0.22498874366283417,-2.017832040786743,0.9569894671440125,-0.28220489621162415
314,102117,102119,-0.12389928847551346,-0.05811191722750664,1.0305087566375732,-2.5167505741119385,1.630340576171875,6.417264461517334,1.1564421653747559,-0.085495725274086,-0.2174891233444214,-2.029170513153076,0.924734354019165,-0.22327132523059845
315,102127,102129,-0.14631055295467377,-0.1400328278541565,1.036816954612732,0.5888408422470093,-6.224554538726807,6.971424579620361,1.1624418497085571,-0.085495725274086,-0.21148942410945892,-2.0387160778045654,0.9168074131011963,-0.16165520250797272
316,102137,102139,-0.1769658476114273,-0.15419484674930573,1.0679523944854736,5.887959003448486,-13.65320873260498,7.527735710144043,1.1564421653747559,-0.09149542450904846,-0.22048896551132202,-1.9256833791732788,0.9746906757354736,-0.08394073694944382
317,102147,102149,-0.14823824167251587,-0.1456897109746933,1.0501534938812256,15.971181869506836,-12.740591049194336,5.404889106750488,1.1594419479370117,-0.0944952741265297,-0.2174891233444214,-1.7470085620880127,1.0640422105789185,-0.007691623643040657
318,102157,102159,-0.14833210408687592,-0.1048690602183342,1.0360686779022217,17.843259811401367,-3.5025484561920166,6.370884418487549,1.163941740989685,-0.07499624788761139,-0.21298934519290924,-1.6242793798446655,1.334837555885315,0.05992742255330086
319,102167,102169,0.003969711251556873,0.07062284648418427,0.996601402759552,21.431718826293945,4.855649948120117,4.494133949279785,1.1444427967071533,-0.07949602603912354,-0.2174891233444214,-1.6429367065429688,1.373592495918274,0.08265240490436554
320,102177,102179,0.060526907444000244,0.08030040562152863,1.0157816410064697,19.3392333984375,18.139484405517578,5.599297046661377,1.1534422636032104,-0.07049647718667984,-0.22048896551132202,-1.84474515914917,1.6470844745635986,0.11357176303863525
321,102187,102189,-0.0029709909576922655,-0.0009553269483149052,1.0430376529693604,10.675027847290039,25.046064376831055,7.095303058624268,1.1279436349868774,-0.07199639827013016,-0.20698964595794678,-1.920724868774414,1.7000573873519897,0.17529156804084778
322,102197,102199,0.006217589136213064,-0.06643017381429672,1.0253082513809204,6.138418197631836,27.560272216796875,7.41232967376709,1.1339433193206787,-0.0659966990351677,-0.21298934519290924,-2.372269868850708,1.8828264474868774,0.21521148085594177
323,102207,102209,-0.016228346154093742,-0.03629470616579056,1.0178453922271729,-1.689296007156372,28.490318298339844,7.797724723815918,1.1459426879882812,-0.06299684941768646,-0.21298934519290924,-2.7010207176208496,2.013728141784668,0.295991450548172
324,102217,102219,0.03210994973778725,-0.057912200689315796,0.9648640751838684,0.192482590675354,27.133617401123047,8.358174324035645,1.1459426879882812,-0.06299684941768646,-0.21298934519290924,-2.5468292236328125,1.9346767663955688,0.479892373085022
325,102227,102229,0.04311686009168625,-0.046055350452661514,1.0684417486190796,4.358240127563477,23.719562530517578,11.501898765563965,1.1459426879882812,-0.06299684941768646,-0.21298934519290924,-2.8268158435821533,1.9558621644973755,0.5804856419563293
326,102237,102239,0.13660037517547607,0.13676241040229797,1.034184455871582,4.224863529205322,15.332540512084961,14.019499778747559,1.13994300365448,-0.08699564635753632,-0.2099895030260086,-3.2285585403442383,2.015101909637451,0.6614301800727844
327,102247,102249,0.1659921556711197,0.09791838377714157,1.138408899307251,2.826690673828125,4.394359111785889,15.96269702911377,1.1444427967071533,-0.085495725274086,-0.22048896551132202,-3.459634304046631,2.066002607345581,0.7908802628517151
328,102257,102259,0.11889201402664185,0.13475166261196136,1.085712194442749,-4.783272743225098,-7.90390157699585,14.41357707977295,1.141442894935608,-0.0944952741265297,-0.21448926627635956,-3.4782657623291016,1.9911266565322876,0.9284027814865112
329,102267,102269,0.06094639375805855,0.028363915160298347,1.1048589944839478,-13.442696571350098,-21.651647567749023,11.121757507324219,1.13994300365448,-0.08999549597501755,-0.22498874366283417,-3.2714955806732178,2.0160276889801025,1.1322920322418213
330,102277,102279,-0.009982473216950893,-0.036866359412670135,1.0896260738372803,-17.94843101501465,-29.748781204223633,7.6494975090026855,1.1444427967071533,-0.08849557489156723,-0.2084895670413971,-2.8778812885284424,1.8455716371536255,1.2823657989501953
331,102287,102289,-0.05132652819156647,-0.024186840280890465,1.145450234413147,-24.827869415283203,-31.505102157592773,2.1079154014587402,1.1609419584274292,-0.09299534559249878,-0.22198890149593353,-2.7560839653015137,1.7293108701705933,1.3152416944503784
332,102297,102299,0.028232311829924583,-0.04500540345907211,1.135419249534607,-35.21514129638672,-28.628047943115234,-2.2987136840820312,1.1429427862167358,-0.09299534559249878,-0.22198890149593353,-2.383533000946045,1.4726976156234741,1.3489391803741455
333,102307,102309,-0.04963231459259987,0.12104585766792297,1.1562849283218384,-47.57291793823242,-18.017215728759766,-7.200401782989502,1.1519423723220825,-0.08999549597501755,-0.2189890444278717,-2.101163387298584,1.2433247566223145,1.3575918674468994
334,102317,102319,0.04988095164299011,0.18572145700454712,1.1799677610397339,-40.107547760009766,-12.226655960083008,-16.233505249023438,1.1594419479370117,-0.06749662756919861,-0.22048896551132202,-1.831825852394104,0.8299242258071899,1.32768976688385
335,102327,102329,0.0534459613263607,0.07912632077932358,1.1423590183258057,-18.530353546142578,-13.229172706604004,-23.486019134521484,1.1564421653747559,-0.05549722537398338,-0.2174891233444214,-1.7875452041625977,0.22707776725292206,1.0929144620895386
336,102337,102339,-0.019571609795093536,-0.10943936556577682,1.1323332786560059,-3.1708152294158936,-18.221538543701172,-25.658838272094727,1.1339433193206787,-0.05399730056524277,-0.22198890149593353,-1.8346083164215088,0.16202202439308167,0.8619248270988464
337,102347,102349,-0.014593249186873436,-0.061116136610507965,1.0030531883239746,-3.144908905029297,-15.794514656066895,-26.161489486694336,1.1519423723220825,-0.06299684941768646,-0.2099895030260086,-1.5320552587509155,0.2699505090713501,0.6898580193519592
338,102357,102359,-0.09487077593803406,-0.1035684198141098,1.0823917388916016,-8.975586891174316,-10.062359809875488,-29.331283569335938,1.1429427862167358,-0.056997150182724,-0.2099895030260086,-1.2817964553833008,0.2762138545513153,0.459076464176178
339,102367,102369,-0.07581554353237152,-0.01684045046567917,1.082338571548462,-20.5467529296875,-2.453012466430664,-28.128965377807617,1.1369431018829346,-0.05399730056524277,-0.19499024748802185,-1.4153826236724854,0.09042828530073166,0.08580254763364792
340,102377,102379,-0.08072245121002197,-0.007977763190865517,1.0595577955245972,-33.70542526245117,6.120655059814453,-23.506500244140625,1.13994300365448,-0.047997597604990005,-0.2099895030260086,-1.3764188289642334,-0.33869799971580505,-0.2567273676395416
341,102387,102389,-0.05810730904340744,-0.08303650468587875,1.0754780769348145,-36.45669937133789,14.554804801940918,-18.213279724121094,1.1459426879882812,-0.029998499900102615,-0.20698964595794678,-1.4790765047073364,-0.4855816960334778,-0.4647914171218872
342,102397,102399,-0.09560498595237732,-0.0794229805469513,1.067305326461792,-36.12183380126953,10.800970077514648,-15.761404991149902,1.1369431018829346,-0.03599819913506508,-0.20698964595794678,-1.661026954650879,-0.7686883807182312,-0.6455405950546265
343,102407,102409,-0.03587275370955467,-0.04275357723236084,0.9740813970565796,-27.527679443359375,-6.249420642852783,-11.496970176696777,1.1489425897598267,-0.04199789837002754,-0.20098994672298431,-1.6745785474777222,-1.0084624290466309,-0.7664188742637634
344,102417,102419,0.03304572030901909,0.01645566336810589,1.0382527112960815,-13.527976036071777,-29.98248291015625,-8.000744819641113,1.154942274093628,-0.047997597604990005,-0.2189890444278717,-1.475062370300293,-1.2417492866516113,-0.853172242641449
345,102427,102429,0.0713040679693222,0.10344012081623077,1.0089157819747925,0.984197735786438,-47.39892578125,-5.536616325378418,1.1444427967071533,-0.05549722537398338,-0.20248986780643463,-1.2905484437942505,-1.3836302757263184,-0.9338223338127136
346,102437,102439,0.1733623594045639,0.09652163088321686,1.0097581148147583,13.280558586120605,-51.84428024291992,-3.2092370986938477,1.138443112373352,-0.040497973561286926,-0.2174891233444214,-0.5204634666442871,-1.3755983114242554,-0.9613454341888428
347,102447,102449,0.23140984773635864,0.22455328702926636,0.9970765113830566,21.264694213867188,-47.42314147949219,-2.886054277420044,1.1534422636032104,-0.04349782317876816,-0.20248986780643463,0.28354978561401367,-1.2710402011871338,-0.9836663007736206
348,102457,102459,0.112063467502594,0.2429235875606537,0.9757062196731567,26.880111694335938,-30.072057723999023,-1.7915977239608765,1.1564421653747559,-0.05549722537398338,-0.2174891233444214,-0.01766711287200451,-1.172411561012268,-1.0008113384246826
349,102467,102469,0.07871095091104507,0.08322326838970184,1.0943994522094727,26.521705627441406,-6.530350685119629,-1.3606617450714111,1.1504424810409546,-0.05249737575650215,-0.21148942410945892,0.3591548502445221,-1.016145944595337,-1.0244742631912231
350,102477,102479,0.006851731799542904,0.030553113669157028,1.0339480638504028,22.06220245361328,10.001368522644043,-1.220474362373352,1.1459426879882812,-0.050997450947761536,-0.21298934519290924,0.4601474702358246,-0.625659704208374,-1.034353256225586
351,102487,102489,0.007896740920841694,0.06774145364761353,1.0291780233383179,8.389612197875977,25.27165412902832,0.5783928036689758,1.1429427862167358,-0.03299834951758385,-0.21598920226097107,0.30167871713638306,-0.5169719457626343,-1.0435311794281006
352,102497,102499,-0.07085917890071869,-0.08562479168176651,1.0784889459609985,-9.17836856842041,35.830055236816406,1.2642728090286255,1.1354432106018066,-0.04649767279624939,-0.21448926627635956,-0.060339801013469696,-0.4999998211860657,-1.0297845602035522
353,102507,102509,-0.11867126077413559,-0.1105487123131752,1.042636752128601,-21.396120071411133,33.221431732177734,1.7188217639923096,1.13994300365448,-0.04199789837002754,-0.2189890444278717,-0.32930806279182434,-0.714832067489624,-1.025496244430542
354,102517,102519,-0.027600251138210297,-0.019798362627625465,0.9825026988983154,-31.487136840820312,19.056169509887695,1.1471699476242065,1.1339433193206787,-0.03599819913506508,-0.21298934519290924,-0.6073487401008606,-0.90980064868927,-1.021316647529602
355,102527,102529,-0.0027688289992511272,0.034423958510160446,1.0050064325332642,-28.675125122070312,-1.6691300868988037,1.088208794593811,1.1324433088302612,-0.019499024376273155,-0.20548972487449646,-0.7916015982627869,-1.2013425827026367,-1.0153752565383911
356,102537,102539,0.056392379105091095,0.025187868624925613,0.9877159595489502,-22.325464248657227,-24.45616340637207,1.1970041990280151,1.1219438314437866,-0.026998650282621384,-0.19499024748802185,-0.6882646679878235,-1.527880072593689,-1.0114667415618896
357,102547,102549,0.044291045516729355,0.0529809296131134,0.9971473813056946,-12.670063972473145,-40.324363708496094,0.04793379455804825,1.1579420566558838,-0.026998650282621384,-0.2189890444278717,-0.448971152305603,-1.738667607307434,-0.9943059086799622
358,102557,102559,-0.03361302241683006,0.06508731096982956,0.9295731782913208,-2.631298065185547,-43.73030090332031,-1.2423272132873535,1.138443112373352,-0.025498725473880768,-0.1904904693365097,0.13091550767421722,-1.9210928678512573,-1.00505530834198
359,102567,102569,-0.09046187996864319,0.0010025311494246125,0.9908826351165771,3.915545701980591,-36.31126022338867,-1.410383939743042,1.138443112373352,-0.025498725473880768,-0.199490025639534,0.5854367017745972,-1.9474645853042603,-1.0040498971939087
360,102577,102579,-0.09700889885425568,-0.08627285808324814,0.9797407984733582,11.651305198669434,-19.585641860961914,-2.459469795227051,1.13994300365448,-0.00899954978376627,-0.20098994672298431,0.8775053024291992,-1.7923305034637451,-1.0035772323608398
361,102587,102589,-0.12945318222045898,-0.1925288885831833,1.070023536682129,8.434356689453125,-0.019626131281256676,-2.240832805633545,1.141442894935608,-0.010499474592506886,-0.20548972487449646,1.0324177742004395,-1.7054400444030762,-1.0027774572372437
362,102597,102599,-0.07607612758874893,-0.17393556237220764,0.9699991941452026,4.118866920471191,18.912153244018555,-2.3874716758728027,1.1444427967071533,-0.007499624975025654,-0.199490025639534,1.0589022636413574,-1.5747876167297363,-1.0289384126663208
363,102607,102609,-0.030541621148586273,-0.10796679556369781,0.8987576365470886,-8.87674331665039,37.60612869262695,1.1090549230575562,1.1504424810409546,-0.007499624975025654,-0.199490025639534,0.7465339303016663,-1.7658226490020752,-0.9810202121734619
364,102617,102619,0.05437580496072769,0.045700330287218094,0.8975467085838318,-24.490726470947266,50.16169357299805,3.8786215782165527,1.1459426879882812,-0.0029998498503118753,-0.20698964595794678,0.3077263832092285,-1.801007866859436,-0.9777439832687378
365,102627,102629,0.31465306878089905,0.23052585124969482,0.9374088644981384,-40.234683990478516,61.38515853881836,8.828944206237793,1.141442894935608,0.0014999249251559377,-0.199490025639534,-0.11833367496728897,-2.033440589904785,-0.9790074825286865
366,102637,102639,0.12845906615257263,0.20189136266708374,1.0040656328201294,-62.4090690612793,60.78126525878906,18.724193572998047,1.1294435262680054,-0.007499624975025654,-0.199490025639534,-0.9219380021095276,-2.5822081565856934,-0.8349124789237976
367,102647,102649,-0.02718398906290531,-0.021888164803385735,0.9724999666213989,-64.52220153808594,41.56158447265625,29.77300453186035,1.1354432106018066,-0.013499325141310692,-0.20548972487449646,-1.3841770887374878,-3.016890525817871,-0.7613860368728638
368,102657,102659,-0.040573518723249435,-0.12802700698375702,1.050296664237976,-48.714176177978516,26.602453231811523,37.22032928466797,1.1369431018829346,-0.014999249950051308,-0.19799008965492249,-1.7475324869155884,-3.6225597858428955,-0.5348384380340576
369,102667,102669,0.008248901925981045,-0.05410028249025345,1.0962450504302979,-26.501178741455078,13.910445213317871,39.563079833984375,1.1354432106018066,-0.013499325141310692,-0.20248986780643463,-2.0473713874816895,-4.159379005432129,-0.19097203016281128
370,102677,102679,0.019925983622670174,-0.02758783847093582,1.152304768562317,4.031734943389893,1.5222148895263672,38.549537658691406,1.1354432106018066,-0.016499174758791924,-0.21448926627635956,-2.235072374343872,-4.423014163970947,0.18172037601470947
371,102687,102689,0.019991928711533546,-0.07774339616298676,1.144098162651062,46.9942741394043,-19.630970001220703,32.434059143066406,1.1354432106018066,-0.025498725473880768,-0.19349032640457153,-2.1710596084594727,-4.197509288787842,0.4926851689815521
372,102697,102699,-0.06665538251399994,-0.13723032176494598,1.0959662199020386,93.54593658447266,-37.15886688232422,29.16731071472168,1.1444427967071533,-0.04349782317876816,-0.21148942410945892,-1.9947705268859863,-3.62099552154541,0.811917781829834
373,102707,102709,-0.00134127342607826,-0.12507173418998718,1.0197482109069824,120.96245574951172,-51.328311920166016,27.252582550048828,1.1429427862167358,-0.050997450947761536,-0.2189890444278717,-1.4057064056396484,-2.607323408126831,0.9931960105895996
374,102717,102719,0.10435876995325089,-0.016050664708018303,0.9663693904876709,136.72512817382812,-60.114925384521484,26.74984359741211,1.1504424810409546,-0.07049647718667984,-0.21448926627635956,-1.2421753406524658,-1.8887521028518677,1.447104573249817
375,102727,102729,0.1781625896692276,0.07679291814565659,0.953005313873291,132.34396362304688,-60.792144775390625,25.284875869750977,1.1369431018829346,-0.06299684941768646,-0.20098994672298431,-0.3935593068599701,-0.47788217663764954,1.5854840278625488
376,102737,102739,0.08481904864311218,0.10084046423435211,0.9532895684242249,110.39237976074219,-61.56568908691406,26.055395126342773,1.1474425792694092,-0.058497074991464615,-0.18749062716960907,0.27372023463249207,1.1288089752197266,1.801392674446106
377,102747,102749,-0.020940955728292465,-0.036152105778455734,0.937498152256012,73.7479476928711,-53.880184173583984,27.154699325561523,1.1354432106018066,-0.058497074991464615,-0.199490025639534,0.733241081237793,1.8556814193725586,2.1343801021575928
378,102757,102759,-0.11358996480703354,-0.07607760280370712,0.9549685716629028,35.03864669799805,-27.63517951965332,27.06578254699707,1.1354432106018066,-0.04349782317876816,-0.21448926627635956,1.3460867404937744,2.537013530731201,2.3715391159057617
379,102767,102769,-0.0032613433431833982,-0.008257297798991203,0.935525119304657,-6.6598944664001465,0.6655557155609131,24.339181900024414,1.138443112373352,-0.040497973561286926,-0.19649016857147217,1.576468825340271,2.7165815830230713,2.6701982021331787
380,102777,102779,0.01872389018535614,-0.022211866453289986,0.9369749426841736,-48.65005111694336,15.31919002532959,21.07163429260254,1.1594419479370117,-0.037498123943805695,-0.20248986780643463,1.3403985500335693,2.562772274017334,2.983853578567505
381,102787,102789,-0.04101857915520668,-0.028888504952192307,0.9685045480728149,-74.66167449951172,21.63844871520996,18.1838436126709,1.1579420566558838,-0.050997450947761536,-0.22198890149593353,1.3296681642532349,1.9547921419143677,3.20870041847229
382,102797,102799,0.08940035849809647,0.05476586893200874,0.9392015337944031,-77.41529846191406,17.393537521362305,14.880212783813477,1.1504424810409546,-0.037498123943805695,-0.199490025639534,0.8978825211524963,1.4472453594207764,3.3771512508392334
383,102807,102809,0.008883055299520493,0.0073605808429419994,0.9814037084579468,-58.10676193237305,12.548532485961914,11.879712104797363,1.13994300365448,-0.03599819913506508,-0.20698964595794678,0.6834479570388794,0.7616872191429138,3.5152931213378906
384,102817,102819,0.03197085112333298,-0.046987153589725494,0.9428187012672424,-26.76347541809082,4.432827949523926,6.535463809967041,1.1459426879882812,-0.03299834951758385,-0.2099895030260086,0.6282212138175964,0.3456326425075531,3.5934412479400635
385,102827,102829,0.028007233515381813,-0.06805883347988129,0.9343252778053284,0.7545570731163025,-6.049694538116455,1.398285984992981,1.138443112373352,-0.019499024376273155,-0.20248986780643463,0.5638030767440796,0.05204785242676735,3.6616647243499756
386,102837,102839,0.043748486787080765,-0.0933459922671318,0.9494808316230774,23.21441078186035,-11.116357803344727,-2.5183346271514893,1.13994300365448,-0.026998650282621384,-0.2099895030260086,0.7160794138908386,0.20146705210208893,3.640516757965088
387,102847,102849,-0.031228231266140938,-0.14809633791446686,0.9538220167160034,36.81007385253906,-9.742513656616211,-4.558603286743164,1.1444427967071533,-0.03149842470884323,-0.22348882257938385,0.713013768196106,0.5184823870658875,3.5943288803100586
388,102857,102859,-0.09924190491437912,-0.06428850442171097,0.9462064504623413,40.87181854248047,-7.371981620788574,-5.240050792694092,1.1354432106018066,-0.05249737575650215,-0.20248986780643463,0.9193422198295593,0.873718798160553,3.5545082092285156
389,102867,102869,-0.15516428649425507,-0.061552297323942184,0.990062952041626,31.430858612060547,-1.5774952173233032,-5.504880428314209,1.1429427862167358,-0.050997450947761536,-0.21298934519290924,0.9385221600532532,1.0911250114440918,3.5523650646209717
390,102877,102879,-0.16096389293670654,-0.12645792961120605,0.977831244468689,14.286827087402344,11.940860748291016,-3.1668803691864014,1.1369431018829346,-0.03899804875254631,-0.21598920226097107,0.9750481843948364,1.43156898021698,3.492672920227051
391,102887,102889,-0.1089666485786438,-0.09515227377414703,0.9463995695114136,-7.617167949676514,24.77001953125,0.4325515031814575,1.1519423723220825,-0.03899804875254631,-0.21298934519290924,0.7853037118911743,1.6120771169662476,3.448435068130493
392,102897,102899,-0.07205808907747269,-0.04654495045542717,0.9282057285308838,-30.083696365356445,28.86546516418457,5.440161228179932,1.1624418497085571,-0.037498123943805695,-0.21448926627635956,0.48921793699264526,1.507636547088623,3.4633684158325195
393,102907,102909,-0.027221620082855225,-0.06783013790845871,0.9493578672409058,-47.23358154296875,25.47478485107422,11.096519470214844,1.1444427967071533,-0.028498575091362,-0.21448926627635956,0.21550652384757996,1.1384583711624146,3.547057628631592
394,102917,102919,-0.05220638960599899,-0.14528243243694305,1.0524098873138428,-54.08094024658203,16.765535354614258,15.583344459533691,1.1429427862167358,-0.03299834951758385,-0.23398829996585846,0.06739960610866547,0.875580370426178,3.620230197906494
395,102927,102929,0.016061320900917053,-0.05896895378828049,1.0444252490997314,-47.671382904052734,-0.9335420727729797,17.449722290039062,1.1594419479370117,-0.040497973561286926,-0.2174891233444214,-0.19493018090724945,0.047914326190948486,3.836953639984131
396,102937,102939,0.060214679688215256,-0.024271605536341667,1.0302366018295288,-33.1972541809082,-18.728687286376953,16.854055404663086,1.1489425897598267,-0.044997747987508774,-0.21598920226097107,-0.25027912855148315,-0.3526543080806732,3.979137897491455
397,102947,102949,0.04394195228815079,0.0017910266760736704,1.0157469511032104,2.9899845123291016,-35.096046447753906,15.898042678833008,1.1534422636032104,-0.05549722537398338,-0.22348882257938385,0.015771610662341118,-0.4203455150127411,4.09753942489624
398,102957,102959,0.0705334022641182,-0.05107969790697098,0.986456036567688,38.79584884643555,-37.68133544921875,16.93094253540039,1.154942274093628,-0.05399730056524277,-0.22498874366283417,0.33297544717788696,-0.4234345257282257,4.247988224029541
399,102967,102969,0.05124226212501526,-0.11429788172245026,0.9582014083862305,63.21766662597656,-33.06977081298828,19.545827865600586,1.1564421653747559,-0.06149692460894585,-0.2174891233444214,0.5371518135070801,-0.017530713230371475,4.372836589813232
400,102977,102979,0.012223364785313606,0.008959153667092323,1.0265560150146484,72.06757354736328,-20.451488494873047,23.756811141967773,1.154942274093628,-0.0659966990351677,-0.21598920226097107,0.864986002445221,0.6982476115226746,4.536178112030029
401,102987,102989,0.007864841260015965,-0.03712659701704979,0.997116208076477,61.93494415283203,-10.264727592468262,27.559785842895508,1.1564421653747559,-0.07049647718667984,-0.22648866474628448,1.1076200008392334,1.1844960451126099,4.819616317749023
402,102997,102999,-0.023416975513100624,0.014120346866548061,1.007523536682129,39.76466751098633,-2.1659793853759766,29.722410202026367,1.1444427967071533,-0.05549722537398338,-0.22348882257938385,1.247233510017395,1.7603116035461426,5.102370738983154
403,103007,103009,0.06822440773248672,0.10314608365297318,0.9696869850158691,13.269200325012207,3.063645601272583,28.574092864990234,1.1489425897598267,-0.06299684941768646,-0.21598920226097107,1.2609931230545044,2.201404094696045,5.3920674324035645
404,103017,103019,-0.017157679423689842,0.016000809147953987,0.9400674700737,-5.965373992919922,8.664795875549316,26.501630783081055,1.1534422636032104,-0.07349632680416107,-0.22048896551132202,1.260701060295105,2.1647963523864746,5.742915153503418
405,103027,103029,0.09948130697011948,0.15030840039253235,0.9588482975959778,-19.124492645263672,13.790376663208008,24.892608642578125,1.1594419479370117,-0.05249737575650215,-0.22048896551132202,1.161452054977417,2.274578809738159,5.963141918182373
406,103037,103039,0.09228433668613434,0.0067015141248703,1.0211113691329956,-27.749256134033203,16.995304107666016,24.263547897338867,1.1624418497085571,-0.05549722537398338,-0.23248836398124695,0.911769449710846,1.9462298154830933,6.238471508026123
407,103047,103049,0.042900457978248596,-0.044529061764478683,0.9951014518737793,-24.37161636352539,14.090639114379883,24.81437110900879,1.1534422636032104,-0.06149692460894585,-0.21448926627635956,0.8536769151687622,1.5986995697021484,6.533083915710449
408,103057,103059,0.030073460191488266,-0.1756698191165924,1.016326904296875,-10.824084281921387,9.167135238647461,22.55872917175293,1.1534422636032104,-0.06149692460894585,-0.21448926627635956,0.688244104385376,1.477163553237915,6.736170768737793
409,103067,103069,-0.01701633632183075,-0.1274220198392868,0.9986261129379272,2.762928009033203,4.063966274261475,22.07195281982422,1.1534422636032104,-0.06149692460894585,-0.21448926627635956,0.6002161502838135,1.4866489171981812,6.929597854614258
410,103077,103079,-0.01943819783627987,0.010491578839719296,1.0475804805755615,6.99629545211792,-8.19051456451416,24.024574279785156,1.1459426879882812,-0.05399730056524277,-0.21298934519290924,0.4271942377090454,1.4570808410644531,7.1248087882995605
411,103087,103089,0.08938834071159363,0.16329576075077057,0.9968947172164917,9.973112106323242,-11.41557788848877,24.787742614746094,1.1489425897598267,-0.056997150182724,-0.227988600730896,0.6100293397903442,1.5859029293060303,7.3755598068237305
412,103097,103099,0.09833251684904099,0.07026493549346924,1.0455232858657837,9.376649856567383,-13.641656875610352,25.665416717529297,1.1669416427612305,-0.06299684941768646,-0.20698964595794678,0.8404363989830017,1.6528449058532715,7.659395217895508
413,103107,103109,0.0556795559823513,-0.0023784718941897154,0.9817177653312683,8.295836448669434,-15.139673233032227,24.01351547241211,1.1534422636032104,-0.04949752241373062,-0.22348882257938385,0.9618114829063416,1.767743706703186,7.899060249328613
414,103117,103119,-0.020385529845952988,-0.020316792652010918,1.0066038370132446,17.075363159179688,-10.866146087646484,20.078683853149414,1.1519423723220825,-0.050997450947761536,-0.20698964595794678,1.253641963005066,1.916930913925171,8.148880004882812
415,103127,103129,-0.06562364101409912,0.04380842670798302,0.9973985552787781,30.522062301635742,-2.584735155105591,13.079206466674805,1.1444427967071533,-0.05549722537398338,-0.2174891233444214,1.3221466541290283,2.0101752281188965,8.346964836120605
416,103137,103139,-0.0029280942399054766,0.004021825734525919,1.0058082342147827,24.736818313598633,5.136028289794922,6.7274322509765625,1.1309434175491333,-0.06299684941768646,-0.2189890444278717,1.2368738651275635,2.4487388134002686,8.399393081665039
417,103147,103149,-0.04230783134698868,0.05550696700811386,1.0513168573379517,9.884567260742188,8.321100234985352,1.5611096620559692,1.1444427967071533,-0.05549722537398338,-0.2174891233444214,1.0352203845977783,2.781736373901367,8.408421516418457
418,103157,103159,0.05692210793495178,-0.10187578201293945,1.009390115737915,-12.223508834838867,3.5018014907836914,-2.457507848739624,1.1474425792694092,-0.05549722537398338,-0.22648866474628448,0.9663052558898926,2.8447694778442383,8.4645414352417
419,103167,103169,0.062339022755622864,-0.17076066136360168,0.9799874424934387,-36.28776550292969,-7.02581787109375,-5.499096870422363,1.1504424810409546,-0.06149692460894585,-0.22048896551132202,0.9833494424819946,2.551949977874756,8.53921890258789
420,103177,103179,-0.027926458045840263,-0.12859274446964264,1.00355863571167,-49.99052810668945,-21.48851203918457,-12.203611373901367,1.1579420566558838,-0.056997150182724,-0.21298934519290924,0.8862429857254028,2.4862029552459717,8.366059303283691
421,103187,103189,-0.018113063648343086,-0.08102700859308243,1.0007481575012207,-54.20198440551758,-35.23701095581055,-15.802812576293945,1.1504424810409546,-0.04649767279624939,-0.2174891233444214,1.0442692041397095,1.7660716772079468,8.317331314086914
422,103197,103199,-0.038127146661281586,0.08592674136161804,1.0117590427398682,-47.415504455566406,-39.915260314941406,-20.056747436523438,1.1624418497085571,-0.04649767279624939,-0.22048896551132202,1.3172286748886108,1.5179657936096191,8.051167488098145
423,103207,103209,0.032234542071819305,0.1583212912082672,1.0688209533691406,-35.13642501831055,-35.48502731323242,-22.527782440185547,1.1729413270950317,-0.05399730056524277,-0.2189890444278717,1.927852749824524,1.0839394330978394,7.916712284088135
424,103217,103219,-0.04535970836877823,-0.1175815686583519,1.0885323286056519,-22.324148178100586,-25.440135955810547,-25.526199340820312,1.1564421653747559,-0.04649767279624939,-0.2174891233444214,2.439753770828247,0.553460955619812,7.79818868637085
425,103227,103229,-0.017060402780771255,-0.1482677310705185,0.9895881414413452,-9.37689208984375,-13.632954597473145,-27.426488876342773,1.1654417514801025,-0.04349782317876816,-0.2174891233444214,2.4344534873962402,0.24695444107055664,7.468142032623291
426,103237,103239,-0.06670517474412918,0.04824623465538025,1.0197558403015137,4.87550163269043,-2.4665944576263428,-28.329111099243164,1.1564421653747559,-0.040497973561286926,-0.22048896551132202,2.667419672012329,0.32011258602142334,7.154008388519287
427,103247,103249,0.04351423680782318,0.021986888721585274,1.0166778564453125,11.375072479248047,4.2392683029174805,-29.503625869750977,1.1624418497085571,-0.040497973561286926,-0.22348882257938385,2.7925384044647217,0.3677067756652832,6.893534183502197
428,103257,103259,0.06144743040204048,0.03639668971300125,1.0428404808044434,10.887805938720703,11.71528148651123,-29.72551727294922,1.1474425792694092,-0.03149842470884323,-0.23248836398124695,2.709890127182007,0.5001005530357361,6.5838303565979
429,103267,103269,-0.005667325109243393,-0.004656150005757809,1.0162469148635864,2.1596262454986572,16.6719970703125,-30.086715698242188,1.1594419479370117,-0.028498575091362,-0.21448926627635956,2.5192508697509766,0.6673288345336914,6.250889778137207
430,103277,103279,-0.054406750947237015,-0.07140013575553894,0.9965923428535461,-11.753705978393555,19.646804809570312,-29.950963973999023,1.1504424810409546,-0.028498575091362,-0.21448926627635956,2.4051096439361572,0.7578253149986267,5.947820663452148
431,103287,103289,-0.01048362348228693,0.002364727668464184,1.0034979581832886,-25.986011505126953,20.557785034179688,-29.176424026489258,1.1624418497085571,-0.03449827432632446,-0.21148942410945892,2.0974228382110596,0.6192227005958557,5.651413440704346
432,103297,103299,0.016354737803339958,0.07011005282402039,1.006287693977356,-39.65793991088867,18.566631317138672,-28.820053100585938,1.1609419584274292,-0.029998499900102615,-0.2189890444278717,2.059835433959961,0.46450117230415344,5.371614933013916
433,103307,103309,0.01329797226935625,0.01743994653224945,0.9930841326713562,-50.88637924194336,15.431855201721191,-28.2589111328125,1.1534422636032104,-0.03449827432632446,-0.21148942410945892,1.8324894905090332,-0.19954247772693634,5.21664571762085
434,103317,103319,0.002335824305191636,-0.013850582763552666,1.0270402431488037,-56.83980178833008,12.606677055358887,-28.67821502685547,1.1579420566558838,-0.026998650282621384,-0.21298934519290924,1.6002322435379028,-0.7327015399932861,4.9400787353515625
435,103327,103329,0.08427958190441132,0.06908921897411346,1.0564866065979004,-50.4528694152832,7.515662670135498,-27.995765686035156,1.1729413270950317,-0.026998650282621384,-0.21298934519290924,1.5619049072265625,-0.9679186344146729,4.5266265869140625
436,103337,103339,0.10051900148391724,0.04437575489282608,1.0564548969268799,-30.637027740478516,-0.8263304233551025,-23.966995239257812,1.1624418497085571,-0.010499474592506886,-0.199490025639534,1.4567763805389404,-1.6378313302993774,4.308843612670898
437,103347,103349,0.1000070720911026,0.021477317437529564,1.0350579023361206,-8.207568168640137,-0.5832374691963196,-20.98178482055664,1.163941740989685,-0.029998499900102615,-0.22498874366283417,1.4636857509613037,-1.7740294933319092,3.9759459495544434
438,103357,103359,0.0680115595459938,0.05484139919281006,1.035425066947937,15.332311630249023,10.594767570495605,-17.521806716918945,1.1579420566558838,-0.026998650282621384,-0.20698964595794678,1.4289240837097168,-1.8992223739624023,3.767033576965332
439,103367,103369,0.0671985000371933,0.0528239868581295,1.089782953262329,28.483686447143555,22.23155975341797,-14.242565155029297,1.154942274093628,-0.02099894918501377,-0.21298934519290924,1.3085410594940186,-1.6920123100280762,3.545628309249878
440,103377,103379,0.07218833267688751,0.07484769821166992,1.0718048810958862,30.170236587524414,34.26253128051758,-9.571393966674805,1.13994300365448,-0.014999249950051308,-0.21598920226097107,1.2015663385391235,-1.2498034238815308,3.316567897796631
441,103387,103389,0.09145458787679672,0.15041711926460266,1.0548871755599976,30.2957820892334,47.80767822265625,-7.147797584533691,1.141442894935608,-0.016499174758791924,-0.2084895670413971,0.7591364979743958,-0.8721001744270325,3.1824240684509277
442,103397,103399,0.01177144143730402,-0.012432258576154709,0.9720979928970337,18.950443267822266,60.51388168334961,-5.958649635314941,1.12644362449646,-0.019499024376273155,-0.2084895670413971,0.33488404750823975,-0.6701229214668274,3.1294007301330566
443,103407,103409,0.03532666340470314,0.011269323527812958,1.01190984249115,-0.6565147638320923,59.60914611816406,-2.7372446060180664,1.12644362449646,-0.013499325141310692,-0.20248986780643463,-0.3380976617336273,-0.5113666653633118,3.0864944458007812
444,103417,103419,0.012487310916185379,-0.049339763820171356,1.0670149326324463,-24.06778907775879,41.89392852783203,1.5203757286071777,1.1219438314437866,-0.014999249950051308,-0.20698964595794678,-0.8239364624023438,-0.5324327349662781,3.0493574142456055
445,103427,103429,0.039942365139722824,-0.010256540961563587,1.011151909828186,-36.150630950927734,13.115120887756348,2.3644649982452393,1.138443112373352,-0.007499624975025654,-0.199490025639534,-1.413873314857483,-0.8012624382972717,3.0817272663116455
446,103437,103439,0.016130559146404266,-0.03032766282558441,1.005599021911621,-38.93035125732422,-8.054826736450195,1.4758825302124023,1.1444427967071533,-0.013499325141310692,-0.2084895670413971,-1.567844271659851,-1.3118613958358765,3.1358118057250977
447,103447,103449,0.015045910142362118,-0.031905483454465866,1.0028846263885498,-36.54778289794922,-24.5028133392334,0.7130479216575623,1.1294435262680054,-0.022498873993754387,-0.20548972487449646,-1.3706152439117432,-1.4278136491775513,3.099499464035034
448,103457,103459,-0.020511597394943237,-0.04186979681253433,1.018898367881775,-29.518756866455078,-35.43240737915039,0.20153290033340454,1.1354432106018066,-0.019499024376273155,-0.20548972487449646,-0.9443697333335876,-2.060666561126709,3.1084136962890625
449,103467,103469,-0.0022455358412116766,-0.04408946633338928,1.017398715019226,-12.930135726928711,-50.39436721801758,-2.528287172317505,1.1504424810409546,-0.013499325141310692,-0.19349032640457153,-0.6810058355331421,-2.0477869510650635,3.112571954727173
450,103477,103479,0.024550219997763634,-0.018212568014860153,0.9765058159828186,8.749128341674805,-50.46651840209961,-4.489494323730469,1.1429427862167358,-0.03599819913506508,-0.2099895030260086,0.11535636335611343,-2.2579550743103027,3.053415536880493
451,103487,103489,0.03269422799348831,-0.012424655258655548,1.0019418001174927,25.03978157043457,-42.741703033447266,-4.038917064666748,1.1369431018829346,-0.026998650282621384,-0.20398980379104614,0.6078593730926514,-2.1316730976104736,3.0305376052856445
452,103497,103499,-0.017996707931160927,-0.02969081699848175,0.9651107788085938,40.919395446777344,-31.174455642700195,-1.2063803672790527,1.13994300365448,-0.01799909956753254,-0.2189890444278717,0.7527467012405396,-1.951588749885559,3.0819296836853027
453,103507,103509,0.049606017768383026,0.0037859235890209675,0.9543287754058838,48.96011734008789,-18.09366226196289,0.3133498430252075,1.1519423723220825,-0.03899804875254631,-0.21598920226097107,1.2178711891174316,-1.4695923328399658,3.036569595336914
454,103517,103519,0.0661524087190628,-0.00570334680378437,0.954098641872406,44.66841125488281,-4.145686626434326,2.8972487449645996,1.1459426879882812,-0.014999249950051308,-0.2189890444278717,1.4540979862213135,-1.0353829860687256,3.0349466800689697
455,103527,103529,-0.0271505955606699,-0.003774053882807493,0.9642295241355896,28.572914123535156,10.34979248046875,3.8605308532714844,1.1504424810409546,-0.019499024376273155,-0.19649016857147217,1.3952257633209229,-0.42565906047821045,3.082923650741577
456,103537,103539,0.01669025421142578,-0.02194279618561268,0.9525048732757568,10.207527160644531,22.66364860534668,3.7120461463928223,1.1564421653747559,-0.025498725473880768,-0.19349032640457153,1.1754896640777588,-0.4353702962398529,3.1917078495025635
457,103547,103549,-0.08034440875053406,-0.062063638120889664,0.9607520699501038,-13.474419593811035,22.051816940307617,1.9872578382492065,1.154942274093628,-0.02099894918501377,-0.21298934519290924,0.8164676427841187,-0.3934909403324127,3.279733896255493
458,103557,103559,0.013083006255328655,-0.01074510719627142,0.919617235660553,-35.90625762939453,11.100096702575684,-1.7753130197525024,1.1609419584274292,-0.029998499900102615,-0.21598920226097107,0.5127750635147095,-0.5668447613716125,3.328019618988037
459,103567,103569,0.022310707718133926,-0.03599012643098831,0.9482793807983398,-54.24296188354492,1.239282488822937,-4.421402931213379,1.1564421653747559,-0.016499174758791924,-0.20548972487449646,0.5108236074447632,-0.9487406611442566,3.2873027324676514
460,103577,103579,0.006772765889763832,0.04747091978788376,0.9593013525009155,-61.40997314453125,-3.284489870071411,-6.800595283508301,1.1684415340423584,-0.010499474592506886,-0.21448926627635956,0.6292319297790527,-1.5142998695373535,3.2158315181732178
461,103587,103589,-0.019738873466849327,-0.017120277509093285,0.9838095903396606,-55.861968994140625,-1.7030473947525024,-8.317863464355469,1.1429427862167358,-0.011999399401247501,-0.21598920226097107,0.6523761749267578,-2.1494193077087402,3.1575024127960205
462,103597,103599,0.017491905018687248,0.0166381374001503,0.9664632678031921,-39.67268753051758,-4.1845784187316895,-11.359573364257812,1.1489425897598267,-0.01799909956753254,-0.22198890149593353,0.7544740438461304,-2.5219948291778564,3.037742853164673
463,103607,103609,0.04343235865235329,0.04638438671827316,0.9965513944625854,-19.917404174804688,-6.546967506408691,-12.456915855407715,1.1564421653747559,-0.019499024376273155,-0.2084895670413971,0.5974333882331848,-2.793184757232666,2.9711997509002686
464,103617,103619,-0.04993084818124771,-0.08840756863355637,0.9843688011169434,3.068662405014038,-9.319140434265137,-14.276639938354492,1.1459426879882812,-0.01799909956753254,-0.20698964595794678,0.719735324382782,-3.096618175506592,2.8408074378967285
465,103627,103629,-0.04848175868391991,-0.047929830849170685,0.9744402766227722,23.057453155517578,-9.509321212768555,-15.497701644897461,1.1474425792694092,-0.013499325141310692,-0.2174891233444214,0.8787594437599182,-3.025388240814209,2.6829397678375244
466,103637,103639,-0.008924605324864388,0.016278186812996864,0.9628819823265076,37.26353073120117,-7.605752468109131,-16.307466506958008,1.1444427967071533,-0.016499174758791924,-0.22048896551132202,1.0235023498535156,-2.6387131214141846,2.5068626403808594
467,103647,103649,0.042212244123220444,0.04780944809317589,0.9490383863449097,43.00323486328125,-4.093216896057129,-15.73955249786377,1.141442894935608,-0.025498725473880768,-0.21448926627635956,1.1967476606369019,-2.406426191329956,2.330605983734131
468,103657,103659,-0.23882971704006195,-0.0359276719391346,0.9671712517738342,37.17044448852539,0.8468145132064819,-15.079957008361816,1.138443112373352,-0.03149842470884323,-0.22048896551132202,1.2310298681259155,-2.036817789077759,2.190417528152466
469,103667,103669,-0.22619763016700745,-0.04434548318386078,0.9641842842102051,23.73505973815918,6.294362545013428,-14.639620780944824,1.13994300365448,0.0,-0.2099895030260086,1.1158168315887451,-1.5636446475982666,2.0798189640045166
470,103677,103679,-0.02574491873383522,-0.02235032245516777,0.9623852372169495,7.38387393951416,11.405254364013672,-14.25080394744873,1.141442894935608,-0.025498725473880768,-0.22348882257938385,0.9904201626777649,-1.3188703060150146,1.9641742706298828
