,timestamp_start,timestamp_end,acc.x,acc.y,acc.z,gyro.x,gyro.y,gyro.z,mag.x,mag.y,mag.z,stabilizer.pitch,stabilizer.roll,stabilizer.yaw
0,201232,201234,0.05400428548455238,0.04915088415145874,0.6757733225822449,56.22314453125,-15.082279205322266,14.881061553955078,1.498425006866455,2.569371461868286,4.267286777496338,2.398719072341919,-0.892207682132721,-3.264348268508911
1,201242,201244,0.07080623507499695,0.06792391836643219,0.7462320327758789,91.0208740234375,12.290475845336914,13.721972465515137,1.4849257469177246,2.6098694801330566,4.325783729553223,2.4697909355163574,-0.37000590562820435,-3.138965606689453
2,201252,201254,0.1157008707523346,0.07411979138851166,0.7658470273017883,110.76848602294922,44.8546257019043,7.221033573150635,1.511924386024475,2.630868434906006,4.322783946990967,2.238349199295044,0.8552636504173279,-3.057288885116577
3,201262,201264,0.12049079686403275,0.12611012160778046,0.7634924054145813,107.51949310302734,59.98912048339844,-0.5353239178657532,1.489425539970398,2.6143691539764404,4.333283424377441,1.5732440948486328,1.8902020454406738,-3.001762628555298
4,201272,201274,0.006188657600432634,0.01359075028449297,0.7082890868186951,86.46531677246094,68.4100570678711,-8.49159049987793,1.4954252243041992,2.6143691539764404,4.324283599853516,1.0224119424819946,2.7211599349975586,-2.9470293521881104
5,201282,201284,-0.15585950016975403,0.08022160828113556,0.714844286441803,50.2501335144043,58.4972038269043,-12.663467407226562,1.472926378250122,2.62786865234375,4.346782684326172,0.22486835718154907,3.6579742431640625,-3.0072226524353027
6,201292,201294,-0.04983249679207802,0.03774196282029152,0.7006439566612244,-1.5182870626449585,36.77035140991211,-12.359773635864258,1.5089244842529297,2.6158690452575684,4.331783294677734,-0.13559511303901672,3.6500282287597656,-3.0215747356414795
7,201302,201304,0.09392070770263672,-0.00017014327750075608,0.7926631569862366,-47.37138366699219,24.100200653076172,-6.892172336578369,1.489425539970398,2.593370199203491,4.312284469604492,-0.4559985101222992,3.646169900894165,-3.1048266887664795
8,201312,201314,0.04610200971364975,-0.024723799899220467,0.7562016844749451,-75.78740692138672,2.4528565406799316,-5.150379657745361,1.498425006866455,2.629368543624878,4.351282119750977,-0.7052983641624451,3.1288001537323,-3.1616005897521973
9,201322,201324,0.012652755714952946,0.053180720657110214,0.8615880608558655,-84.16263580322266,-20.02216911315918,-0.8927403092384338,1.5029247999191284,2.62786865234375,4.337782859802246,-0.7337832450866699,2.366702079772949,-3.203843593597412
10,201332,201334,0.02937575802206993,0.06250816583633423,0.8502246737480164,-67.71571350097656,-29.453880310058594,2.443429946899414,1.5059247016906738,2.6368680000305176,4.33478307723999,-0.36375874280929565,1.2240947484970093,-3.17566180229187
11,201342,201344,0.0006979383178986609,-0.07267624139785767,0.8150763511657715,-38.013031005859375,-31.35089111328125,1.102105975151062,1.5104244947433472,2.650367498397827,4.363281726837158,-0.19352446496486664,0.6296285390853882,-3.1839020252227783
12,201352,201354,-0.03818565979599953,-0.04225927218794823,0.8009517192840576,-6.218652725219727,-16.606876373291016,2.1820995807647705,1.5104244947433472,2.575371265411377,4.294285297393799,0.08184078335762024,0.35928186774253845,-3.171259641647339
13,201362,201364,0.014090416952967644,-0.02214464172720909,0.8043426871299744,19.98907470703125,-1.7018659114837646,2.0343143939971924,1.4924253225326538,2.5813708305358887,4.285285472869873,0.2956196367740631,0.300392210483551,-3.146864414215088
14,201372,201374,0.08415818959474564,0.03700808063149452,0.8519093990325928,31.76277732849121,7.307959079742432,3.9899489879608154,1.4774260520935059,2.572371244430542,4.285285472869873,0.32582512497901917,0.6039124131202698,-3.1155178546905518
15,201382,201384,-0.023695796728134155,0.03237748518586159,0.7965949177742004,36.71821212768555,-3.9470815658569336,6.837745189666748,1.4939253330230713,2.5918703079223633,4.307784557342529,0.20288699865341187,1.0984450578689575,-3.071342706680298
16,201392,201394,-0.13883645832538605,-0.006030266173183918,0.752437174320221,30.277624130249023,-13.000909805297852,11.978278160095215,1.4879255294799805,2.5558722019195557,4.271786212921143,0.24196702241897583,1.3636146783828735,-3.0084197521209717
17,201402,201404,0.017117604613304138,-0.020429542288184166,0.7194371819496155,7.1612229347229,-16.42061996459961,19.00038719177246,1.4924253225326538,2.5633718967437744,4.267286777496338,0.4492415189743042,1.7250312566757202,-2.878330945968628
18,201412,201414,0.0804109051823616,0.022292960435152054,0.7333695888519287,-6.88671350479126,-18.13616180419922,22.301334381103516,1.498425006866455,2.5663716793060303,4.282285690307617,0.6260242462158203,1.4870425462722778,-2.738703727722168
19,201422,201424,0.024541983380913734,0.02984478324651718,0.7372910976409912,-10.702218055725098,-12.703113555908203,23.0930118560791,1.5089244842529297,2.5528724193573,4.265786647796631,0.810443639755249,1.4381279945373535,-2.521207094192505
20,201432,201434,0.0006712139002047479,-0.01179569587111473,0.6940617561340332,-14.617804527282715,-9.75908374786377,25.256378173828125,1.5014249086380005,2.5663716793060303,4.279285907745361,1.0037446022033691,1.3759942054748535,-2.279111385345459
21,201442,201444,0.0357787124812603,0.010691179893910885,0.7130672931671143,-19.962251663208008,-13.657598495483398,27.77794647216797,1.511924386024475,2.5888705253601074,4.298785209655762,0.6074768304824829,1.1839178800582886,-2.1347885131835938
22,201452,201454,0.042004190385341644,0.000918904785066843,0.6824250221252441,-20.264629364013672,-22.035064697265625,30.64195442199707,1.504424810409546,2.5603718757629395,4.261286735534668,0.7108469605445862,0.9851808547973633,-1.8740334510803223
23,201462,201464,0.06724638491868973,0.049807678908109665,0.7075222134590149,-15.434250831604004,-25.680234909057617,33.13917922973633,1.513424277305603,2.578371047973633,4.288285732269287,1.0725067853927612,0.9764614105224609,-1.5302938222885132
24,201472,201474,0.02074257656931877,0.024144163355231285,0.6911267042160034,-6.39866304397583,-26.68601417541504,35.855552673339844,1.5194239616394043,2.575371265411377,4.306284427642822,1.484660267829895,0.8317734599113464,-1.176783561706543
25,201482,201484,0.006087099201977253,0.007562040816992521,0.6857878565788269,3.7384073734283447,-26.760982513427734,36.15522003173828,1.5164241790771484,2.6053695678710938,4.3302836418151855,1.494928240776062,0.7546701431274414,-0.8779461979866028
26,201492,201494,0.04382748529314995,0.022792059928178787,0.6902158856391907,17.53534507751465,-28.377294540405273,33.185184478759766,1.5089244842529297,2.597870111465454,4.298785209655762,1.9365184307098389,0.8355100154876709,-0.4858757257461548
27,201502,201504,0.012374990619719028,0.027572598308324814,0.7040333151817322,32.7016487121582,-29.527183532714844,27.721193313598633,1.5254236459732056,2.6053695678710938,4.315284252166748,2.463534116744995,0.9921368956565857,-0.11146414279937744
28,201512,201514,-0.058015186339616776,-0.07221546769142151,0.7168617248535156,47.65043258666992,-24.698537826538086,21.446409225463867,1.5179240703582764,2.6398680210113525,4.34078311920166,2.5865800380706787,1.0469317436218262,0.12740394473075867
29,201522,201524,-0.0035639198031276464,-0.023832354694604874,0.7018581628799438,56.48119354248047,-15.441813468933105,13.151907920837402,1.514924168586731,2.5858707427978516,4.298785209655762,2.7720932960510254,1.8320814371109009,0.3358643352985382
30,201532,201534,-7.617039955221117e-05,-0.13849662244319916,0.7066553235054016,55.48093795776367,-3.3146579265594482,5.913863182067871,1.5059247016906738,2.594870090484619,4.319784164428711,2.953908681869507,2.1233718395233154,0.47283080220222473
31,201542,201544,-0.13743439316749573,-0.23128947615623474,0.6751080751419067,46.28209686279297,9.445308685302734,-3.1321942806243896,1.5074245929718018,2.6203689575195312,4.32128381729126,3.000541925430298,2.8896145820617676,0.5290008783340454
32,201552,201554,-0.16651718318462372,-0.2266714721918106,0.6482166647911072,30.0489559173584,19.194869995117188,-11.855128288269043,1.4879255294799805,2.5918703079223633,4.295784950256348,2.9052274227142334,3.2870113849639893,0.5093187689781189
33,201562,201564,-0.06164012849330902,-0.12379606068134308,0.6045274138450623,11.327569961547852,27.550704956054688,-18.978418350219727,1.5059247016906738,2.594870090484619,4.313784122467041,2.783914089202881,3.5019264221191406,0.4291377067565918
34,201572,201574,0.04464733228087425,0.0331399142742157,0.6992999911308289,-8.345919609069824,28.16912269592285,-25.10520362854004,1.511924386024475,2.6158690452575684,4.33478307723999,2.5471768379211426,3.557626247406006,0.26864010095596313
35,201582,201584,-0.00026434226310811937,0.0055832210928201675,0.7154058814048767,-22.280109405517578,21.53314971923828,-29.18661880493164,1.5014249086380005,2.569371461868286,4.285285472869873,2.2619667053222656,3.4480762481689453,0.04753692075610161
36,201592,201594,-0.005510255228728056,0.05394037067890167,0.7217774391174316,-28.833106994628906,16.360139846801758,-27.746599197387695,1.5074245929718018,2.596370220184326,4.318284034729004,1.8418824672698975,3.1933250427246094,-0.2507137358188629
37,201602,201604,-0.02006741613149643,0.007939886301755905,0.712398111820221,-32.93483352661133,13.480445861816406,-26.88823127746582,1.5029247999191284,2.606869697570801,4.3287835121154785,2.0245378017425537,2.8963282108306885,-0.43267014622688293
38,201612,201614,0.005938936956226826,-0.11659334599971771,0.6545279026031494,-33.69915008544922,11.656316757202148,-24.29192352294922,1.5194239616394043,2.629368543624878,4.342282772064209,1.9684383869171143,2.6632773876190186,-0.6788989305496216
39,201622,201624,0.05098762363195419,-0.034216295927762985,0.7709746360778809,-32.60527420043945,3.061152219772339,-22.423431396484375,1.4999250173568726,2.6098694801330566,4.313784122467041,1.8988910913467407,2.1368401050567627,-0.8903056383132935
40,201632,201634,0.06718212366104126,0.01229917723685503,0.7554992437362671,-25.689144134521484,-4.324541091918945,-20.846986770629883,1.5194239616394043,2.623368740081787,4.333283424377441,1.7997676134109497,1.9389514923095703,-1.1519399881362915
41,201642,201644,0.06423056125640869,0.11249853670597076,0.7595672011375427,-15.061559677124023,-11.730533599853516,-17.747318267822266,1.5224238634109497,2.6353681087493896,4.354282379150391,1.8074630498886108,1.627195954322815,-1.3636369705200195
42,201652,201654,0.011758442968130112,0.033818796277046204,0.7104846835136414,-3.8160736560821533,-10.319969177246094,-17.15028190612793,1.5074245929718018,2.5813708305358887,4.297285079956055,1.9900258779525757,1.6995831727981567,-1.5516570806503296
43,201662,201664,-0.0695398673415184,-0.02525540441274643,0.6876455545425415,6.999189853668213,-5.090432167053223,-14.692723274230957,1.5074245929718018,2.5903704166412354,4.312284469604492,2.0848610401153564,1.6621462106704712,-1.7222689390182495
44,201672,201674,-0.05471254140138626,-0.10358905792236328,0.7570332884788513,10.479839324951172,3.5438902378082275,-14.511955261230469,1.5254236459732056,2.602369785308838,4.3302836418151855,2.095022201538086,1.77772057056427,-1.892308235168457
45,201682,201684,-0.021770473569631577,-0.09785491228103638,0.7717359662055969,12.99675178527832,12.832096099853516,-12.472872734069824,1.5059247016906738,2.576871156692505,4.280786037445068,2.3126683235168457,1.9500545263290405,-1.9825878143310547
46,201692,201694,0.0588189996778965,0.024932274594902992,0.8148053884506226,8.454978942871094,24.112577438354492,-10.527585983276367,1.4924253225326538,2.5873706340789795,4.3002848625183105,2.29303240776062,1.932589054107666,-2.0625405311584473
47,201702,201704,0.009866226464509964,0.013353676535189152,0.7656657099723816,0.3521864712238312,31.44872283935547,-9.851799964904785,1.5014249086380005,2.6173691749572754,4.3302836418151855,2.157306432723999,2.1322429180145264,-2.1571333408355713
48,201712,201714,-0.031134895980358124,-0.010284923017024994,0.6725559830665588,-7.49208402633667,36.56669616699219,-9.235757827758789,1.5014249086380005,2.6143691539764404,4.333283424377441,1.7534884214401245,2.1263010501861572,-2.2617905139923096
49,201722,201724,-0.038417067378759384,-0.043166305869817734,0.6714403033256531,-18.53870391845703,40.61993408203125,-8.527914047241211,1.5029247999191284,2.5858707427978516,4.307784557342529,1.6292823553085327,2.0464532375335693,-2.2858502864837646
50,201732,201734,0.05700966715812683,0.10099118202924728,0.7862877249717712,-26.13763999938965,47.477684020996094,-7.167447566986084,1.4969251155853271,2.6188690662384033,4.33478307723999,1.13849937915802,1.8807772397994995,-2.3782832622528076
51,201742,201744,0.1592174768447876,0.17675767838954926,0.7875823974609375,-35.462379455566406,48.065303802490234,-5.7728962898254395,1.4999250173568726,2.6398680210113525,4.367781639099121,0.5433347821235657,1.6534639596939087,-2.4736762046813965
52,201752,201754,0.11227739602327347,0.1238856241106987,0.7183317542076111,-39.43582534790039,47.38987731933594,-5.152627468109131,1.489425539970398,2.629368543624878,4.342282772064209,0.26141220331192017,1.4176619052886963,-2.4839470386505127
53,201762,201764,0.01107461005449295,-2.039013634203002e-05,0.7807401418685913,-39.12559127807617,54.34556198120117,-5.72509765625,1.489425539970398,2.629368543624878,4.342282772064209,-0.5075085759162903,1.033267855644226,-2.5810070037841797
54,201772,201774,-0.0038293739780783653,-0.02424987219274044,0.7713656425476074,-37.0773811340332,56.17356872558594,-6.436704635620117,1.489425539970398,2.629368543624878,4.342282772064209,-0.8464779257774353,0.6359819173812866,-2.5888516902923584
55,201782,201784,0.05478142574429512,0.05020831897854805,0.8271089792251587,-34.64344787597656,47.780094146728516,-6.768237590789795,1.4819258451461792,2.648867607116699,4.376780986785889,-1.3660871982574463,0.14105917513370514,-2.6378824710845947
56,201792,201794,0.007230319548398256,0.017467055469751358,0.8426289558410645,-29.50770378112793,37.72764587402344,-7.00999641418457,1.4789260625839233,2.624868631362915,4.337782859802246,-1.9870681762695312,-0.30555859208106995,-2.728994131088257
57,201802,201804,0.018938764929771423,0.02190922386944294,0.8838858604431152,-12.610237121582031,48.54928970336914,-3.3832778930664062,1.4669265747070312,2.6338682174682617,4.346782684326172,-2.1694695949554443,-0.29549816250801086,-2.742516040802002
58,201812,201814,0.028692180290818214,-0.0035919174551963806,0.8705841302871704,5.192892074584961,53.42854690551758,-4.49815559387207,1.4864256381988525,2.647367477416992,4.36928129196167,-2.748131275177002,-0.39993318915367126,-2.8032703399658203
59,201822,201824,0.06183624640107155,0.04780963063240051,0.8624634742736816,18.065200805664062,44.19164276123047,-5.246513843536377,1.472926378250122,2.684865713119507,4.376780986785889,-3.0661797523498535,-0.22673211991786957,-2.8069560527801514
60,201832,201834,0.060243215411901474,0.019782904535531998,0.791963517665863,24.3101806640625,28.7629451751709,-3.8704755306243896,1.472926378250122,2.62786865234375,4.3557820320129395,-3.484962224960327,0.0003632475854828954,-2.8415563106536865
61,201842,201844,0.026492595672607422,0.0031190491281449795,0.8113473653793335,26.821699142456055,10.581174850463867,0.41316577792167664,1.4624269008636475,2.632368326187134,4.348282337188721,-3.6218979358673096,0.2505583167076111,-2.8604612350463867
62,201852,201854,0.0543929822742939,0.03184115141630173,0.776589035987854,29.539602279663086,-1.6376478672027588,-0.6341084837913513,1.4624269008636475,2.632368326187134,4.363281726837158,-3.8454463481903076,0.5727288722991943,-2.855741024017334
63,201862,201864,0.004635213874280453,-0.0073242103680968285,0.7517182230949402,28.458984375,-1.4696131944656372,-5.6698760986328125,1.4669265747070312,2.6128692626953125,4.33478307723999,-3.658216714859009,0.9250977635383606,-2.8345346450805664
64,201872,201874,-0.11852065473794937,-0.012550625018775463,0.7923201322555542,16.71082878112793,-2.13824725151062,-10.550325393676758,1.475926160812378,2.6158690452575684,4.352782249450684,-3.6795451641082764,1.0820826292037964,-2.925593852996826
65,201882,201884,0.02714943140745163,0.013650411739945412,0.7906962037086487,-24.322263717651367,-9.726873397827148,-14.221207618713379,1.47442626953125,2.647367477416992,4.360281944274902,-3.738206386566162,1.2528806924819946,-3.0276083946228027
66,201892,201894,0.045338232070207596,0.0023661500308662653,0.7877628803253174,-61.59067153930664,-16.866369247436523,-16.54108238220215,1.4699264764785767,2.6128692626953125,4.337782859802246,-3.3847098350524902,1.014073133468628,-3.189199447631836
67,201902,201904,0.04046531394124031,-0.0032915042247623205,0.794613242149353,-86.39984893798828,-29.17049789428711,-19.24449920654297,1.4864256381988525,2.656367063522339,4.381280899047852,-3.4641523361206055,0.29222792387008667,-3.4269144535064697
68,201912,201914,0.09014079719781876,0.10858026891946793,0.8517781496047974,-92.72035217285156,-32.184513092041016,-19.310346603393555,1.4804259538650513,2.6983649730682373,4.399280071258545,-3.121912717819214,-0.8710212111473083,-3.758638858795166
69,201922,201924,1.2355997114354977e-06,0.07458196580410004,0.8360275626182556,-71.8995361328125,-32.605712890625,-17.976131439208984,1.5029247999191284,2.6458675861358643,4.367781639099121,-2.6583123207092285,-1.4733456373214722,-3.788060188293457
70,201932,201934,-0.27580320835113525,-0.10398365557193756,0.88797527551651,-39.81999969482422,-21.346126556396484,-13.98120403289795,1.489425539970398,2.6623668670654297,4.37528133392334,-2.6147894859313965,-2.429994583129883,-4.047140598297119
71,201942,201944,-0.19603393971920013,-0.017448408529162407,0.8906064629554749,2.444014549255371,13.175081253051758,-9.134099006652832,1.4849257469177246,2.651867389678955,4.358781814575195,-2.1102426052093506,-2.4623444080352783,-3.9823992252349854
72,201952,201954,0.04749264940619469,0.018128646537661552,0.8036372065544128,39.80672073364258,33.621273040771484,-8.00442123413086,1.4789260625839233,2.6608669757843018,4.370781421661377,-2.4644718170166016,-2.4057841300964355,-4.019255638122559
73,201962,201964,0.014340423978865147,0.03648556396365166,0.8153523206710815,58.00566482543945,42.77774429321289,-8.170778274536133,1.4714263677597046,2.647367477416992,4.363281726837158,-2.4622559547424316,-2.2851765155792236,-4.248274803161621
74,201972,201974,0.0051621338352561,0.006655702833086252,0.7684150338172913,54.461639404296875,38.3173942565918,-8.559462547302246,1.475926160812378,2.6338682174682617,4.352782249450684,-3.0255796909332275,-1.4083620309829712,-4.150888442993164
75,201982,201984,0.17108836770057678,0.1274615079164505,0.7875581979751587,34.619544982910156,23.18121337890625,-9.026768684387207,1.472926378250122,2.651867389678955,4.361781597137451,-3.595635175704956,-0.8021182417869568,-4.184192657470703
76,201992,201994,-0.11521261930465698,0.0603707991540432,0.7509822249412537,4.939032554626465,-3.8780641555786133,-8.815227508544922,1.4654266834259033,2.596370220184326,4.312284469604492,-3.558149814605713,-0.6860016584396362,-4.472762584686279
77,202002,202004,-0.043268486857414246,-0.01805081032216549,0.7274592518806458,-26.233854293823242,-23.62019920349121,-8.004066467285156,1.4684265851974487,2.599370002746582,4.333283424377441,-3.592419385910034,-0.6902492046356201,-4.595373153686523
78,202012,202014,0.027636120095849037,0.004245674703270197,0.7412253022193909,-51.453948974609375,-34.98625183105469,-6.953331470489502,1.4819258451461792,2.6098694801330566,4.331783294677734,-3.373871088027954,-0.8742688894271851,-4.65255069732666
79,202022,202024,-0.001133904792368412,0.017677323892712593,0.7539480924606323,-66.51078796386719,-38.141807556152344,-7.957589626312256,1.4684265851974487,2.6053695678710938,4.306284427642822,-2.911677360534668,-1.6133354902267456,-4.898557662963867
80,202032,202034,-0.02846079133450985,0.011804495938122272,0.7460038065910339,-65.8785629272461,-33.79072952270508,-6.840044975280762,1.4774260520935059,2.6383681297302246,4.342282772064209,-2.392469644546509,-2.304532766342163,-5.016172409057617
81,202042,202044,-0.11891499161720276,0.011731612496078014,0.7663775682449341,-51.34775161743164,-22.775949478149414,-6.605643272399902,1.4834258556365967,2.647367477416992,4.351282119750977,-2.290208578109741,-2.837329626083374,-4.934660911560059
82,202052,202054,-0.08757711201906204,0.014049225486814976,0.778778612613678,-30.679983139038086,-9.603081703186035,-4.414247989654541,1.4939253330230713,2.62786865234375,4.325783729553223,-1.9896113872528076,-3.3575358390808105,-4.985344409942627
83,202062,202064,-0.005004955921322107,0.026041200384497643,0.775914192199707,-7.615915775299072,1.831786870956421,-1.8056204319000244,1.4579271078109741,2.603869676589966,4.313784122467041,-1.904596209526062,-3.6194536685943604,-4.962898254394531
84,202072,202074,-0.005546303931623697,0.027802100405097008,0.7833307981491089,16.11197853088379,8.910964012145996,0.4245566427707672,1.47442626953125,2.6173691749572754,4.309284687042236,-2.000218629837036,-3.7781808376312256,-4.981081008911133
85,202082,202084,0.016590798273682594,-0.008864532224833965,0.7262177467346191,35.20393371582031,11.89157772064209,1.351608157157898,1.4864256381988525,2.602369785308838,4.309284687042236,-1.9326192140579224,-3.5560803413391113,-4.976886749267578
86,202092,202094,0.022294802591204643,0.015217465348541737,0.7753368020057678,48.90815734863281,13.946632385253906,2.7490930557250977,1.4564270973205566,2.599370002746582,4.303284645080566,-2.002854824066162,-3.153177261352539,-4.945734024047852
87,202102,202104,-0.01585865020751953,-0.02388216182589531,0.7254214286804199,50.48358154296875,16.528230667114258,3.3007848262786865,1.4564270973205566,2.6143691539764404,4.318284034729004,-2.254047155380249,-2.5295939445495605,-4.7970967292785645
88,202112,202114,0.01557860430330038,-0.003913773689419031,0.7225341796875,42.96675491333008,18.01739501953125,3.6093056201934814,1.4879255294799805,2.603869676589966,4.319784164428711,-2.3183462619781494,-2.1035549640655518,-4.862354755401611
89,202122,202124,-0.07158956676721573,-0.032596804201602936,0.7079957127571106,31.301494598388672,13.104503631591797,4.539250373840332,1.4654266834259033,2.5873706340789795,4.297285079956055,-2.4446239471435547,-1.5194283723831177,-4.769545078277588
90,202132,202134,-0.0987284779548645,-0.02721581794321537,0.7143722772598267,13.333757400512695,7.976748466491699,5.618729114532471,1.4654266834259033,2.6173691749572754,4.336283206939697,-2.446526527404785,-1.2793852090835571,-4.827855110168457
91,202142,202144,-0.03394852951169014,-0.0032419939525425434,0.7319867610931396,-4.218005657196045,5.480719566345215,6.800236701965332,1.4804259538650513,2.623368740081787,4.336283206939697,-2.673755645751953,-1.2961422204971313,-4.811801910400391
92,202152,202154,0.009571992792189121,-0.012354291044175625,0.7001404166221619,-19.16407585144043,0.6447356939315796,7.508724689483643,1.4864256381988525,2.593370199203491,4.32128381729126,-2.7554285526275635,-1.317241907119751,-4.738384246826172
93,202162,202164,0.016761869192123413,0.03092147409915924,0.7721272706985474,-25.84526252746582,-2.060349702835083,7.866232872009277,1.459426999092102,2.6113693714141846,4.333283424377441,-2.48710036277771,-1.4935935735702515,-4.793750286102295
94,202172,202174,-0.022524746134877205,-0.007476726081222296,0.7241386771202087,-24.690128326416016,-2.367467164993286,8.117904663085938,1.47442626953125,2.6443676948547363,4.354282379150391,-2.5647308826446533,-1.8449821472167969,-4.737753391265869
95,202182,202184,-0.08653721213340759,-0.010513479821383953,0.7496733069419861,-19.664073944091797,2.552773952484131,8.445756912231445,1.4909254312515259,2.624868631362915,4.3287835121154785,-2.6194839477539062,-2.1127450466156006,-4.636397361755371
96,202192,202194,-0.015603325329720974,0.014574873261153698,0.801969051361084,-13.690035820007324,2.844146966934204,8.20714282989502,1.4789260625839233,2.6338682174682617,4.34078311920166,-2.565298318862915,-2.169668674468994,-4.499619960784912
97,202202,202204,-0.14458148181438446,-0.028790272772312164,0.7065160274505615,5.175968647003174,8.214306831359863,7.4409589767456055,1.4969251155853271,2.654867172241211,4.352782249450684,-2.671921730041504,-2.3978776931762695,-4.428338527679443
98,202212,202214,0.06142041087150574,0.09046594053506851,0.7410375475883484,9.012096405029297,8.030842781066895,8.28680419921875,1.4789260625839233,2.6158690452575684,4.325783729553223,-2.5538082122802734,-2.3854963779449463,-4.432779788970947
99,202222,202224,0.17673109471797943,0.20048582553863525,0.8024463653564453,14.157416343688965,1.4018787145614624,8.737089157104492,1.47442626953125,2.626368522644043,4.345282554626465,-2.70025897026062,-2.283679962158203,-4.326513767242432
100,202232,202234,0.017559107393026352,0.053401362150907516,0.8201241493225098,25.939008712768555,-5.234472274780273,6.924810886383057,1.4774260520935059,2.626368522644043,4.3572821617126465,-2.6118111610412598,-2.0249407291412354,-4.242552757263184
101,202242,202244,-0.1496361941099167,-0.12884695827960968,0.8098313212394714,24.465105056762695,2.177856206893921,8.568830490112305,1.4789260625839233,2.6188690662384033,4.34078311920166,-2.505317211151123,-1.770015001296997,-4.204111099243164
102,202252,202254,-0.14081452786922455,-0.22301115095615387,0.7655028700828552,21.44492530822754,8.696126937866211,8.423576354980469,1.4789260625839233,2.630868434906006,4.346782684326172,-2.314703941345215,-1.6042943000793457,-4.250147342681885
103,202262,202264,-0.1549905389547348,-0.2969314455986023,0.6815176010131836,13.904401779174805,16.14920997619629,9.41596508026123,1.47442626953125,2.6413679122924805,4.354282379150391,-2.43953800201416,-1.4844114780426025,-4.186356067657471
104,202272,202274,-0.17722450196743011,-0.12571197748184204,0.7725176215171814,2.512120246887207,12.940263748168945,9.317590713500977,1.4774260520935059,2.6653666496276855,4.387280464172363,-2.689439296722412,-1.254326581954956,-4.001893043518066
105,202282,202284,-0.5447150468826294,-0.12111678719520569,0.7645997405052185,-3.6810543537139893,10.696048736572266,9.433151245117188,1.4699264764785767,2.62786865234375,4.343782901763916,-2.8562042713165283,-1.1897391080856323,-3.895627737045288
106,202292,202294,-0.45267587900161743,-0.027571413666009903,0.7341926693916321,-3.788055658340454,1.8965331315994263,8.31755256652832,1.47442626953125,2.6413679122924805,4.3572821617126465,-3.0475962162017822,-1.247501254081726,-3.7942492961883545
107,202302,202304,-0.015393681824207306,0.04517839848995209,0.7675456404685974,-5.684988975524902,-6.48525333404541,8.071111679077148,1.4924253225326538,2.659367084503174,4.37528133392334,-2.9423458576202393,-1.2464683055877686,-3.741705894470215
108,202312,202314,0.02834596484899521,-0.02311073988676071,0.7700355052947998,-2.060135841369629,-13.241806983947754,7.839468479156494,1.4804259538650513,2.6203689575195312,4.342282772064209,-2.8374810218811035,-1.26468026638031,-3.660621404647827
109,202322,202324,-0.10708686709403992,-0.12646973133087158,0.77985680103302,4.068598747253418,-11.766091346740723,7.257917404174805,1.4924253225326538,2.6383681297302246,4.360281944274902,-2.6210803985595703,-1.2746838331222534,-3.6090290546417236
110,202332,202334,-0.09708346426486969,-0.10741966217756271,0.7632997632026672,10.41065788269043,-4.842283248901367,7.939383506774902,1.4879255294799805,2.648867607116699,4.3797807693481445,-2.4988391399383545,-1.1860731840133667,-3.5104196071624756
111,202342,202344,-0.22569870948791504,-0.0733151063323021,0.8216637969017029,13.485883712768555,6.765247821807861,7.56549072265625,1.4639267921447754,2.60086989402771,4.337782859802246,-2.484048366546631,-1.2205382585525513,-3.477771282196045
112,202352,202354,-0.04420163854956627,-0.12688176333904266,0.7790709137916565,17.09715461730957,17.39693260192871,6.82383394241333,1.4699264764785767,2.62786865234375,4.343782901763916,-2.6522037982940674,-1.0444045066833496,-3.3467392921447754
113,202362,202364,0.11080996692180634,-0.14912855625152588,0.7703158259391785,12.68043041229248,24.277341842651367,6.457980155944824,1.4669265747070312,2.6428678035736084,4.364781856536865,-2.834486484527588,-0.8868789672851562,-3.2817320823669434
114,202372,202374,0.09243115037679672,0.06784062832593918,0.8034335970878601,14.533617973327637,22.136659622192383,4.948056221008301,1.4789260625839233,2.6638667583465576,4.3857808113098145,-2.786911725997925,-0.6448090076446533,-3.2679202556610107
115,202382,202384,0.05557840317487717,0.1276341825723648,0.843915581703186,15.988322257995605,15.326269149780273,3.9759137630462646,1.4684265851974487,2.6173691749572754,4.345282554626465,-2.9359657764434814,-0.5317882299423218,-3.261522054672241
116,202392,202394,0.01050826907157898,0.01838856376707554,0.795432448387146,4.3594160079956055,7.211677551269531,3.7876555919647217,1.459426999092102,2.6383681297302246,4.363281726837158,-3.259765148162842,-0.2679484784603119,-3.132786273956299
117,202402,202404,-0.013125465251505375,-0.019779864698648453,0.7885404229164124,2.7814579010009766,-3.3100264072418213,2.173064947128296,1.4684265851974487,2.6413679122924805,4.372281074523926,-3.2803773880004883,-0.3133523762226105,-3.162872791290283
118,202412,202414,0.021382808685302734,-0.029787767678499222,0.7670419812202454,-3.702753782272339,-8.300605773925781,3.68782901763916,1.4684265851974487,2.602369785308838,4.3302836418151855,-3.143641471862793,-0.32642698287963867,-3.1916463375091553
119,202422,202424,0.05254571884870529,0.05063876882195473,0.8160740733146667,-1.456458568572998,-6.321043014526367,4.0382890701293945,1.4684265851974487,2.6413679122924805,4.348282337188721,-3.0724549293518066,-0.3478950560092926,-3.1560475826263428
120,202432,202434,-0.24270491302013397,0.18401162326335907,0.8060072064399719,2.2445201873779297,-3.060076951980591,4.505324363708496,1.4564270973205566,2.650367498397827,4.3572821617126465,-2.9584262371063232,-0.34127748012542725,-3.1202051639556885
121,202442,202444,-0.08941549807786942,-0.11601600050926208,0.7840433120727539,-0.4136819839477539,-5.172549724578857,4.416100025177002,1.4564270973205566,2.6173691749572754,4.324283599853516,-3.1080474853515625,-0.2108330875635147,-2.9862959384918213
122,202452,202454,-0.35511624813079834,-0.0602940209209919,0.774027943611145,5.535284996032715,-5.669689178466797,3.355865240097046,1.4804259538650513,2.623368740081787,4.366281509399414,-3.0181422233581543,-0.2760546803474426,-2.984274387359619
123,202462,202464,-0.13564231991767883,-0.09027890861034393,0.7972634434700012,10.406379699707031,1.796333909034729,3.951432943344116,1.4669265747070312,2.6458675861358643,4.364781856536865,-2.785215377807617,-0.16229063272476196,-2.960268974304199
124,202472,202474,-0.10432520508766174,-0.05549650266766548,0.8095386624336243,12.78036117553711,10.495853424072266,4.451182842254639,1.4714263677597046,2.6683664321899414,4.378281116485596,-2.8092942237854004,-9.064078767551109e-05,-2.8924005031585693
125,202482,202484,-0.04266716539859772,-0.07345741242170334,0.8074659109115601,15.496255874633789,18.25638771057129,4.6092529296875,1.4699264764785767,2.6158690452575684,4.343782901763916,-3.0306408405303955,0.13272732496261597,-2.8141844272613525
126,202492,202494,-0.004616744816303253,-0.03936927393078804,0.8145818710327148,8.979643821716309,30.99809455871582,4.620976448059082,1.4714263677597046,2.650367498397827,4.360281944274902,-3.1058948040008545,0.172281876206398,-2.8376505374908447
127,202502,202504,0.041609037667512894,0.05857929214835167,0.8524864912033081,11.25189208984375,27.13234519958496,3.0992870330810547,1.4564270973205566,2.6623668670654297,4.381280899047852,-3.356130361557007,0.33404994010925293,-2.770148277282715
128,202512,202514,0.00901284534484148,0.003918414004147053,0.7894657254219055,17.837093353271484,4.697248935699463,-0.8007560968399048,1.4579271078109741,2.6158690452575684,4.316783905029297,-3.759141206741333,0.512773334980011,-2.6783690452575684
129,202522,202524,0.030305001884698868,-0.0440811961889267,0.7609982490539551,21.300716400146484,-18.187278747558594,-1.8020179271697998,1.4549272060394287,2.6158690452575684,4.34078311920166,-3.8243918418884277,0.7336070537567139,-2.662564754486084
130,202532,202534,0.06414443999528885,0.03642187640070915,0.789415717124939,16.898839950561523,-34.9486083984375,-3.920598030090332,1.4579271078109741,2.6158690452575684,4.352782249450684,-3.6092092990875244,0.9364577531814575,-2.6980907917022705
131,202542,202544,0.04838278517127037,0.013073470443487167,0.7690601348876953,11.738224029541016,-52.19194030761719,-7.008841514587402,1.4774260520935059,2.5843708515167236,4.3272833824157715,-3.1485259532928467,0.9973389506340027,-2.803408622741699
132,202552,202554,0.10098765790462494,-0.008116123266518116,0.71865314245224,5.518138885498047,-58.4139404296875,-7.8481292724609375,1.4789260625839233,2.603869676589966,4.337782859802246,-2.398700714111328,1.1835302114486694,-2.8688344955444336
133,202562,202564,0.00166069227270782,0.0038587921299040318,0.7630904912948608,3.7739479541778564,-65.21492004394531,-10.396219253540039,1.4789260625839233,2.603869676589966,4.337782859802246,-1.8214596509933472,1.282151699066162,-2.952843189239502
134,202572,202574,-0.014006100594997406,0.01439305953681469,0.7670187950134277,0.6493492126464844,-42.08513641357422,-7.5970845222473145,1.4789260625839233,2.603869676589966,4.337782859802246,-1.2596954107284546,1.3495839834213257,-3.0607950687408447
135,202582,202584,0.008414275012910366,0.040272947400808334,0.658259391784668,-7.720938205718994,-10.547975540161133,-2.93105411529541,1.4849257469177246,2.5798709392547607,4.313784122467041,-1.1094967126846313,1.2137506008148193,-3.209054946899414
136,202592,202594,-0.07985003292560577,-0.07240070402622223,0.6665878295898438,-18.840370178222656,16.6485538482666,-1.122731328010559,1.4774260520935059,2.593370199203491,4.306284427642822,-0.9781094193458557,1.1571124792099,-3.252269983291626
137,202602,202604,-0.03575005754828453,-0.13973678648471832,0.7447583675384521,-27.32388687133789,29.771888732910156,1.3754171133041382,1.4789260625839233,2.624868631362915,4.322783946990967,-1.2633014917373657,0.9935364723205566,-3.2635834217071533
138,202612,202614,0.0028556245379149914,-0.00666425283998251,0.7397750616073608,-31.42266273498535,37.189815521240234,3.9536314010620117,1.4699264764785767,2.630868434906006,4.343782901763916,-1.4755628108978271,0.7593913078308105,-3.2309374809265137
139,202622,202624,0.05746285989880562,0.008510633371770382,0.7659271359443665,-36.8782958984375,30.711132049560547,5.271137237548828,1.4834258556365967,2.6083695888519287,4.306284427642822,-1.986552357673645,0.37988290190696716,-3.224379062652588
140,202632,202634,0.0665012001991272,0.10514072328805923,0.7800572514533997,-30.568592071533203,19.33990478515625,4.905941009521484,1.459426999092102,2.6203689575195312,4.333283424377441,-2.285245180130005,0.014490543864667416,-3.1767313480377197
141,202642,202644,0.012193836271762848,0.02306218072772026,0.7615389227867126,-21.60252571105957,9.062771797180176,3.7564563751220703,1.4819258451461792,2.6428678035736084,4.34078311920166,-2.1492788791656494,0.011596296913921833,-3.018059253692627
142,202652,202654,-0.0324140265583992,-0.05192561075091362,0.6575742363929749,-12.420686721801758,4.15601921081543,4.009836673736572,1.4684265851974487,2.5873706340789795,4.318284034729004,-2.257476806640625,-0.372306227684021,-3.012892723083496
143,202662,202664,0.007763691712170839,0.04419991746544838,0.7744104266166687,-7.924639701843262,-5.1844658851623535,3.709200382232666,1.4774260520935059,2.596370220184326,4.32128381729126,-2.2190189361572266,-0.38704293966293335,-2.936506748199463
144,202672,202674,0.07283283770084381,0.11240031570196152,0.7482457160949707,-3.250157594680786,-15.054174423217773,4.195546627044678,1.4669265747070312,2.6098694801330566,4.331783294677734,-2.1184988021850586,-0.4570307731628418,-2.890716791152954
145,202682,202684,0.08886723965406418,0.213761106133461,0.8556366562843323,-2.02065372467041,-28.67013168334961,5.321102619171143,1.4789260625839233,2.573871374130249,4.283785820007324,-1.8832505941390991,-0.3609987497329712,-2.8144755363464355
146,202692,202694,-0.07268974184989929,-0.07400958985090256,0.8016035556793213,-3.133690595626831,-29.426677703857422,4.765125751495361,1.4624269008636475,2.5903704166412354,4.324283599853516,-1.653964638710022,-0.3809807002544403,-2.7705838680267334
147,202702,202704,-0.165025994181633,-0.034871675074100494,0.8123413920402527,-3.984469175338745,-15.918651580810547,5.6392645835876465,1.47442626953125,2.6173691749572754,4.333283424377441,-1.4029494524002075,-0.5140137076377869,-2.7441108226776123
148,202712,202714,-0.10658085346221924,-0.14491279423236847,0.680587649345398,-5.3295793533325195,-4.507584095001221,5.927107810974121,1.4849257469177246,2.6188690662384033,4.34078311920166,-1.1424024105072021,-0.5329854488372803,-2.6777548789978027
149,202722,202724,0.03463401645421982,-0.04285300150513649,0.6901599764823914,-8.201607704162598,4.118165016174316,6.3150954246521,1.4834258556365967,2.596370220184326,4.312284469604492,-1.0451658964157104,-0.6424315571784973,-2.625105381011963
150,202732,202734,0.08010462671518326,0.1279069185256958,0.7843641042709351,-12.192342758178711,8.226882934570312,6.02970027923584,1.47442626953125,2.596370220184326,4.306284427642822,-1.026940107345581,-0.716789960861206,-2.5623581409454346
151,202742,202744,0.023174595087766647,0.04404836148023605,0.7648303508758545,-8.009625434875488,12.300680160522461,5.3681159019470215,1.4834258556365967,2.623368740081787,4.339282989501953,-1.1768306493759155,-0.6975160241127014,-2.486158609390259
152,202752,202754,-0.03750917688012123,0.0741705596446991,0.7909321784973145,-11.04788589477539,10.553637504577637,5.208902359008789,1.4834258556365967,2.602369785308838,4.306284427642822,-1.3253228664398193,-0.7787777781486511,-2.436872720718384
153,202762,202764,-0.005030217580497265,0.050705861300230026,0.7731994986534119,-12.565277099609375,12.916411399841309,5.028780937194824,1.459426999092102,2.6173691749572754,4.32128381729126,-1.334645390510559,-0.9020894169807434,-2.3870296478271484
154,202772,202774,-0.04796643555164337,-0.03823329508304596,0.7175533771514893,-13.792807579040527,10.854142189025879,5.0531816482543945,1.4819258451461792,2.6428678035736084,4.34078311920166,-1.5794785022735596,-0.9841007590293884,-2.335784435272217
155,202782,202784,-0.08153990656137466,-0.0661666989326477,0.7230545282363892,-15.34424877166748,8.963833808898926,3.710216760635376,1.472926378250122,2.6158690452575684,4.33478307723999,-1.3573195934295654,-1.1598145961761475,-2.286127805709839
156,202792,202794,-0.049135077744722366,-0.102582186460495,0.7354854941368103,-15.086094856262207,11.107779502868652,5.068930625915527,1.4804259538650513,2.626368522644043,4.342282772064209,-1.6078786849975586,-1.3664613962173462,-2.2486720085144043
157,202802,202804,0.008820409886538982,-0.02961575984954834,0.7629125714302063,-11.497406005859375,4.624760150909424,5.594647407531738,1.4684265851974487,2.647367477416992,4.354282379150391,-1.784587025642395,-1.626692771911621,-2.208744764328003
158,202812,202814,-0.013115396723151207,-0.05588127672672272,0.7572118639945984,1.7871429920196533,-5.972060680389404,5.630666255950928,1.4954252243041992,2.647367477416992,4.354282379150391,-1.6611928939819336,-1.6042524576187134,-2.1452720165252686
159,202822,202824,-0.06256147474050522,-0.05239608883857727,0.736039400100708,15.812135696411133,-12.96670150756836,6.242105484008789,1.4714263677597046,2.6173691749572754,4.3302836418151855,-1.6566810607910156,-1.670714259147644,-2.087062120437622
160,202832,202834,0.0277851615101099,0.039312444627285004,0.789395809173584,25.391313552856445,-17.539505004882812,6.883519172668457,1.4684265851974487,2.6203689575195312,4.345282554626465,-1.3199024200439453,-1.4882417917251587,-2.028887987136841
161,202842,202844,-0.2803853154182434,0.11623064428567886,0.7954665422439575,29.373859405517578,-15.684544563293457,7.822633266448975,1.475926160812378,2.62786865234375,4.346782684326172,-1.2053568363189697,-1.0797635316848755,-1.9474623203277588
162,202852,202854,-0.8384109139442444,0.16836345195770264,0.7611851096153259,30.432249069213867,-13.869983673095703,7.916725158691406,1.4669265747070312,2.597870111465454,4.319784164428711,-1.2423434257507324,-0.9553330540657043,-1.8644155263900757
163,202862,202864,-0.8494875431060791,0.06431993097066879,0.728213906288147,27.857513427734375,-12.609847068786621,6.515827178955078,1.4849257469177246,2.6098694801330566,4.322783946990967,-0.9704444408416748,-0.5334451198577881,-1.7900489568710327
164,202872,202874,-0.4198630452156067,-0.08422709256410599,0.7349257469177246,19.45369529724121,-4.869723796844482,5.965534210205078,1.475926160812378,2.6098694801330566,4.331783294677734,-0.9004871845245361,-0.2191474437713623,-1.7168289422988892
165,202882,202884,-0.11279264837503433,-0.14124158024787903,0.7803440093994141,10.179008483886719,2.0282418727874756,6.256131172180176,1.4774260520935059,2.599370002746582,4.303284645080566,-0.8059245944023132,-0.05468585342168808,-1.660293698310852
166,202892,202894,-0.031216340139508247,-0.16529637575149536,0.7338320016860962,-0.49739283323287964,12.742242813110352,7.234669208526611,1.472926378250122,2.621868848800659,4.322783946990967,-0.7574966549873352,0.09873044490814209,-1.6008353233337402
167,202902,202904,-0.07389816641807556,-0.06316689401865005,0.7800812125205994,-9.435185432434082,15.898655891418457,6.301834583282471,1.47442626953125,2.6113693714141846,4.333283424377441,-0.7711938619613647,0.007079749833792448,-1.5331166982650757
168,202912,202914,-0.05139552801847458,-0.044026657938957214,0.7379660606384277,-16.05498504638672,18.199798583984375,5.500617027282715,1.4624269008636475,2.629368543624878,4.336283206939697,-1.0588176250457764,-0.15579859912395477,-1.4607007503509521
169,202922,202924,0.04722215235233307,0.10904566943645477,0.7959069013595581,-17.296634674072266,16.752656936645508,6.61635160446167,1.4654266834259033,2.6443676948547363,4.351282119750977,-1.3756922483444214,-0.41523537039756775,-1.3957910537719727
170,202932,202934,-0.031916458159685135,0.05188111960887909,0.8541719317436218,-14.769438743591309,10.007472038269043,4.630913734436035,1.4564270973205566,2.656367063522339,4.37528133392334,-1.3942608833312988,-0.4708787202835083,-1.3462449312210083
171,202942,202944,-0.20548048615455627,-0.025819221511483192,0.8005725741386414,-6.192357540130615,6.682906627655029,5.261408805847168,1.4879255294799805,2.6458675861358643,4.3557820320129395,-1.333993911743164,-0.6227554082870483,-1.30644690990448
172,202952,202954,-0.2013365626335144,-0.06395354866981506,0.7750701308250427,4.156262397766113,1.2869396209716797,5.023391246795654,1.47442626953125,2.632368326187134,4.345282554626465,-1.4318166971206665,-0.7243021130561829,-1.2572226524353027
173,202962,202964,-0.19244220852851868,-0.18208226561546326,0.7911418080329895,10.518675804138184,0.6565707325935364,3.5089035034179688,1.4789260625839233,2.6428678035736084,4.361781597137451,-1.5179072618484497,-0.6006326675415039,-1.2105438709259033
174,202972,202974,-0.034699223935604095,-0.029288794845342636,0.823212742805481,15.915749549865723,1.9356850385665894,3.3613786697387695,1.4819258451461792,2.621868848800659,4.322783946990967,-1.4976093769073486,-0.4298050105571747,-1.1775381565093994
175,202982,202984,-0.06503500044345856,-0.11556193977594376,0.7130632400512695,17.325580596923828,3.0886189937591553,3.176407814025879,1.4579271078109741,2.6128692626953125,4.316783905029297,-1.4064087867736816,-0.18283908069133759,-1.1509548425674438
176,202992,202994,-0.2349507212638855,-0.3296270966529846,0.6655383110046387,13.944293975830078,8.321812629699707,3.246457815170288,1.472926378250122,2.624868631362915,4.33478307723999,-1.4580990076065063,-0.07329675555229187,-1.1160099506378174
177,203002,203004,-0.5584895014762878,-0.16698622703552246,0.7015862464904785,3.786648988723755,2.6937174797058105,3.120828151702881,1.472926378250122,2.573871374130249,4.292785167694092,-1.5577640533447266,0.05471170321106911,-1.082721471786499
178,203012,203014,-0.1376381516456604,0.07925178855657578,0.7734848856925964,-5.777895450592041,3.633171796798706,2.6852164268493652,1.459426999092102,2.596370220184326,4.315284252166748,-1.4000258445739746,0.04475387558341026,-1.0559930801391602
179,203022,203024,0.07398581504821777,0.18240264058113098,0.7961879968643188,-14.787169456481934,-4.468303680419922,4.057719707489014,1.46092689037323,2.6098694801330566,4.319784164428711,-1.3912854194641113,0.0316317081451416,-1.0335105657577515
180,203032,203034,-0.010871756821870804,-0.0019741742871701717,0.7510702013969421,-19.175251007080078,-8.388842582702637,1.879950761795044,1.472926378250122,2.630868434906006,4.34078311920166,-1.3760677576065063,-0.20173436403274536,-0.9942840337753296
181,203042,203044,-0.025880003347992897,-0.027568437159061432,0.7443867921829224,-14.7262544631958,-4.90789794921875,1.9188686609268188,1.472926378250122,2.62786865234375,4.337782859802246,-1.1650573015213013,-0.4968831539154053,-0.9669499397277832
182,203052,203054,0.02530808188021183,0.02642121911048889,0.772319495677948,-7.7069478034973145,-0.4495678246021271,1.31233811378479,1.4789260625839233,2.6428678035736084,4.346782684326172,-1.1306813955307007,-0.6564030051231384,-0.9469470977783203
183,203062,203064,-0.034468475729227066,-0.06875737011432648,0.7595734000205994,1.2454181909561157,4.739398956298828,1.0569689273834229,1.4774260520935059,2.656367063522339,4.36928129196167,-1.3784466981887817,-0.7045923471450806,-0.9338868260383606
184,203072,203074,-0.06366421282291412,-0.041339702904224396,0.7581049203872681,12.382661819458008,12.625478744506836,1.6535437107086182,1.4669265747070312,2.6338682174682617,4.34078311920166,-1.0068557262420654,-0.7346923351287842,-0.921741783618927
185,203082,203084,-0.08378849178552628,-0.10259779542684555,0.7961310148239136,18.25669288635254,15.398496627807617,0.7860146760940552,1.4669265747070312,2.6368680000305176,4.367781639099121,-1.1982847452163696,-0.5196437239646912,-0.9114606380462646
186,203092,203094,-0.1472286731004715,-0.17601928114891052,0.7779382467269897,22.402650833129883,23.006135940551758,1.0582314729690552,1.4699264764785767,2.6668665409088135,4.361781597137451,-1.4515973329544067,-0.28491777181625366,-0.9016616344451904
187,203102,203104,-0.1644248515367508,-0.08393863588571548,0.7639004588127136,19.51933479309082,26.782045364379883,2.183250665664673,1.4819258451461792,2.621868848800659,4.337782859802246,-1.8599660396575928,-0.002473212545737624,-0.8888610601425171
188,203112,203114,-0.04370579496026039,-0.04869120195508003,0.7586104273796082,13.330039024353027,25.999704360961914,2.3026154041290283,1.4774260520935059,2.6443676948547363,4.3572821617126465,-2.0209221839904785,0.24250347912311554,-0.8733471035957336
189,203122,203124,0.1327436864376068,0.12384948879480362,0.8405840992927551,4.451599597930908,21.36049461364746,2.9426567554473877,1.4564270973205566,2.6383681297302246,4.363281726837158,-2.184584379196167,0.2419588714838028,-0.8494213223457336
190,203132,203134,0.01967894658446312,0.0499480701982975,0.8427181839942932,-0.648718535900116,16.164037704467773,1.1950743198394775,1.4654266834259033,2.656367063522339,4.378281116485596,-2.4379351139068604,0.3319813907146454,-0.824524462223053
191,203142,203144,-0.09360385686159134,-0.011984139680862427,0.6977118849754333,-5.711667060852051,5.416836261749268,0.21721430122852325,1.46092689037323,2.6188690662384033,4.33478307723999,-2.404829978942871,0.33294615149497986,-0.8073450326919556
192,203152,203154,-0.05146390199661255,-0.05248197168111801,0.727008044719696,-1.1836330890655518,-0.5320924520492554,-2.2912304401397705,1.459426999092102,2.629368543624878,4.339282989501953,-2.572049379348755,0.24446307122707367,-0.8008267879486084
193,203162,203164,-0.13375236093997955,-0.06962306797504425,0.7575181722640991,3.9513938426971436,-9.454293251037598,-6.206705570220947,1.459426999092102,2.6413679122924805,4.366281509399414,-2.589597225189209,0.21185454726219177,-0.8177250623703003
194,203172,203174,-0.010236707516014576,0.03398135304450989,0.8446292877197266,5.739185333251953,-10.432344436645508,-9.441644668579102,1.459426999092102,2.6203689575195312,4.345282554626465,-2.454393148422241,0.26860758662223816,-0.8710083961486816
195,203182,203184,0.022289680317044258,0.03827623277902603,0.8205410838127136,4.723343372344971,-10.02492904663086,-14.35976505279541,1.459426999092102,2.632368326187134,4.3572821617126465,-2.307349443435669,0.3604232966899872,-0.96149742603302
196,203192,203194,-0.1672591269016266,-0.009417776949703693,0.7861288189888,-1.1792078018188477,-13.033049583435059,-18.49365997314453,1.4699264764785767,2.6458675861358643,4.376780986785889,-2.1925265789031982,0.43907782435417175,-1.0959179401397705
197,203202,203204,-0.11976975947618484,-0.05304918810725212,0.7350032329559326,-14.017952919006348,-16.731943130493164,-21.08440399169922,1.459426999092102,2.602369785308838,4.339282989501953,-2.0238864421844482,0.40940406918525696,-1.2721222639083862
198,203212,203214,-0.0030589697416871786,-0.018519815057516098,0.7546970248222351,-36.8742790222168,-17.94582176208496,-19.624614715576172,1.4624269008636475,2.632368326187134,4.354282379150391,-1.9975460767745972,0.15979710221290588,-1.4908626079559326
199,203222,203224,-0.0008412128663621843,0.014626496471464634,0.7633543610572815,-53.278839111328125,-18.839611053466797,-20.675336837768555,1.46092689037323,2.6638667583465576,4.38878059387207,-1.7280640602111816,-0.14611805975437164,-1.68448805809021
200,203232,203234,-0.01985626295208931,0.007906714454293251,0.7352595329284668,-54.84862518310547,-20.59678077697754,-19.159936904907227,1.4654266834259033,2.650367498397827,4.354282379150391,-1.434637188911438,-0.8557773232460022,-1.8911625146865845
201,203242,203244,-0.03083045966923237,-0.031863436102867126,0.8112470507621765,-39.84193801879883,-18.590431213378906,-19.122652053833008,1.4654266834259033,2.659367084503174,4.3572821617126465,-1.3381868600845337,-1.1623790264129639,-2.073837995529175
202,203252,203254,0.002026777481660247,0.00396296801045537,0.755151629447937,-9.37670612335205,-10.358154296875,-16.533592224121094,1.4714263677597046,2.653367280960083,4.351282119750977,-1.1169228553771973,-1.65310800075531,-2.259970188140869
203,203262,203264,0.0066983080469071865,0.022668808698654175,0.786903977394104,30.22438621520996,-4.501836776733398,-14.852557182312012,1.472926378250122,2.6458675861358643,4.358781814575195,-1.145851492881775,-1.7355129718780518,-2.4293296337127686
204,203272,203274,-0.0031266247387975454,-0.056625690311193466,0.7277188301086426,58.149967193603516,5.416407585144043,-11.761402130126953,1.459426999092102,2.629368543624878,4.345282554626465,-1.220666766166687,-1.3129180669784546,-2.5717074871063232
205,203282,203284,-0.08649810403585434,-0.07148824632167816,0.8257521390914917,71.52532196044922,18.079734802246094,-9.596226692199707,1.4639267921447754,2.6458675861358643,4.373781204223633,-1.2360364198684692,-0.5192315578460693,-2.6853599548339844
206,203292,203294,0.03787621855735779,0.030329547822475433,0.7473464608192444,67.35088348388672,20.22231674194336,-7.312740802764893,1.4579271078109741,2.6668665409088135,4.3827805519104,-1.351245403289795,-0.09736533463001251,-2.792611837387085
207,203302,203304,0.06524410843849182,0.15757685899734497,0.7684696316719055,50.63447189331055,17.17896270751953,-6.620959281921387,1.47442626953125,2.629368543624878,4.348282337188721,-1.5809204578399658,0.858758807182312,-2.865941286087036
208,203312,203314,-0.04873140901327133,-0.051106784492731094,0.7506200671195984,24.349849700927734,11.764501571655273,-6.163533687591553,1.475926160812378,2.630868434906006,4.367781639099121,-1.5002996921539307,1.2975869178771973,-2.9395763874053955
209,203322,203324,-0.12227627635002136,-0.02441488578915596,0.8181837201118469,-0.5163593292236328,11.38934326171875,-2.289144992828369,1.4714263677597046,2.6353681087493896,4.372281074523926,-1.69778311252594,1.4474129676818848,-2.999619245529175
210,203332,203334,-0.04526710510253906,0.06074277311563492,0.780602753162384,-31.821195602416992,1.6834018230438232,-0.800304114818573,1.4699264764785767,2.594870090484619,4.325783729553223,-1.8449527025222778,1.3262999057769775,-3.030686140060425
211,203342,203344,-0.08038776367902756,-0.0802856907248497,0.7856794595718384,-47.04541015625,-5.223922252655029,0.21592757105827332,1.4654266834259033,2.632368326187134,4.366281509399414,-1.8763188123703003,1.1023147106170654,-3.0434346199035645
212,203352,203354,-0.049336571246385574,-0.06560882180929184,0.754687488079071,-48.921409606933594,-0.1371903270483017,1.980065941810608,1.4804259538650513,2.653367280960083,4.366281509399414,-1.9365854263305664,0.47082892060279846,-3.0509579181671143
213,203362,203364,-0.09744185209274292,0.020035238936543465,0.7405660152435303,-49.85078430175781,-1.5196048021316528,4.401206016540527,1.4774260520935059,2.656367063522339,4.387280464172363,-1.7844303846359253,0.0750366598367691,-3.0247466564178467
214,203372,203374,-0.16397236287593842,0.23724240064620972,0.7989546060562134,-31.807065963745117,-7.321188449859619,4.7486748695373535,1.4774260520935059,2.656367063522339,4.387280464172363,-1.8472435474395752,-0.5614477396011353,-3.0021862983703613
215,203382,203384,-0.020771626383066177,0.14405174553394318,0.8195328712463379,-2.296283006668091,-7.7620391845703125,2.576986074447632,1.4774260520935059,2.656367063522339,4.387280464172363,-1.7137017250061035,-0.7488666772842407,-2.9505248069763184
216,203392,203394,-0.2831684350967407,0.03466051071882248,0.7868458032608032,31.377988815307617,-3.3519747257232666,0.26486265659332275,1.4654266834259033,2.6413679122924805,4.3572821617126465,-1.7495616674423218,-0.7466972470283508,-2.9295477867126465
217,203402,203404,-0.32051366567611694,-0.1833983212709427,0.8366810083389282,47.993770599365234,-2.549760103225708,-3.794771909713745,1.4774260520935059,2.6413679122924805,4.3572821617126465,-1.7206745147705078,-0.2401152104139328,-2.914320945739746
218,203412,203414,-0.09932958334684372,-0.11775768548250198,0.7509542107582092,52.83308029174805,-7.234076023101807,-5.796473979949951,1.4639267921447754,2.630868434906006,4.33478307723999,-1.6027710437774658,0.16472293436527252,-2.9393277168273926
219,203422,203424,-0.019142843782901764,-0.031970322132110596,0.722435712814331,33.50583267211914,-18.33163833618164,-6.032843112945557,1.4714263677597046,2.629368543624878,4.348282337188721,-1.444763422012329,0.8168601393699646,-2.9859306812286377
220,203432,203434,0.029356015846133232,-0.005333820357918739,0.6745069622993469,-1.806122899055481,-27.656633377075195,-3.2817986011505127,1.475926160812378,2.6428678035736084,4.3557820320129395,-1.2847635746002197,1.043666958808899,-3.0516762733459473
221,203442,203444,-0.11776674538850784,-0.04347540810704231,0.6263114213943481,-43.23501968383789,-9.319672584533691,1.6119768619537354,1.4624269008636475,2.599370002746582,4.309284687042236,-0.9864617586135864,0.8448002338409424,-3.0877997875213623
222,203452,203454,-0.07881979644298553,-0.03865857049822807,0.7943750619888306,-80.67347717285156,8.610368728637695,2.5669808387756348,1.4654266834259033,2.6353681087493896,4.354282379150391,-0.8381515741348267,0.17138995230197906,-3.077388286590576
223,203462,203464,-0.004997738637030125,0.0596025288105011,0.8186382055282593,-91.45836639404297,19.524883270263672,2.110795736312866,1.4939253330230713,2.6668665409088135,4.373781204223633,-0.9589287042617798,-0.4286423325538635,-3.0536680221557617
224,203472,203474,0.04759245365858078,0.0869058296084404,0.8142921328544617,-80.64649963378906,28.261703491210938,0.73997962474823,1.4789260625839233,2.711864471435547,4.400779724121094,-1.2730978727340698,-1.475512146949768,-3.048295021057129
225,203482,203484,0.06273659318685532,0.15091870725154877,0.8125931024551392,-48.78550720214844,29.60819435119629,1.3206721544265747,1.4714263677597046,2.6653666496276855,4.36928129196167,-1.7041064500808716,-2.106778621673584,-3.0644726753234863
226,203492,203494,0.05389576777815819,0.14108161628246307,0.7935372591018677,-16.54639434814453,19.345705032348633,1.4390772581100464,1.4639267921447754,2.678865909576416,4.367781639099121,-1.8511749505996704,-2.6047675609588623,-3.056135892868042
227,203502,203504,0.04070034623146057,0.21080465614795685,0.8667853474617004,17.05419158935547,0.857478141784668,1.6477090120315552,1.47442626953125,2.6743662357330322,4.381280899047852,-1.8434487581253052,-2.765376091003418,-3.0457193851470947
228,203512,203514,-0.018122131004929543,0.011691761203110218,0.8121925592422485,49.3125,-19.705209732055664,3.4826738834381104,1.47442626953125,2.626368522644043,4.336283206939697,-1.8693187236785889,-2.4441983699798584,-3.0299980640411377
229,203522,203524,-0.223951056599617,-0.1657959222793579,0.8517605066299438,72.74852752685547,-36.55870819091797,4.410045623779297,1.4654266834259033,2.629368543624878,4.351282119750977,-1.6605452299118042,-1.697450041770935,-2.9923460483551025
230,203532,203534,-0.29001903533935547,-0.23010864853858948,0.7421056032180786,84.61196899414062,-46.44934844970703,6.168347358703613,1.4639267921447754,2.6608669757843018,4.376780986785889,-1.3715780973434448,-1.097355842590332,-2.937886953353882
231,203542,203544,-0.4669519066810608,-0.09176885336637497,0.8385559916496277,72.37361145019531,-56.33930206298828,6.792860984802246,1.472926378250122,2.606869697570801,4.33478307723999,-0.7858308553695679,-0.21056082844734192,-2.879971981048584
232,203552,203554,-0.1824929565191269,0.025846874341368675,0.7995882034301758,48.82582473754883,-64.22452545166016,7.156435966491699,1.4699264764785767,2.6128692626953125,4.349782466888428,-0.2530173659324646,0.35481101274490356,-2.8095173835754395
233,203562,203564,-0.02941998280584812,-0.011767427437007427,0.7514772415161133,23.159414291381836,-58.593875885009766,4.603822231292725,1.4819258451461792,2.6188690662384033,4.34078311920166,0.4920107424259186,0.9250285625457764,-2.7609970569610596
234,203572,203574,-0.03823445364832878,-0.14493350684642792,0.7370325922966003,-2.3043031692504883,-39.4416618347168,4.1070098876953125,1.4819258451461792,2.5918703079223633,4.295784950256348,0.9957119822502136,1.0706946849822998,-2.7109973430633545
235,203582,203584,-0.027910256758332253,-0.04112962260842323,0.7078686356544495,-23.642282485961914,-12.05452823638916,5.120943546295166,1.4849257469177246,2.5858707427978516,4.307784557342529,1.2319101095199585,0.9999681115150452,-2.6610941886901855
236,203592,203594,0.09064911305904388,0.09960208088159561,0.6871719360351562,-38.599609375,10.462468147277832,5.009469032287598,1.4924253225326538,2.6113693714141846,4.3272833824157715,1.498422384262085,0.5934357047080994,-2.5988237857818604
237,203602,203604,0.12692177295684814,0.14129388332366943,0.8146798610687256,-42.3504638671875,22.18960189819336,3.853311061859131,1.4924253225326538,2.647367477416992,4.345282554626465,1.3731006383895874,0.20228447020053864,-2.5467112064361572
238,203612,203614,0.09440254420042038,0.1365681290626526,0.8153987526893616,-35.309303283691406,36.99423599243164,6.075444221496582,1.4774260520935059,2.6143691539764404,4.324283599853516,1.0003045797348022,-0.30622896552085876,-2.491591453552246
239,203622,203624,-0.056933335959911346,0.05956070497632027,0.8716825842857361,-24.610939025878906,44.03262710571289,6.378499507904053,1.498425006866455,2.6353681087493896,4.345282554626465,0.4638558328151703,-0.5799086689949036,-2.4572041034698486
240,203632,203634,-0.037825990468263626,0.0010975046316161752,0.7284969687461853,-8.676680564880371,37.65797424316406,6.1864495277404785,1.475926160812378,2.654867172241211,4.361781597137451,0.04897570610046387,-0.6687829494476318,-2.4326906204223633
241,203642,203644,-0.09976677596569061,-0.06265958398580551,0.7499744296073914,6.226413726806641,22.332185745239258,5.536201000213623,1.4654266834259033,2.629368543624878,4.318284034729004,-0.1897859275341034,-0.8024395108222961,-2.3689868450164795
242,203652,203654,-0.009071901440620422,-0.06200473755598068,0.7455898523330688,20.255945205688477,5.854156017303467,4.795351028442383,1.4849257469177246,2.624868631362915,4.322783946990967,-0.5248488783836365,-0.6932940483093262,-2.3266313076019287
243,203662,203664,0.045565105974674225,0.010889049619436264,0.7236502766609192,21.989181518554688,-15.514923095703125,5.783917427062988,1.4864256381988525,2.623368740081787,4.3302836418151855,-0.4774470627307892,-0.37891826033592224,-2.3044936656951904
244,203672,203674,0.05747603625059128,0.18369324505329132,0.8813135623931885,20.508586883544922,-37.433162689208984,4.7603373527526855,1.475926160812378,2.594870090484619,4.316783905029297,-0.24402281641960144,-0.37499698996543884,-2.2017061710357666
245,203682,203684,-0.012559699825942516,0.0833376869559288,0.8174682855606079,18.741901397705078,-42.52799606323242,4.164936542510986,1.4789260625839233,2.6188690662384033,4.3287835121154785,0.20488280057907104,-0.009965308010578156,-2.1840670108795166
246,203692,203694,-0.40674400329589844,-0.18998129665851593,0.839603066444397,11.269641876220703,-43.2850227355957,3.4518215656280518,1.47442626953125,2.6383681297302246,4.351282119750977,0.7267266511917114,0.1379924863576889,-2.131237506866455
247,203702,203704,-0.3126283586025238,-0.28048717975616455,0.7726461887359619,7.768625736236572,-23.750383377075195,3.1923680305480957,1.489425539970398,2.626368522644043,4.342282772064209,0.9473395943641663,0.29988017678260803,-2.1012673377990723
248,203712,203714,-0.43264859914779663,-0.3635217249393463,0.7294510006904602,-1.787278652191162,-0.6378353238105774,3.8140869140625,1.4819258451461792,2.6188690662384033,4.325783729553223,1.209213376045227,0.38449394702911377,-2.073777914047241
249,203722,203724,-0.1798156201839447,-0.007863734848797321,0.7120179533958435,-7.3718791007995605,10.676434516906738,3.5288000106811523,1.4864256381988525,2.6383681297302246,4.351282119750977,1.2299035787582397,0.335425466299057,-2.029284715652466
250,203732,203734,0.18895356357097626,0.14612646400928497,0.7009394764900208,-16.454069137573242,16.593669891357422,2.8324360847473145,1.4924253225326538,2.626368522644043,4.3272833824157715,1.1176639795303345,0.18971127271652222,-1.978353500366211
251,203742,203744,0.09917529672384262,0.22904519736766815,0.770284116268158,-18.864091873168945,14.337665557861328,3.12680983543396,1.4714263677597046,2.6113693714141846,4.324283599853516,0.9492256045341492,0.008810434490442276,-1.9398754835128784
252,203752,203754,0.012485938146710396,0.13391432166099548,0.8796604871749878,-16.323772430419922,15.262613296508789,4.184076309204102,1.4684265851974487,2.6383681297302246,4.360281944274902,0.7550960183143616,-0.13309058547019958,-1.9189198017120361
253,203762,203764,-0.15672817826271057,-0.0707298070192337,0.7912112474441528,-6.499993324279785,12.22885799407959,3.764516830444336,1.4939253330230713,2.6338682174682617,4.349782466888428,0.532152533531189,-0.380859375,-1.8518829345703125
254,203772,203774,-0.22179678082466125,-0.17273597419261932,0.8314112424850464,-0.2877173125743866,22.20147705078125,3.391855001449585,1.4789260625839233,2.6338682174682617,4.337782859802246,0.49320119619369507,-0.34596484899520874,-1.8460630178451538
255,203782,203784,-0.08865182846784592,-0.20461565256118774,0.6341054439544678,5.355924129486084,27.576129913330078,5.007846832275391,1.47442626953125,2.623368740081787,4.3302836418151855,0.2320776730775833,-0.3685026168823242,-1.8109850883483887
256,203792,203794,-0.047266341745853424,0.0014756207820028067,0.752933919429779,4.148721694946289,26.627527236938477,5.996863842010498,1.4714263677597046,2.6653666496276855,4.36928129196167,0.19925418496131897,-0.3188174366950989,-1.7667527198791504
257,203802,203804,0.1778530478477478,0.12795324623584747,0.7523025870323181,2.1877567768096924,18.06378173828125,6.863868236541748,1.4819258451461792,2.621868848800659,4.33478307723999,-0.15965791046619415,-0.18250922858715057,-1.7456135749816895
258,203812,203814,0.15749967098236084,0.20290379226207733,0.792823314666748,0.9967974424362183,0.7313106656074524,6.7252116203308105,1.475926160812378,2.6338682174682617,4.346782684326172,-0.3219132721424103,-0.26920413970947266,-1.6455190181732178
259,203822,203824,-0.01803482510149479,0.10967634618282318,0.7511699199676514,3.06048846244812,-7.84450626373291,6.6655426025390625,1.4819258451461792,2.651867389678955,4.367781639099121,-0.35253676772117615,-0.20121148228645325,-1.5882318019866943
260,203832,203834,-0.06904760003089905,-0.04885144531726837,0.6856793761253357,5.967062950134277,-15.833539962768555,6.418471813201904,1.4654266834259033,2.623368740081787,4.3272833824157715,-0.16363799571990967,-0.13658826053142548,-1.5246442556381226
261,203842,203844,-0.05977019667625427,-0.08472941815853119,0.6979913711547852,4.879293918609619,-17.60735511779785,4.854372024536133,1.4939253330230713,2.6428678035736084,4.346782684326172,0.021546369418501854,0.016074996441602707,-1.4868495464324951
262,203852,203854,0.08406935632228851,0.08681025356054306,0.7851239442825317,2.359799385070801,-15.855307579040527,4.748251914978027,1.4864256381988525,2.647367477416992,4.37528133392334,0.32685691118240356,0.009543625637888908,-1.4174830913543701
263,203862,203864,0.02498791180551052,0.006749122869223356,0.7644767761230469,-0.18313348293304443,-14.89517879486084,3.1787147521972656,1.4774260520935059,2.6353681087493896,4.3572821617126465,0.32245007157325745,0.039370447397232056,-1.3770592212677002
264,203872,203874,0.04500588774681091,0.10031276196241379,0.801131010055542,0.09310085326433182,-9.2827787399292,2.3951549530029297,1.4864256381988525,2.6413679122924805,4.363281726837158,0.564781904220581,0.038141049444675446,-1.3438364267349243
265,203882,203884,-0.013362428173422813,0.034881554543972015,0.7853720784187317,3.639277458190918,1.5220822095870972,1.4685789346694946,1.4954252243041992,2.6653666496276855,4.390280246734619,0.6986096501350403,0.038810841739177704,-1.3206779956817627
266,203892,203894,-0.06175024434924126,0.039153266698122025,0.8121671676635742,3.9723572731018066,8.714818000793457,1.6248269081115723,1.4714263677597046,2.632368326187134,4.3572821617126465,0.6585946679115295,0.02307148277759552,-1.2932698726654053
267,203902,203904,-0.05186861380934715,0.049074381589889526,0.9008554816246033,3.1501035690307617,12.897536277770996,0.13410788774490356,1.4879255294799805,2.6458675861358643,4.352782249450684,0.4879089295864105,0.08880411088466644,-1.289783239364624
268,203912,203914,-0.030243443325161934,0.04175253212451935,0.8081793785095215,0.015010212548077106,12.944320678710938,0.5990362763404846,1.4819258451461792,2.651867389678955,4.3557820320129395,0.47186800837516785,0.14336147904396057,-1.288279414176941
269,203922,203924,-0.04971393570303917,-0.03652646392583847,0.8236445188522339,-5.648983955383301,11.817455291748047,-0.12183215469121933,1.475926160812378,2.6608669757843018,4.3857808113098145,0.23050886392593384,0.13302913308143616,-1.2841463088989258
270,203932,203934,-0.051994554698467255,-0.06583656370639801,0.7778565287590027,-6.127171993255615,11.092629432678223,0.3012048602104187,1.4834258556365967,2.6383681297302246,4.339282989501953,0.013252543285489082,0.03765907511115074,-1.2743226289749146
271,203942,203944,-0.130343496799469,-0.1495990753173828,0.7690631151199341,-9.107063293457031,14.490150451660156,-0.3749864399433136,1.4804259538650513,2.650367498397827,4.366281509399414,-0.05298474058508873,0.05774933472275734,-1.2963758707046509
272,203952,203954,-0.1223897784948349,-0.16754578053951263,0.7218418717384338,-8.533207893371582,10.335835456848145,0.13644829392433167,1.4714263677597046,2.6653666496276855,4.387280464172363,-0.286798357963562,-0.1059117391705513,-1.2842801809310913
273,203962,203964,-0.16653460264205933,-0.16980792582035065,0.7250274419784546,-9.031208992004395,10.494047164916992,-0.23387323319911957,1.4639267921447754,2.62786865234375,4.3557820320129395,-0.16932840645313263,-0.18872341513633728,-1.279576301574707
274,203972,203974,-0.0729629173874855,-0.16973036527633667,0.6858386397361755,-13.43415355682373,8.282894134521484,0.38460448384284973,1.4789260625839233,2.651867389678955,4.370781421661377,-0.23368161916732788,-0.28362739086151123,-1.280120611190796
275,203982,203984,-0.1265542060136795,-0.10279251635074615,0.7522218823432922,-9.188700675964355,7.7017292976379395,-0.9167279005050659,1.4789260625839233,2.657866954803467,4.370781421661377,-0.33530107140541077,-0.3704111874103546,-1.2923252582550049
276,203992,203994,-0.1461700052022934,0.005995213519781828,0.7382792830467224,-6.813495635986328,7.405259609222412,1.1812822818756104,1.47442626953125,2.6413679122924805,4.342282772064209,-0.3345397412776947,-0.468162477016449,-1.2995802164077759
277,204002,204004,0.00813834834843874,0.0798790454864502,0.7847952246665955,-6.6149396896362305,4.745876312255859,0.5125665664672852,1.472926378250122,2.6398680210113525,4.361781597137451,-0.4084501266479492,-0.5252441763877869,-1.300593614578247
278,204012,204014,-0.0022952682338654995,0.054002661257982254,0.8164233565330505,0.29898351430892944,-2.4080286026000977,1.1993364095687866,1.459426999092102,2.6653666496276855,4.372281074523926,-0.512462854385376,-0.6251959204673767,-1.2884324789047241
279,204022,204024,0.09849312901496887,0.05899931490421295,0.7792040705680847,1.2115126848220825,-3.1090054512023926,0.1525140106678009,1.4699264764785767,2.67586612701416,4.3827805519104,-0.47238123416900635,-0.6247448921203613,-1.2796812057495117
280,204032,204034,0.19606827199459076,0.06329106539487839,0.7805334329605103,6.779714584350586,-5.421684265136719,0.818367600440979,1.4819258451461792,2.648867607116699,4.361781597137451,-0.5501350164413452,-0.580260157585144,-1.281144618988037
281,204042,204044,0.02181401289999485,-0.14913706481456757,0.7826270461082458,12.924356460571289,-7.689784526824951,0.21680377423763275,1.4699264764785767,2.657866954803467,4.3857808113098145,-0.3956691026687622,-0.45060184597969055,-1.2858030796051025
282,204052,204054,-0.032851528376340866,0.10468696057796478,0.7964680790901184,9.32473373413086,-8.352526664733887,0.8772688508033752,1.472926378250122,2.67586612701416,4.397779941558838,-0.28410255908966064,-0.3070734143257141,-1.2864958047866821
283,204062,204064,-0.0654999315738678,0.14302532374858856,0.8827165961265564,2.376699209213257,-7.224515914916992,0.5358241200447083,1.472926378250122,2.62786865234375,4.34078311920166,-0.18479479849338531,-0.14287656545639038,-1.2885900735855103
284,204072,204074,-0.05241350457072258,0.07379969954490662,0.8644168376922607,-2.0983681678771973,-7.221127986907959,0.05461549758911133,1.4789260625839233,2.651867389678955,4.361781597137451,-0.11987096071243286,-0.2375260591506958,-1.2617192268371582
285,204082,204084,-0.04708386957645416,-0.1374606341123581,0.8370428681373596,-4.073771953582764,-5.263200283050537,0.6793454885482788,1.475926160812378,2.6608669757843018,4.370781421661377,-0.07737027108669281,-0.26537778973579407,-1.2556496858596802
286,204092,204094,-0.12424793839454651,-0.15180334448814392,0.807231068611145,-0.5113027691841125,-7.1762895584106445,-1.2336686849594116,1.4819258451461792,2.6338682174682617,4.343782901763916,-0.11609489470720291,-0.32006537914276123,-1.2462470531463623
287,204102,204104,-0.16580653190612793,-0.13488204777240753,0.7457849979400635,-0.5829236507415771,1.1741061210632324,2.188727378845215,1.459426999092102,2.6413679122924805,4.354282379150391,-0.14096899330615997,-0.32831236720085144,-1.2520678043365479
288,204112,204114,-0.04261092469096184,-0.005458834581077099,0.7738440632820129,4.320532321929932,5.0627946853637695,1.319250464439392,1.4774260520935059,2.656367063522339,4.372281074523926,-0.19062574207782745,-0.2607521116733551,-1.2462811470031738
289,204122,204124,-0.0887048989534378,-0.04358384385704994,0.7964321970939636,8.524015426635742,4.339212417602539,0.5485568642616272,1.4699264764785767,2.6698665618896484,4.376780986785889,-0.2696821689605713,-0.2728119492530823,-1.2267695665359497
290,204132,204134,-0.22180011868476868,-0.20978596806526184,0.7614365816116333,9.755520820617676,2.8876919746398926,0.15383870899677277,1.4714263677597046,2.6143691539764404,4.32128381729126,-0.1927347630262375,-0.1518060266971588,-1.2292695045471191
291,204142,204144,-0.2869186997413635,-0.158355712890625,0.7943764925003052,9.932156562805176,-6.462125778198242,-0.15527528524398804,1.4654266834259033,2.629368543624878,4.333283424377441,-0.3038235306739807,-0.07945940643548965,-1.2250990867614746
292,204152,204154,-0.07146488130092621,-0.13068704307079315,0.7860341668128967,13.325788497924805,0.5594819784164429,-0.4388839304447174,1.4804259538650513,2.6443676948547363,4.3572821617126465,-0.150634765625,-0.13327589631080627,-1.205836296081543
293,204162,204164,-0.019696665927767754,-0.10681889951229095,0.7178398370742798,9.162842750549316,-3.3566272258758545,0.6918814778327942,1.4804259538650513,2.6443676948547363,4.3572821617126465,0.10634969174861908,0.07090293616056442,-1.220279574394226
294,204172,204174,0.05649739131331444,0.05851747468113899,0.778031051158905,5.333187103271484,7.1942949295043945,1.581902027130127,1.4804259538650513,2.6443676948547363,4.3572821617126465,0.163218155503273,0.2190830558538437,-1.2227286100387573
295,204182,204184,0.1436574012041092,0.040122076869010925,0.756181001663208,5.359177112579346,5.757580280303955,1.1043680906295776,1.4789260625839233,2.606869697570801,4.313784122467041,0.024273816496133804,0.16928061842918396,-1.1954147815704346
296,204192,204194,-0.04212836176156998,0.13980114459991455,0.7268134355545044,-1.5402815341949463,8.259236335754395,1.3082334995269775,1.4789260625839233,2.6398680210113525,4.349782466888428,-0.0633113831281662,0.26630428433418274,-1.1910470724105835
297,204202,204204,-0.6499805450439453,0.007288735825568438,0.7788076996803284,-2.999627113342285,11.51040267944336,1.4285736083984375,1.459426999092102,2.578371047973633,4.303284645080566,-0.28302085399627686,0.26620736718177795,-1.183574914932251
298,204212,204214,-0.6019257307052612,-0.13337965309619904,0.7475483417510986,-5.796236991882324,12.883400917053223,2.254122257232666,1.4564270973205566,2.6143691539764404,4.333283424377441,-0.347909152507782,0.22894254326820374,-1.167872667312622
299,204222,204224,-0.19260618090629578,-0.3442395031452179,0.7998718619346619,-4.278049468994141,6.45861291885376,0.6180528998374939,1.4669265747070312,2.6398680210113525,4.34078311920166,-0.3648254871368408,0.13854052126407623,-1.140797734260559
300,204232,204234,-0.022577648982405663,-0.11724300682544708,0.7650884389877319,-6.717397212982178,8.781865119934082,1.406172275543213,1.4549272060394287,2.5828707218170166,4.304784774780273,-0.5209320783615112,0.12972550094127655,-1.134108304977417
301,204242,204244,-0.19431787729263306,-0.0346025787293911,0.7285891175270081,-6.254992485046387,6.405943393707275,1.4142547845840454,1.4654266834259033,2.602369785308838,4.312284469604492,-0.6568998694419861,0.02458733692765236,-1.117006778717041
302,204252,204254,-0.030711183324456215,0.01321355439722538,0.7585357427597046,-4.067034721374512,1.1373870372772217,0.11482331901788712,1.4789260625839233,2.6158690452575684,4.331783294677734,-0.6837120056152344,-0.07463474571704865,-1.1027261018753052
303,204262,204264,0.045801982283592224,0.03178833797574043,0.7715177536010742,0.5448482632637024,-3.1689658164978027,-0.6599944829940796,1.4639267921447754,2.62786865234375,4.346782684326172,-0.708160400390625,-0.12544089555740356,-1.0987622737884521
304,204272,204274,3.623067823355086e-05,-0.013881074264645576,0.7458337545394897,3.2249717712402344,-6.69882869720459,-0.8592730760574341,1.4564270973205566,2.5843708515167236,4.315284252166748,-0.6678093075752258,-0.11087878048419952,-1.1044585704803467
305,204282,204284,-0.017208175733685493,-0.07189888507127762,0.6885286569595337,6.884134292602539,-6.167208671569824,-0.5483328104019165,1.4624269008636475,2.596370220184326,4.324283599853516,-0.567314624786377,-0.057766955345869064,-1.111842155456543
306,204292,204294,0.02625337243080139,-0.01162021141499281,0.7425628304481506,8.066503524780273,-7.32739782333374,-2.0163071155548096,1.4474276304244995,2.6173691749572754,4.318284034729004,-0.5215120911598206,0.05145067349076271,-1.1206985712051392
307,204302,204304,0.04228034242987633,0.031952474266290665,0.7661247253417969,6.247198104858398,-4.839390754699707,-0.16245995461940765,1.4669265747070312,2.5888705253601074,4.316783905029297,-0.38626527786254883,0.10713553428649902,-1.1342591047286987
308,204312,204314,0.010830053128302097,0.0031276296358555555,0.7420384287834167,2.6372294425964355,-5.84526252746582,0.10343049466609955,1.472926378250122,2.606869697570801,4.337782859802246,-0.2885597348213196,0.2128113955259323,-1.1413568258285522
309,204322,204324,-0.007302685175091028,-0.017445378005504608,0.765924334526062,-1.4146476984024048,-5.879176616668701,0.034267328679561615,1.47442626953125,2.623368740081787,4.348282337188721,-0.279672235250473,0.26582473516464233,-1.1452858448028564
310,204332,204334,-0.06841077655553818,-0.03468461334705353,0.7371079325675964,-0.6491106748580933,-0.8388897180557251,0.43394768238067627,1.4669265747070312,2.5858707427978516,4.292785167694092,-0.29657095670700073,0.1865759938955307,-1.143760323524475
311,204342,204344,-0.04705033823847771,-0.020211009308695793,0.7429051399230957,-4.844991683959961,5.718799591064453,0.9147475957870483,1.4639267921447754,2.597870111465454,4.310784339904785,-0.16775935888290405,0.1640312224626541,-1.1325151920318604
312,204352,204354,0.017873503267765045,0.02231096848845482,0.7001728415489197,-4.7292375564575195,11.007328033447266,0.7962921857833862,1.4699264764785767,2.6158690452575684,4.325783729553223,-0.2573609948158264,0.1570865362882614,-1.12648344039917
313,204362,204364,0.04155337065458298,0.021407993510365486,0.7069374322891235,-4.520379543304443,11.232563972473145,1.0019404888153076,1.475926160812378,2.630868434906006,4.33478307723999,-0.40669986605644226,0.07066446542739868,-1.120780348777771
314,204372,204374,-0.021470852196216583,-0.036353111267089844,0.7070159316062927,-5.122392654418945,4.875946044921875,1.7859569787979126,1.4639267921447754,2.6128692626953125,4.322783946990967,-0.5652421712875366,-0.0017203222960233688,-1.1117953062057495
315,204382,204384,-0.04428988695144653,-0.06639155745506287,0.7605406641960144,-3.5068154335021973,-4.004632472991943,1.3813281059265137,1.472926378250122,2.621868848800659,4.343782901763916,-0.655011773109436,-0.0038585085421800613,-1.0982519388198853
316,204392,204394,-0.10676121711730957,-0.14046086370944977,0.7604100108146667,0.7019326686859131,-2.740790367126465,1.2824444770812988,1.472926378250122,2.6458675861358643,4.364781856536865,-0.561150312423706,-0.050557710230350494,-1.0793002843856812
317,204402,204404,-0.12282294780015945,-0.13700249791145325,0.6625565886497498,2.785229206085205,-1.168174147605896,0.9115763902664185,1.4579271078109741,2.6128692626953125,4.322783946990967,-0.5178558826446533,-0.050692055374383926,-1.064228892326355
318,204412,204414,-0.06987666338682175,-0.05988352745771408,0.6950721740722656,1.8585431575775146,-4.08951997756958,1.009651780128479,1.4699264764785767,2.62786865234375,4.337782859802246,-0.4673537611961365,-0.019766198471188545,-1.0508226156234741
319,204422,204424,0.035602666437625885,0.014997282065451145,0.7638986706733704,0.5983707904815674,-3.8498973846435547,1.513890266418457,1.4789260625839233,2.62786865234375,4.349782466888428,-0.38983768224716187,0.01828008145093918,-1.0387622117996216
320,204432,204434,-0.10328686982393265,0.07948283851146698,0.8813218474388123,-3.277982711791992,-3.7154366970062256,1.9929468631744385,1.4804259538650513,2.602369785308838,4.3302836418151855,-0.33941322565078735,-0.03360700234770775,-1.02410089969635
321,204442,204444,-0.04769343137741089,-0.09016446769237518,0.7752798795700073,-0.5674594640731812,-0.734210193157196,2.7521543502807617,1.4789260625839233,2.6188690662384033,4.34078311920166,-0.32739534974098206,-0.05210969224572182,-1.0058423280715942
322,204452,204454,0.009930914267897606,-0.02387547679245472,0.7304830551147461,-0.3663223087787628,9.069486618041992,2.620100498199463,1.4819258451461792,2.6338682174682617,4.349782466888428,-0.3743014633655548,-0.06302053481340408,-0.9810518026351929
323,204462,204464,-0.02177818864583969,0.038428597152233124,0.8108739256858826,0.5201953053474426,13.404159545898438,2.521045207977295,1.4849257469177246,2.6458675861358643,4.358781814575195,-0.5983535051345825,-0.0009862618753686547,-0.9617937803268433
324,204472,204474,-0.06987626850605011,-0.03547543287277222,0.7243404984474182,0.4721277952194214,13.042686462402344,2.89603590965271,1.46092689037323,2.62786865234375,4.337782859802246,-0.7161878347396851,-0.06957893818616867,-0.936119019985199
325,204482,204484,-0.038229603320360184,-0.007017932366579771,0.7923904657363892,1.9522019624710083,8.458535194396973,2.4697353839874268,1.4579271078109741,2.651867389678955,4.367781639099121,-0.8878492712974548,-0.05832638964056969,-0.9079398512840271
326,204492,204494,0.05116080492734909,0.008240653201937675,0.779870331287384,-0.6561809778213501,4.528809070587158,3.686272144317627,1.475926160812378,2.6428678035736084,4.3827805519104,-0.789283037185669,0.040307097136974335,-0.875545859336853
327,204502,204504,-0.10383633524179459,-0.03568026423454285,0.7679416537284851,0.5519221425056458,-0.5530080199241638,1.5955009460449219,1.4789260625839233,2.6368680000305176,4.3557820320129395,-0.8079129457473755,0.025768650695681572,-0.8382419347763062
328,204512,204514,-0.14243775606155396,-0.0557723194360733,0.7346219420433044,-2.998138189315796,-2.7585887908935547,1.53182852268219,1.459426999092102,2.653367280960083,4.37528133392334,-0.8318943381309509,0.032881416380405426,-0.8140159249305725
329,204522,204524,-0.14369547367095947,0.06258926540613174,0.8283060789108276,-0.7165027856826782,0.3629608750343323,1.582955002784729,1.4909254312515259,2.6398680210113525,4.3557820320129395,-0.828154444694519,-0.006817403249442577,-0.7942647337913513
330,204532,204534,-0.09688573330640793,-0.006960214115679264,0.730202317237854,-2.7899699211120605,-4.632650852203369,0.5283114314079285,1.4639267921447754,2.6428678035736084,4.352782249450684,-0.8312625885009766,-0.03165755793452263,-0.7760772109031677
331,204542,204544,-0.04202672839164734,0.011957135982811451,0.7450069785118103,-5.578680515289307,-7.1875834465026855,0.1672668159008026,1.4774260520935059,2.650367498397827,4.36928129196167,-0.7523816823959351,-0.07156619429588318,-0.7662932872772217
332,204552,204554,-0.0054507930763065815,0.05002303421497345,0.7996211051940918,-10.321368217468262,-10.264608383178711,-0.4047059714794159,1.4834258556365967,2.6413679122924805,4.363281726837158,-0.6269883513450623,-0.15791091322898865,-0.763678252696991
333,204562,204564,-6.867253978271037e-05,0.01855737715959549,0.7749649286270142,-10.154152870178223,-10.250646591186523,-0.8463277220726013,1.4714263677597046,2.632368326187134,4.333283424377441,-0.6006289124488831,-0.3125700354576111,-0.7693876624107361
334,204572,204574,-0.03351281210780144,-0.013339947909116745,0.7557345032691956,-10.08044719696045,-9.741923332214355,-0.757948637008667,1.4654266834259033,2.6443676948547363,4.345282554626465,-0.4302864372730255,-0.4030687212944031,-0.7727499604225159
335,204582,204584,-0.0012060541193932295,0.03352859616279602,0.8010988235473633,-4.23892068862915,-8.037787437438965,-1.2199548482894897,1.4669265747070312,2.657866954803467,4.364781856536865,-0.41866761445999146,-0.48069965839385986,-0.7828302383422852
336,204592,204594,0.011095796711742878,0.035007961094379425,0.8016282916069031,0.017972595989704132,-3.4739491939544678,-0.5103390216827393,1.489425539970398,2.629368543624878,4.348282337188721,-0.2906005382537842,-0.550291895866394,-0.7929941415786743
337,204602,204604,-0.0037958931643515825,0.019420228898525238,0.7903022766113281,5.067553997039795,-2.5664145946502686,-0.35975053906440735,1.4714263677597046,2.629368543624878,4.348282337188721,-0.2279789000749588,-0.54206383228302,-0.7981259226799011
338,204612,204614,-0.019543595612049103,-0.01675236038863659,0.7684317231178284,6.284286022186279,-1.1589720249176025,0.3019241392612457,1.4699264764785767,2.6368680000305176,4.349782466888428,-0.18936042487621307,-0.45013418793678284,-0.7990217208862305
339,204622,204624,-0.06055132672190666,-0.055744558572769165,0.7344967722892761,8.3204984664917,-0.09588143229484558,0.9088142514228821,1.472926378250122,2.624868631362915,4.331783294677734,-0.18105235695838928,-0.32768893241882324,-0.7945103049278259
340,204632,204634,-0.1945365071296692,0.009901775047183037,0.7652483582496643,7.070814609527588,-0.5940572619438171,2.166733980178833,1.4654266834259033,2.629368543624878,4.342282772064209,-0.19190877676010132,-0.2550269663333893,-0.7883654236793518
341,204642,204644,-0.07144023478031158,0.05488092079758644,0.7882331609725952,4.482034206390381,-1.8383686542510986,1.9384124279022217,1.4699264764785767,2.6398680210113525,4.358781814575195,-0.26120054721832275,-0.2808261513710022,-0.7703844904899597
342,204652,204654,-0.017402570694684982,0.012691663578152657,0.7538137435913086,-1.3498977422714233,-3.402545690536499,2.649986982345581,1.472926378250122,2.6368680000305176,4.34078311920166,-0.22203530371189117,-0.2140975445508957,-0.7484926581382751
343,204662,204664,0.029414132237434387,0.022860538214445114,0.7890443801879883,-3.372227907180786,-3.8552913665771484,1.7591147422790527,1.4669265747070312,2.6428678035736084,4.3557820320129395,-0.21421101689338684,-0.22426119446754456,-0.7214252948760986
344,204672,204674,-0.030725406482815742,-0.018189355731010437,0.7629166841506958,-4.716247081756592,-3.9968409538269043,0.7300381064414978,1.472926378250122,2.6608669757843018,4.373781204223633,-0.05212251469492912,-0.2719205915927887,-0.7041605114936829
345,204682,204684,-0.01741604506969452,-0.04118959233164787,0.7278549075126648,-6.2148613929748535,-2.168431282043457,0.7229325175285339,1.489425539970398,2.6863656044006348,4.384280681610107,-0.323725163936615,-0.3364561200141907,-0.6905174255371094
346,204692,204694,0.0021902862936258316,0.013118882663547993,0.7691047191619873,0.24516750872135162,-0.6479635834693909,-0.06632985919713974,1.475926160812378,2.6368680000305176,4.3287835121154785,-0.19021128118038177,-0.4730812907218933,-0.6857150197029114
347,204702,204704,0.013140048831701279,0.018612485378980637,0.7800165414810181,1.2556806802749634,-1.0543557405471802,-0.6951481699943542,1.4684265851974487,2.6413679122924805,4.339282989501953,-0.16580455005168915,-0.46118438243865967,-0.6862814426422119
348,204712,204714,-0.00032536895014345646,1.128249004977988e-05,0.7694510817527771,9.925223350524902,0.1282486468553543,-1.7916500568389893,1.4804259538650513,2.6623668670654297,4.378281116485596,-0.14151796698570251,-0.4062938988208771,-0.6917175054550171
349,204722,204724,0.00793172512203455,0.011156446300446987,0.7578837871551514,9.774982452392578,0.1468370258808136,-1.4804095029830933,1.47442626953125,2.6053695678710938,4.324283599853516,-0.13061971962451935,-0.2347218096256256,-0.7100651860237122
350,204732,204734,-0.037402763962745667,0.01995844393968582,0.7832828164100647,9.229150772094727,-0.0584065318107605,-0.8092877268791199,1.4714263677597046,2.6143691539764404,4.348282337188721,-0.12492972612380981,-0.28437677025794983,-0.7210211753845215
351,204742,204744,-0.028867274522781372,0.010214361362159252,0.7972861528396606,10.05508804321289,-0.9511719346046448,-1.1007791757583618,1.4804259538650513,2.626368522644043,4.345282554626465,-0.17059214413166046,-0.10736937075853348,-0.7302986979484558
352,204752,204754,-0.12101146578788757,-0.030127739533782005,0.754353940486908,7.570711612701416,-1.7825217247009277,-0.21702107787132263,1.4774260520935059,2.596370220184326,4.312284469604492,-0.06108379364013672,0.06590758264064789,-0.7459636330604553
353,204762,204764,-0.5113995671272278,-0.042465902864933014,0.7531282305717468,4.2594685554504395,-3.463322162628174,-0.5160858631134033,1.4699264764785767,2.6098694801330566,4.3287835121154785,-0.0879143476486206,0.061764489859342575,-0.7491767406463623
354,204772,204774,-0.7251019477844238,-0.00952910166233778,0.7692062854766846,-0.728001058101654,-5.183060646057129,0.08779264241456985,1.4789260625839233,2.630868434906006,4.346782684326172,-0.021399779245257378,0.009027395397424698,-0.7522094249725342
355,204782,204784,-0.456540048122406,-0.43714120984077454,0.7848291993141174,-4.4102301597595215,-7.389719486236572,-0.6111896634101868,1.4804259538650513,2.6623668670654297,4.36928129196167,0.06380262225866318,0.03156021982431412,-0.7548370957374573
356,204792,204794,-0.2810327410697937,-0.5706556439399719,0.8039757609367371,-4.756260871887207,-14.694734573364258,0.01668918877840042,1.4804259538650513,2.6173691749572754,4.333283424377441,0.1709410399198532,0.053639378398656845,-0.7617306113243103
357,204802,204804,-0.4307561218738556,-0.17679768800735474,0.7427245378494263,-4.933453559875488,-5.31523323059082,1.2004005908966064,1.4789260625839233,2.6368680000305176,4.358781814575195,0.05393781140446663,-0.08651022613048553,-0.7541715502738953
358,204812,204814,-0.15161529183387756,-0.011944036930799484,0.7349568009376526,-2.7483105659484863,-2.228241205215454,1.4488022327423096,1.4834258556365967,2.6623668670654297,4.36928129196167,0.14405964314937592,-0.08497070521116257,-0.742267370223999
359,204822,204824,0.02242121286690235,0.02188526652753353,0.7830111384391785,3.624149799346924,-1.8360382318496704,1.4100779294967651,1.475926160812378,2.6158690452575684,4.33478307723999,0.20209883153438568,-0.17315836250782013,-0.7268942594528198
360,204832,204834,-0.00854000449180603,0.008190643973648548,0.7302479147911072,8.56653118133545,0.7843270301818848,1.7399622201919556,1.4819258451461792,2.624868631362915,4.34078311920166,0.2576911449432373,-0.09600476175546646,-0.7154597640037537
361,204842,204844,-0.06435111910104752,-0.07332318276166916,0.6926737427711487,15.224544525146484,-2.2305476665496826,-0.1636803299188614,1.4774260520935059,2.6353681087493896,4.354282379150391,0.27972644567489624,-0.07365959882736206,-0.6969582438468933
362,204852,204854,-0.021208282560110092,-0.07222214341163635,0.6936719417572021,20.82502555847168,-2.0002169609069824,0.7495670914649963,1.472926378250122,2.6128692626953125,4.322783946990967,0.3295263946056366,0.06342056393623352,-0.6914544105529785
363,204862,204864,0.018879976123571396,0.02953026443719864,0.7799979448318481,23.742637634277344,-2.131005048751831,0.4362654983997345,1.475926160812378,2.62786865234375,4.352782249450684,0.3030044138431549,0.2848578691482544,-0.6851283311843872
364,204872,204874,-0.006658188998699188,-0.031294386833906174,0.7284728288650513,25.376596450805664,-0.597078800201416,-1.4572845697402954,1.475926160812378,2.6458675861358643,4.370781421661377,0.348039835691452,0.4822423756122589,-0.6783168911933899
365,204882,204884,-0.01042138785123825,-0.011564871296286583,0.7380956411361694,18.999223709106445,0.12254305183887482,-0.6079372763633728,1.4669265747070312,2.6128692626953125,4.331783294677734,0.38011038303375244,0.8359013199806213,-0.6964525580406189
366,204892,204894,-0.024431932717561722,-0.003000838914886117,0.768613874912262,12.117552757263184,3.51589298248291,-0.9121416211128235,1.4789260625839233,2.6428678035736084,4.346782684326172,0.3870345652103424,1.0960702896118164,-0.7109799385070801
367,204902,204904,-0.008926103822886944,0.0006187261315062642,0.7621188163757324,3.924377202987671,8.4120512008667,-1.288719892501831,1.4879255294799805,2.6458675861358643,4.3827805519104,0.48027303814888,1.0222088098526,-0.6992211937904358
368,204912,204914,0.03216366842389107,0.01043500192463398,0.7934839129447937,-2.4960761070251465,10.376443862915039,-2.1621170043945312,1.4879255294799805,2.6698665618896484,4.38878059387207,0.4866267740726471,1.1152931451797485,-0.7108783721923828
369,204922,204924,-0.021997982636094093,0.0034458781592547894,0.7833274602890015,-5.949231147766113,12.975549697875977,-3.32071590423584,1.4849257469177246,2.630868434906006,4.367781639099121,0.3737037479877472,1.0937894582748413,-0.7317113876342773
370,204932,204934,-0.013933035545051098,0.01106629054993391,0.7325125932693481,-6.9947099685668945,13.421442985534668,-2.3825440406799316,1.4879255294799805,2.648867607116699,4.376780986785889,0.14668193459510803,1.0877792835235596,-0.7729625701904297
371,204942,204944,0.0003042781900148839,0.023396354168653488,0.7941117882728577,-9.196907043457031,13.75944995880127,-3.461347818374634,1.472926378250122,2.6728663444519043,4.376780986785889,0.11885755509138107,0.9073835611343384,-0.7778435349464417
372,204952,204954,-0.021445315331220627,-0.02942320704460144,0.7637653350830078,0.5176466703414917,12.687240600585938,-3.446037769317627,1.4789260625839233,2.6428678035736084,4.367781639099121,-0.057490840554237366,0.7836840152740479,-0.8101493120193481
373,204962,204964,-0.09730730950832367,-0.15696564316749573,0.7780890464782715,4.500443935394287,10.31916332244873,-3.957456350326538,1.4789260625839233,2.6428678035736084,4.367781639099121,-0.27383124828338623,0.7998612523078918,-0.8559061884880066
374,204972,204974,-0.018253955990076065,-0.05018791928887367,0.8199588656425476,9.218973159790039,6.437171459197998,-4.086926460266113,1.4789260625839233,2.6428678035736084,4.367781639099121,-0.4347441792488098,0.8963119983673096,-0.9036094546318054
375,204982,204984,-0.019634703174233437,-0.11143912374973297,0.7712246179580688,11.753462791442871,9.103193283081055,-3.3221585750579834,1.4789260625839233,2.67586612701416,4.391780376434326,-0.3169187903404236,1.1195628643035889,-0.9345852732658386
376,204992,204994,-0.10331573337316513,-0.007751668803393841,0.7621880769729614,14.21158218383789,10.442845344543457,-0.939172625541687,1.4774260520935059,2.623368740081787,4.333283424377441,-0.28101879358291626,1.1011265516281128,-0.9436522722244263
377,205002,205004,0.00712093198671937,0.0178922601044178,0.8267132043838501,10.625246047973633,8.457243919372559,-0.7520073056221008,1.4804259538650513,2.650367498397827,4.366281509399414,-0.6918593049049377,1.3228205442428589,-1.0043354034423828
378,205012,205014,-0.42950043082237244,0.12946221232414246,0.8310266137123108,7.6555094718933105,-2.070357322692871,-0.4695788621902466,1.4639267921447754,2.6458675861358643,4.376780986785889,-0.4898715019226074,1.3501135110855103,-0.9743009209632874
379,205022,205024,-0.31367048621177673,0.07124871760606766,0.8184555172920227,1.5656929016113281,-9.443160057067871,-2.360826015472412,1.472926378250122,2.6608669757843018,4.3857808113098145,-0.6773543953895569,1.3311947584152222,-1.0054771900177002
380,205032,205034,-0.02554771490395069,-0.02688663639128208,0.7899249196052551,-7.837731838226318,-16.177560806274414,-2.950101613998413,1.4774260520935059,2.623368740081787,4.363281726837158,-0.3129432499408722,1.3655669689178467,-0.9854146838188171
381,205042,205044,-0.0024321433156728745,0.016796836629509926,0.8182641863822937,-8.565068244934082,-13.503847122192383,-4.353229999542236,1.47442626953125,2.6383681297302246,4.366281509399414,-0.16936756670475006,1.315745234489441,-1.0189579725265503
382,205052,205054,0.004254393745213747,0.00815306045114994,0.7807180881500244,-15.122570991516113,-13.387491226196289,-4.569647312164307,1.4819258451461792,2.654867172241211,4.3797807693481445,-0.03682970628142357,1.1475962400436401,-1.059937596321106
383,205062,205064,-0.027946095913648605,0.024385031312704086,0.7820591926574707,-12.559344291687012,-9.592643737792969,-4.678147315979004,1.4639267921447754,2.6158690452575684,4.337782859802246,-0.04498552158474922,1.0351779460906982,-1.133530855178833
384,205072,205074,-0.017387818545103073,0.005380360409617424,0.7729073762893677,-14.634143829345703,-1.336470127105713,-4.280625820159912,1.4789260625839233,2.630868434906006,4.361781597137451,0.10137253999710083,0.9583451747894287,-1.1732548475265503
385,205082,205084,0.028589358553290367,-0.007203524000942707,0.7373168468475342,-0.9249815940856934,0.6301844716072083,-7.0944719314575195,1.4774260520935059,2.6443676948547363,4.366281509399414,0.1234622523188591,0.7359300851821899,-1.212934970855713
386,205092,205094,0.030118385329842567,-0.050948843359947205,0.7313879132270813,4.18070125579834,6.37071418762207,-6.552348613739014,1.475926160812378,2.624868631362915,4.331783294677734,0.10156895220279694,0.7000885009765625,-1.2775342464447021
387,205102,205104,0.0009591474663466215,-0.07480446249246597,0.7886479496955872,8.06596851348877,8.162257194519043,-5.978053569793701,1.4804259538650513,2.626368522644043,4.336283206939697,0.0032479744404554367,0.7726513743400574,-1.3471802473068237
388,205112,205114,-0.025100644677877426,-0.01994805783033371,0.7773811221122742,13.934601783752441,12.996492385864258,-4.986576080322266,1.4639267921447754,2.6458675861358643,4.370781421661377,-0.14570041000843048,0.9029763340950012,-1.413826823234558
389,205122,205124,-0.02613043040037155,-0.025746898725628853,0.7536588311195374,15.152902603149414,11.747932434082031,-3.9025182723999023,1.472926378250122,2.657866954803467,4.370781421661377,-0.35536664724349976,1.112061858177185,-1.4774672985076904
390,205132,205134,-0.020244864746928215,-0.0019003079505637288,0.7682691812515259,12.450157165527344,3.404965877532959,-4.357430458068848,1.4774260520935059,2.626368522644043,4.354282379150391,-0.5307218432426453,1.2745215892791748,-1.523353934288025
391,205142,205144,-0.006164162419736385,-0.00015453821106348187,0.7929489612579346,6.990588665008545,-5.148237228393555,-3.4750540256500244,1.4624269008636475,2.6383681297302246,4.348282337188721,-0.5155507326126099,1.3276749849319458,-1.5452144145965576
392,205152,205154,-0.06197666749358177,-0.08684147894382477,0.7667821645736694,-6.170695781707764,-23.1143741607666,-3.0961906909942627,1.4714263677597046,2.6443676948547363,4.37528133392334,-0.4242008328437805,1.2857639789581299,-1.567244052886963
393,205162,205164,-0.45887991786003113,-0.15361584722995758,0.8041179776191711,-11.008261680603027,-24.696414947509766,-4.3839311599731445,1.475926160812378,2.6128692626953125,4.34078311920166,-0.10864242911338806,1.2937676906585693,-1.5780118703842163
394,205172,205174,-0.428850382566452,-0.017694665119051933,0.8041585087776184,-19.331605911254883,-22.45921516418457,-4.070638656616211,1.4864256381988525,2.6353681087493896,4.363281726837158,0.16960640251636505,1.1866791248321533,-1.6098512411117554
395,205182,205184,-0.16884872317314148,-0.1252650022506714,0.7184996604919434,-20.146818161010742,-18.295209884643555,-3.6675209999084473,1.4834258556365967,2.653367280960083,4.378281116485596,0.5121661424636841,1.0176647901535034,-1.6294679641723633
396,205192,205194,-0.09654015302658081,-0.11697655916213989,0.7756289839744568,-23.259231567382812,-11.568000793457031,-4.178015232086182,1.4834258556365967,2.6143691539764404,4.342282772064209,0.3606819808483124,0.874001681804657,-1.7358427047729492
397,205202,205204,0.013606644235551357,-0.10596573352813721,0.7803778648376465,-19.653465270996094,-0.024251265451312065,-4.298587799072266,1.475926160812378,2.6368680000305176,4.352782249450684,0.5558682084083557,0.4829756021499634,-1.7589313983917236
398,205212,205214,0.08424467593431473,0.06937319785356522,0.7487069964408875,-11.325657844543457,3.25485897064209,-3.4972453117370605,1.4879255294799805,2.6398680210113525,4.358781814575195,0.5960290431976318,0.42373204231262207,-1.8056823015213013
399,205222,205224,0.019237535074353218,0.05376075208187103,0.7828471064567566,-5.116510391235352,6.809854030609131,-4.043781757354736,1.4864256381988525,2.599370002746582,4.324283599853516,0.5632942914962769,0.22309552133083344,-1.840039849281311
400,205232,205234,-0.03646483272314072,0.0300764050334692,0.8060395121574402,0.2491394281387329,13.277896881103516,-3.0979745388031006,1.4819258451461792,2.624868631362915,4.337782859802246,0.4552263617515564,0.2062050998210907,-1.8912426233291626
401,205242,205244,0.04240415245294571,0.04413186013698578,0.8126309514045715,6.681358814239502,14.599976539611816,-2.883638858795166,1.4774260520935059,2.6383681297302246,4.360281944274902,0.2515611946582794,0.21512478590011597,-1.936463713645935
402,205252,205254,0.07071692496538162,0.1508224457502365,0.8157289624214172,8.988693237304688,9.956636428833008,-2.650789260864258,1.47442626953125,2.650367498397827,4.363281726837158,0.17846082150936127,0.3137260377407074,-1.9585955142974854
403,205262,205264,-0.028855206444859505,0.11394231766462326,0.7634886503219604,2.8729047775268555,7.177310943603516,-0.6054668426513672,1.47442626953125,2.602369785308838,4.3272833824157715,0.04193917289376259,0.36838480830192566,-1.9898916482925415
404,205272,205274,-0.24389149248600006,0.012987686321139336,0.7232189774513245,1.1022496223449707,-5.11177396774292,-2.5337908267974854,1.489425539970398,2.623368740081787,4.336283206939697,0.16311943531036377,0.42456167936325073,-1.977704644203186
405,205282,205284,-0.3546791672706604,-0.029723644256591797,0.7596242427825928,-5.266041278839111,-8.25993824005127,-1.503170132637024,1.4819258451461792,2.6398680210113525,4.3557820320129395,0.22362658381462097,0.43996742367744446,-1.998897910118103
406,205292,205294,-0.05009808763861656,-0.04107717052102089,0.7505006194114685,-12.564936637878418,-7.253296375274658,-0.36380869150161743,1.4774260520935059,2.6083695888519287,4.333283424377441,0.3290501534938812,0.42592647671699524,-2.0104496479034424
407,205302,205304,-0.0838610902428627,0.0029438103083521128,0.7757457494735718,-17.118263244628906,-5.437876224517822,-0.1209222748875618,1.4864256381988525,2.6383681297302246,4.351282119750977,0.27958226203918457,0.21398967504501343,-2.01983904838562
408,205312,205314,-0.09885351359844208,-0.022901291027665138,0.7789263725280762,-15.617515563964844,-3.297682523727417,0.13445504009723663,1.4819258451461792,2.6368680000305176,4.352782249450684,0.5005396604537964,0.07382097095251083,-2.0046615600585938
409,205322,205324,0.06308306753635406,-0.04379910230636597,0.7232179641723633,-12.219267845153809,5.143393516540527,0.998971164226532,1.4774260520935059,2.6083695888519287,4.324283599853516,0.5315590500831604,-0.1322557032108307,-1.999696969985962
410,205332,205334,-0.11270977556705475,-0.023640016093850136,0.730339765548706,-8.235797882080078,6.9119696617126465,1.793445348739624,1.4669265747070312,2.6158690452575684,4.337782859802246,0.4649782180786133,-0.28757140040397644,-1.9927332401275635
411,205342,205344,-0.049910809844732285,0.06387012451887131,0.8978891968727112,-3.880147933959961,6.060819149017334,2.451615333557129,1.4714263677597046,2.6353681087493896,4.351282119750977,0.36346080899238586,-0.34178251028060913,-1.98293936252594
412,205352,205354,-0.16287855803966522,0.057005517184734344,0.8174894452095032,3.61956787109375,12.096635818481445,3.23519229888916,1.489425539970398,2.6413679122924805,4.3572821617126465,0.309394896030426,-0.36666175723075867,-1.9637266397476196
413,205362,205364,-0.10714688152074814,-0.09828255325555801,0.7505353689193726,7.24834680557251,11.314371109008789,3.3949010372161865,1.459426999092102,2.6383681297302246,4.333283424377441,0.1650693118572235,-0.23037146031856537,-1.94520103931427
414,205372,205374,-0.07840889692306519,-0.025654366239905357,0.724318265914917,8.88603401184082,14.175009727478027,3.9919583797454834,1.47442626953125,2.650367498397827,4.351282119750977,0.08217530697584152,-0.13745492696762085,-1.9142043590545654
415,205382,205384,-0.01630549505352974,0.01765069179236889,0.7745078802108765,5.424294948577881,15.164474487304688,4.842789173126221,1.4804259538650513,2.626368522644043,4.336283206939697,-0.23919615149497986,-0.08840285241603851,-1.880149245262146
416,205392,205394,0.00020663572649937123,0.02346743457019329,0.7070410251617432,3.290045738220215,15.739362716674805,4.517773151397705,1.459426999092102,2.6203689575195312,4.333283424377441,-0.2728288173675537,-0.015596537850797176,-1.8335274457931519
417,205402,205404,-0.006960893981158733,0.013890281319618225,0.7630067467689514,-3.707239866256714,12.750066757202148,4.782719612121582,1.4714263677597046,2.629368543624878,4.345282554626465,-0.1828732192516327,-0.000469405873445794,-1.7827677726745605
418,205412,205414,7.127624121494591e-05,0.029760442674160004,0.8005527257919312,-7.3762593269348145,12.739917755126953,6.627928256988525,1.4714263677597046,2.6203689575195312,4.3302836418151855,-0.40669846534729004,-0.0736883133649826,-1.7319285869598389
419,205422,205424,-0.012212015688419342,0.007834619842469692,0.8263683319091797,-6.947335243225098,14.083823204040527,8.239151954650879,1.4624269008636475,2.6383681297302246,4.348282337188721,-0.34048032760620117,-0.262536883354187,-1.6617233753204346
420,205432,205434,0.008972367271780968,0.007267128676176071,0.7896085381507874,3.651737689971924,21.750045776367188,8.518784523010254,1.4774260520935059,2.6413679122924805,4.360281944274902,-0.6142165064811707,-0.352402001619339,-1.5811455249786377
421,205442,205444,-0.028071768581867218,0.023312771692872047,0.8092500567436218,14.671886444091797,32.40618133544922,8.178055763244629,1.459426999092102,2.656367063522339,4.387280464172363,-0.9990609884262085,-0.20659126341342926,-1.5011615753173828
422,205452,205454,-0.01160278357565403,-0.14184890687465668,0.6263598799705505,38.37800216674805,38.66552734375,5.3329362869262695,1.4909254312515259,2.648867607116699,4.346782684326172,-0.9846432209014893,0.03218860551714897,-1.4342600107192993
423,205462,205464,-0.013139091432094574,-0.03702308610081673,0.7201078534126282,45.93795394897461,33.26678466796875,2.621459722518921,1.4639267921447754,2.6458675861358643,4.361781597137451,-1.4330410957336426,0.4521627128124237,-1.3709434270858765
424,205472,205474,0.060109738260507584,0.10985918343067169,0.7475671768188477,41.04808044433594,20.868154525756836,1.152820110321045,1.4579271078109741,2.651867389678955,4.3827805519104,-1.7725121974945068,0.8061326742172241,-1.334748387336731
425,205482,205484,-0.12524151802062988,-0.06296855211257935,0.7929801344871521,29.43561553955078,-5.742399215698242,-1.3105772733688354,1.4579271078109741,2.6188690662384033,4.346782684326172,-1.9849375486373901,1.3228968381881714,-1.3181699514389038
426,205492,205494,-0.19650396704673767,-0.02136550098657608,0.7536129355430603,15.37092399597168,-21.328691482543945,-0.8531694412231445,1.4579271078109741,2.6128692626953125,4.349782466888428,-1.957212209701538,1.6425597667694092,-1.326517105102539
427,205502,205504,-0.06307161599397659,0.00010851452680071816,0.7497068643569946,-9.373016357421875,-38.77116394042969,-1.2333513498306274,1.472926378250122,2.624868631362915,4.3557820320129395,-1.6404705047607422,1.7895969152450562,-1.3427181243896484
428,205512,205514,-0.04780498892068863,-0.05879684537649155,0.7088204026222229,-28.399459838867188,-49.588050842285156,-2.6391804218292236,1.4789260625839233,2.6368680000305176,4.3557820320129395,-1.2481727600097656,1.6101323366165161,-1.3794803619384766
429,205522,205524,-0.2591364085674286,-0.12579286098480225,0.6542940735816956,-36.321189880371094,-38.075801849365234,-4.003108978271484,1.4909254312515259,2.6398680210113525,4.373781204223633,-1.0128873586654663,1.286917805671692,-1.4302557706832886
430,205532,205534,-0.38649982213974,-0.032934654504060745,0.7217909693717957,-37.7132682800293,-22.707275390625,-5.163745403289795,1.4789260625839233,2.648867607116699,4.38878059387207,-0.4903600215911865,0.8165897130966187,-1.486266851425171
431,205542,205544,-0.15289409458637238,-0.1457407921552658,0.7896432876586914,-26.357887268066406,1.8122326135635376,-3.282672643661499,1.489425539970398,2.647367477416992,4.366281509399414,-0.42407625913619995,0.4048796594142914,-1.5546576976776123
432,205552,205554,0.0990816280245781,0.0028811583761125803,0.755382776260376,-11.059877395629883,26.082735061645508,-1.5043349266052246,1.4714263677597046,2.6353681087493896,4.354282379150391,-0.3941081762313843,0.24593298137187958,-1.572279930114746
433,205562,205564,0.12716904282569885,0.12598039209842682,0.7541216611862183,3.624281406402588,34.46686935424805,-0.9704268574714661,1.4684265851974487,2.656367063522339,4.37528133392334,-0.6510152220726013,0.04691362380981445,-1.5973256826400757
434,205572,205574,-0.0348268486559391,0.05453290045261383,0.8007076978683472,20.81682586669922,36.97233963012695,-0.11613176763057709,1.4714263677597046,2.6713664531707764,4.390280246734619,-1.1194642782211304,0.0933217778801918,-1.6105695962905884
435,205582,205584,-0.04496704041957855,-0.022277291864156723,0.7665319442749023,20.72146224975586,27.027990341186523,2.190631628036499,1.4714263677597046,2.647367477416992,4.372281074523926,-1.5515291690826416,0.4664483666419983,-1.5891625881195068
436,205592,205594,-0.11994849145412445,-0.08620789647102356,0.7420406937599182,11.725117683410645,5.065927505493164,2.1498029232025146,1.475926160812378,2.651867389678955,4.373781204223633,-1.6268476247787476,0.7134312987327576,-1.555621862411499
437,205602,205604,-0.06281046569347382,0.0028463369235396385,0.8625442981719971,0.8782747387886047,-12.764636993408203,1.4059513807296753,1.4714263677597046,2.659367084503174,4.396280288696289,-1.7582648992538452,0.883399486541748,-1.5252386331558228
438,205612,205614,-0.02588837407529354,-0.013099493458867073,0.7808682918548584,-18.75303840637207,-34.52635955810547,1.9619481563568115,1.4564270973205566,2.6173691749572754,4.315284252166748,-1.5958601236343384,0.8542954325675964,-1.5192328691482544
439,205622,205624,0.014182583428919315,0.013861256651580334,0.7155216336250305,-34.025352478027344,-46.489810943603516,2.5390775203704834,1.472926378250122,2.621868848800659,4.346782684326172,-1.3056087493896484,0.59778892993927,-1.5252019166946411
440,205632,205634,-0.08523900806903839,-0.11106821149587631,0.7375549674034119,-41.007808685302734,-48.01153564453125,0.31604424118995667,1.4864256381988525,2.650367498397827,4.372281074523926,-0.5612882375717163,0.10351796448230743,-1.5230722427368164
441,205642,205644,-0.1675695925951004,-0.014720868319272995,0.8051873445510864,-39.297325134277344,-37.390052795410156,-1.03922700881958,1.472926378250122,2.624868631362915,4.346782684326172,-0.31240031123161316,-0.07493928074836731,-1.4892781972885132
442,205652,205654,-0.0760263204574585,-0.08328810334205627,0.7634027600288391,-31.27397918701172,-20.64620590209961,-2.0810632705688477,1.4804259538650513,2.632368326187134,4.360281944274902,0.06709448993206024,-0.5903063416481018,-1.5168544054031372
443,205662,205664,-0.016122300177812576,-0.0502181239426136,0.7517438530921936,-15.89121150970459,1.3521977663040161,-0.7087622880935669,1.4699264764785767,2.648867607116699,4.3557820320129395,0.1112610399723053,-1.0411319732666016,-1.560886025428772
444,205672,205674,-0.09917698800563812,-0.12234369665384293,0.7848284840583801,-0.8031283617019653,13.894100189208984,-0.85346519947052,1.4699264764785767,2.657866954803467,4.373781204223633,0.256435751914978,-0.8931887745857239,-1.516310453414917
445,205682,205684,-0.15177051723003387,-0.04340673238039017,0.8081861138343811,13.544557571411133,29.3544921875,-0.9593876004219055,1.4639267921447754,2.6398680210113525,4.3557820320129395,-0.1405886560678482,-0.8707134127616882,-1.5233858823776245
446,205692,205694,-0.026316367089748383,0.032129380851984024,0.8245089650154114,21.789764404296875,30.97943687438965,-1.1712321043014526,1.4684265851974487,2.6743662357330322,4.366281509399414,-0.2550315260887146,-0.7585799694061279,-1.5393131971359253
447,205702,205704,-0.06171778216958046,-0.22505082190036774,0.7817037105560303,20.10679817199707,25.566518783569336,-1.5633089542388916,1.475926160812378,2.6728663444519043,4.38878059387207,-0.6273300051689148,-0.5892168283462524,-1.5558253526687622
448,205712,205714,-0.17066849768161774,-0.19357122480869293,0.7856885194778442,17.399133682250977,15.800392150878906,-0.40673184394836426,1.4684265851974487,2.6083695888519287,4.345282554626465,-1.0320568084716797,-0.35124263167381287,-1.5637683868408203
449,205722,205724,-0.20269392430782318,-0.14467157423496246,0.8298831582069397,7.166086196899414,3.4290409088134766,0.006027147639542818,1.472926378250122,2.62786865234375,4.343782901763916,-1.1734232902526855,-0.24408018589019775,-1.5837455987930298
450,205732,205734,-0.012343193404376507,-0.0646616667509079,0.7344143986701965,-5.021661758422852,-16.645954132080078,-0.3978534936904907,1.46092689037323,2.630868434906006,4.3557820320129395,-1.1125699281692505,-0.1519700288772583,-1.5942025184631348
451,205742,205744,-0.026884974911808968,0.041941676288843155,0.7705019116401672,-15.126097679138184,-24.527647018432617,-0.6200296878814697,1.4789260625839233,2.6188690662384033,4.34078311920166,-0.8675673604011536,-0.3091095983982086,-1.6239795684814453
452,205752,205754,-0.18866267800331116,-0.04918120428919792,0.8482885956764221,-20.254215240478516,-25.027076721191406,-0.9478408098220825,1.4684265851974487,2.656367063522339,4.354282379150391,-0.4859410524368286,-0.42079415917396545,-1.639870285987854
453,205762,205764,-0.05823909491300583,0.016988731920719147,0.7858232855796814,-24.074188232421875,-19.195518493652344,-1.1782209873199463,1.4774260520935059,2.6443676948547363,4.366281509399414,-0.7113466262817383,-0.4368450939655304,-1.584210753440857
454,205772,205774,-0.12408474087715149,-0.027100279927253723,0.7487908601760864,-22.956130981445312,-18.711395263671875,-1.7655731439590454,1.4774260520935059,2.6443676948547363,4.366281509399414,-0.19876337051391602,-0.7945451736450195,-1.6318551301956177
455,205782,205784,-0.060748420655727386,0.08672168105840683,0.7736383676528931,-17.473970413208008,-8.998058319091797,-0.3772141933441162,1.4774260520935059,2.6443676948547363,4.366281509399414,0.12305685877799988,-1.0389010906219482,-1.6607154607772827
456,205792,205794,-0.3161970376968384,0.14230453968048096,0.8169312477111816,-10.082796096801758,1.4077309370040894,-0.6580793857574463,1.4834258556365967,2.632368326187134,4.348282337188721,0.07473400235176086,-1.3409048318862915,-1.662999153137207
457,205802,205804,-0.39829322695732117,-0.060835935175418854,0.7757566571235657,0.10450047999620438,10.639681816101074,-1.036805272102356,1.4789260625839233,2.6428678035736084,4.352782249450684,0.014788671396672726,-1.2769004106521606,-1.649929165840149
458,205812,205814,0.03590742498636246,0.10472244024276733,0.7383862137794495,7.650629043579102,13.680804252624512,-0.7582026124000549,1.4849257469177246,2.6668665409088135,4.370781421661377,-0.11979921907186508,-1.1419312953948975,-1.6454594135284424
459,205822,205824,0.011531241238117218,0.0370711088180542,0.7876836657524109,0.22818705439567566,12.46561336517334,-0.1245550587773323,1.472926378250122,2.6338682174682617,4.352782249450684,-0.3066380023956299,-0.9775264859199524,-1.6417051553726196
460,205832,205834,-0.12813802063465118,-0.137894868850708,0.7932969927787781,2.0383481979370117,10.024247169494629,-0.9059988260269165,1.4849257469177246,2.6668665409088135,4.358781814575195,-0.49063897132873535,-0.9838792085647583,-1.6403846740722656
461,205842,205844,-0.05161126330494881,-0.058425530791282654,0.8137268424034119,-7.3221306800842285,5.115555286407471,-0.7708163261413574,1.4804259538650513,2.6623668670654297,4.37528133392334,-0.4921664297580719,-0.9964479207992554,-1.6671520471572876
462,205852,205854,-0.02255961485207081,-0.0457862913608551,0.7868040800094604,-15.131196975708008,4.0502190589904785,-0.303816556930542,1.4789260625839233,2.62786865234375,4.337782859802246,-0.40741729736328125,-1.0858986377716064,-1.698445200920105
463,205862,205864,-0.04802386462688446,-0.05334499850869179,0.7995696663856506,-20.60639190673828,1.4538025856018066,-0.5038793087005615,1.475926160812378,2.6398680210113525,4.3557820320129395,-0.6617974042892456,-1.2263246774673462,-1.6636184453964233
464,205872,205874,-0.07011471688747406,-0.005887418054044247,0.8158567547798157,-23.825151443481445,11.494102478027344,-0.3309915363788605,1.475926160812378,2.6668665409088135,4.361781597137451,-0.6200674772262573,-1.573236107826233,-1.6893047094345093
465,205882,205884,0.01960385963320732,0.019599607214331627,0.8084323406219482,-26.470417022705078,16.124601364135742,1.4487446546554565,1.4624269008636475,2.6083695888519287,4.3272833824157715,-0.8032592535018921,-1.9008562564849854,-1.6870899200439453
466,205892,205894,-0.05801835283637047,-0.0032769327517598867,0.7962630987167358,-20.814979553222656,8.236542701721191,3.661600351333618,1.4714263677597046,2.647367477416992,4.339282989501953,-0.894863486289978,-2.1178176403045654,-1.6917005777359009
467,205902,205904,0.0331084281206131,0.01646491512656212,0.8052569031715393,-7.738335609436035,-1.9033915996551514,3.959944725036621,1.4834258556365967,2.647367477416992,4.351282119750977,-0.9871059060096741,-2.3151509761810303,-1.658400297164917
468,205912,205914,-0.02870788611471653,0.037176765501499176,0.861547589302063,9.75529956817627,0.603626012802124,4.380117893218994,1.4579271078109741,2.6608669757843018,4.361781597137451,-0.915075957775116,-2.24186110496521,-1.6202714443206787
469,205922,205924,-0.0707157701253891,-0.06286678463220596,0.7641285061836243,25.755233764648438,4.955854415893555,4.163839340209961,1.4669265747070312,2.603869676589966,4.322783946990967,-1.0912702083587646,-2.1166398525238037,-1.5244771242141724
470,205932,205934,-0.0816250815987587,-0.08188516646623611,0.8223088383674622,49.89705276489258,4.968925952911377,1.9609572887420654,1.4549272060394287,2.630868434906006,4.346782684326172,-0.9476333260536194,-1.953861951828003,-1.5459226369857788
471,205942,205944,-0.03787709400057793,-0.030151640996336937,0.7851971983909607,62.467647552490234,1.8816269636154175,1.7865526676177979,1.4504274129867554,2.653367280960083,4.345282554626465,-1.0375155210494995,-1.2976456880569458,-1.503781795501709
472,205952,205954,-0.0031107403337955475,0.07075454294681549,0.7917250394821167,59.10715103149414,-11.235726356506348,2.135089635848999,1.4699264764785767,2.6158690452575684,4.3287835121154785,-1.0313818454742432,-0.5407371520996094,-1.481042504310608
473,205962,205964,-0.19970370829105377,-0.021261224523186684,0.779423713684082,52.630550384521484,-23.599212646484375,1.3030145168304443,1.4669265747070312,2.624868631362915,4.343782901763916,-0.8180907964706421,-0.17082440853118896,-1.5185860395431519
474,205972,205974,-0.14207619428634644,0.00040323706343770027,0.7091856598854065,51.57790756225586,-16.87493324279785,1.8360416889190674,1.4639267921447754,2.6158690452575684,4.349782466888428,-0.6580889225006104,0.5351294279098511,-1.4724810123443604
475,205982,205984,0.030603382736444473,0.0361560694873333,0.6236482858657837,32.85986328125,-17.025066375732422,-0.2570464313030243,1.4654266834259033,2.5873706340789795,4.303284645080566,-0.478843092918396,0.7612026333808899,-1.4800306558609009
476,205992,205994,0.018280858173966408,-0.04064544290304184,0.6605810523033142,0.43202686309814453,-20.790895462036133,-4.13556432723999,1.4624269008636475,2.599370002746582,4.309284687042236,-0.4533960819244385,1.1316487789154053,-1.4444794654846191
477,206002,206004,0.045630257576704025,0.055147890001535416,0.7335741519927979,-35.097347259521484,-26.63102912902832,-4.897907257080078,1.472926378250122,2.60086989402771,4.325783729553223,-0.07892975211143494,1.1033124923706055,-1.5286754369735718
