,timestamp_start,timestamp_end,acc.x,acc.y,acc.z,gyro.x,gyro.y,gyro.z,mag.x,mag.y,mag.z,stabilizer.pitch,stabilizer.roll,stabilizer.yaw
0,178601,178602,0.12248975038528442,0.041728872805833817,1.1859859228134155,36.27852249145508,57.150390625,6.417566776275635,1.1579420566558838,-0.113994300365448,-0.22198890149593353,0.040631238371133804,0.6414910554885864,-5.303308486938477
1,178611,178612,0.13973243534564972,0.08308102935552597,1.1838948726654053,42.450523376464844,57.58940505981445,10.496275901794434,1.1609419584274292,-0.12899354100227356,-0.22498874366283417,-0.5064185261726379,0.9691588878631592,-5.234819412231445
2,178621,178622,0.19076058268547058,0.040004897862672806,1.2349408864974976,43.572208404541016,55.73456573486328,12.46752643585205,1.1504424810409546,-0.11549422144889832,-0.22048896551132202,-1.1629235744476318,1.4788378477096558,-5.085991859436035
3,178631,178632,0.10131566971540451,-0.012258470989763737,1.2043557167053223,29.234773635864258,39.49683380126953,11.05388069152832,1.154942274093628,-0.113994300365448,-0.23098844289779663,-1.7844403982162476,1.9571771621704102,-4.9440460205078125
4,178641,178642,0.10408776253461838,0.07753771543502808,1.2127552032470703,0.26714417338371277,19.933000564575195,7.294897556304932,1.13994300365448,-0.11099445074796677,-0.20698964595794678,-2.140073776245117,2.084019184112549,-4.891660690307617
5,178651,178652,0.12840516865253448,0.014564521610736847,1.2407605648040771,-31.708641052246094,-2.0425679683685303,9.036067962646484,1.1459426879882812,-0.11999399960041046,-0.2189890444278717,-2.2628819942474365,1.887154221534729,-4.870283603668213
6,178661,178662,0.1460254043340683,0.0029141807463020086,1.1216741800308228,-47.4392204284668,-18.751224517822266,10.586248397827148,1.154942274093628,-0.1049947515130043,-0.22198890149593353,-2.1892454624176025,1.6138250827789307,-4.7227067947387695
7,178671,178672,0.21098241209983826,0.12005740404129028,1.107887864112854,-53.792171478271484,-26.778120040893555,8.459362030029297,1.13994300365448,-0.113994300365448,-0.21598920226097107,-2.009347915649414,1.0562983751296997,-4.683657646179199
8,178681,178682,0.25234514474868774,0.1683206856250763,1.1243418455123901,-57.5644416809082,-26.516311645507812,5.951727867126465,1.13994300365448,-0.113994300365448,-0.21598920226097107,-1.8194208145141602,0.8075226545333862,-4.393922805786133
9,178691,178692,0.043665073812007904,0.007378492504358292,1.1314496994018555,-53.860408782958984,-21.573768615722656,3.7314977645874023,1.13994300365448,-0.113994300365448,-0.21598920226097107,-1.642003059387207,0.12776082754135132,-4.450171947479248
10,178701,178702,0.061906907707452774,-0.0012023636372759938,1.0824781656265259,-38.649566650390625,-4.742190361022949,3.5134172439575195,1.13994300365448,-0.113994300365448,-0.21598920226097107,-1.5929982662200928,-0.39953503012657166,-4.476391315460205
11,178711,178712,0.07289294898509979,-0.008375509642064571,1.1148442029953003,-30.387208938598633,11.753928184509277,2.72346568107605,1.141442894935608,-0.058497074991464615,-0.2174891233444214,-1.8062936067581177,-0.5947749614715576,-4.3536152839660645
12,178721,178722,0.07052881270647049,-0.010447906330227852,1.1026346683502197,-19.362390518188477,22.142738342285156,4.7187676429748535,1.1354432106018066,-0.058497074991464615,-0.21148942410945892,-2.0049283504486084,-0.9714356660842896,-4.441762924194336
13,178731,178732,0.0579092912375927,0.02826906368136406,1.0807092189788818,-7.94293212890625,53.88460159301758,7.154783725738525,1.12644362449646,-0.04649767279624939,-0.19349032640457153,-2.296861410140991,-0.779516339302063,-4.078254699707031
14,178741,178742,0.165010005235672,0.033540789037942886,1.0778377056121826,5.74182653427124,58.6494140625,4.444883823394775,1.1324433088302612,-0.05249737575650215,-0.2084895670413971,-3.0412447452545166,-0.9154785871505737,-4.13485050201416
15,178751,178752,0.1578977108001709,0.07613994181156158,1.1193780899047852,26.695117950439453,35.9207649230957,1.9943981170654297,1.1174441576004028,-0.037498123943805695,-0.199490025639534,-3.5886545181274414,-0.7803349494934082,-4.06964635848999
16,178761,178762,0.19893330335617065,0.12086588889360428,1.0643744468688965,41.147064208984375,-0.580411970615387,-1.4411755800247192,1.1069446802139282,-0.050997450947761536,-0.1889905482530594,-3.9557247161865234,-0.38930895924568176,-3.985910415649414
17,178771,178772,0.14971861243247986,0.1350257843732834,1.026694655418396,56.146881103515625,-39.730281829833984,-5.07523775100708,1.1174441576004028,-0.0764961764216423,-0.1904904693365097,-3.8105204105377197,0.21827320754528046,-3.835413932800293
18,178781,178782,0.05614247918128967,-0.008860638365149498,0.9443646669387817,54.640262603759766,-80.38115692138672,-7.022763729095459,1.1204439401626587,-0.07349632680416107,-0.199490025639534,-3.398552179336548,0.6132979393005371,-4.076425075531006
19,178791,178792,0.08697167038917542,0.013093533925712109,0.8516916632652283,37.625526428222656,-100.68211364746094,-6.46464204788208,1.109944462776184,-0.06899654865264893,-0.20098994672298431,-2.3601458072662354,1.1335784196853638,-4.131059646606445
20,178801,178802,0.09617464244365692,0.08151575922966003,0.845757782459259,6.550649166107178,-100.00878143310547,-6.742527484893799,1.1279436349868774,-0.05999699980020523,-0.19799008965492249,-0.9440282583236694,1.5137360095977783,-4.105302333831787
21,178811,178812,0.11759994924068451,0.10209868848323822,0.8369080424308777,-30.197303771972656,-83.86202239990234,-9.269108772277832,1.1459426879882812,-0.08099594712257385,-0.19799008965492249,0.40120381116867065,1.287065029144287,-4.36252498626709
22,178821,178822,0.1541409194469452,0.06362755596637726,0.7790613174438477,-56.77201843261719,-56.13651657104492,-12.516817092895508,1.1564421653747559,-0.07049647718667984,-0.19349032640457153,0.9189536571502686,0.6705401539802551,-4.749874114990234
23,178831,178832,0.14068152010440826,0.05080394819378853,0.9132277965545654,-67.93359375,-31.819889068603516,-13.178339958190918,1.1564421653747559,-0.05549722537398338,-0.19649016857147217,1.2835543155670166,0.17948271334171295,-4.807535171508789
24,178841,178842,0.10060146450996399,0.05789591372013092,0.9769687056541443,-64.4250259399414,-3.326481819152832,-16.475435256958008,1.1594419479370117,-0.03449827432632446,-0.19649016857147217,1.079059362411499,-0.7851036190986633,-5.2567009925842285
25,178851,178852,-0.016125572845339775,-0.03789040446281433,0.9077059030532837,-57.28392791748047,9.277009010314941,-13.441242218017578,1.13994300365448,-0.03599819913506508,-0.20098994672298431,0.996451199054718,-1.259132981300354,-5.294991970062256
26,178861,178862,-0.04470917582511902,-0.052868399769067764,0.9192982316017151,-46.542659759521484,21.35262107849121,-7.06360387802124,1.13994300365448,-0.02099894918501377,-0.19499024748802185,0.7487784028053284,-1.8590514659881592,-5.477742671966553
27,178871,178872,0.04156297445297241,0.03561767563223839,0.9200484752655029,-33.408329010009766,23.053163528442383,-2.122410535812378,1.1279436349868774,-0.0029998498503118753,-0.19199039041996002,0.3831787705421448,-2.431835889816284,-5.648884296417236
28,178881,178882,0.01570206508040428,-0.008159206248819828,0.8824449777603149,-17.301496505737305,19.49825668334961,5.225253105163574,1.12644362449646,-0.010499474592506886,-0.17549122869968414,0.09373124688863754,-2.6962168216705322,-5.637535572052002
29,178891,178892,-0.000560997927095741,-0.008965224958956242,0.8781836032867432,2.7911956310272217,8.528946876525879,12.337263107299805,1.1309434175491333,-0.00899954978376627,-0.18299084901809692,-0.018819250166416168,-2.8085744380950928,-5.567121982574463
30,178901,178902,0.01232773344963789,-0.015991659834980965,0.889988362789154,22.4803466796875,-13.251543045043945,15.202791213989258,1.1219438314437866,-0.005999699700623751,-0.18599069118499756,-0.03527194261550903,-2.7188920974731445,-5.4266510009765625
31,178911,178912,0.0991583839058876,0.033650241792201996,0.8640335202217102,38.53656768798828,-30.291826248168945,18.65325355529785,1.1189440488815308,-0.0029998498503118753,-0.18599069118499756,0.03950174152851105,-2.406580686569214,-5.225610733032227
32,178921,178922,0.08325692266225815,0.06716758757829666,0.8477849364280701,43.9493293762207,-41.80302810668945,20.500791549682617,1.1294435262680054,-0.013499325141310692,-0.19349032640457153,0.6034360527992249,-2.069929361343384,-5.078383922576904
33,178931,178932,0.06220206618309021,0.09343841671943665,0.8494656085968018,44.68241882324219,-61.73516082763672,23.25616455078125,1.1324433088302612,-0.03149842470884323,-0.18449077010154724,1.2978847026824951,-1.5980130434036255,-4.856796741485596
34,178941,178942,0.005313481204211712,-0.0010672904318198562,0.8498111367225647,37.26285171508789,-71.03289031982422,25.270483016967773,1.1429427862167358,-0.03899804875254631,-0.17699114978313446,1.7049179077148438,-1.2076783180236816,-4.598447322845459
35,178951,178952,0.010665670037269592,-0.02282770909368992,0.8468226790428162,20.565799713134766,-60.69536590576172,24.575029373168945,1.1429427862167358,-0.03899804875254631,-0.19799008965492249,2.1901285648345947,-0.9775357842445374,-4.354534149169922
36,178961,178962,0.035757649689912796,0.02117304876446724,0.8153594136238098,6.281067371368408,-36.75419616699219,23.94045639038086,1.1459426879882812,-0.023998798802495003,-0.18299084901809692,2.99843430519104,-0.8075618147850037,-4.129334926605225
37,178971,178972,0.04708410054445267,0.05416037514805794,0.8951883316040039,-1.8789589405059814,-5.219396591186523,25.578006744384766,1.1444427967071533,-0.025498725473880768,-0.18449077010154724,3.1496424674987793,-0.8241949081420898,-3.884222984313965
38,178981,178982,0.017121106386184692,-0.018278252333402634,0.9061424732208252,0.03913946822285652,27.89853858947754,26.964519500732422,1.141442894935608,-0.019499024376273155,-0.19649016857147217,3.0718207359313965,-0.9523350596427917,-3.6515231132507324
39,178991,178992,-0.018431810662150383,-0.09882272034883499,0.8672915697097778,3.282958507537842,50.55788040161133,28.46000862121582,1.1429427862167358,-0.02099894918501377,-0.20398980379104614,2.5870707035064697,-0.9415140151977539,-3.362213611602783
40,179001,179002,0.036444664001464844,-0.028241446241736412,0.9033197164535522,8.084169387817383,56.54798126220703,27.400951385498047,1.1504424810409546,-0.025498725473880768,-0.19649016857147217,1.9680635929107666,-0.861740231513977,-3.0658392906188965
41,179011,179012,0.04890346899628639,0.05068506300449371,0.949651300907135,10.112016677856445,47.90791320800781,23.465307235717773,1.1354432106018066,-0.028498575091362,-0.2084895670413971,1.5467740297317505,-0.7456494569778442,-2.8090007305145264
42,179021,179022,0.04371121898293495,-0.025495264679193497,0.8981703519821167,5.112575054168701,27.547021865844727,17.95293426513672,1.1459426879882812,-0.023998798802495003,-0.19799008965492249,0.9853977560997009,-0.8155239820480347,-2.6124072074890137
43,179031,179032,0.015611480921506882,-0.023128530010581017,0.8936687707901001,2.202031135559082,16.58685874938965,13.860294342041016,1.1369431018829346,-0.023998798802495003,-0.20398980379104614,0.6453781127929688,-0.7502751350402832,-2.426452398300171
44,179041,179042,0.02971525304019451,0.008965659886598587,0.894917905330658,-2.536891222000122,8.903203010559082,13.4589204788208,1.1459426879882812,-0.02099894918501377,-0.19199039041996002,0.46796751022338867,-0.8060745000839233,-2.3021745681762695
45,179051,179052,0.028482956811785698,-0.013158797286450863,0.9255640506744385,-2.914672613143921,-1.3546384572982788,14.837679862976074,1.138443112373352,-0.025498725473880768,-0.20548972487449646,0.40707293152809143,-0.8354958295822144,-2.1651930809020996
46,179061,179062,0.04593003913760185,0.0045052943751215935,0.9506008625030518,-2.9581501483917236,-14.657011985778809,16.180023193359375,1.1294435262680054,-0.022498873993754387,-0.20548972487449646,0.5576715469360352,-0.8659210205078125,-2.0188674926757812
47,179071,179072,0.08922962099313736,0.00747059378772974,0.9648430347442627,-3.908356189727783,-26.044143676757812,21.969825744628906,1.1504424810409546,-0.022498873993754387,-0.19649016857147217,0.8614108562469482,-0.8992533683776855,-1.8458000421524048
48,179081,179082,0.1166321262717247,-0.041711997240781784,0.9336208701133728,7.42631721496582,-23.649993896484375,22.640295028686523,1.1429427862167358,-0.03299834951758385,-0.19799008965492249,1.1722662448883057,-0.8480143547058105,-1.604792594909668
49,179091,179092,0.08947046101093292,-0.019376061856746674,0.9409686923027039,21.500062942504883,-10.45838451385498,18.331722259521484,1.1354432106018066,-0.022498873993754387,-0.1904904693365097,1.0072461366653442,-0.6113160252571106,-1.3261057138442993
50,179101,179102,0.14632956683635712,0.05676322057843208,0.9697628617286682,29.196138381958008,1.1094292402267456,12.583643913269043,1.1444427967071533,-0.016499174758791924,-0.1904904693365097,1.1265943050384521,-0.35221394896507263,-1.15249502658844
51,179111,179112,0.10789527744054794,0.02825019136071205,0.9552623629570007,35.629493713378906,1.7798209190368652,7.139906883239746,1.141442894935608,-0.028498575091362,-0.1904904693365097,1.2868472337722778,0.07065091282129288,-1.0240851640701294
52,179121,179122,0.05715355649590492,-0.006798574700951576,0.9010041952133179,37.36664962768555,-2.019312620162964,3.2603461742401123,1.1504424810409546,-0.025498725473880768,-0.199490025639534,1.1157243251800537,0.058245301246643066,-1.0267760753631592
53,179131,179132,0.028280219063162804,-0.02157965861260891,0.8819236755371094,31.41298484802246,-8.610772132873535,2.987032175064087,1.1309434175491333,-0.01799909956753254,-0.18599069118499756,1.2259823083877563,0.5324141979217529,-0.9789214134216309
54,179141,179142,0.008724206127226353,-0.045011285692453384,0.8439112901687622,17.973358154296875,-6.893598556518555,7.173048496246338,1.1444427967071533,-0.03449827432632446,-0.17849107086658478,1.1669210195541382,0.719279408454895,-0.9559874534606934
55,179151,179152,0.0749136358499527,0.019567325711250305,0.8756107091903687,2.5417890548706055,1.903830885887146,10.212742805480957,1.13994300365448,-0.01799909956753254,-0.20098994672298431,1.3082349300384521,0.7844293117523193,-0.8964183330535889
56,179161,179162,0.09867515414953232,0.032672058790922165,0.9223214387893677,-10.145129203796387,5.864209175109863,9.892876625061035,1.1474425792694092,-0.022498873993754387,-0.19349032640457153,1.2228682041168213,0.8106377124786377,-0.7889676094055176
57,179171,179172,0.004239935427904129,-0.03743692860007286,0.8292001485824585,-17.82937240600586,7.597067832946777,9.229174613952637,1.1534422636032104,-0.028498575091362,-0.19349032640457153,1.1813567876815796,0.6307097673416138,-0.6963680982589722
58,179181,179182,-0.0008761746576055884,-0.02594311349093914,0.8234959244728088,-25.857839584350586,3.1997640132904053,10.527009963989258,1.154942274093628,-0.047997597604990005,-0.19199039041996002,1.1470166444778442,0.40097591280937195,-0.6049742698669434
59,179191,179192,0.06323022395372391,0.03700372576713562,0.8805992603302002,-27.517438888549805,-4.446846008300781,9.955391883850098,1.1519423723220825,-0.023998798802495003,-0.21598920226097107,1.1619118452072144,0.2636774182319641,-0.48170503973960876
60,179201,179202,0.1730719953775406,-0.0023842088412493467,0.8612889051437378,-20.095821380615234,-14.560117721557617,10.230974197387695,1.1534422636032104,-0.04649767279624939,-0.20248986780643463,1.3153553009033203,-0.14307299256324768,-0.3967057168483734
61,179211,179212,0.14593450725078583,0.019122319296002388,0.8543295860290527,-7.8386616706848145,-24.3669490814209,8.227731704711914,1.1669416427612305,-0.056997150182724,-0.19199039041996002,1.4784388542175293,-0.11834310740232468,-0.2674131989479065
62,179221,179222,0.056784484535455704,-0.1106155514717102,0.7786980867385864,5.513444423675537,-32.44674301147461,7.072684288024902,1.1609419584274292,-0.056997150182724,-0.20698964595794678,1.758192777633667,-0.18333788216114044,-0.18318453431129456
63,179231,179232,0.01898408867418766,-0.12242107093334198,0.8209318518638611,12.57404613494873,-31.604961395263672,11.12971305847168,1.1759412288665771,-0.05999699980020523,-0.20398980379104614,1.8946932554244995,-0.0616166926920414,-0.10714104026556015
64,179241,179242,0.10640204697847366,-0.024028562009334564,0.9028528332710266,20.665542602539062,-31.932905197143555,14.123844146728516,1.1729413270950317,-0.07499624788761139,-0.2189890444278717,2.217851161956787,0.11887276917695999,0.014799406751990318
65,179251,179252,0.12873370945453644,0.00758873438462615,0.870159387588501,23.408342361450195,-26.164438247680664,16.9815731048584,1.1759412288665771,-0.08999549597501755,-0.2099895030260086,2.4652957916259766,0.4169270396232605,0.16144827008247375
66,179261,179262,0.060256991535425186,0.0058956746943295,0.8495176434516907,29.355419158935547,-21.0898380279541,16.69342041015625,1.1744412183761597,-0.07949602603912354,-0.22648866474628448,2.913163661956787,0.595458984375,0.33624130487442017
67,179271,179272,0.09105092287063599,0.014734758995473385,0.8088539242744446,38.67993927001953,-8.950065612792969,15.212569236755371,1.180440902709961,-0.07949602603912354,-0.22648866474628448,3.0394856929779053,0.9715619087219238,0.4926973879337311
68,179281,179282,-0.02631482109427452,-0.061459627002477646,0.8869657516479492,42.60834884643555,12.39006519317627,14.491912841796875,1.1699414253234863,-0.08999549597501755,-0.23398829996585846,2.861356735229492,1.2644234895706177,0.6226746439933777
69,179291,179292,0.01141501497477293,0.009824412874877453,0.9248282313346863,31.81361961364746,35.8156623840332,9.899832725524902,1.1729413270950317,-0.07799609750509262,-0.22198890149593353,2.5154800415039062,1.7898716926574707,0.7484801411628723
70,179301,179302,0.14118894934654236,0.06812846660614014,0.8682780265808105,13.82121753692627,48.99262619018555,4.302094459533691,1.1834408044815063,-0.08849557489156723,-0.2294885218143463,1.9566020965576172,2.0866763591766357,0.8326783776283264
71,179311,179312,0.09602544456720352,0.015325440093874931,0.8401949405670166,-5.124643325805664,48.102420806884766,1.6993285417556763,1.1669416427612305,-0.07199639827013016,-0.2099895030260086,1.4878592491149902,1.9190188646316528,0.8941090106964111
72,179321,179322,0.04004485905170441,-0.05981623753905296,0.9309841990470886,-24.941991806030273,38.997535705566406,0.9067039489746094,1.177441120147705,-0.07049647718667984,-0.21448926627635956,1.0188660621643066,1.9034513235092163,0.9230066537857056
73,179331,179332,0.05600021034479141,-0.01719474047422409,0.9955759048461914,-40.813926696777344,28.706562042236328,-0.43647289276123047,1.1849406957626343,-0.07799609750509262,-0.2099895030260086,0.9335247874259949,1.7193464040756226,0.985795795917511
74,179341,179342,0.10840197652578354,0.05393868684768677,0.9962512850761414,-58.54985046386719,18.098918914794922,1.2492002248764038,1.1849406957626343,-0.07799609750509262,-0.20698964595794678,0.528806209564209,1.036730170249939,0.9675387144088745
75,179351,179352,0.19985394179821014,0.13604848086833954,1.0435280799865723,-56.96349334716797,4.216775417327881,3.3360748291015625,1.1669416427612305,-0.056997150182724,-0.21598920226097107,0.5227468609809875,0.43157124519348145,1.0136879682540894
76,179361,179362,0.14453193545341492,0.09335078299045563,1.0727713108062744,-41.14055633544922,-9.561896324157715,4.2132439613342285,1.163941740989685,-0.07499624788761139,-0.21598920226097107,0.5520879626274109,0.11364133656024933,1.0598653554916382
77,179371,179372,0.16345800459384918,0.12474671006202698,1.1031140089035034,-12.75171947479248,-13.877774238586426,3.356043815612793,1.1669416427612305,-0.06899654865264893,-0.20698964595794678,0.724071741104126,-0.3719872236251831,1.1091362237930298
78,179381,179382,0.01985946111381054,0.017107617110013962,1.1350222826004028,11.266058921813965,-11.437751770019531,3.709061861038208,1.1669416427612305,-0.07499624788761139,-0.21298934519290924,0.9301804900169373,-0.13596992194652557,1.174094557762146
79,179391,179392,0.08586185425519943,0.032425884157419205,1.0729649066925049,37.48654556274414,12.27949333190918,3.483996868133545,1.1699414253234863,-0.07499624788761139,-0.19799008965492249,0.939912736415863,0.14551560580730438,1.2121771574020386
80,179401,179402,0.09649413079023361,-0.0017500834073871374,1.0843274593353271,46.745628356933594,39.42866897583008,-0.793093204498291,1.1444427967071533,-0.06749662756919861,-0.21148942410945892,0.8553450703620911,0.4327976405620575,1.2510676383972168
81,179411,179412,0.03907427564263344,-0.028908217325806618,1.1467361450195312,48.59479522705078,51.160396575927734,-6.17520809173584,1.1504424810409546,-0.07049647718667984,-0.2084895670413971,0.28595131635665894,1.0549495220184326,1.217378854751587
82,179421,179422,0.06058754026889801,0.06395624577999115,1.1618969440460205,42.684776306152344,37.636531829833984,-8.659396171569824,1.154942274093628,-0.0659966990351677,-0.21598920226097107,-0.36392146348953247,1.6694837808609009,1.1455165147781372
83,179431,179432,0.14402106404304504,0.1456056535243988,1.1131538152694702,18.100543975830078,15.594727516174316,-8.55050277709961,1.138443112373352,-0.058497074991464615,-0.2174891233444214,-0.6679292321205139,1.745566964149475,1.0552672147750854
84,179441,179442,0.08134522289037704,-0.009501500055193901,1.0515422821044922,-5.03466796875,-12.817670822143555,-6.10012149810791,1.1579420566558838,-0.07199639827013016,-0.19799008965492249,-0.7532058954238892,1.8927820920944214,0.9824097752571106
85,179451,179452,0.11748573929071426,0.045155417174100876,1.0389893054962158,-23.11431884765625,-38.154048919677734,-4.990884780883789,1.1519423723220825,-0.06899654865264893,-0.2099895030260086,-0.5612581968307495,1.7086156606674194,0.9071288108825684
86,179461,179462,0.13487550616264343,-0.00873490609228611,0.9946029186248779,-31.636695861816406,-46.446048736572266,-5.69788122177124,1.1759412288665771,-0.07799609750509262,-0.2099895030260086,0.011051341891288757,1.5469986200332642,0.8849629759788513
87,179471,179472,0.06856228411197662,0.006059786770492792,1.01590096950531,-42.99768829345703,-44.37081527709961,-5.650335788726807,1.1669416427612305,-0.07499624788761139,-0.22498874366283417,0.7820324301719666,1.0109639167785645,0.847315788269043
88,179481,179482,0.07961062341928482,0.12198404967784882,1.0041184425354004,-57.43649673461914,-37.9670524597168,-5.128665447235107,1.1594419479370117,-0.058497074991464615,-0.199490025639534,1.0158841609954834,0.7878893613815308,0.7766366600990295
89,179491,179492,0.1380317062139511,0.20091035962104797,0.9322234392166138,-66.0501708984375,-32.83061981201172,-3.260787010192871,1.1714414358139038,-0.06149692460894585,-0.2174891233444214,1.444935917854309,-0.10414496809244156,0.705317497253418
90,179501,179502,0.14664287865161896,0.17782166600227356,0.8757871985435486,-69.98899841308594,-29.383869171142578,-3.0419986248016357,1.1819409132003784,-0.044997747987508774,-0.21598920226097107,1.8819291591644287,-0.5119315385818481,0.7328117489814758
91,179511,179512,0.01657252386212349,0.07509349286556244,0.9160491228103638,-70.1151123046875,-17.64017677307129,-3.2604880332946777,1.1729413270950317,-0.05999699980020523,-0.22498874366283417,2.1709909439086914,-1.409503698348999,0.6869492530822754
92,179521,179522,0.07740119099617004,0.11369416862726212,0.9549514055252075,-54.79301071166992,-2.516740560531616,0.7159518003463745,1.1729413270950317,-0.05999699980020523,-0.22498874366283417,2.081702709197998,-1.8998736143112183,0.6426473259925842
93,179531,179532,0.13203704357147217,0.09476754814386368,0.9856159687042236,-13.23388385772705,5.755561351776123,2.271735906600952,1.1729413270950317,-0.05999699980020523,-0.22498874366283417,2.0156402587890625,-2.4083404541015625,0.6408572196960449
94,179541,179542,0.07996287941932678,0.08133886754512787,1.0258924961090088,32.17926788330078,8.647436141967773,1.0902780294418335,1.1729413270950317,-0.05999699980020523,-0.22498874366283417,2.049764633178711,-2.32966685295105,0.678434431552887
95,179551,179552,0.15688766539096832,0.1385454386472702,1.0366684198379517,70.15393829345703,11.309714317321777,-0.9676198959350586,1.1624418497085571,-0.04649767279624939,-0.20548972487449646,1.8745453357696533,-1.8730416297912598,0.6747362017631531
96,179561,179562,0.16044484078884125,0.201311394572258,1.0110255479812622,87.18680572509766,7.922718524932861,-2.8206868171691895,1.1684415340423584,-0.06449677050113678,-0.22048896551132202,1.8344190120697021,-0.8762980699539185,0.6687578558921814
97,179571,179572,0.019648246467113495,0.13164398074150085,0.9775022268295288,82.62881469726562,6.366418838500977,-2.9670002460479736,1.1669416427612305,-0.07499624788761139,-0.227988600730896,1.822874903678894,-0.3556996285915375,0.6340357065200806
98,179581,179582,0.005758213810622692,0.029383258894085884,0.9045025706291199,69.41327667236328,8.301936149597168,-2.5463242530822754,1.163941740989685,-0.07799609750509262,-0.227988600730896,1.8531500101089478,0.5388603210449219,0.6082526445388794
99,179591,179592,-0.03683651238679886,-0.03219659626483917,0.9622617363929749,51.09917068481445,15.817300796508789,-2.8362843990325928,1.1669416427612305,-0.0659966990351677,-0.20698964595794678,1.681929111480713,1.217262864112854,0.5839610695838928
100,179601,179602,-0.014346866868436337,-0.02564048580825329,1.0369939804077148,12.80759334564209,25.067819595336914,-2.288489818572998,1.1504424810409546,-0.0764961764216423,-0.21448926627635956,1.5562453269958496,1.4589083194732666,0.5592334866523743
101,179611,179612,0.13637186586856842,0.059071801602840424,0.965088963508606,-30.504243850708008,36.269805908203125,-0.8892421722412109,1.1519423723220825,-0.06899654865264893,-0.20398980379104614,1.1215847730636597,1.445617437362671,0.5432602167129517
102,179621,179622,0.03874722123146057,-0.0036262068897485733,1.0098148584365845,-55.90890121459961,46.41377639770508,1.9690582752227783,1.1609419584274292,-0.05999699980020523,-0.22498874366283417,0.6859264373779297,0.9486256241798401,0.5440121293067932
103,179631,179632,0.0156524870544672,-0.02162289246916771,1.1062347888946533,-68.12166595458984,45.72937774658203,0.7804900407791138,1.1684415340423584,-0.06749662756919861,-0.2084895670413971,-0.04011434689164162,0.17847174406051636,0.5517280697822571
104,179641,179642,0.08707942068576813,0.019622864201664925,1.1280406713485718,-72.09845733642578,47.04764938354492,0.49837803840637207,1.163941740989685,-0.05399730056524277,-0.2189890444278717,-0.1705176830291748,-0.3979545533657074,0.5798056125640869
105,179651,179652,0.11669128388166428,0.03040275163948536,1.0576114654541016,-64.52254486083984,45.744178771972656,0.07925571501255035,1.163941740989685,-0.06299684941768646,-0.227988600730896,-0.7484456896781921,-1.2038296461105347,0.562530517578125
106,179661,179662,0.09264818578958511,0.04501713812351227,1.079042673110962,-43.81119155883789,35.413082122802734,0.9949811100959778,1.163941740989685,-0.0659966990351677,-0.21598920226097107,-1.3760912418365479,-1.892020344734192,0.5388473868370056
107,179671,179672,0.14892049133777618,0.10447730123996735,1.144105315208435,-7.525937557220459,9.547528266906738,-2.200732707977295,1.163941740989685,-0.047997597604990005,-0.2189890444278717,-1.7374624013900757,-2.0226354598999023,0.553752064704895
108,179681,179682,0.17055058479309082,0.11136552691459656,1.0747079849243164,25.637619018554688,-12.568253517150879,-6.228528022766113,1.1459426879882812,-0.05999699980020523,-0.21298934519290924,-1.5867998600006104,-1.9138575792312622,0.5331961512565613
109,179691,179692,0.114507295191288,0.09332021325826645,0.9939676523208618,44.07932662963867,-23.09549903869629,-6.153114318847656,1.1504424810409546,-0.0764961764216423,-0.20548972487449646,-1.300848126411438,-1.5640512704849243,0.48442959785461426
110,179701,179702,0.05755262449383736,0.0058739385567605495,0.9811015725135803,50.801212310791016,-18.492006301879883,-6.456811904907227,1.1504424810409546,-0.06149692460894585,-0.20248986780643463,-0.948494553565979,-1.0383681058883667,0.434324711561203
111,179711,179712,0.0751849114894867,-0.046230945736169815,0.9587356448173523,40.043983459472656,-12.569018363952637,-4.432620525360107,1.1534422636032104,-0.05549722537398338,-0.199490025639534,-0.697235107421875,-0.3923412263393402,0.40094754099845886
112,179721,179722,0.19770891964435577,0.011353882029652596,0.9460685849189758,17.9019775390625,-5.405651092529297,-5.2485551834106445,1.1504424810409546,-0.07049647718667984,-0.21148942410945892,-0.9422944188117981,-0.2718401849269867,0.3277748227119446
113,179731,179732,0.07977401465177536,-0.00863509252667427,0.9000990390777588,-14.346323013305664,-0.6340645551681519,-4.2063517570495605,1.154942274093628,-0.047997597604990005,-0.21298934519290924,-0.8630755543708801,-0.2877579927444458,0.24924813210964203
114,179741,179742,0.0029731218237429857,-0.06631967425346375,0.9737012982368469,-38.80883026123047,4.144489288330078,0.5251891613006592,1.1564421653747559,-0.04649767279624939,-0.19349032640457153,-0.9328092336654663,-0.5784563422203064,0.202620729804039
115,179751,179752,0.047608353197574615,-0.0550355389714241,1.0336270332336426,-41.718631744384766,1.8933470249176025,4.014516830444336,1.1654417514801025,-0.058497074991464615,-0.22048896551132202,-1.0082186460494995,-1.0826168060302734,0.19163395464420319
116,179761,179762,0.010756930336356163,-0.10190751403570175,1.0550532341003418,-37.07743835449219,-2.0859375,9.051480293273926,1.1624418497085571,-0.05549722537398338,-0.20248986780643463,-0.8763212561607361,-1.3914777040481567,0.2619253396987915
117,179771,179772,-0.08446408063173294,-0.17678649723529816,1.0724602937698364,-14.603087425231934,-1.607534646987915,10.653094291687012,1.1579420566558838,-0.0659966990351677,-0.21598920226097107,-0.8825978636741638,-1.757979154586792,0.3486756980419159
118,179781,179782,-0.04038924723863602,-0.11284290999174118,1.0840167999267578,14.346665382385254,9.610020637512207,7.43310546875,1.154942274093628,-0.06299684941768646,-0.21598920226097107,-0.8842779397964478,-1.793229579925537,0.4573611319065094
119,179791,179792,0.08826686441898346,0.07946965843439102,1.13396155834198,55.759456634521484,13.843962669372559,3.5285115242004395,1.1519423723220825,-0.050997450947761536,-0.2099895030260086,-0.9459890723228455,-1.3506734371185303,0.5674318075180054
120,179801,179802,0.06454895436763763,0.06922243535518646,1.2099075317382812,110.5673828125,4.485398292541504,-1.613996148109436,1.163941740989685,-0.08099594712257385,-0.22198890149593353,-1.0370889902114868,-0.34601303935050964,0.6790010929107666
121,179811,179812,0.04849757254123688,-0.04393196478486061,1.1100447177886963,137.04554748535156,-12.056170463562012,-8.886334419250488,1.1654417514801025,-0.09749512374401093,-0.20548972487449646,-1.0544580221176147,0.5747306942939758,0.5787039995193481
122,179821,179822,0.030246321111917496,-0.08665958791971207,1.0520058870315552,143.79034423828125,-23.02639389038086,-12.621414184570312,1.1594419479370117,-0.08849557489156723,-0.22348882257938385,-0.8385028839111328,2.206153392791748,0.538994312286377
123,179831,179832,0.06324099004268646,-0.06923898309469223,1.075586199760437,122.85601043701172,-27.476613998413086,-13.120020866394043,1.1459426879882812,-0.12599369883537292,-0.21298934519290924,-0.3996356427669525,3.9683732986450195,0.4779726564884186
124,179841,179842,0.0406360924243927,-0.005597137380391359,1.0178327560424805,76.44564819335938,-20.969205856323242,-14.51800537109375,1.1594419479370117,-0.11249437183141708,-0.22048896551132202,-0.26700252294540405,4.657649993896484,0.20956870913505554
125,179851,179852,0.05557473748922348,0.022476540878415108,0.9055495858192444,6.6579999923706055,-18.142208099365234,-14.117730140686035,1.1444427967071533,-0.10349482297897339,-0.21148942410945892,0.0952351912856102,5.245245456695557,0.03783617168664932
126,179861,179862,0.0891464352607727,0.06305795162916183,0.9062965512275696,-57.110504150390625,-14.752392768859863,-13.837136268615723,1.1504424810409546,-0.09149542450904846,-0.2174891233444214,0.13274835050106049,5.037409782409668,-0.15452232956886292
127,179871,179872,0.07261227816343307,0.024262016639113426,0.9482840895652771,-128.777099609375,-13.638253211975098,-17.31262969970703,1.1624418497085571,-0.08849557489156723,-0.2174891233444214,0.3242003917694092,4.0626912117004395,-0.37098655104637146
128,179881,179882,0.07031423598527908,-0.015708429738879204,1.0272904634475708,-185.64227294921875,-16.432302474975586,-20.40477180480957,1.192440390586853,-0.10349482297897339,-0.2174891233444214,0.4436085820198059,2.1026060581207275,-0.6924303770065308
129,179891,179892,-0.018432119861245155,-0.021985530853271484,1.0447920560836792,-218.09500122070312,-19.148576736450195,-23.7531795501709,1.1864407062530518,-0.085495725274086,-0.21448926627635956,0.6674267053604126,0.5451995134353638,-0.8113647699356079
130,179901,179902,0.14312393963336945,0.11501707881689072,1.0523511171340942,-222.50221252441406,-13.775206565856934,-24.7244930267334,1.1909403800964355,-0.08099594712257385,-0.2369881421327591,0.7203343510627747,-2.0046472549438477,-1.1620681285858154
131,179911,179912,0.210381880402565,0.17728129029273987,1.0753452777862549,-201.29217529296875,-3.939560890197754,-25.099994659423828,1.1834408044815063,-0.06749662756919861,-0.24148792028427124,0.5281601548194885,-3.5589401721954346,-1.3408409357070923
132,179921,179922,0.17697161436080933,0.20470629632472992,1.0947096347808838,-161.21826171875,0.35707035660743713,-24.717649459838867,1.1759412288665771,-0.04199789837002754,-0.22498874366283417,0.3768664002418518,-5.736739635467529,-1.6857035160064697
133,179931,179932,0.1158866286277771,0.20246970653533936,1.1144684553146362,-101.64263916015625,-6.378906726837158,-23.82854652404785,1.178941011428833,-0.03299834951758385,-0.21298934519290924,0.38237830996513367,-6.787603378295898,-1.8504561185836792
134,179941,179942,0.10576709359884262,0.14554351568222046,1.1301788091659546,-26.990507125854492,-1.9172463417053223,-23.853015899658203,1.1669416427612305,-0.0029998498503118753,-0.2189890444278717,0.40332716703414917,-7.6990485191345215,-2.104389190673828
135,179951,179952,0.11833848059177399,0.030187541618943214,1.1391416788101196,42.67411422729492,7.411706447601318,-19.859243392944336,1.1489425897598267,0.011999399401247501,-0.20698964595794678,0.4433746039867401,-7.694246292114258,-2.31361985206604
136,179961,179962,0.07963871955871582,-0.02055477909743786,1.1688786745071411,111.03791046142578,15.131730079650879,-17.90653419494629,1.1519423723220825,-0.02099894918501377,-0.2189890444278717,0.3970327377319336,-6.927666187286377,-2.487955093383789
137,179971,179972,0.17559587955474854,0.11715967208147049,1.143993616104126,141.70205688476562,18.48761749267578,-21.845521926879883,1.1519423723220825,-0.029998499900102615,-0.2189890444278717,0.18499994277954102,-5.3516526222229,-2.6154088973999023
138,179981,179982,0.15996307134628296,0.1226435974240303,1.083945631980896,136.34608459472656,8.392273902893066,-26.782209396362305,1.1519423723220825,-0.050997450947761536,-0.2189890444278717,-0.05507205054163933,-4.427200794219971,-2.9199702739715576
139,179991,179992,0.09631425887346268,0.09982049465179443,1.0391576290130615,102.55961608886719,-4.27554178237915,-24.2728328704834,1.141442894935608,-0.03449827432632446,-0.199490025639534,-0.1458069235086441,-2.915792226791382,-3.135042428970337
140,180001,180002,0.07996386289596558,0.03591379523277283,0.9650057554244995,53.11050033569336,-18.077774047851562,-18.57813835144043,1.141442894935608,-0.019499024376273155,-0.20548972487449646,-0.03007061965763569,-2.112665891647339,-3.387606143951416
141,180011,180012,0.14180156588554382,0.094658762216568,0.9316679835319519,6.540180206298828,-36.24367904663086,-12.422928810119629,1.1279436349868774,-0.014999249950051308,-0.19499024748802185,0.4333769679069519,-1.8757222890853882,-3.6685891151428223
142,180021,180022,0.16652299463748932,0.11091580241918564,0.9000478982925415,-24.22852897644043,-46.1725959777832,-8.778414726257324,1.1564421653747559,-0.028498575091362,-0.18449077010154724,1.0372480154037476,-1.9066039323806763,-3.8503828048706055
143,180031,180032,0.14601147174835205,0.08749576658010483,0.9189403653144836,-44.95414352416992,-49.45966720581055,-4.194356441497803,1.1654417514801025,-0.03149842470884323,-0.19649016857147217,1.4964104890823364,-2.361705780029297,-3.929405927658081
144,180041,180042,0.07845374196767807,0.09303756803274155,0.9720252156257629,-49.06565856933594,-44.22073745727539,0.8445730805397034,1.1729413270950317,-0.044997747987508774,-0.19799008965492249,1.9510225057601929,-3.029179096221924,-3.9418044090270996
145,180051,180052,0.05663834884762764,0.13061456382274628,1.0126638412475586,-37.35723114013672,-44.131446838378906,2.514387845993042,1.178941011428833,-0.026998650282621384,-0.20398980379104614,2.047334909439087,-3.5917444229125977,-3.7852585315704346
146,180061,180062,0.09699085354804993,0.10692918300628662,0.9290472865104675,-0.6442378163337708,-44.50640106201172,1.884747862815857,1.1579420566558838,-0.005999699700623751,-0.20698964595794678,2.6390511989593506,-3.8575758934020996,-3.7857093811035156
147,180071,180072,-0.02189287357032299,-0.04029793292284012,0.8839620351791382,35.73486328125,-38.26308059692383,-0.2283213585615158,1.1594419479370117,-0.010499474592506886,-0.19649016857147217,3.2423436641693115,-3.6620521545410156,-3.80082631111145
148,180081,180082,-0.09903998672962189,-0.10147818922996521,0.8555114269256592,65.56245422363281,-16.422189712524414,0.11762301623821259,1.1579420566558838,-0.011999399401247501,-0.19799008965492249,3.659134864807129,-3.147156238555908,-3.8136308193206787
149,180091,180092,0.0032410842832177877,0.007659825496375561,0.8528209924697876,91.18403625488281,1.7114790678024292,-2.0067315101623535,1.1684415340423584,-0.028498575091362,-0.19649016857147217,3.5186569690704346,-2.3119025230407715,-3.7095844745635986
150,180101,180102,-0.016587480902671814,0.04080855846405029,0.9221799969673157,103.10912322998047,9.168366432189941,-5.268805027008057,1.1564421653747559,-0.03449827432632446,-0.2084895670413971,3.4403867721557617,-1.598864197731018,-3.7079262733459473
151,180111,180112,0.0676010325551033,0.06325675547122955,0.8524904847145081,106.217041015625,10.207427024841309,-5.913496494293213,1.1624418497085571,-0.03449827432632446,-0.2084895670413971,3.2721762657165527,-0.4561409652233124,-3.7514829635620117
152,180121,180122,0.023569291457533836,0.02731340005993843,0.804894745349884,98.16670227050781,9.841997146606445,-3.2127885818481445,1.1564421653747559,-0.04649767279624939,-0.2174891233444214,3.297206401824951,0.884640097618103,-3.896070718765259
153,180131,180132,-0.01258169300854206,-0.023272713646292686,0.8053910136222839,76.67716217041016,4.057370185852051,-1.610059380531311,1.163941740989685,-0.0659966990351677,-0.22198890149593353,3.2951414585113525,1.3545007705688477,-3.8721237182617188
154,180141,180142,0.05609627068042755,0.020184138789772987,0.7684506773948669,48.857421875,1.2839810848236084,1.6563334465026855,1.154942274093628,-0.03599819913506508,-0.20098994672298431,3.235734701156616,2.217301368713379,-3.9028799533843994
155,180151,180152,0.027683796361088753,-0.018140988424420357,0.8300783038139343,16.94278907775879,9.078197479248047,4.9225263595581055,1.1654417514801025,-0.06149692460894585,-0.21448926627635956,3.307711124420166,2.403308153152466,-3.8559138774871826
156,180161,180162,0.04826805368065834,0.019122688099741936,0.9083274006843567,-5.6490631103515625,26.98944854736328,4.606569290161133,1.1669416427612305,-0.047997597604990005,-0.19799008965492249,3.0803537368774414,2.533316135406494,-3.7758874893188477
157,180171,180172,0.0809786319732666,0.05471417307853699,0.969512939453125,-22.703739166259766,46.184391021728516,1.6706528663635254,1.1714414358139038,-0.05549722537398338,-0.2174891233444214,2.950216293334961,2.4390032291412354,-3.7607920169830322
158,180181,180182,0.0322846956551075,-0.0028737392276525497,0.9162225127220154,-17.328279495239258,56.925270080566406,-1.3024342060089111,1.1564421653747559,-0.05549722537398338,-0.2084895670413971,2.270721197128296,2.1602556705474854,-3.6797757148742676
159,180191,180192,0.00957543309777975,0.008365978486835957,0.887164294719696,-3.7087488174438477,55.738365173339844,-10.383902549743652,1.1594419479370117,-0.05549722537398338,-0.21448926627635956,1.7979648113250732,2.0099363327026367,-3.700451612472534
160,180201,180202,0.03999321535229683,0.04851140081882477,0.8905296921730042,6.946213722229004,43.47645568847656,-16.839677810668945,1.1624418497085571,-0.06749662756919861,-0.2174891233444214,1.4564393758773804,2.091472864151001,-3.837113857269287
161,180211,180212,0.0912385806441307,0.07324375212192535,0.9259926676750183,13.442346572875977,27.016950607299805,-20.48423957824707,1.1564421653747559,-0.07949602603912354,-0.2084895670413971,0.9076870679855347,2.2587532997131348,-4.016767501831055
162,180221,180222,0.06397667527198792,0.07579611986875534,0.8599852323532104,1.715388536453247,13.613181114196777,-18.013717651367188,1.1624418497085571,-0.08249587565660477,-0.20248986780643463,0.8783658742904663,2.3060195446014404,-4.187707424163818
163,180231,180232,0.01326064858585596,0.07245639711618423,0.9311818480491638,-10.401001930236816,2.5489954948425293,-18.5745849609375,1.1564421653747559,-0.085495725274086,-0.2084895670413971,0.8055819869041443,2.3259060382843018,-4.370636463165283
164,180241,180242,-0.013561493717133999,-0.003139605512842536,0.8892050981521606,-23.616514205932617,-5.29844856262207,-19.15461540222168,1.163941740989685,-0.08699564635753632,-0.20098994672298431,0.7375717163085938,2.098642349243164,-4.543618679046631
165,180251,180252,0.004994724877178669,0.0034088888205587864,0.8784588575363159,-23.71770477294922,-19.62823486328125,-19.978546142578125,1.1714414358139038,-0.09749512374401093,-0.21448926627635956,0.9739605784416199,1.824665904045105,-4.717952251434326
166,180261,180262,0.04948846995830536,0.04395317658782005,0.8547627329826355,-26.09552001953125,-28.98925018310547,-21.941566467285156,1.192440390586853,-0.10349482297897339,-0.21448926627635956,1.2475985288619995,1.5125240087509155,-4.901002883911133
167,180271,180272,0.06499288231134415,0.01777588576078415,0.8405673503875732,-22.8292179107666,-26.084400177001953,-17.43581199645996,1.1819409132003784,-0.1229938492178917,-0.21598920226097107,1.6343510150909424,1.2311451435089111,-5.091172218322754
168,180281,180282,0.014392533339560032,-0.015742003917694092,0.9156063199043274,-4.744978904724121,-3.9519083499908447,-15.1680269241333,1.1834408044815063,-0.10649467259645462,-0.2294885218143463,1.9203906059265137,1.1284070014953613,-5.268484592437744
169,180291,180292,0.04390425235033035,0.021743949502706528,1.0020498037338257,22.913240432739258,29.25911521911621,-16.41820526123047,1.1849406957626343,-0.113994300365448,-0.22198890149593353,1.711197853088379,1.1896206140518188,-5.4596099853515625
170,180301,180302,-0.09125528484582901,-0.03427337482571602,1.0097981691360474,38.95641326904297,52.3770637512207,-18.688182830810547,1.1759412288665771,-0.12899354100227356,-0.23998799920082092,1.2823113203048706,1.6229381561279297,-5.673577308654785
171,180311,180312,-0.09314131736755371,-0.06678083539009094,1.0116318464279175,38.46067428588867,96.01937103271484,-18.49724578857422,1.1744412183761597,-0.10949452221393585,-0.21448926627635956,0.6854701042175293,2.102593183517456,-5.8518900871276855
172,180321,180322,-0.05005631595849991,0.00451488746330142,1.0391690731048584,29.526344299316406,119.94876098632812,-17.340740203857422,1.1714414358139038,-0.13649317622184753,-0.22648866474628448,-0.19251666963100433,2.3262033462524414,-5.940950870513916
173,180331,180332,0.09590517729520798,0.09677720069885254,1.0475797653198242,12.504453659057617,122.40035247802734,-14.086742401123047,1.1654417514801025,-0.1334933191537857,-0.2384880781173706,-1.7417253255844116,2.6679728031158447,-6.139332294464111
174,180341,180342,0.06711824238300323,0.038306187838315964,1.0333812236785889,-22.756851196289062,109.58143615722656,-3.649113655090332,1.154942274093628,-0.1229938492178917,-0.21298934519290924,-2.4804248809814453,2.4492082595825195,-6.067986488342285
175,180351,180352,0.1022123247385025,-0.0067625101655721664,1.117271900177002,-47.610939025878906,100.54012298583984,8.204916000366211,1.1429427862167358,-0.11999399960041046,-0.2099895030260086,-3.8368358612060547,1.995421290397644,-6.099087715148926
176,180361,180362,0.04269024357199669,-0.0372731015086174,1.1935999393463135,-58.073612213134766,81.17565155029297,13.988662719726562,1.1429427862167358,-0.11999399960041046,-0.2099895030260086,-5.058008670806885,1.2996747493743896,-6.0488810539245605
177,180371,180372,0.028240179643034935,-0.027325546368956566,1.2178490161895752,-50.326786041259766,60.91792297363281,19.58567237854004,1.1429427862167358,-0.11999399960041046,-0.2099895030260086,-5.3821845054626465,0.8889839053153992,-5.742453575134277
178,180381,180382,0.06218632683157921,0.04720224812626839,1.2497209310531616,-35.574466705322266,41.853538513183594,25.43695831298828,1.138443112373352,-0.10949452221393585,-0.21448926627635956,-5.999610900878906,0.5128023624420166,-5.533310413360596
179,180391,180392,0.11018838733434677,0.07780323177576065,1.214811086654663,-20.738588333129883,37.17829513549805,29.196443557739258,1.141442894935608,-0.10649467259645462,-0.21148942410945892,-6.280155181884766,0.29957374930381775,-5.206543922424316
180,180401,180402,0.10517659783363342,0.059618234634399414,1.2061082124710083,-4.124594688415527,33.560848236083984,27.189273834228516,1.1369431018829346,-0.08999549597501755,-0.21298934519290924,-6.794327735900879,0.23723451793193817,-4.939440727233887
181,180411,180412,0.11900677531957626,0.07724432647228241,1.2553998231887817,-0.8732095956802368,34.83126449584961,32.8738899230957,1.1354432106018066,-0.10949452221393585,-0.21448926627635956,-6.82667875289917,0.31865423917770386,-4.53056001663208
182,180421,180422,0.14479070901870728,0.14879530668258667,1.2220988273620605,17.255462646484375,5.370731353759766,36.277931213378906,1.123443841934204,-0.09149542450904846,-0.199490025639534,-7.266542911529541,0.4649325907230377,-4.191258907318115
183,180431,180432,0.15809594094753265,0.12577973306179047,1.2189035415649414,49.255985260009766,-45.88785934448242,27.117189407348633,1.124943733215332,-0.10199490189552307,-0.19499024748802185,-7.160768985748291,0.9883261919021606,-3.7116689682006836
184,180441,180442,0.14354822039604187,0.12113276869058609,1.1430883407592773,57.575836181640625,-85.42076873779297,24.755815505981445,1.138443112373352,-0.11249437183141708,-0.19649016857147217,-6.44980001449585,1.457982063293457,-3.446739435195923
185,180451,180452,0.10467259585857391,0.10162327438592911,1.1028857231140137,44.723270416259766,-130.93930053710938,27.903013229370117,1.1309434175491333,-0.11099445074796677,-0.20098994672298431,-5.089074611663818,1.9654077291488647,-3.162038564682007
186,180461,180462,0.1029462143778801,0.01672310009598732,1.055257797241211,20.680252075195312,-150.4605255126953,28.71343994140625,1.1609419584274292,-0.1529923528432846,-0.20098994672298431,-3.7040953636169434,2.226621627807617,-3.0389015674591064
187,180471,180472,0.06991990655660629,-0.024418389424681664,0.962774932384491,0.1875763088464737,-139.95132446289062,27.8756103515625,1.1699414253234863,-0.14999249577522278,-0.22498874366283417,-2.0738017559051514,2.399726629257202,-2.794095754623413
188,180481,180482,0.06150730699300766,0.001555383438244462,0.9497677683830261,-8.67474365234375,-102.67076110839844,28.663501739501953,1.1669416427612305,-0.14399279654026031,-0.2099895030260086,-0.5216511487960815,2.3990089893341064,-2.5092246532440186
189,180491,180492,0.1829318404197693,0.08245059102773666,0.918972909450531,-20.70469093322754,-61.271419525146484,30.6700496673584,1.1654417514801025,-0.12149392068386078,-0.2174891233444214,0.019656984135508537,2.2341973781585693,-2.408839464187622
190,180501,180502,0.19696268439292908,0.12772096693515778,0.9655510783195496,-27.9748592376709,-16.263429641723633,30.61018180847168,1.154942274093628,-0.09899504482746124,-0.20398980379104614,0.6269966959953308,1.9654136896133423,-2.115623950958252
191,180511,180512,0.09518306702375412,0.017262175679206848,0.9511805772781372,-27.778051376342773,22.596107482910156,30.108192443847656,1.1504424810409546,-0.07049647718667984,-0.21148942410945892,0.5889636874198914,1.698684811592102,-1.8410197496414185
192,180521,180522,0.06646740436553955,-0.07950622588396072,0.8887661099433899,-20.837879180908203,49.39087677001953,27.426340103149414,1.163941740989685,-0.07199639827013016,-0.21298934519290924,-0.023405948653817177,1.456632375717163,-1.6276406049728394
193,180531,180532,-0.017580028623342514,-0.20097388327121735,0.9554871320724487,-13.003649711608887,58.540306091308594,24.9456844329834,1.1654417514801025,-0.06749662756919861,-0.22348882257938385,-0.5284788012504578,1.2468410730361938,-1.3478236198425293
194,180541,180542,-0.10989163815975189,-0.20417499542236328,0.9994701743125916,-4.195278644561768,57.75238037109375,21.95416831970215,1.1429427862167358,-0.06299684941768646,-0.20098994672298431,-1.1936535835266113,1.1767427921295166,-1.1028660535812378
195,180551,180552,-0.04196476191282272,-0.18668103218078613,0.9765515923500061,0.5995262265205383,51.64203643798828,20.837278366088867,1.13994300365448,-0.05999699980020523,-0.20398980379104614,-1.9579304456710815,1.4402779340744019,-0.8086426258087158
196,180561,180562,0.031848158687353134,-0.023466384038329124,0.9765950441360474,-2.1994428634643555,30.044361114501953,19.28641700744629,1.138443112373352,-0.05549722537398338,-0.20548972487449646,-2.4220423698425293,1.3944357633590698,-0.6163584589958191
197,180571,180572,0.08154043555259705,0.016644984483718872,0.9938042759895325,-6.509927749633789,-0.08175844699144363,18.56209945678711,1.1339433193206787,-0.06299684941768646,-0.19499024748802185,-2.4525249004364014,1.2190220355987549,-0.4154030382633209
198,180581,180582,0.05897907540202141,0.02795574441552162,0.9722193479537964,-0.8352683782577515,-34.44839859008789,14.311866760253906,1.1474425792694092,-0.07049647718667984,-0.199490025639534,-2.3247926235198975,1.2908259630203247,-0.16061240434646606
199,180591,180592,-0.00595882348716259,-0.04002495855093002,0.9507084488868713,8.309056282043457,-76.60016632080078,9.115922927856445,1.1474425792694092,-0.07349632680416107,-0.1904904693365097,-1.949000597000122,1.339044213294983,-0.04837087541818619
200,180601,180602,0.016499927267432213,0.03961775079369545,0.9648085832595825,11.299321174621582,-100.40562438964844,7.894519329071045,1.1444427967071533,-0.09149542450904846,-0.19649016857147217,-0.7425369024276733,1.4223812818527222,0.13816848397254944
201,180611,180612,0.09638890624046326,0.047137897461652756,0.9628337621688843,14.12459659576416,-106.68624114990234,4.997095108032227,1.1729413270950317,-0.09899504482746124,-0.2099895030260086,0.30014222860336304,1.6054679155349731,0.2126288264989853
202,180621,180622,0.04209189862012863,-0.017723528668284416,0.9754677414894104,9.498366355895996,-94.84030151367188,5.215857028961182,1.1849406957626343,-0.10799460113048553,-0.22198890149593353,1.4280552864074707,1.6005796194076538,0.20583538711071014
203,180631,180632,-0.022997179999947548,-0.028372474014759064,0.9843677282333374,1.9251677989959717,-68.2112045288086,5.312596797943115,1.1759412288665771,-0.11099445074796677,-0.21298934519290924,2.1720454692840576,1.73765230178833,0.20065675675868988
204,180641,180642,0.01561800017952919,0.019609518349170685,0.9720863103866577,-6.390933036804199,-34.58143997192383,5.945644855499268,1.1654417514801025,-0.07049647718667984,-0.21148942410945892,2.8804304599761963,1.7268476486206055,0.2535073757171631
205,180651,180652,0.013607993721961975,0.029653877019882202,0.9871578216552734,-14.255309104919434,-1.4088181257247925,6.107243537902832,1.1759412288665771,-0.07799609750509262,-0.21598920226097107,2.9622385501861572,1.5912392139434814,0.22902770340442657
206,180661,180662,-0.021048376336693764,-0.004557398613542318,0.9717095494270325,-17.903783798217773,27.574411392211914,7.558223247528076,1.1654417514801025,-0.06149692460894585,-0.22048896551132202,2.871805191040039,1.4079900979995728,0.27349653840065
207,180671,180672,0.04138932749629021,0.025330953299999237,0.939491868019104,-18.808244705200195,47.1177978515625,7.564741611480713,1.1714414358139038,-0.05549722537398338,-0.2084895670413971,2.4143378734588623,1.3115767240524292,0.3235434293746948
208,180681,180682,0.04938362166285515,0.015015714801847935,0.9587200284004211,-22.401248931884766,55.04425811767578,9.73609447479248,1.1609419584274292,-0.05399730056524277,-0.21298934519290924,1.95404851436615,1.0585066080093384,0.4208024740219116
209,180691,180692,0.05970688536763191,0.04499845579266548,0.975292980670929,-19.415748596191406,47.81651306152344,10.27365493774414,1.1654417514801025,-0.058497074991464615,-0.2174891233444214,1.2822457551956177,0.9234022498130798,0.49321064352989197
210,180701,180702,0.021765127778053284,0.016915936022996902,0.9780738949775696,-16.586618423461914,24.434383392333984,10.65368938446045,1.163941740989685,-0.056997150182724,-0.2099895030260086,0.6411375403404236,0.7406748533248901,0.5508385896682739
211,180711,180712,0.04807284474372864,0.011636446230113506,1.0068459510803223,-12.979979515075684,-5.930524826049805,13.80385971069336,1.154942274093628,-0.047997597604990005,-0.21298934519290924,1.0539348125457764,0.611265242099762,0.820976734161377
212,180721,180722,0.026528948917984962,0.0062318043783307076,0.9976038336753845,-2.3799357414245605,-27.571487426757812,15.076800346374512,1.1609419584274292,-0.07199639827013016,-0.20398980379104614,1.2091491222381592,0.3977351784706116,0.9783285856246948
213,180731,180732,0.08559901267290115,-0.012867512181401253,0.9920476078987122,13.765416145324707,-29.031911849975586,16.305696487426758,1.1654417514801025,-0.07349632680416107,-0.2174891233444214,1.6376746892929077,0.4700367748737335,1.160426378250122
214,180741,180742,0.07263603806495667,-0.058729320764541626,0.9526816010475159,31.129961013793945,-14.64583969116211,12.061766624450684,1.1609419584274292,-0.07799609750509262,-0.22498874366283417,2.0084586143493652,0.7423581480979919,1.3266956806182861
215,180751,180752,0.02152945101261139,-0.017247822135686874,1.0433261394500732,46.561668395996094,10.53468132019043,4.577406883239746,1.1624418497085571,-0.08249587565660477,-0.21148942410945892,2.044567823410034,1.202986478805542,1.4041234254837036
216,180761,180762,0.03952503576874733,0.03166120499372482,1.082482933998108,52.255699157714844,30.27756118774414,-0.11134994029998779,1.1624418497085571,-0.085495725274086,-0.199490025639534,1.7495280504226685,1.6674091815948486,1.4168262481689453
217,180771,180772,0.045836761593818665,-0.058190323412418365,1.0402545928955078,43.50682830810547,44.503387451171875,-4.650542259216309,1.1564421653747559,-0.08849557489156723,-0.22048896551132202,1.3651803731918335,2.316136121749878,1.3891825675964355
218,180781,180782,0.06690775603055954,0.03975464776158333,1.0493102073669434,32.798866271972656,48.34147644042969,-4.8750901222229,1.1609419584274292,-0.07799609750509262,-0.21598920226097107,0.8578155040740967,2.5851242542266846,1.376813530921936
219,180791,180792,0.13578368723392487,0.0979304313659668,1.0694469213485718,16.098407745361328,44.08894348144531,-6.72830867767334,1.163941740989685,-0.08399579674005508,-0.21298934519290924,0.23046337068080902,3.001150131225586,1.3086167573928833
220,180801,180802,0.082039013504982,-0.004498831927776337,0.9942303895950317,-9.440946578979492,26.35320472717285,-12.429365158081055,1.1504424810409546,-0.06449677050113678,-0.199490025639534,0.14151252806186676,3.104614496231079,1.3105837106704712
221,180811,180812,0.02623581513762474,-0.01709592342376709,0.9839260578155518,-26.21489906311035,4.823486804962158,-18.158065795898438,1.138443112373352,-0.07349632680416107,-0.20248986780643463,-0.12763611972332,2.8201351165771484,1.2072049379348755
222,180821,180822,0.04323621839284897,-0.004356175661087036,0.9676643013954163,-31.87800407409668,-12.176010131835938,-27.0296688079834,1.154942274093628,-0.08399579674005508,-0.20698964595794678,-0.0645550861954689,2.60058856010437,1.0277796983718872
223,180831,180832,0.043107613921165466,-0.0051995739340782166,0.9559847116470337,-38.04046630859375,-19.049989700317383,-35.404396057128906,1.154942274093628,-0.07499624788761139,-0.20398980379104614,0.07913481444120407,2.290109872817993,0.7444172501564026
224,180841,180842,0.030292361974716187,0.03891371563076973,0.9503790736198425,-35.46036911010742,-18.3582820892334,-41.41999053955078,1.154942274093628,-0.08699564635753632,-0.20698964595794678,0.3345229923725128,1.7322131395339966,0.4134691059589386
225,180851,180852,0.028874797746539116,0.01792859472334385,0.9628857970237732,-41.41038131713867,-13.009894371032715,-47.72055435180664,1.1654417514801025,-0.07049647718667984,-0.199490025639534,0.4707558751106262,1.6458356380462646,-0.06022266671061516
226,180861,180862,0.06863723695278168,0.021323980763554573,0.9659565687179565,-46.61250686645508,-10.190372467041016,-51.964256286621094,1.1534422636032104,-0.06749662756919861,-0.2174891233444214,0.5836473703384399,1.0379242897033691,-0.524322509765625
227,180871,180872,0.04016711190342903,-0.023431414738297462,0.9379037022590637,-54.12031173706055,-13.32058048248291,-54.71563720703125,1.1714414358139038,-0.06749662756919861,-0.22048896551132202,0.6820526719093323,0.6355863809585571,-1.0648627281188965
228,180881,180882,0.011196309700608253,0.028893720358610153,0.92784184217453,-63.771636962890625,-7.1411895751953125,-54.78376388549805,1.1594419479370117,-0.07049647718667984,-0.2174891233444214,0.8157802224159241,0.019678380340337753,-1.600746512413025
229,180891,180892,0.0461307093501091,0.05005069077014923,0.9227015376091003,-78.82461547851562,4.475629806518555,-50.022579193115234,1.1729413270950317,-0.05399730056524277,-0.21298934519290924,0.8115860223770142,-0.48679935932159424,-2.168323516845703
230,180901,180902,-0.017314966768026352,-0.0036502548027783632,0.9621711373329163,-87.05610656738281,6.947981834411621,-42.482086181640625,1.1654417514801025,-0.05249737575650215,-0.2174891233444214,0.7994750142097473,-1.390653371810913,-2.640662908554077
231,180911,180912,0.03667348623275757,0.05655975639820099,0.9552382230758667,-79.16374969482422,-1.8257807493209839,-36.40500259399414,1.1669416427612305,-0.05399730056524277,-0.20398980379104614,0.6678017973899841,-2.4378814697265625,-3.0563151836395264
232,180921,180922,0.04060843214392662,0.027391791343688965,0.9967030882835388,-62.10801315307617,-7.154276371002197,-27.167884826660156,1.1654417514801025,-0.058497074991464615,-0.2084895670413971,0.8248711824417114,-2.878953456878662,-3.4264132976531982
233,180931,180932,-0.016067780554294586,0.04060149937868118,1.0090570449829102,-38.22652816772461,-8.946340560913086,-15.081398010253906,1.1669416427612305,-0.0659966990351677,-0.21298934519290924,0.8925419449806213,-3.4593899250030518,-3.6779000759124756
234,180941,180942,0.062171485275030136,0.023928159847855568,0.9876723289489746,-11.718647956848145,-11.742471694946289,-4.164117813110352,1.1654417514801025,-0.04949752241373062,-0.19649016857147217,1.066088318824768,-3.72151255607605,-3.815044641494751
235,180951,180952,-0.025737611576914787,0.021809421479701996,1.056168556213379,14.529134750366211,-10.904735565185547,4.6926422119140625,1.1684415340423584,-0.05549722537398338,-0.20548972487449646,1.1964304447174072,-3.8239452838897705,-3.8342459201812744
236,180961,180962,0.020304972305893898,0.03850501403212547,0.9906798601150513,40.9141960144043,-9.176332473754883,12.90278148651123,1.1624418497085571,-0.05249737575650215,-0.21148942410945892,1.3002876043319702,-3.5656039714813232,-3.7773308753967285
237,180971,180972,0.033930208534002304,0.05067797005176544,1.0062905550003052,59.896846771240234,0.6541077494621277,20.581073760986328,1.1594419479370117,-0.07349632680416107,-0.21448926627635956,1.5440083742141724,-3.0379955768585205,-3.6632654666900635
238,180981,180982,0.023197421804070473,0.0030758099164813757,0.9952571988105774,66.27523803710938,15.585569381713867,24.8385009765625,1.1534422636032104,-0.07949602603912354,-0.21448926627635956,1.450724720954895,-2.2578954696655273,-3.4701428413391113
239,180991,180992,0.0283514354377985,0.009209436364471912,0.9689135551452637,63.329647064208984,28.79608726501465,27.2570743560791,1.1459426879882812,-0.08099594712257385,-0.227988600730896,1.1154742240905762,-1.892065167427063,-3.146634578704834
240,181001,181002,-0.07570520043373108,-0.0402987040579319,0.9804691076278687,48.90227508544922,33.30514907836914,28.943845748901367,1.154942274093628,-0.056997150182724,-0.21298934519290924,0.844327449798584,-1.1719028949737549,-2.90331768989563
241,181011,181012,-0.025707250460982323,-0.02756853774189949,0.9460547566413879,30.638051986694336,37.55634689331055,31.569759368896484,1.1429427862167358,-0.0659966990351677,-0.20398980379104614,0.5469710826873779,-0.6461665630340576,-2.6396124362945557
242,181021,181022,0.013679894618690014,-0.0067208195105195045,0.9069209098815918,8.461898803710938,40.05552291870117,33.42494583129883,1.1444427967071533,-0.07349632680416107,-0.2084895670413971,0.37851765751838684,-0.5825979709625244,-2.3482587337493896
243,181031,181032,-0.06560575217008591,-0.038959190249443054,0.9524257779121399,-0.17695434391498566,33.18533706665039,31.4443416595459,1.138443112373352,-0.06749662756919861,-0.21448926627635956,-0.21533414721488953,-0.5286970734596252,-1.9629706144332886
244,181041,181042,-0.04230855405330658,0.010313198901712894,0.9399738311767578,-5.768162250518799,26.12761688232422,29.493213653564453,1.1579420566558838,-0.0659966990351677,-0.22498874366283417,-0.16158609092235565,-0.5431629419326782,-1.7498912811279297
245,181051,181052,0.06489750742912292,0.06522774696350098,0.9881342649459839,-10.66873836517334,10.77823257446289,26.0103816986084,1.1579420566558838,-0.06899654865264893,-0.2099895030260086,-0.5185379385948181,-0.7637981176376343,-1.4107115268707275
246,181061,181062,0.14221425354480743,0.08460432291030884,1.006143569946289,-10.605796813964844,-0.9978375434875488,20.934066772460938,1.141442894935608,-0.07049647718667984,-0.20248986780643463,-0.48910999298095703,-0.7615312337875366,-1.2038021087646484
247,181071,181072,-0.0028398861177265644,0.019888201728463173,0.9868564009666443,-6.892309188842773,-4.697348594665527,16.2677001953125,1.154942274093628,-0.06899654865264893,-0.2189890444278717,-0.4823096692562103,-0.9575950503349304,-0.9885920286178589
248,181081,181082,-0.017606442794203758,-0.034601423889398575,0.9657741785049438,-3.3756799697875977,-5.25173282623291,12.211539268493652,1.1459426879882812,-0.07499624788761139,-0.20698964595794678,-0.44966569542884827,-0.9506291151046753,-0.8352594375610352
249,181091,181092,-0.09403369575738907,-0.06874500215053558,0.9735087752342224,-0.6628714799880981,0.6187346577644348,8.9195556640625,1.1609419584274292,-0.0659966990351677,-0.21598920226097107,-0.33719074726104736,-1.0262571573257446,-0.7332838773727417
250,181101,181102,0.034350935369729996,-0.01729404181241989,0.9768660664558411,2.0880091190338135,9.745671272277832,5.432635307312012,1.1579420566558838,-0.05999699980020523,-0.21298934519290924,-0.21159610152244568,-0.9845049977302551,-0.6874378323554993
251,181111,181112,0.009815296158194542,-0.08489293605089188,0.9445807337760925,1.7038488388061523,27.028364181518555,5.82692813873291,1.13994300365448,-0.050997450947761536,-0.20098994672298431,-0.4315454065799713,-1.0554314851760864,-0.610676646232605
252,181121,181122,0.006450900807976723,-0.05109701305627823,0.9593089818954468,2.7924587726593018,43.77634048461914,2.5683724880218506,1.1564421653747559,-0.04949752241373062,-0.2174891233444214,-0.7893194556236267,-0.9659846425056458,-0.5548326373100281
253,181131,181132,0.0652833804488182,-0.11203961819410324,1.0556390285491943,-2.021355152130127,58.548099517822266,2.2772984504699707,1.1429427862167358,-0.06299684941768646,-0.2099895030260086,-1.349907398223877,-0.8936123251914978,-0.5177244544029236
254,181141,181142,0.06969774514436722,-0.032528508454561234,1.0765680074691772,-7.249220848083496,65.38241577148438,7.701506614685059,1.141442894935608,-0.06149692460894585,-0.2084895670413971,-1.8429244756698608,-0.9181365966796875,-0.5221464037895203
255,181151,181152,0.10103332996368408,0.1348268985748291,1.0700950622558594,-8.298316955566406,61.14752960205078,12.180291175842285,1.141442894935608,-0.06149692460894585,-0.2084895670413971,-2.697421073913574,-1.0620940923690796,-0.39921507239341736
256,181161,181162,0.09900125861167908,0.12911377847194672,1.0468955039978027,-5.464372158050537,52.975379943847656,12.029417037963867,1.1369431018829346,-0.05399730056524277,-0.2099895030260086,-3.0617926120758057,-1.0703271627426147,-0.33826106786727905
257,181171,181172,0.0858435183763504,0.04262758791446686,1.0249727964401245,-3.5422167778015137,31.1849308013916,9.827144622802734,1.124943733215332,-0.047997597604990005,-0.20098994672298431,-3.519998788833618,-1.0971324443817139,-0.2335944026708603
258,181181,181182,0.07699206471443176,0.05446762964129448,1.1356415748596191,-14.869147300720215,19.21056365966797,7.0286688804626465,1.1294435262680054,-0.04649767279624939,-0.2084895670413971,-3.745953321456909,-1.208264946937561,-0.17366677522659302
259,181191,181192,0.14125044643878937,0.11396551877260208,1.164840579032898,-24.10923194885254,-1.065477967262268,3.1385645866394043,1.1324433088302612,-0.05549722537398338,-0.1904904693365097,-4.049648761749268,-1.4380013942718506,-0.09305194765329361
260,181201,181202,0.22240877151489258,0.20226672291755676,1.0925484895706177,-28.158235549926758,-24.653553009033203,1.2016736268997192,1.1324433088302612,-0.05549722537398338,-0.1904904693365097,-3.8312621116638184,-1.6368703842163086,-0.09170558303594589
261,181211,181212,0.17303553223609924,0.15599298477172852,1.0484932661056519,-37.11651611328125,-33.39971160888672,-2.5306215286254883,1.1324433088302612,-0.05549722537398338,-0.1904904693365097,-3.477530002593994,-2.023223400115967,-0.11252353340387344
262,181221,181222,0.003974591847509146,0.05721181258559227,1.04289710521698,-42.207340240478516,-26.54997444152832,-8.406763076782227,1.138443112373352,-0.04949752241373062,-0.20248986780643463,-3.2066524028778076,-2.454162359237671,-0.13701461255550385
263,181231,181232,-0.11563768982887268,-0.013393143191933632,1.0805518627166748,-29.435178756713867,-12.42011547088623,-9.698381423950195,1.1354432106018066,-0.04949752241373062,-0.20248986780643463,-2.921030044555664,-2.6163196563720703,-0.14621061086654663
264,181241,181242,-0.09557217359542847,-0.02197038009762764,1.0481170415878296,3.0937750339508057,8.83218002319336,-11.226481437683105,1.1219438314437866,-0.03899804875254631,-0.20398980379104614,-2.884963035583496,-2.931628942489624,-0.258821964263916
265,181251,181252,-0.04569929838180542,-0.03562270849943161,0.9907101988792419,47.52318572998047,35.71004104614258,-14.489725112915039,1.123443841934204,-0.03149842470884323,-0.199490025639534,-3.2390832901000977,-2.6931567192077637,-0.29104083776474
266,181261,181262,-0.012900054454803467,-0.03003671020269394,0.9344010353088379,79.61947631835938,51.16933059692383,-16.668222427368164,1.123443841934204,-0.04649767279624939,-0.19349032640457153,-3.68245267868042,-2.0656540393829346,-0.4102858304977417
267,181271,181272,0.008411080576479435,-0.030896008014678955,0.8775292038917542,96.08940887451172,53.364253997802734,-20.629825592041016,1.1174441576004028,-0.04949752241373062,-0.19649016857147217,-4.255787372589111,-1.1797789335250854,-0.5652737617492676
268,181281,181282,0.0598212406039238,0.0620279386639595,0.9292652010917664,84.25028228759766,37.393863677978516,-23.238685607910156,1.1144442558288574,-0.058497074991464615,-0.19649016857147217,-4.740128517150879,-0.3796837627887726,-0.8507930040359497
269,181291,181292,0.06370406597852707,0.0917174369096756,0.9252480268478394,48.412200927734375,1.8313581943511963,-24.017366409301758,1.1069446802139282,-0.06899654865264893,-0.21598920226097107,-4.897365093231201,0.34799420833587646,-1.147676706314087
270,181301,181302,0.03424984961748123,0.03800356760621071,0.8493629097938538,3.829148054122925,-26.907825469970703,-23.9623966217041,1.1024448871612549,-0.05249737575650215,-0.19649016857147217,-4.884066104888916,0.5883222818374634,-1.4541523456573486
271,181311,181312,0.03512603044509888,0.05529499426484108,0.881909191608429,-44.0718879699707,-61.52101516723633,-23.484973907470703,1.124943733215332,-0.050997450947761536,-0.19199039041996002,-4.33314847946167,0.39524659514427185,-1.789313793182373
272,181321,181322,0.10451845079660416,0.11035658419132233,0.8975497484207153,-68.7002944946289,-79.94230651855469,-24.716266632080078,1.1429427862167358,-0.08399579674005508,-0.20098994672298431,-3.5261781215667725,-0.4522170424461365,-2.248528242111206
273,181331,181332,0.09630396962165833,0.12826095521450043,0.9019402265548706,-77.95894622802734,-93.7344741821289,-26.037155151367188,1.1594419479370117,-0.10049497336149216,-0.22048896551132202,-2.5906403064727783,-1.1836732625961304,-2.511768102645874
274,181341,181342,0.024426158517599106,0.09185127168893814,0.931871771812439,-70.90064239501953,-85.34551239013672,-22.095674514770508,1.1744412183761597,-0.0944952741265297,-0.20548972487449646,-1.7088865041732788,-1.941452145576477,-2.709284782409668
275,181351,181352,-0.05762813612818718,0.05780867487192154,0.9437136054039001,-49.75919723510742,-68.83988189697266,-19.913747787475586,1.1729413270950317,-0.08699564635753632,-0.21298934519290924,-1.055527925491333,-2.368908643722534,-2.72416353225708
276,181361,181362,-0.0196492038667202,0.0108723733574152,0.991235613822937,-14.465289115905762,-46.661163330078125,-18.715564727783203,1.1714414358139038,-0.0944952741265297,-0.2084895670413971,0.009544230997562408,-3.0394861698150635,-3.0922677516937256
277,181371,181372,-0.0026061260141432285,0.0032977766823023558,0.9935793876647949,23.203170776367188,-21.684627532958984,-15.980409622192383,1.178941011428833,-0.07799609750509262,-0.20098994672298431,0.13559812307357788,-2.723383903503418,-2.9888648986816406
278,181381,181382,-0.021614979952573776,0.01506640575826168,1.0195988416671753,59.46879577636719,3.699856758117676,-13.660426139831543,1.1564421653747559,-0.06749662756919861,-0.22048896551132202,0.30104801058769226,-2.3981690406799316,-3.1062076091766357
279,181391,181392,0.021864520385861397,0.020931825041770935,1.0183327198028564,82.64374542236328,23.927907943725586,-12.730269432067871,1.1534422636032104,-0.05549722537398338,-0.199490025639534,0.12949420511722565,-1.5489797592163086,-3.1256303787231445
280,181401,181402,0.020506612956523895,0.011371784843504429,1.0200213193893433,88.98947143554688,39.15221405029297,-10.5169038772583,1.1429427862167358,-0.07199639827013016,-0.21298934519290924,-0.2965267300605774,-0.9396714568138123,-3.3002727031707764
281,181411,181412,0.04389007017016411,-0.012947972863912582,0.9912880063056946,80.7709732055664,48.751930236816406,-8.896461486816406,1.1444427967071533,-0.08249587565660477,-0.20248986780643463,-0.8072544932365417,0.22666755318641663,-3.2822985649108887
282,181421,181422,0.01525163184851408,-0.00679627712816,1.0009090900421143,55.686767578125,52.879634857177734,-6.714470863342285,1.1444427967071533,-0.08849557489156723,-0.2084895670413971,-1.2145854234695435,0.5354151725769043,-3.5277419090270996
283,181431,181432,-0.005682341754436493,-0.02529674954712391,1.0232561826705933,23.232345581054688,54.147701263427734,-2.8292016983032227,1.1354432106018066,-0.085495725274086,-0.21148942410945892,-1.6967304944992065,0.9983993172645569,-3.604935646057129
284,181441,181442,0.024103468284010887,-0.014593514613807201,1.0412424802780151,-10.515815734863281,51.16938400268555,-0.4213915467262268,1.1309434175491333,-0.0659966990351677,-0.21298934519290924,-2.476306915283203,1.2930686473846436,-3.5291666984558105
285,181451,181452,0.07419506460428238,0.010637500323355198,1.0673707723617554,-35.263587951660156,43.00455093383789,0.15866275131702423,1.138443112373352,-0.058497074991464615,-0.19649016857147217,-2.593782663345337,1.0376427173614502,-3.6316778659820557
286,181461,181462,0.027568841353058815,-0.04297191649675369,1.0724174976348877,-51.716922760009766,36.714874267578125,1.4619417190551758,1.1309434175491333,-0.06899654865264893,-0.19499024748802185,-3.1833138465881348,0.41875582933425903,-3.659810781478882
287,181471,181472,0.04642709717154503,-0.07748492062091827,1.1270946264266968,-46.99672317504883,27.5308780670166,1.8290140628814697,1.138443112373352,-0.06449677050113678,-0.19649016857147217,-3.4035415649414062,0.04293941333889961,-3.6210527420043945
288,181481,181482,0.06303057074546814,-0.02659112960100174,1.20054292678833,-41.82170104980469,5.857853889465332,0.00991537980735302,1.12644362449646,-0.06149692460894585,-0.199490025639534,-3.498190402984619,-0.5911442637443542,-3.6809608936309814
289,181491,181492,0.0012787042651325464,-0.059585344046354294,1.154665231704712,-32.815574645996094,-19.13201904296875,-3.743220090866089,1.1294435262680054,-0.05249737575650215,-0.20548972487449646,-3.536215305328369,-0.9158778190612793,-3.6593539714813232
290,181501,181502,0.04588722437620163,-0.03573514521121979,1.0829949378967285,-20.339731216430664,-29.134546279907227,-6.991183757781982,1.1279436349868774,-0.06899654865264893,-0.20398980379104614,-3.173707962036133,-1.2288556098937988,-3.712193489074707
291,181511,181512,0.142744779586792,0.09963686019182205,1.0132142305374146,-17.65074920654297,-39.28276443481445,-11.344064712524414,1.1324433088302612,-0.06149692460894585,-0.20248986780643463,-2.580906391143799,-1.5067795515060425,-3.835848569869995
292,181521,181522,0.14746470749378204,0.15183423459529877,0.9663529992103577,-7.7688517570495605,-51.26853561401367,-17.5452938079834,1.1219438314437866,-0.05999699980020523,-0.20398980379104614,-2.291656970977783,-1.5030440092086792,-3.885136127471924
293,181531,181532,-0.012751391157507896,0.07042139768600464,0.928911030292511,-0.3400707244873047,-42.120849609375,-22.72207260131836,1.1354432106018066,-0.06449677050113678,-0.199490025639534,-1.8233568668365479,-1.4814471006393433,-4.027340412139893
294,181541,181542,-0.15450894832611084,-0.03730947896838188,0.9828691482543945,5.894674777984619,-13.214705467224121,-21.509349822998047,1.1369431018829346,-0.047997597604990005,-0.19799008965492249,-1.272817850112915,-1.6621922254562378,-4.317629337310791
295,181551,181552,0.02834988757967949,0.06598632037639618,1.0476861000061035,8.289944648742676,25.33441925048828,-17.77577018737793,1.1219438314437866,-0.03899804875254631,-0.18599069118499756,-1.2922332286834717,-1.5008487701416016,-4.48540735244751
296,181561,181562,0.078820139169693,0.0754443034529686,1.0559823513031006,4.768712043762207,49.793800354003906,-8.4703950881958,1.123443841934204,-0.03149842470884323,-0.19649016857147217,-1.8803797960281372,-1.3378382921218872,-4.592406749725342
297,181571,181572,0.08132769167423248,0.040901996195316315,1.0299972295761108,12.907724380493164,47.55274963378906,2.431694507598877,1.111444354057312,-0.04649767279624939,-0.199490025639534,-2.198611259460449,-1.396074652671814,-4.734930038452148
298,181581,181582,0.09259441494941711,0.07596852630376816,1.0827853679656982,21.690155029296875,36.89443588256836,11.711181640625,1.111444354057312,-0.03149842470884323,-0.199490025639534,-2.7916171550750732,-1.1257126331329346,-4.646954536437988
299,181591,181592,0.07845722138881683,0.030504636466503143,1.035620927810669,33.56488037109375,30.07457733154297,15.114909172058105,1.1219438314437866,-0.044997747987508774,-0.20698964595794678,-3.3106696605682373,-0.8697057366371155,-4.5071492195129395
300,181601,181602,0.06723570078611374,0.028566688299179077,1.025093913078308,26.752382278442383,17.746843338012695,17.31041145324707,1.123443841934204,-0.05249737575650215,-0.18749062716960907,-3.550206422805786,-0.4330587387084961,-4.327465057373047
301,181611,181612,0.1206163838505745,0.00011689493840094656,1.021671175956726,25.45269203186035,18.218019485473633,19.064470291137695,1.1129443645477295,-0.05999699980020523,-0.18599069118499756,-3.611884832382202,-0.2397606521844864,-4.193559646606445
302,181621,181622,0.1818259209394455,0.05809518322348595,1.0742141008377075,32.86476135253906,31.52648162841797,20.37202262878418,1.1219438314437866,-0.05999699980020523,-0.20398980379104614,-3.882150888442993,-0.03143694996833801,-4.016422748565674
303,181631,181632,0.17433525621891022,0.07881350070238113,1.0524641275405884,32.37482452392578,31.455123901367188,19.702266693115234,1.1129443645477295,-0.047997597604990005,-0.19799008965492249,-4.328934192657471,0.4323113262653351,-3.756134271621704
304,181641,181642,0.1349770724773407,0.054419659078121185,1.1040303707122803,36.70735168457031,24.257291793823242,17.79184341430664,1.1024448871612549,-0.06449677050113678,-0.21148942410945892,-4.572495460510254,0.7357968688011169,-3.5810296535491943
305,181651,181652,0.09364526718854904,-0.006251652725040913,1.088385820388794,36.05601501464844,12.96788501739502,14.691164016723633,1.109944462776184,-0.056997150182724,-0.18599069118499756,-4.8327531814575195,1.249026894569397,-3.3479864597320557
306,181661,181662,0.048569273203611374,-0.01687098667025566,1.00070059299469,25.429487228393555,-8.921165466308594,13.897953033447266,1.1024448871612549,-0.07049647718667984,-0.18449077010154724,-4.91743278503418,1.5110794305801392,-3.247048854827881
307,181671,181672,0.06537735462188721,0.009433683007955551,1.010949730873108,1.0693269968032837,-31.586488723754883,16.402482986450195,1.1204439401626587,-0.06449677050113678,-0.1904904693365097,-4.714908123016357,1.6755768060684204,-3.1364214420318604
308,181681,181682,0.07863583415746689,-0.01924348622560501,0.9860097765922546,-13.046393394470215,-45.44910430908203,18.920080184936523,1.1174441576004028,-0.07949602603912354,-0.18449077010154724,-4.11559534072876,1.535703420639038,-3.039635419845581
309,181691,181692,0.08246052265167236,-0.021768223494291306,0.9855701923370361,-19.483234405517578,-51.735748291015625,22.563566207885742,1.1219438314437866,-0.07499624788761139,-0.20398980379104614,-3.525106430053711,0.8572494387626648,-3.104011297225952
310,181701,181702,-0.035014037042856216,-0.07642058283090591,1.0446810722351074,-5.500679969787598,-51.590667724609375,22.4747314453125,1.1324433088302612,-0.07049647718667984,-0.19649016857147217,-3.0156829357147217,1.0386483669281006,-2.7252297401428223
311,181711,181712,0.032834965735673904,-0.026332847774028778,1.0741264820098877,11.518562316894531,-47.785884857177734,20.670167922973633,1.1159441471099854,-0.06299684941768646,-0.20398980379104614,-2.783935785293579,1.0049251317977905,-2.5420749187469482
312,181721,181722,0.10298413038253784,-0.05314460024237633,0.9969764947891235,25.5980281829834,-48.99247741699219,17.839200973510742,1.1354432106018066,-0.058497074991464615,-0.199490025639534,-2.3234267234802246,1.3426790237426758,-2.2683284282684326
313,181731,181732,0.0956190750002861,-0.014770097099244595,0.9431252479553223,31.10861587524414,-39.572669982910156,12.411457061767578,1.141442894935608,-0.05549722537398338,-0.199490025639534,-1.7206567525863647,1.5575261116027832,-2.120664596557617
314,181741,181742,0.12003592401742935,0.11003625392913818,0.9983819127082825,31.020145416259766,-34.90538024902344,10.432113647460938,1.13994300365448,-0.06299684941768646,-0.19199039041996002,-1.5853937864303589,1.8667529821395874,-2.054884195327759
315,181751,181752,0.14349205791950226,0.1652764081954956,0.9921009540557861,27.569005966186523,-32.92050552368164,9.441908836364746,1.1309434175491333,-0.056997150182724,-0.20698964595794678,-1.0487300157546997,2.0678651332855225,-1.9799516201019287
316,181761,181762,0.046911291778087616,-0.007295288145542145,0.9065581560134888,20.182825088500977,-36.32530212402344,7.956522464752197,1.1204439401626587,-0.05549722537398338,-0.1904904693365097,-0.9898862242698669,2.4673912525177,-1.8946640491485596
317,181771,181772,0.09137298911809921,-0.0032975857611745596,0.8781055808067322,4.15716028213501,-34.527687072753906,4.072448253631592,1.12644362449646,-0.058497074991464615,-0.20248986780643463,-0.540377676486969,2.425842046737671,-1.8878170251846313
318,181781,181782,0.055890679359436035,0.03470427915453911,0.9435606598854065,-15.803619384765625,-31.225412368774414,-0.6658036708831787,1.141442894935608,-0.05549722537398338,-0.1904904693365097,-0.34075701236724854,2.192619800567627,-1.968851923942566
319,181791,181792,0.11751417815685272,0.05352214723825455,0.9387081861495972,-26.27838134765625,-37.594852447509766,-1.1610877513885498,1.1459426879882812,-0.05399730056524277,-0.19499024748802185,0.06227293983101845,2.244166374206543,-1.9137179851531982
320,181801,181802,0.028672687709331512,0.007578425575047731,0.8630794882774353,-39.504573822021484,-48.24227523803711,-0.5471621155738831,1.154942274093628,-0.07199639827013016,-0.19499024748802185,0.5196335315704346,1.9767183065414429,-1.9223166704177856
321,181811,181812,-0.0008316674502566457,0.02005895785987377,0.849539577960968,-45.586639404296875,-55.08755874633789,0.21457898616790771,1.1504424810409546,-0.05549722537398338,-0.199490025639534,0.7322444319725037,1.4622135162353516,-2.0349483489990234
322,181821,181822,0.055620480328798294,0.18263569474220276,0.8789092302322388,-41.06764221191406,-57.38536834716797,-1.855412483215332,1.1609419584274292,-0.07199639827013016,-0.19499024748802185,1.4342515468597412,0.9288674592971802,-2.0122127532958984
323,181831,181832,0.06943564116954803,0.13859926164150238,0.8515787720680237,-21.28840446472168,-66.3245849609375,-6.630057334899902,1.1714414358139038,-0.08249587565660477,-0.21148942410945892,1.9020421504974365,0.6867636442184448,-2.0683810710906982
324,181841,181842,0.034500837326049805,0.03649452328681946,0.8527137637138367,7.780221462249756,-58.48011016845703,-6.147744178771973,1.1669416427612305,-0.0659966990351677,-0.22198890149593353,2.6681034564971924,0.645977795124054,-2.0959839820861816
325,181851,181852,0.05077291652560234,-0.0019320145947858691,0.8698522448539734,31.187410354614258,-52.133670806884766,-5.774341583251953,1.1834408044815063,-0.07349632680416107,-0.21448926627635956,3.3476903438568115,0.8804478049278259,-2.1432812213897705
326,181861,181862,0.061700768768787384,0.007084409240633249,0.9322079420089722,48.23704147338867,-51.62546157836914,-5.997450828552246,1.1729413270950317,-0.09899504482746124,-0.22498874366283417,3.6806483268737793,1.2940951585769653,-2.2798268795013428
327,181871,181872,0.1317831426858902,0.1582120805978775,0.9096434116363525,49.18690872192383,-48.855735778808594,-6.508847236633301,1.1744412183761597,-0.10349482297897339,-0.22348882257938385,4.296143054962158,1.9246379137039185,-2.347076177597046
328,181881,181882,0.062270816415548325,0.12613050639629364,0.8806565403938293,39.55014419555664,-34.78834915161133,-5.6378631591796875,1.178941011428833,-0.08699564635753632,-0.2369881421327591,4.499855041503906,2.1651453971862793,-2.428662061691284
329,181891,181892,-0.06122250482439995,-0.14856410026550293,0.8987180590629578,19.89162254333496,-12.951441764831543,-5.61467170715332,1.1849406957626343,-0.09599519520998001,-0.23098844289779663,5.046984672546387,2.409632682800293,-2.3934805393218994
330,181901,181902,-0.0342198871076107,-0.12962761521339417,0.9213895201683044,-2.684837579727173,-0.7878215909004211,-4.802417278289795,1.1744412183761597,-0.0764961764216423,-0.24448777735233307,5.017187118530273,2.6580402851104736,-2.5354652404785156
331,181911,181912,0.02802233211696148,0.09885609894990921,0.8832902908325195,-30.17299461364746,7.252675533294678,-4.302506446838379,1.1714414358139038,-0.09149542450904846,-0.2084895670413971,4.993555068969727,2.5261600017547607,-2.565095901489258
332,181921,181922,0.002895090263336897,0.09476044774055481,0.8651381134986877,-48.00201416015625,15.843890190124512,-5.339038848876953,1.1834408044815063,-0.0764961764216423,-0.23248836398124695,4.802128314971924,2.129084348678589,-2.601745367050171
333,181931,181932,-0.09111472964286804,0.015193437226116657,0.8157112002372742,-54.57144546508789,33.299198150634766,-7.131306171417236,1.1849406957626343,-0.08999549597501755,-0.23098844289779663,4.531990051269531,1.6917911767959595,-2.704139232635498
334,181941,181942,-0.052723128348588943,-0.020615767687559128,0.9336956143379211,-55.61952590942383,49.750213623046875,-7.280290126800537,1.1729413270950317,-0.08099594712257385,-0.22198890149593353,4.06698751449585,0.8808071613311768,-2.646257162094116
335,181951,181952,0.06861639022827148,0.0407569594681263,0.9738831520080566,-50.615264892578125,58.98688888549805,-9.816264152526855,1.1699414253234863,-0.07199639827013016,-0.23998799920082092,3.621549606323242,0.5255588889122009,-2.8174867630004883
336,181961,181962,0.04752399027347565,0.034818634390830994,0.9979667067527771,-37.526065826416016,59.459877014160156,-7.8744049072265625,1.1714414358139038,-0.07049647718667984,-0.21148942410945892,2.7730538845062256,0.055405136197805405,-2.9960243701934814
337,181971,181972,0.038083530962467194,0.027989184483885765,1.0408788919448853,-18.622196197509766,51.84524917602539,-5.139360427856445,1.1699414253234863,-0.07799609750509262,-0.2189890444278717,2.0348989963531494,-0.17443864047527313,-3.190786838531494
338,181981,181982,0.07302924990653992,0.04197162762284279,1.0456066131591797,-0.33372509479522705,31.2045955657959,-4.2860589027404785,1.1714414358139038,-0.085495725274086,-0.22048896551132202,1.8253954648971558,-0.3110017478466034,-3.1654598712921143
339,181991,181992,0.14073900878429413,0.216838538646698,1.1061009168624878,0.7091472744941711,2.0407207012176514,-0.15170499682426453,1.180440902709961,-0.0764961764216423,-0.21448926627635956,1.4610247611999512,-0.2090262621641159,-3.295140266418457
340,182001,182002,0.032528236508369446,0.08504954725503922,1.0915508270263672,-2.704622983932495,-33.51075744628906,1.364905834197998,1.1759412288665771,-0.09599519520998001,-0.22198890149593353,1.6815369129180908,-0.18671852350234985,-3.2593839168548584
341,182011,182012,0.040525611490011215,0.013888144865632057,1.0549733638763428,0.1627143919467926,-51.79430389404297,2.227928638458252,1.1834408044815063,-0.10349482297897339,-0.22048896551132202,2.338026762008667,-0.21513788402080536,-3.17268443107605
342,182021,182022,0.05493645742535591,0.03580344468355179,1.0312174558639526,-3.979966402053833,-55.60261917114258,5.935588359832764,1.1834408044815063,-0.0944952741265297,-0.22048896551132202,2.890713691711426,-0.21623550355434418,-3.1460509300231934
343,182031,182032,0.043918680399656296,0.014026899822056293,1.0360910892486572,-7.72562313079834,-43.7435417175293,9.360682487487793,1.1834408044815063,-0.10049497336149216,-0.2384880781173706,3.5034172534942627,-0.2857796847820282,-3.047424554824829
344,182041,182042,0.003769286908209324,0.03325720131397247,1.0487563610076904,-6.6561174392700195,-23.854503631591797,10.962708473205566,1.1834408044815063,-0.10049497336149216,-0.2384880781173706,4.014727592468262,-0.40833479166030884,-2.9004440307617188
345,182051,182052,0.0453670434653759,0.11524248123168945,1.126585602760315,7.340668201446533,7.864871501922607,10.829024314880371,1.1834408044815063,-0.10049497336149216,-0.2384880781173706,4.085748195648193,-0.4765067994594574,-2.7987782955169678
346,182061,182062,-0.0421140193939209,-0.01961342617869377,1.128463864326477,28.88629150390625,34.23930740356445,9.452703475952148,1.180440902709961,-0.06749662756919861,-0.23248836398124695,3.820384979248047,-0.3384751081466675,-2.7375736236572266
347,182071,182072,-0.05682618170976639,-0.054960787296295166,1.0921622514724731,40.41006851196289,45.426612854003906,8.808517456054688,1.1699414253234863,-0.07199639827013016,-0.227988600730896,3.4929144382476807,0.04377202317118645,-2.6976990699768066
348,182081,182082,0.06921608000993729,0.04681462049484253,1.0215686559677124,41.187538146972656,38.626060485839844,7.372426986694336,1.1699414253234863,-0.07499624788761139,-0.227988600730896,2.9158377647399902,0.6467900276184082,-2.7671921253204346
349,182091,182092,0.09159054607152939,0.0035705454647541046,0.9858152270317078,38.845664978027344,28.90603256225586,6.970862865447998,1.1699414253234863,-0.06299684941768646,-0.22498874366283417,2.6072001457214355,0.9569220542907715,-2.6080679893493652
350,182101,182102,0.011703495867550373,-0.03094329871237278,0.9686535000801086,16.82940101623535,14.96848201751709,5.16293478012085,1.1489425897598267,-0.0659966990351677,-0.21598920226097107,2.454411506652832,1.113338828086853,-2.3773603439331055
351,182111,182112,0.06401961296796799,0.07041294872760773,0.9721196293830872,-17.29098129272461,2.5871481895446777,5.259924411773682,1.1669416427612305,-0.08099594712257385,-0.22198890149593353,2.3828701972961426,1.2519786357879639,-2.3557307720184326
352,182121,182122,0.026867534965276718,0.036914579570293427,1.0174165964126587,-31.674386978149414,-8.359227180480957,6.894255638122559,1.1714414358139038,-0.07049647718667984,-0.21448926627635956,2.377992868423462,0.8871368169784546,-2.1934189796447754
353,182131,182132,0.0715809240937233,0.007011678069829941,1.02179753780365,-27.80775260925293,-20.33500862121582,7.371365070343018,1.1729413270950317,-0.07199639827013016,-0.22498874366283417,2.469276189804077,0.4625805616378784,-2.050506114959717
354,182141,182142,0.13264645636081696,0.04831560701131821,1.0489232540130615,-15.097434997558594,-25.86038589477539,6.167606830596924,1.1759412288665771,-0.08699564635753632,-0.21298934519290924,2.820894718170166,0.299770325422287,-2.0299630165100098
355,182151,182152,-0.29577118158340454,0.03120499476790428,1.0099643468856812,0.9411804676055908,-31.850509643554688,6.044784069061279,1.1834408044815063,-0.08249587565660477,-0.2174891233444214,3.092879295349121,0.21599704027175903,-1.9895673990249634
356,182161,182162,-0.016888219863176346,0.0591154545545578,1.0563687086105347,16.147140502929688,-27.0211238861084,4.0622477531433105,1.1654417514801025,-0.07349632680416107,-0.2084895670413971,3.3975799083709717,0.42689037322998047,-2.055696964263916
357,182171,182172,0.06594551354646683,0.02728576958179474,1.0520557165145874,30.217653274536133,-17.501577377319336,1.9003050327301025,1.1864407062530518,-0.07949602603912354,-0.21448926627635956,3.7652359008789062,0.46552255749702454,-1.907530665397644
358,182181,182182,0.11613722890615463,0.123585544526577,1.0222569704055786,28.59713363647461,14.197836875915527,2.0157124996185303,1.1849406957626343,-0.08399579674005508,-0.2099895030260086,3.8338563442230225,0.9225488901138306,-1.9992594718933105
359,182191,182192,0.18531787395477295,0.2857434153556824,1.0087316036224365,21.43120002746582,62.164920806884766,8.409158706665039,1.178941011428833,-0.07799609750509262,-0.2099895030260086,3.315936803817749,1.0649769306182861,-1.8889329433441162
360,182201,182202,0.012471630237996578,0.13417112827301025,1.0516849756240845,22.831417083740234,107.14642333984375,12.014863967895508,1.1654417514801025,-0.07349632680416107,-0.2294885218143463,2.3266544342041016,1.4333410263061523,-1.904506802558899
361,182211,182212,-0.090861476957798,-0.03760752081871033,1.0073137283325195,24.962717056274414,133.29000854492188,14.491463661193848,1.1579420566558838,-0.07799609750509262,-0.22198890149593353,0.9189799427986145,1.728843092918396,-1.8125557899475098
362,182221,182222,0.029687482863664627,-0.032540492713451385,1.0439904928207397,19.663911819458008,163.32838439941406,13.711613655090332,1.1624418497085571,-0.0764961764216423,-0.2084895670413971,-0.06749797612428665,1.8548628091812134,-1.5053833723068237
363,182231,182232,0.07908420264720917,-0.00038532522739842534,1.0696154832839966,7.0122222900390625,163.16941833496094,10.01223087310791,1.1444427967071533,-0.07049647718667984,-0.19649016857147217,-2.0777010917663574,2.0522549152374268,-1.3682138919830322
364,182241,182242,0.09631449729204178,-0.04144364595413208,1.0905731916427612,-3.101654529571533,152.0261688232422,8.65308952331543,1.1354432106018066,-0.0764961764216423,-0.21448926627635956,-3.3008852005004883,2.1382970809936523,-1.1868681907653809
365,182251,182252,0.09749951958656311,-0.048645325005054474,1.1711273193359375,-8.763023376464844,131.0792999267578,8.976544380187988,1.1219438314437866,-0.07199639827013016,-0.20098994672298431,-5.024191856384277,2.039158582687378,-1.0495619773864746
366,182261,182262,0.10954701155424118,0.01459607481956482,1.1603353023529053,-6.726535797119141,93.7210922241211,8.463494300842285,1.1159441471099854,-0.056997150182724,-0.20698964595794678,-5.881629467010498,1.8514881134033203,-0.8244011998176575
367,182271,182272,0.13477106392383575,-0.03321604058146477,0.9996002912521362,-13.126291275024414,49.91545104980469,8.433695793151855,1.1084445714950562,-0.07049647718667984,-0.20548972487449646,-6.947965145111084,1.8707985877990723,-0.7708165645599365
368,182281,182282,0.16763339936733246,0.030228931456804276,1.014827013015747,-22.225683212280273,5.546306133270264,9.209806442260742,1.0979450941085815,-0.06299684941768646,-0.18299084901809692,-7.425750732421875,1.6222926378250122,-0.6722450256347656
369,182291,182292,0.08409547060728073,-0.001901826006360352,0.9650824666023254,-30.46575355529785,-40.79063415527344,12.122525215148926,1.0934453010559082,-0.06449677050113678,-0.20248986780643463,-7.1025261878967285,1.4904160499572754,-0.5273475646972656
370,182301,182302,0.08098524063825607,-0.058268819004297256,0.9564729928970337,-23.605371475219727,-86.49073791503906,7.294594764709473,1.1129443645477295,-0.050997450947761536,-0.19799008965492249,-6.495095729827881,1.0792590379714966,-0.4274898171424866
371,182311,182312,0.09482352435588837,-0.06343346834182739,0.9508777260780334,-6.0589070320129395,-109.12713623046875,-0.5600695013999939,1.123443841934204,-0.08849557489156723,-0.1904904693365097,-5.742743492126465,1.047056794166565,-0.38973671197891235
372,182321,182322,0.11913477629423141,0.04088261350989342,0.9188816547393799,4.234007835388184,-122.28502655029297,-2.7364211082458496,1.1309434175491333,-0.07499624788761139,-0.19799008965492249,-4.240050792694092,1.0630500316619873,-0.3422439694404602
373,182331,182332,0.18553027510643005,0.07013189792633057,0.8911111950874329,1.0312596559524536,-125.49636840820312,-2.0636820793151855,1.138443112373352,-0.10049497336149216,-0.2084895670413971,-2.7909345626831055,1.2303705215454102,-0.31323888897895813
374,182341,182342,0.0031918592285364866,-0.051813170313835144,0.8779059648513794,1.9944069385528564,-109.54600524902344,-7.46282958984375,1.1519423723220825,-0.08699564635753632,-0.20698964595794678,-2.0921475887298584,1.1235640048980713,-0.5007382035255432
375,182351,182352,-0.034597694873809814,-0.12588390707969666,0.9345664978027344,-8.814619064331055,-76.93710327148438,-10.04239559173584,1.13994300365448,-0.08099594712257385,-0.2099895030260086,-0.753152072429657,1.0801401138305664,-0.5619375109672546
376,182361,182362,-0.050244513899087906,-0.03539658710360527,0.9664358496665955,-31.597990036010742,-48.5953254699707,-15.226573944091797,1.1459426879882812,-0.07199639827013016,-0.19499024748802185,-0.4419878125190735,0.8903576731681824,-0.7756990194320679
377,182371,182372,0.010569384321570396,0.06226155161857605,0.9133344292640686,-46.48130798339844,-20.34939956665039,-16.305736541748047,1.1504424810409546,-0.05249737575650215,-0.20548972487449646,-0.013638714328408241,0.42629894614219666,-0.9770205020904541
378,182381,182382,0.0069643473252654076,0.03815960884094238,0.8285956382751465,-45.541072845458984,6.0903496742248535,-17.5252628326416,1.138443112373352,-0.058497074991464615,-0.199490025639534,0.07108098268508911,0.1879860758781433,-1.0695444345474243
379,182391,182392,-0.013199860230088234,0.05499974638223648,0.7672675251960754,-37.29420852661133,13.179488182067871,-22.020978927612305,1.1489425897598267,-0.05999699980020523,-0.21598920226097107,-0.055804621428251266,-0.34350791573524475,-1.290419340133667
380,182401,182402,-0.011474902741611004,-0.01833532191812992,0.8489917516708374,-25.009624481201172,19.587982177734375,-23.852968215942383,1.1354432106018066,-0.05249737575650215,-0.20548972487449646,-0.1655210703611374,-0.8471130132675171,-1.5580686330795288
381,182411,182412,0.1587589830160141,0.13599997758865356,0.9240562915802002,-10.427964210510254,19.98856544494629,-25.049217224121094,1.1474425792694092,-0.04349782317876816,-0.21148942410945892,-0.43758857250213623,-0.925993025302887,-1.7748302221298218
382,182421,182422,0.14732147753238678,0.11820165067911148,0.9260824918746948,6.164688587188721,5.845991134643555,-27.451263427734375,1.1474425792694092,-0.04949752241373062,-0.2174891233444214,-0.6917528510093689,-0.9572011232376099,-2.0348563194274902
383,182431,182432,-0.030228905379772186,-0.08940429240465164,0.9408784508705139,22.402223587036133,-7.897876739501953,-29.847537994384766,1.154942274093628,-0.07799609750509262,-0.2099895030260086,-0.6905797719955444,-0.8141279220581055,-2.300837278366089
384,182441,182442,0.00880820769816637,-0.07318071275949478,0.9393619298934937,24.44733428955078,-34.70591354370117,-27.904356002807617,1.1654417514801025,-0.08249587565660477,-0.21448926627635956,-0.3201081156730652,-0.4617990553379059,-2.558870792388916
385,182451,182452,-0.05458903685212135,-0.059203702956438065,0.9254727363586426,22.367658615112305,-63.343929290771484,-26.914562225341797,1.1519423723220825,-0.09599519520998001,-0.2099895030260086,0.40883174538612366,-0.09708715230226517,-2.8037092685699463
386,182461,182462,-0.05961811915040016,-0.04016190022230148,0.9795400500297546,9.096211433410645,-67.3157958984375,-25.66657066345215,1.1654417514801025,-0.10049497336149216,-0.22048896551132202,1.0138540267944336,-0.06248122826218605,-3.1006240844726562
387,182471,182472,-0.012187469750642776,-0.06956882029771805,0.9730144739151001,0.5514233112335205,-66.94322204589844,-25.079999923706055,1.178941011428833,-0.113994300365448,-0.2189890444278717,1.5010772943496704,-0.05465641990303993,-3.363237142562866
388,182481,182482,-0.019645726308226585,-0.03062518499791622,0.8227918744087219,-0.5789697766304016,-51.021080017089844,-25.36354637145996,1.1894404888153076,-0.10349482297897339,-0.23548822104930878,2.067833662033081,-0.09653569012880325,-3.618670701980591
389,182491,182492,0.0743408277630806,0.05866968259215355,0.9063012003898621,-9.333209991455078,-38.47058868408203,-22.073869705200195,1.1759412288665771,-0.09599519520998001,-0.2189890444278717,2.7748944759368896,-0.13991360366344452,-3.8780808448791504
390,182501,182502,0.12664411962032318,0.04623677209019661,1.0517497062683105,-14.328873634338379,-24.231813430786133,-17.425127029418945,1.1849406957626343,-0.09599519520998001,-0.22198890149593353,2.8170852661132812,-0.31092679500579834,-4.077655792236328
391,182511,182512,-0.10791604220867157,-0.05610297620296478,1.024364709854126,-5.125979900360107,-1.2733598947525024,-13.619728088378906,1.1879405975341797,-0.09599519520998001,-0.22498874366283417,3.1006929874420166,-0.5232884287834167,-4.244753360748291
392,182521,182522,-0.26018035411834717,-0.07007291167974472,0.9930152297019958,6.094733238220215,27.15964126586914,-12.442164421081543,1.1969401836395264,-0.10199490189552307,-0.227988600730896,2.9918389320373535,-0.5685338973999023,-4.375248908996582
393,182531,182532,0.05816783383488655,0.03512469679117203,1.0211429595947266,10.624509811401367,46.42979431152344,-10.394001960754395,1.180440902709961,-0.09149542450904846,-0.22648866474628448,2.5867550373077393,-0.4193990230560303,-4.496188640594482
394,182541,182542,0.24083808064460754,0.14493955671787262,0.9027308821678162,12.768329620361328,58.142181396484375,-8.816678047180176,1.1714414358139038,-0.0944952741265297,-0.2294885218143463,1.8295314311981201,0.06398943811655045,-4.618627071380615
395,182551,182552,0.19291989505290985,0.15875567495822906,0.8984335660934448,5.243194103240967,67.07987976074219,-6.71949577331543,1.1834408044815063,-0.10949452221393585,-0.24148792028427124,1.4434678554534912,-0.012054909951984882,-4.693053245544434
396,182561,182562,0.059602707624435425,0.031060567125678062,1.0043829679489136,-18.25853157043457,57.39598846435547,-0.0047444975934922695,1.1819409132003784,-0.10199490189552307,-0.2189890444278717,0.8268216252326965,-0.02467315085232258,-4.7463507652282715
397,182571,182572,0.052072279155254364,0.02059374377131462,1.0519505739212036,-42.558773040771484,39.50315856933594,8.143712043762207,1.1684415340423584,-0.09749512374401093,-0.2294885218143463,0.27974045276641846,-0.4793545603752136,-4.696329593658447
398,182581,182582,0.1293446570634842,0.08551380038261414,1.1175874471664429,-50.84761047363281,9.595868110656738,15.595841407775879,1.1744412183761597,-0.08849557489156723,-0.21148942410945892,0.15951749682426453,-1.0330339670181274,-4.603254795074463
399,182591,182592,0.0730256736278534,0.020728131756186485,1.1352221965789795,-31.235490798950195,-12.77587604522705,19.2232608795166,1.177441120147705,-0.10049497336149216,-0.23248836398124695,0.11217755079269409,-1.504366159439087,-4.438190937042236
400,182601,182602,0.049871888011693954,-0.07247855514287949,1.0855809450149536,5.845987796783447,-22.04131507873535,21.676986694335938,1.177441120147705,-0.10949452221393585,-0.22648866474628448,0.4028005003929138,-1.5798425674438477,-4.270390510559082
401,182611,182612,0.15398715436458588,0.06515533477067947,1.1424086093902588,30.441883087158203,-38.722434997558594,21.24419593811035,1.1714414358139038,-0.10649467259645462,-0.22348882257938385,0.7228508591651917,-1.3618289232254028,-4.07072639465332
402,182621,182622,0.0688948780298233,0.01789785735309124,1.117692470550537,32.00678253173828,-48.05768585205078,20.94920539855957,1.193940281867981,-0.11999399960041046,-0.24298784136772156,1.1147308349609375,-0.8359490036964417,-3.8813631534576416
403,182631,182632,-0.0028008907102048397,0.015082365833222866,1.1079707145690918,18.745874404907227,-47.570186614990234,20.40552520751953,1.1849406957626343,-0.11999399960041046,-0.23098844289779663,1.7447324991226196,-0.7456747889518738,-3.654874563217163
404,182641,182642,-0.011112374253571033,0.0006445326725952327,1.0164852142333984,8.782079696655273,-24.741352081298828,16.699106216430664,1.1819409132003784,-0.11099445074796677,-0.22498874366283417,2.181433916091919,-0.645821750164032,-3.4403493404388428
405,182651,182652,-0.04747113958001137,-0.10413224250078201,1.0309864282608032,0.9656263589859009,2.6580352783203125,10.906712532043457,1.1714414358139038,-0.085495725274086,-0.2384880781173706,2.1988613605499268,-0.4766133427619934,-3.279698610305786
406,182661,182662,0.004962744656950235,-0.0958407074213028,1.0388442277908325,0.7046290636062622,20.799402236938477,7.674318790435791,1.1594419479370117,-0.07949602603912354,-0.22648866474628448,2.050576686859131,-0.5547428727149963,-3.1481120586395264
407,182671,182672,-0.05151937156915665,-0.17921578884124756,1.0767062902450562,8.218647003173828,20.83167266845703,4.346562385559082,1.1579420566558838,-0.08099594712257385,-0.21298934519290924,2.034071922302246,-0.46146953105926514,-3.1291356086730957
408,182681,182682,-0.03747071698307991,-0.06426861137151718,1.0732946395874023,24.284244537353516,18.60495376586914,2.365708827972412,1.1654417514801025,-0.09149542450904846,-0.2084895670413971,1.6882046461105347,-0.2602774202823639,-3.085364580154419
409,182691,182692,-0.1210080161690712,-0.06813357025384903,1.028715968132019,31.230714797973633,14.934440612792969,-4.0373663902282715,1.1669416427612305,-0.07499624788761139,-0.20698964595794678,1.3980000019073486,0.07986180484294891,-3.072908878326416
410,182701,182702,-0.025738928467035294,-0.051218431442976,1.0718032121658325,29.244661331176758,14.727724075317383,-8.117993354797363,1.1729413270950317,-0.08999549597501755,-0.2189890444278717,1.306406021118164,0.5793461799621582,-3.1736702919006348
411,182711,182712,0.1549706757068634,0.17656300961971283,1.0715998411178589,10.88469123840332,19.09693145751953,-11.319486618041992,1.178941011428833,-0.08099594712257385,-0.21598920226097107,1.1080654859542847,0.9457048177719116,-3.2853615283966064
412,182721,182722,0.15812912583351135,0.11456254869699478,1.0652624368667603,-12.132956504821777,21.39084243774414,-14.812329292297363,1.1474425792694092,-0.07349632680416107,-0.22048896551132202,0.9407817721366882,0.63157719373703,-3.3120439052581787
413,182731,182732,0.07923033088445663,-0.02416735701262951,1.026155948638916,-21.502086639404297,24.23741912841797,-18.64417839050293,1.1564421653747559,-0.07349632680416107,-0.2084895670413971,0.5483973026275635,0.34480032324790955,-3.4150285720825195
414,182741,182742,0.0785575732588768,-0.034301161766052246,1.0723553895950317,-31.83930206298828,11.252443313598633,-23.885238647460938,1.13994300365448,-0.05999699980020523,-0.21298934519290924,0.4518241286277771,0.2248767614364624,-3.657562732696533
415,182751,182752,0.14172400534152985,0.010302445851266384,1.0539791584014893,-39.901119232177734,12.625916481018066,-24.21466636657715,1.1564421653747559,-0.06449677050113678,-0.21448926627635956,0.24742652475833893,-0.2565053403377533,-3.8550314903259277
416,182761,182762,0.047514114528894424,-0.11778726428747177,1.0807161331176758,-47.0068244934082,32.21921920776367,-23.171499252319336,1.1504424810409546,-0.05249737575650215,-0.20548972487449646,0.03094671107828617,-0.610111653804779,-4.107001781463623
417,182771,182772,0.1708739548921585,-0.013901558704674244,1.0995651483535767,-46.78232192993164,42.05716323852539,-18.867979049682617,1.1444427967071533,-0.028498575091362,-0.21448926627635956,-0.24901451170444489,-0.7157426476478577,-4.411770820617676
418,182781,182782,0.15014956891536713,0.032620303332805634,1.101242184638977,-32.422325134277344,30.79269027709961,-15.354681968688965,1.1429427862167358,-0.03899804875254631,-0.21298934519290924,-0.7044371366500854,-1.453643798828125,-4.549250602722168
419,182791,182792,0.09431558102369308,0.04656194895505905,1.1356613636016846,-14.51740550994873,27.998865127563477,-5.911368370056152,1.1354432106018066,-0.03149842470884323,-0.199490025639534,-0.7983092069625854,-1.6346076726913452,-4.720754146575928
420,182801,182802,0.1800488531589508,0.12410223484039307,1.0450445413589478,7.505356788635254,24.854351043701172,2.214099168777466,1.124943733215332,-0.056997150182724,-0.20398980379104614,-1.2783727645874023,-1.6475017070770264,-4.75704288482666
421,182811,182812,0.09964088350534439,0.13025620579719543,1.1205942630767822,24.796709060668945,12.53916072845459,8.037734031677246,1.1309434175491333,-0.05399730056524277,-0.19199039041996002,-1.5180370807647705,-1.3757025003433228,-4.734554767608643
422,182821,182822,0.04140232503414154,0.03407104313373566,1.1160948276519775,29.809921264648438,-11.331525802612305,11.059593200683594,1.123443841934204,-0.04349782317876816,-0.199490025639534,-1.4399477243423462,-0.9698883295059204,-4.675436496734619
423,182831,182832,0.03569157421588898,0.011199746280908585,1.056105613708496,33.827144622802734,-34.19700622558594,14.138331413269043,1.1324433088302612,-0.06449677050113678,-0.19649016857147217,-1.1657307147979736,-0.8511350750923157,-4.566246509552002
424,182841,182842,-0.04364645853638649,-0.08087056875228882,1.0082695484161377,26.7163143157959,-51.22590255737305,13.131807327270508,1.141442894935608,-0.06449677050113678,-0.20548972487449646,-0.6286145448684692,-0.785040020942688,-4.445636749267578
425,182851,182852,0.0378819964826107,-0.043439026921987534,0.9477059245109558,25.035858154296875,-47.109352111816406,11.704239845275879,1.1429427862167358,-0.06299684941768646,-0.20098994672298431,-0.029707662761211395,-0.3745895326137543,-4.321832656860352
426,182861,182862,-0.033432234078645706,-0.08645260334014893,0.9082977175712585,23.067060470581055,-36.596229553222656,10.689074516296387,1.138443112373352,-0.058497074991464615,-0.21448926627635956,0.16696155071258545,-0.0670434758067131,-4.157198429107666
427,182871,182872,0.04494481906294823,-0.0134992441162467,0.8837446570396423,20.188343048095703,-18.444496154785156,9.293058395385742,1.138443112373352,-0.058497074991464615,-0.21448926627635956,0.6151670813560486,-0.014728889800608158,-4.076699733734131
428,182881,182882,0.040406957268714905,-0.007434047292917967,0.8635677099227905,12.028791427612305,-17.953018188476562,6.53532600402832,1.138443112373352,-0.058497074991464615,-0.21448926627635956,0.8796578049659729,0.14553207159042358,-4.001282215118408
429,182891,182892,0.08634839951992035,0.07040079683065414,0.9458433389663696,-2.4777603149414062,-13.76047420501709,5.283353328704834,1.138443112373352,-0.058497074991464615,-0.21448926627635956,1.12662935256958,0.015687331557273865,-3.9528894424438477
430,182901,182902,0.0632098838686943,0.05910554155707359,0.9512472152709961,-15.18966293334961,-0.6813911199569702,5.065907955169678,1.1459426879882812,-0.05399730056524277,-0.20398980379104614,0.9117401242256165,0.15396037697792053,-3.8527119159698486
431,182911,182912,0.0625622346997261,0.06799285858869553,0.9396194219589233,-15.769797325134277,24.202091217041016,6.529454231262207,1.1519423723220825,-0.05399730056524277,-0.2099895030260086,0.7666124701499939,-0.07479244470596313,-3.7868287563323975
432,182921,182922,0.06966639310121536,0.0034630284644663334,0.9903002977371216,-20.21286964416504,42.17512893676758,9.357209205627441,1.1489425897598267,-0.06299684941768646,-0.20698964595794678,0.49209269881248474,-0.22175388038158417,-3.7151637077331543
433,182931,182932,0.012136029079556465,-0.0563947968184948,1.027672529220581,-23.47765350341797,50.55172348022461,9.669605255126953,1.1459426879882812,-0.047997597604990005,-0.2099895030260086,-0.22561956942081451,-0.41995054483413696,-3.5948948860168457
434,182941,182942,-0.0229867622256279,-0.0624970868229866,1.0924015045166016,-19.92515754699707,45.853057861328125,13.861506462097168,1.1504424810409546,-0.04649767279624939,-0.2084895670413971,-0.6051883101463318,-0.6762102246284485,-3.506413698196411
435,182951,182952,0.01907866634428501,-0.018297268077731133,1.0548737049102783,-16.19731330871582,18.563568115234375,16.63526153564453,1.1429427862167358,-0.044997747987508774,-0.2099895030260086,-1.1652331352233887,-0.91524338722229,-3.355485677719116
436,182961,182962,0.026772450655698776,0.033770881593227386,1.0594829320907593,-17.018226623535156,-11.136078834533691,20.997547149658203,1.138443112373352,-0.04949752241373062,-0.20248986780643463,-1.1311854124069214,-0.9095510840415955,-3.1999685764312744
437,182971,182972,0.013513603247702122,-0.018880115821957588,0.9948290586471558,-19.393871307373047,-47.390506744384766,27.06849479675293,1.138443112373352,-0.03449827432632446,-0.199490025639534,-0.7623042464256287,-1.1246272325515747,-2.995889663696289
438,182981,182982,0.054811231791973114,0.007205943576991558,0.947405219078064,-24.356422424316406,-73.49849700927734,32.234622955322266,1.154942274093628,-0.07199639827013016,-0.20098994672298431,-0.1815422922372818,-1.3772920370101929,-2.710636854171753
439,182991,182992,0.03827032819390297,0.04085467383265495,0.9387995600700378,-21.799047470092773,-86.43553924560547,36.52434539794922,1.1714414358139038,-0.07049647718667984,-0.21148942410945892,0.8420156836509705,-1.5635511875152588,-2.3908205032348633
440,183001,183002,0.07815566658973694,0.04540611058473587,0.9089322686195374,-6.3187575340271,-73.31596374511719,40.98350524902344,1.1699414253234863,-0.07199639827013016,-0.20398980379104614,1.8197473287582397,-1.8761627674102783,-2.0127952098846436
441,183011,183012,0.011901595629751682,0.002914905082434416,0.948898196220398,16.88140869140625,-52.65231704711914,41.080623626708984,1.1609419584274292,-0.056997150182724,-0.21598920226097107,2.1894736289978027,-1.8913179636001587,-1.535459280014038
442,183021,183022,0.02538008615374565,0.02870396338403225,0.9447404742240906,41.27369689941406,-32.60572814941406,36.903995513916016,1.1744412183761597,-0.058497074991464615,-0.2174891233444214,2.813178062438965,-1.60780930519104,-1.1370538473129272
443,183031,183032,0.06985601782798767,0.05796777829527855,0.9523015022277832,63.979122161865234,-4.733975887298584,32.961063385009766,1.1699414253234863,-0.047997597604990005,-0.2189890444278717,2.9313337802886963,-1.1489590406417847,-0.739548921585083
444,183041,183042,0.008144563995301723,-0.018715502694249153,0.8949277997016907,80.3763198852539,22.89952850341797,29.015888214111328,1.1669416427612305,-0.07499624788761139,-0.2189890444278717,2.8758275508880615,-0.33039620518684387,-0.4157484769821167
445,183051,183052,0.0021787791047245264,-0.09249550849199295,0.8584277629852295,85.63614654541016,46.82925033569336,24.17926788330078,1.154942274093628,-0.0659966990351677,-0.22198890149593353,2.3652658462524414,0.7123063802719116,-0.11446182429790497
446,183061,183062,0.06817754358053207,-0.046630971133708954,0.8900482058525085,71.88155364990234,58.325077056884766,21.823741912841797,1.154942274093628,-0.06299684941768646,-0.21298934519290924,1.8793584108352661,1.2016834020614624,0.17316332459449768
447,183071,183072,0.016890641301870346,-0.026587150990962982,0.9282882809638977,49.961143493652344,52.64998245239258,20.320602416992188,1.1429427862167358,-0.07499624788761139,-0.22198890149593353,1.2076356410980225,2.0141804218292236,0.4028242230415344
448,183081,183082,0.029593368992209435,-0.0021948509383946657,0.9259088635444641,27.502269744873047,43.824771881103516,19.797300338745117,1.1504424810409546,-0.06149692460894585,-0.22048896551132202,0.8652905821800232,2.400092124938965,0.6164228320121765
449,183091,183092,0.03322989121079445,-0.005440966226160526,0.9226086139678955,-1.4294227361679077,30.106958389282227,17.649173736572266,1.1564421653747559,-0.07049647718667984,-0.21148942410945892,0.25516486167907715,2.5352232456207275,0.8649920225143433
450,183101,183102,0.020955586805939674,0.014087842777371407,0.931167483329773,-29.433557510375977,9.866353034973145,12.605527877807617,1.1459426879882812,-0.07499624788761139,-0.20698964595794678,0.03842896595597267,2.4313642978668213,1.0500917434692383
451,183111,183112,0.01754390262067318,-0.00039762002415955067,0.9482793807983398,-56.3649787902832,-9.29621410369873,8.31869125366211,1.1474425792694092,-0.07049647718667984,-0.20548972487449646,-0.07278027385473251,2.139507532119751,1.1675453186035156
452,183121,183122,0.014623504132032394,-0.022469205781817436,0.9215140342712402,-72.98198699951172,-29.30510902404785,3.9351959228515625,1.1489425897598267,-0.07199639827013016,-0.19799008965492249,0.2967033386230469,1.2866560220718384,1.2741379737854004
453,183131,183132,-0.022930849343538284,-0.007145442068576813,0.9590262770652771,-72.3501968383789,-45.71806335449219,-0.2820659279823303,1.177441120147705,-0.07349632680416107,-0.22048896551132202,0.7399969100952148,0.6686103343963623,1.2925423383712769
454,183141,183142,-0.0035623034927994013,0.024610597640275955,0.9741650819778442,-59.60235595703125,-52.15392303466797,-4.784848690032959,1.1684415340423584,-0.07349632680416107,-0.22048896551132202,1.267838478088379,-0.11711085587739944,1.2921569347381592
455,183151,183152,0.04868150129914284,0.03775027021765709,0.9677579402923584,-36.613067626953125,-46.18672180175781,-5.931482791900635,1.1894404888153076,-0.085495725274086,-0.2174891233444214,1.7761561870574951,-0.4526304602622986,1.2202681303024292
456,183161,183162,-0.026115916669368744,0.036411140114068985,0.9783782958984375,-10.26124095916748,-31.72879409790039,-4.536131858825684,1.1729413270950317,-0.07199639827013016,-0.2189890444278717,2.2883169651031494,-0.8099290132522583,1.181382656097412
457,183171,183172,0.04398614540696144,0.128986194729805,0.9880481958389282,20.72307777404785,-4.642847537994385,-2.1565282344818115,1.1759412288665771,-0.0659966990351677,-0.2099895030260086,2.505162000656128,-0.7727144956588745,1.1315635442733765
458,183181,183182,0.022940373048186302,0.030180709436535835,0.9735763072967529,37.925968170166016,21.2475643157959,0.6605601906776428,1.1744412183761597,-0.06149692460894585,-0.22048896551132202,2.4492716789245605,-0.3870581090450287,1.086843490600586
459,183191,183192,-0.005842500366270542,-0.023443585261702538,0.9554734230041504,44.29269027709961,44.23801040649414,2.2402281761169434,1.1684415340423584,-0.06149692460894585,-0.2174891233444214,2.054313898086548,0.09374455362558365,1.0718238353729248
460,183201,183202,0.020410513505339622,0.022351635619997978,0.9697393774986267,39.33293151855469,57.97791290283203,2.5670669078826904,1.1684415340423584,-0.06749662756919861,-0.20248986780643463,1.7308481931686401,0.5056357383728027,1.1073614358901978
461,183211,183212,0.04525437578558922,-0.05186914652585983,0.9569517970085144,29.063865661621094,59.75920104980469,4.160582542419434,1.1489425897598267,-0.056997150182724,-0.21298934519290924,0.7980076670646667,0.8635303378105164,1.1343910694122314
462,183221,183222,-0.0574309304356575,0.02178843319416046,0.939719021320343,15.761107444763184,52.5912971496582,5.800565719604492,1.1594419479370117,-0.05249737575650215,-0.2084895670413971,0.520851731300354,1.196190357208252,1.187965989112854
463,183231,183232,-0.07583583891391754,0.008190833032131195,0.9600687623023987,2.8834776878356934,45.15743637084961,4.913903713226318,1.1429427862167358,-0.05999699980020523,-0.2099895030260086,-0.0452147051692009,1.2186778783798218,1.2726513147354126
464,183241,183242,0.03792407736182213,0.006531695369631052,0.9706103205680847,-2.290287733078003,32.76021957397461,2.2384369373321533,1.1534422636032104,-0.05249737575650215,-0.199490025639534,-0.45084214210510254,1.1512175798416138,1.3475630283355713
465,183251,183252,0.027432017028331757,0.00933986809104681,0.9871792197227478,-7.504940032958984,20.084209442138672,-3.772634267807007,1.141442894935608,-0.058497074991464615,-0.21448926627635956,-0.6991826295852661,1.2218780517578125,1.356378436088562
466,183261,183262,0.008435904048383236,0.005155410151928663,0.9924737215042114,-8.439471244812012,9.711939811706543,-9.958175659179688,1.1564421653747559,-0.07349632680416107,-0.20248986780643463,-1.0407638549804688,1.0586848258972168,1.3090659379959106
467,183271,183272,-0.012865960597991943,-0.02032652497291565,1.0311059951782227,-14.233400344848633,6.382187366485596,-14.648279190063477,1.1444427967071533,-0.058497074991464615,-0.199490025639534,-0.6614654064178467,1.0463674068450928,1.2445906400680542
468,183281,183282,0.06081078574061394,0.04363630339503288,1.0170693397521973,-14.930871963500977,1.4293893575668335,-20.86448860168457,1.138443112373352,-0.07049647718667984,-0.2084895670413971,-0.7719196081161499,0.9500529170036316,1.0800102949142456
469,183291,183292,0.024100136011838913,0.04379703849554062,0.9639298319816589,-27.279157638549805,-8.236051559448242,-25.529726028442383,1.154942274093628,-0.07199639827013016,-0.20398980379104614,-0.8908945322036743,0.6838409900665283,0.855329692363739
470,183301,183302,0.03645999729633331,0.0011502942070364952,0.9607791900634766,-40.139225006103516,-9.957253456115723,-26.29344940185547,1.1504424810409546,-0.05549722537398338,-0.21148942410945892,-0.6075852513313293,0.5148452520370483,0.6214179396629333
471,183311,183312,0.045736394822597504,0.06432313472032547,0.9901555180549622,-45.12575912475586,-14.35656452178955,-25.625303268432617,1.1489425897598267,-0.05399730056524277,-0.20098994672298431,-0.5131229162216187,-0.13007017970085144,0.3567735552787781
