,timestamp_start,timestamp_end,acc.x,acc.y,acc.z,gyro.x,gyro.y,gyro.z,mag.x,mag.y,mag.z,stabilizer.pitch,stabilizer.roll,stabilizer.yaw
0,293132,293133,-0.0751749724149704,0.0806853249669075,0.9183611273765564,13.209932327270508,5.488518238067627,5.440742492675781,0.9809509515762329,-0.16799159348011017,-0.20398980379104614,0.5910176038742065,4.472323417663574,-1.5865380764007568
1,293142,293143,-0.029131608083844185,0.12055796384811401,0.9569677114486694,1.9845298528671265,4.908297061920166,5.057320594787598,0.9839507937431335,-0.18299084901809692,-0.2189890444278717,0.5617573857307434,4.67527961730957,-1.5289608240127563
2,293152,293153,-0.010684330947697163,0.13551969826221466,0.9810451865196228,-5.916117191314697,0.22206750512123108,7.157948970794678,1.0004500150680542,-0.17549122869968414,-0.2084895670413971,0.5578804612159729,4.565694332122803,-1.4609793424606323
3,293162,293163,-0.008841083385050297,0.1090947836637497,0.9401339292526245,-9.645539283752441,0.3201810419559479,9.11074161529541,0.9839507937431335,-0.1799909919500351,-0.23098844289779663,0.6563891768455505,4.491426467895508,-1.36554753780365
4,293172,293173,-0.03956282138824463,0.09188716858625412,0.9015817642211914,-15.919074058532715,-4.081546306610107,12.421967506408691,0.9854506850242615,-0.1904904693365097,-0.22648866474628448,0.5709670186042786,4.392748832702637,-1.2955299615859985
5,293182,293183,-0.03164003789424896,0.12658381462097168,0.9670361280441284,-23.7878475189209,-14.165830612182617,13.399824142456055,1.0004500150680542,-0.18749062716960907,-0.2294885218143463,0.6690884828567505,4.1850972175598145,-1.169747233390808
6,293192,293193,-0.012675357982516289,0.12801982462406158,0.9743151664733887,-28.803503036499023,-14.764729499816895,12.246874809265137,1.00344979763031,-0.20248986780643463,-0.22348882257938385,0.7883108854293823,3.933016061782837,-1.0527266263961792
7,293202,293203,-0.015167178586125374,0.14622542262077332,0.9797540307044983,-25.382335662841797,-18.755043029785156,14.088961601257324,0.9929503202438354,-0.19499024748802185,-0.22198890149593353,0.9454266428947449,3.6991474628448486,-0.9416375756263733
8,293212,293213,-0.013388939201831818,0.1282797008752823,0.9641270041465759,-20.324628829956055,-15.473379135131836,14.451424598693848,1.00344979763031,-0.1904904693365097,-0.22048896551132202,1.1984014511108398,3.701937198638916,-0.8188318014144897
9,293222,293223,-0.001801521866582334,0.1296471804380417,0.9717161059379578,-19.711002349853516,-3.788025379180908,14.1624174118042,1.0004500150680542,-0.18749062716960907,-0.2294885218143463,1.2955546379089355,3.4660305976867676,-0.6995944976806641
10,293232,293233,-0.04420465603470802,0.11200674623250961,0.9189493060112,-19.1431941986084,-2.5915298461914062,14.336440086364746,0.9974501132965088,-0.19649016857147217,-0.23248836398124695,1.417773962020874,3.178652286529541,-0.546211302280426
11,293242,293243,0.01730325073003769,0.15857067704200745,1.0219231843948364,-14.09996509552002,0.494063138961792,12.634369850158691,1.0079495906829834,-0.1799909919500351,-0.2189890444278717,1.469571590423584,2.922398090362549,-0.39818841218948364
12,293252,293253,-0.03729072958230972,0.08365153521299362,0.933466911315918,-0.03496763855218887,9.662550926208496,8.432412147521973,0.9944502711296082,-0.18449077010154724,-0.22048896551132202,1.442452073097229,2.7777345180511475,-0.2760719060897827
13,293262,293263,-0.012764702551066875,0.16093948483467102,0.9594601392745972,13.382976531982422,13.413850784301758,6.182539463043213,0.9959501624107361,-0.1799909919500351,-0.227988600730896,1.3740696907043457,2.84513258934021,-0.194548100233078
14,293272,293273,-0.016592971980571747,0.1546700894832611,0.9544529318809509,11.26733112335205,12.790635108947754,3.136681318283081,0.9884505867958069,-0.1814909279346466,-0.2174891233444214,1.315279483795166,2.979161500930786,-0.12083257734775543
15,293282,293283,-0.005371956154704094,0.1504800170660019,0.9412742257118225,10.972246170043945,10.992116928100586,3.1111533641815186,0.9959501624107361,-0.18599069118499756,-0.2189890444278717,1.1323035955429077,2.9764859676361084,-0.06741565465927124
16,293292,293293,-0.045434582978487015,0.11344294250011444,0.9035429358482361,3.995257616043091,7.795971393585205,2.1363093852996826,1.00344979763031,-0.18449077010154724,-0.2084895670413971,1.1219414472579956,2.9289770126342773,-0.013437898829579353
17,293302,293303,-0.038500551134347916,0.07804294675588608,0.8524881601333618,-13.930070877075195,12.892499923706055,3.57861328125,0.9959501624107361,-0.17399129271507263,-0.21598920226097107,0.901617705821991,2.9325203895568848,0.014867418445646763
18,293312,293313,-0.005746910814195871,0.1729906052350998,0.9938459396362305,-28.261699676513672,24.25654411315918,0.5242249369621277,1.0079495906829834,-0.17399129271507263,-0.22498874366283417,0.7276520729064941,2.6204042434692383,0.07564882189035416
19,293322,293323,-0.03935292735695839,0.07927516102790833,0.9314641356468201,-36.41565704345703,31.070791244506836,0.6593931317329407,1.00344979763031,-0.18749062716960907,-0.2294885218143463,0.32995325326919556,2.3072755336761475,0.10072628408670425
20,293332,293333,0.00890875980257988,0.12543107569217682,0.9934444427490234,-33.76319885253906,24.31258201599121,0.32563865184783936,1.0079495906829834,-0.1799909919500351,-0.23398829996585846,-0.5710854530334473,1.5818812847137451,0.16090351343154907
21,293342,293343,0.0013934936141595244,0.13913419842720032,1.0164251327514648,-27.243701934814453,6.657138824462891,0.5642372965812683,0.9944502711296082,-0.17549122869968414,-0.2174891233444214,-0.47321030497550964,1.6666595935821533,0.12929695844650269
22,293352,293353,-0.06031038612127304,0.1195598840713501,0.9791924953460693,-4.270340919494629,-9.553553581237793,0.8528515696525574,1.0019499063491821,-0.17699114978313446,-0.22498874366283417,-0.48780888319015503,1.4239131212234497,0.12567700445652008
23,293362,293363,-0.030902428552508354,0.14549854397773743,1.017747402191162,23.039152145385742,-21.520347595214844,-1.9046850204467773,1.0004500150680542,-0.18449077010154724,-0.2174891233444214,1.098272442817688,1.4721112251281738,-0.017022740095853806
24,293372,293373,-0.048519235104322433,0.09551554918289185,0.9599329829216003,49.237327575683594,-29.516128540039062,-3.7476022243499756,1.0019499063491821,-0.20698964595794678,-0.22498874366283417,1.3143755197525024,1.7399688959121704,-0.04263307526707649
25,293382,293383,-0.037098683416843414,0.13385732471942902,1.004223108291626,59.38264846801758,-30.681350708007812,-1.7009109258651733,1.004949688911438,-0.20698964595794678,-0.23398829996585846,1.4321072101593018,2.0180022716522217,-0.05147138983011246
26,293392,293393,-0.0022022007033228874,0.08086515218019485,0.9306708574295044,48.21010971069336,-20.0833740234375,-0.7544246315956116,1.0079495906829834,-0.21298934519290924,-0.23398829996585846,1.734545350074768,2.729250431060791,-0.09068994969129562
27,293402,293403,-0.06305036693811417,0.08220947533845901,0.9330542087554932,28.3658504486084,-3.209632158279419,-0.5383910536766052,1.0004500150680542,-0.20248986780643463,-0.22348882257938385,1.8477470874786377,3.1551802158355713,-0.08520575612783432
28,293412,293413,-0.04634115472435951,0.0958593413233757,0.9149678945541382,7.8096699714660645,16.420886993408203,-0.049140073359012604,0.9914504289627075,-0.1904904693365097,-0.22648866474628448,1.824962854385376,3.4698233604431152,-0.0793755054473877
29,293422,293423,-0.04120812565088272,0.09877635538578033,0.8945733904838562,-13.023269653320312,34.399417877197266,1.8252493143081665,1.0079495906829834,-0.18599069118499756,-0.227988600730896,1.4281100034713745,3.4578943252563477,-0.019909784197807312
30,293432,293433,-0.016588842496275902,0.11475787311792374,0.9607256650924683,-34.68707275390625,44.4135856628418,3.6775963306427,0.9929503202438354,-0.17699114978313446,-0.22198890149593353,1.1994843482971191,3.1733157634735107,0.019093239679932594
31,293442,293443,-0.04917016997933388,0.08997850120067596,0.9232478141784668,-44.30410385131836,42.65145492553711,5.667896270751953,1.004949688911438,-0.18599069118499756,-0.23098844289779663,0.5888079404830933,2.809877395629883,0.10432570427656174
32,293452,293453,-0.06476029753684998,0.06843918561935425,0.9202539324760437,-48.00732421875,40.59342575073242,7.014743804931641,1.0079495906829834,-0.18299084901809692,-0.23398829996585846,0.07163109630346298,2.3002700805664062,0.19423462450504303
33,293462,293463,-0.02045000158250332,0.1130376085639,0.9601281881332397,-44.860939025878906,33.92967224121094,10.529062271118164,1.0019499063491821,-0.20098994672298431,-0.2369881421327591,-0.10881396383047104,1.9681618213653564,0.23917995393276215
34,293472,293473,0.022728169336915016,0.14202256500720978,1.0367859601974487,-32.01749038696289,31.634214401245117,11.145657539367676,1.0109494924545288,-0.18599069118499756,-0.22198890149593353,-0.6442624926567078,1.4447388648986816,0.37963321805000305
35,293482,293483,-0.020608656108379364,0.10234516859054565,0.9934085011482239,-19.02204132080078,29.40879249572754,9.28919792175293,0.9914504289627075,-0.1814909279346466,-0.2294885218143463,-0.7689878344535828,1.1809974908828735,0.46664607524871826
36,293492,293493,-0.011127045378088951,0.13165555894374847,1.050201416015625,-1.8324745893478394,22.845369338989258,7.1475019454956055,0.9884505867958069,-0.19649016857147217,-0.2294885218143463,-1.129958152770996,0.9382869601249695,0.5791084170341492
37,293502,293503,0.011548813432455063,0.07575719058513641,0.995522677898407,19.012117385864258,15.122160911560059,6.0255937576293945,0.9929503202438354,-0.18599069118499756,-0.22498874366283417,-1.3874175548553467,0.9884549975395203,0.6650914549827576
38,293512,293513,0.007238670252263546,0.11843988299369812,1.0111416578292847,33.75872039794922,2.709561824798584,9.940800666809082,0.9974501132965088,-0.19649016857147217,-0.2294885218143463,-1.4968725442886353,1.3258534669876099,0.7286539673805237
39,293522,293523,0.14897848665714264,0.25300732254981995,0.9338790774345398,39.31044387817383,-14.479378700256348,11.806130409240723,0.9929503202438354,-0.20698964595794678,-0.22498874366283417,-1.5313105583190918,1.586840033531189,0.8162432909011841
40,293532,293533,0.10883629322052002,0.16980446875095367,1.0126687288284302,25.876615524291992,-29.273557662963867,15.40190601348877,0.9854506850242615,-0.21148942410945892,-0.23548822104930878,-1.3498660326004028,1.856351375579834,0.9039671421051025
41,293542,293543,-0.031827252358198166,0.08027564734220505,0.931600034236908,2.7448856830596924,-34.38407897949219,15.573738098144531,1.0004500150680542,-0.2084895670413971,-0.22048896551132202,-1.0381476879119873,2.0387039184570312,1.0221233367919922
42,293552,293553,0.10841242223978043,0.20745117962360382,0.9482246041297913,-21.2211971282959,-24.672138214111328,13.193133354187012,0.9899504780769348,-0.20698964595794678,-0.23998799920082092,-0.7683766484260559,2.001326560974121,1.1690433025360107
43,293562,293563,-0.02600378543138504,0.11743320524692535,0.9155901670455933,-47.03394317626953,-0.8483729362487793,8.309187889099121,0.9899504780769348,-0.20698964595794678,-0.23998799920082092,-0.5543044805526733,1.9062275886535645,1.3194663524627686
44,293572,293573,0.008929765783250332,0.13380677998065948,1.080784559249878,-64.66641998291016,31.551774978637695,3.7133798599243164,0.9899504780769348,-0.20698964595794678,-0.23998799920082092,-0.7088199853897095,1.2150148153305054,1.4157520532608032
45,293582,293583,0.015641381964087486,0.07917898148298264,1.030364990234375,-65.41675567626953,48.44230651855469,-1.765769600868225,1.0004500150680542,-0.19349032640457153,-0.24448777735233307,-1.008483648300171,0.7443049550056458,1.490408182144165
46,293592,293593,0.04203513637185097,0.14047324657440186,1.117182731628418,-50.79022979736328,54.875999450683594,-6.176629543304443,1.004949688911438,-0.19199039041996002,-0.24298784136772156,-1.6237285137176514,0.1496918648481369,1.5304569005966187
47,293602,293603,0.019585369154810905,0.12440516799688339,1.102046012878418,-20.922494888305664,53.17772674560547,-10.206343650817871,1.0079495906829834,-0.1889905482530594,-0.2189890444278717,-2.1712396144866943,-0.22282840311527252,1.5041589736938477
48,293612,293613,0.042554646730422974,0.16691721975803375,1.1650327444076538,3.861128091812134,28.593652725219727,-14.091326713562012,0.9929503202438354,-0.18299084901809692,-0.22498874366283417,-2.7093865871429443,-0.5156834125518799,1.3985389471054077
49,293622,293623,0.02548866719007492,0.14641216397285461,1.123483657836914,16.14788055419922,-0.3656695783138275,-15.365605354309082,0.9974501132965088,-0.17549122869968414,-0.21448926627635956,-2.9149677753448486,-0.45821911096572876,1.2412828207015991
50,293632,293633,0.014709259383380413,0.12508133053779602,1.031599760055542,21.830385208129883,-24.73851203918457,-11.256136894226074,0.9869506359100342,-0.16799159348011017,-0.22198890149593353,-2.967089891433716,-0.27282899618148804,1.1033244132995605
51,293642,293643,-0.004455652087926865,0.09708176553249359,0.972316324710846,10.819486618041992,-58.33064651489258,-7.71242618560791,0.9869506359100342,-0.18599069118499756,-0.22198890149593353,-2.571876049041748,-0.1571667343378067,0.8889524340629578
52,293652,293653,0.04202185943722725,0.1716105192899704,1.0889892578125,1.0361173152923584,-77.2223892211914,-7.713499546051025,0.9974501132965088,-0.18749062716960907,-0.2084895670413971,-2.2107865810394287,-0.1015162318944931,0.8513184785842896
53,293662,293663,0.013849766924977303,0.1287861168384552,1.0363134145736694,-13.466954231262207,-72.0256118774414,-7.018352508544922,1.0094494819641113,-0.20248986780643463,-0.22648866474628448,-1.4803740978240967,-0.1554342657327652,0.7550763487815857
54,293672,293673,-0.04161209240555763,0.0936705470085144,0.9881533980369568,-14.789772987365723,-51.546783447265625,-4.5578083992004395,0.9989500045776367,-0.19799008965492249,-0.2369881421327591,-1.0066616535186768,-0.30419227480888367,0.7762178778648376
55,293682,293683,-0.024872001260519028,0.0431491993367672,1.094299077987671,-6.851308345794678,-33.02989959716797,-5.306334018707275,1.00344979763031,-0.17849107086658478,-0.22348882257938385,-0.3799428343772888,-0.622685968875885,0.6512506604194641
56,293692,293693,0.03949496150016785,0.012609124183654785,1.0421051979064941,12.503825187683105,-3.826608657836914,-8.18641185760498,0.9989500045776367,-0.17399129271507263,-0.21298934519290924,-0.06765856593847275,-0.636418879032135,0.6407012939453125
57,293702,293703,-0.019720010459423065,0.07526004314422607,0.9946984052658081,20.847686767578125,17.946929931640625,-13.89439582824707,1.0004500150680542,-0.17249137163162231,-0.2084895670413971,-0.04963528364896774,-0.6022123098373413,0.5676035284996033
58,293712,293713,-0.033044904470443726,0.12240427732467651,1.0293850898742676,22.03569793701172,26.220550537109375,-16.692127227783203,0.9974501132965088,-0.1604919731616974,-0.21148942410945892,-0.3189454972743988,-0.32963916659355164,0.5082710385322571
59,293722,293723,-0.015258891507983208,0.056202106177806854,0.9970030188560486,21.483240127563477,17.6375732421875,-15.528852462768555,0.9884505867958069,-0.15449227392673492,-0.21448926627635956,-0.6434495449066162,-0.04677734524011612,0.39831292629241943
60,293732,293733,-0.040299028158187866,0.08816700428724289,1.016451358795166,22.034032821655273,7.502346515655518,-14.89171314239502,0.9914504289627075,-0.15749211609363556,-0.2084895670413971,-0.7637369632720947,0.23476271331310272,0.22405767440795898
61,293742,293743,-0.04076355695724487,0.0929616242647171,1.0050780773162842,12.953372955322266,-0.38046467304229736,-16.198932647705078,0.9824508428573608,-0.16649167239665985,-0.2084895670413971,-0.8055000901222229,0.27006930112838745,0.010472644120454788
62,293752,293753,0.0008136996766552329,0.06079169735312462,0.9986809492111206,-14.982002258300781,-11.882867813110352,-16.975576400756836,0.9884505867958069,-0.17249137163162231,-0.21148942410945892,-0.6978726983070374,0.36353740096092224,-0.21164566278457642
63,293762,293763,-0.02423531748354435,0.066617950797081,1.004737138748169,-34.91948318481445,-21.195192337036133,-15.692695617675781,0.9899504780769348,-0.170991450548172,-0.22198890149593353,-0.5723940134048462,0.2755606174468994,-0.38398441672325134
64,293772,293773,0.027060260996222496,0.22057877480983734,1.0959720611572266,-37.98935317993164,-28.371244430541992,-15.995123863220215,1.0004500150680542,-0.17849107086658478,-0.2294885218143463,-0.5979743599891663,0.008097324520349503,-0.43274641036987305
65,293782,293783,-0.001593510969541967,0.12210182100534439,1.0840719938278198,-37.04718017578125,-34.67321014404297,-16.02482795715332,0.9974501132965088,-0.16349181532859802,-0.21148942410945892,-0.06359345465898514,-0.5304305553436279,-0.7398669719696045
66,293792,293793,-0.05560155585408211,0.043185941874980927,1.0151641368865967,-25.194063186645508,-34.10196304321289,-14.639708518981934,1.0019499063491821,-0.170991450548172,-0.22198890149593353,0.0430341400206089,-0.7128871083259583,-0.7568784356117249
67,293802,293803,0.004672963637858629,0.06102583557367325,1.0563334226608276,3.5365946292877197,-32.84874725341797,-15.372380256652832,1.00344979763031,-0.16949152946472168,-0.20548972487449646,0.5128082633018494,-0.9955246448516846,-0.9622294306755066
68,293812,293813,-0.0054085408337414265,0.17048901319503784,1.084890365600586,25.924850463867188,-23.349863052368164,-15.174327850341797,1.0004500150680542,-0.15749211609363556,-0.20548972487449646,0.8605488538742065,-0.8606701493263245,-1.0950983762741089
69,293822,293823,0.034336719661951065,0.18742771446704865,1.1661314964294434,45.441524505615234,-0.25417599081993103,-17.09566879272461,0.9944502711296082,-0.1604919731616974,-0.2084895670413971,0.9735438227653503,-0.6511082649230957,-1.1841485500335693
70,293832,293833,-0.024070341140031815,0.07214345037937164,1.055241346359253,61.452186584472656,10.905560493469238,-17.191009521484375,0.9914504289627075,-0.1514924168586731,-0.199490025639534,1.0033106803894043,0.0019585280679166317,-1.3279459476470947
71,293842,293843,-0.015848221257328987,0.066895991563797,0.9950286149978638,58.748138427734375,5.001077651977539,-19.872634887695312,0.9839507937431335,-0.170991450548172,-0.20698964595794678,0.9095441102981567,0.3320182263851166,-1.5118794441223145
72,293852,293853,0.05527205765247345,0.10475947707891464,0.9974177479743958,37.70808792114258,-7.242163181304932,-21.36191749572754,0.9839507937431335,-0.17399129271507263,-0.2099895030260086,0.8381443619728088,0.9356380105018616,-1.701204776763916
73,293862,293863,0.013651237823069096,0.10720102488994598,0.9711772203445435,24.39043426513672,-21.124719619750977,-17.938932418823242,0.9989500045776367,-0.15899205207824707,-0.21598920226097107,0.8303384780883789,1.3353699445724487,-1.8928676843643188
74,293872,293873,0.03898964449763298,0.22428064048290253,1.0401910543441772,-2.2194783687591553,-31.537845611572266,-15.085437774658203,0.9899504780769348,-0.16799159348011017,-0.21298934519290924,1.0863239765167236,1.5303364992141724,-2.1147286891937256
75,293882,293883,0.16940954327583313,0.3313746750354767,0.9483469128608704,-25.37630844116211,-40.7398681640625,-12.795357704162598,0.9974501132965088,-0.16649167239665985,-0.2174891233444214,1.4283279180526733,1.5664118528366089,-2.300246238708496
76,293892,293893,-0.13261425495147705,0.14226537942886353,0.9242201447486877,-34.40436935424805,-50.1153564453125,-13.822230339050293,1.018449068069458,-0.18449077010154724,-0.20548972487449646,1.5886108875274658,1.3931993246078491,-2.362224817276001
77,293902,293903,-0.1307874321937561,0.10577915608882904,0.9419273138046265,-32.361385345458984,-54.89508819580078,-13.21728515625,1.0004500150680542,-0.18749062716960907,-0.21448926627635956,2.244699478149414,0.9400813579559326,-2.5649731159210205
78,293912,293913,-0.11929904669523239,0.14008058607578278,0.9852499961853027,-19.05124282836914,-50.95701217651367,-11.730631828308105,1.0214488506317139,-0.16949152946472168,-0.21148942410945892,2.658749580383301,0.7759256958961487,-2.687824010848999
79,293922,293923,-0.06530951708555222,0.1334816813468933,0.9874666333198547,5.703020095825195,-39.09624099731445,-9.883405685424805,1.0139492750167847,-0.17699114978313446,-0.21598920226097107,3.3381803035736084,0.5768894553184509,-2.8674376010894775
80,293932,293933,-0.05637333169579506,0.10916615277528763,0.9332110285758972,23.194007873535156,-21.280733108520508,-6.169249057769775,1.0004500150680542,-0.16949152946472168,-0.2174891233444214,3.6706655025482178,0.7167726755142212,-2.968064069747925
81,293942,293943,-0.09024230390787125,0.07878106832504272,0.8726065754890442,31.37984848022461,1.5461962223052979,-3.1207339763641357,1.0214488506317139,-0.1604919731616974,-0.21148942410945892,3.850935459136963,0.8884148001670837,-3.0139427185058594
82,293952,293953,-0.09531432390213013,0.06549807637929916,0.8324780464172363,28.84796905517578,19.911895751953125,-0.16260768473148346,1.0004500150680542,-0.16649167239665985,-0.20248986780643463,3.8349180221557617,1.3028218746185303,-3.0631673336029053
83,293962,293963,-0.06928207725286484,0.048276495188474655,0.8205897212028503,26.014554977416992,36.887447357177734,4.987415790557861,0.9944502711296082,-0.15449227392673492,-0.20548972487449646,3.5755276679992676,1.6806339025497437,-3.0595943927764893
84,293972,293973,-0.07931801676750183,0.0693860799074173,0.8115698099136353,20.76875114440918,40.69261169433594,6.952573299407959,1.0004500150680542,-0.16349181532859802,-0.2084895670413971,3.175393581390381,1.9892914295196533,-3.0059900283813477
85,293982,293983,-0.08650482445955276,0.07569947093725204,0.823029637336731,8.961176872253418,40.996360778808594,9.154983520507812,0.9974501132965088,-0.16649167239665985,-0.21448926627635956,2.9773759841918945,1.903748869895935,-2.872072458267212
86,293992,293993,-0.007021451834589243,0.12769187986850739,0.9456644058227539,-6.685141086578369,34.112510681152344,11.95386791229248,1.0004500150680542,-0.15749211609363556,-0.22048896551132202,2.575620412826538,2.046949863433838,-2.786058187484741
87,294002,294003,-0.08137771487236023,0.023145366460084915,0.8262616991996765,-12.842772483825684,25.794666290283203,14.692094802856445,1.004949688911438,-0.17399129271507263,-0.2189890444278717,2.283879518508911,1.9166063070297241,-2.6411521434783936
88,294012,294013,0.0026563049759715796,0.10303287953138351,0.9194826483726501,-14.782729148864746,16.658451080322266,16.514436721801758,1.018449068069458,-0.18749062716960907,-0.21148942410945892,2.054311752319336,1.9730323553085327,-2.5626816749572754
89,294022,294023,-0.023624300956726074,0.06673214584589005,0.8971091508865356,-11.335556983947754,11.145599365234375,15.436758041381836,1.019948959350586,-0.1799909919500351,-0.22498874366283417,1.9423481225967407,1.7229087352752686,-2.3704724311828613
90,294032,294033,-0.05704867094755173,0.03341909125447273,0.832078754901886,-9.855195045471191,9.894932746887207,12.863518714904785,1.018449068069458,-0.1904904693365097,-0.22648866474628448,1.835381269454956,1.5169334411621094,-2.184174060821533
91,294042,294043,0.0014864853583276272,0.09298492223024368,0.9691770672798157,-8.386052131652832,10.77056884765625,10.06087589263916,1.004949688911438,-0.1799909919500351,-0.22198890149593353,1.8727041482925415,1.4152566194534302,-2.070429801940918
92,294052,294053,-0.06929593533277512,0.02633902058005333,0.8988549709320068,-9.259770393371582,10.19843864440918,8.214494705200195,1.00344979763031,-0.18449077010154724,-0.2294885218143463,1.6911060810089111,1.3214627504348755,-1.9484093189239502
93,294062,294063,-0.07167523354291916,0.09576276689767838,0.9719764590263367,-8.488719940185547,7.97120475769043,6.3515214920043945,1.00344979763031,-0.16349181532859802,-0.21148942410945892,1.671160101890564,1.223625659942627,-1.8696333169937134
94,294072,294073,-0.20606522262096405,0.04314947873353958,0.9455237984657288,2.171454906463623,12.22041130065918,6.208555698394775,0.9974501132965088,-0.1814909279346466,-0.21448926627635956,1.5804991722106934,1.2436442375183105,-1.8361122608184814
95,294082,294083,-0.12606419622898102,-0.09003543108701706,0.8868805170059204,12.84611988067627,21.152921676635742,8.651273727416992,0.9974501132965088,-0.17849107086658478,-0.22648866474628448,1.6166999340057373,1.4148695468902588,-1.8494911193847656
96,294092,294093,-0.03490784764289856,0.04756734520196915,0.9135131239891052,11.633206367492676,28.2213077545166,9.883349418640137,0.9989500045776367,-0.18299084901809692,-0.2099895030260086,1.3652678728103638,1.6306368112564087,-1.7921913862228394
97,294102,294103,-0.041775405406951904,0.08924038708209991,0.9625389575958252,2.4701263904571533,33.18557357788086,9.345760345458984,0.9824508428573608,-0.17549122869968414,-0.22048896551132202,1.3452733755111694,1.7235896587371826,-1.709226131439209
98,294112,294113,-0.0911419615149498,0.055001165717840195,0.9182825684547424,-6.963873863220215,32.51318359375,9.876688957214355,1.00344979763031,-0.17549122869968414,-0.2174891233444214,0.8303784728050232,1.6811798810958862,-1.5587769746780396
99,294122,294123,-0.03242001682519913,0.12504245340824127,1.0030937194824219,-19.508441925048828,26.68682098388672,11.104191780090332,1.0004500150680542,-0.1814909279346466,-0.22348882257938385,0.4877272844314575,1.4840742349624634,-1.409802794456482
100,294132,294133,-0.01924416422843933,0.1100822240114212,1.0061490535736084,-26.424707412719727,16.280611038208008,11.55606460571289,0.9869506359100342,-0.1799909919500351,-0.2189890444278717,0.32622745633125305,1.3953423500061035,-1.3252404928207397
101,294142,294143,-0.051455307751894,0.18206486105918884,1.027038335800171,-22.447790145874023,8.652725219726562,15.148035049438477,0.9929503202438354,-0.19499024748802185,-0.22498874366283417,0.17473486065864563,1.0140948295593262,-1.1852085590362549
102,294152,294153,-0.08744680136442184,0.08220300078392029,0.9329167604446411,-13.800786018371582,0.06564000993967056,17.467742919921875,0.9959501624107361,-0.19499024748802185,-0.23098844289779663,0.22542694211006165,0.9182509183883667,-1.086052417755127
103,294162,294163,0.019587788730859756,0.14059464633464813,1.0219252109527588,0.7770065665245056,2.462073802947998,18.943561553955078,1.0109494924545288,-0.19199039041996002,-0.22198890149593353,0.20657533407211304,0.6975207328796387,-0.9052144289016724
104,294172,294173,-0.016226494684815407,0.07171159237623215,0.9506153464317322,10.244483947753906,15.406929969787598,19.00345802307129,0.9884505867958069,-0.1904904693365097,-0.2294885218143463,0.12574028968811035,0.6852408647537231,-0.7167258262634277
105,294182,294183,-0.059768058359622955,0.018163280561566353,0.9309024214744568,7.3981733322143555,26.17613983154297,17.856733322143555,0.9929503202438354,-0.19499024748802185,-0.23098844289779663,0.24077069759368896,1.0571730136871338,-0.5916275382041931
106,294192,294193,-0.0726906955242157,0.05070597678422928,0.9354608654975891,5.2439422607421875,40.66584777832031,15.109664916992188,0.9944502711296082,-0.1904904693365097,-0.2294885218143463,-0.23564231395721436,1.1796715259552002,-0.3870987594127655
107,294202,294203,-0.054192449897527695,0.07731084525585175,0.9471194744110107,-7.063394546508789,43.75632095336914,11.961506843566895,0.9974501132965088,-0.17549122869968414,-0.22648866474628448,-0.3911265432834625,1.1471426486968994,-0.2353128045797348
108,294212,294213,0.0038470581639558077,0.24352101981639862,1.001529335975647,-25.50115966796875,39.84157180786133,8.008355140686035,1.0019499063491821,-0.20098994672298431,-0.2189890444278717,-0.9492904543876648,1.1185948848724365,-0.08974700421094894
109,294222,294223,0.014789196662604809,0.13465166091918945,1.0143967866897583,-43.82954025268555,33.36233901977539,6.35140323638916,0.9974501132965088,-0.18449077010154724,-0.2384880781173706,-1.1532155275344849,0.9399817585945129,-0.014306167140603065
110,294232,294233,-0.0017772173741832376,0.10154598951339722,1.0208920240402222,-55.05596160888672,21.668140411376953,4.997677326202393,1.0019499063491821,-0.1889905482530594,-0.23398829996585846,-1.5899016857147217,0.41322624683380127,0.06520570069551468
111,294242,294243,-0.013182703405618668,0.02421419508755207,0.952567458152771,-54.802974700927734,9.788803100585938,2.65756893157959,0.9974501132965088,-0.18749062716960907,-0.22648866474628448,-1.831093192100525,-0.09813185036182404,0.12091671675443649
112,294252,294253,-0.05742916092276573,-0.11092466861009598,0.9461698532104492,-41.271766662597656,-1.0592176914215088,-1.7520434856414795,1.0004500150680542,-0.19349032640457153,-0.23248836398124695,-1.9573585987091064,-0.5578386783599854,0.15689267218112946
113,294262,294263,-0.05126490816473961,0.08910606056451797,0.9780092835426331,-19.061296463012695,-4.886369705200195,-6.148017883300781,1.0004500150680542,-0.19349032640457153,-0.23248836398124695,-1.9478635787963867,-0.9462391138076782,0.15060539543628693
114,294272,294273,0.005371475126594305,0.15600955486297607,1.1040812730789185,2.7119851112365723,-5.0477070808410645,-7.939785003662109,1.0004500150680542,-0.19349032640457153,-0.23248836398124695,-1.8761111497879028,-1.1305325031280518,0.10520989447832108
115,294282,294283,-0.03032061457633972,-0.011791043914854527,1.0088393688201904,9.315009117126465,-8.78549861907959,-8.090131759643555,0.9899504780769348,-0.19199039041996002,-0.22498874366283417,-1.7602490186691284,-1.174094319343567,0.014973536133766174
116,294292,294293,-0.04442116990685463,0.027073219418525696,1.0075832605361938,12.481607437133789,-10.791886329650879,-4.6541547775268555,0.9854506850242615,-0.20248986780643463,-0.2294885218143463,-1.672024130821228,-1.0211023092269897,-0.05498616024851799
117,294302,294303,-0.004648303613066673,0.10792628675699234,1.0800817012786865,14.959372520446777,-14.571240425109863,-1.6175154447555542,1.0004500150680542,-0.18749062716960907,-0.22348882257938385,-1.546702265739441,-0.8932175636291504,-0.11304089426994324
118,294312,294313,-0.012296320870518684,0.08479095250368118,1.0286290645599365,10.335851669311523,-19.46495819091797,-2.7113163471221924,0.9929503202438354,-0.19799008965492249,-0.2369881421327591,-1.4310564994812012,-0.7487719058990479,-0.1327001303434372
119,294322,294323,0.009102596901357174,0.08824571222066879,1.0370980501174927,-9.473010063171387,-9.883674621582031,-3.7696590423583984,1.018449068069458,-0.20548972487449646,-0.24148792028427124,-1.2995349168777466,-0.6733754277229309,-0.15172210335731506
120,294332,294333,-0.02868870086967945,0.10653864592313766,1.078548550605774,-17.397789001464844,10.468327522277832,-5.634603500366211,1.0064496994018555,-0.1904904693365097,-0.22048896551132202,-1.2674996852874756,-0.6961173415184021,-0.15981316566467285
121,294342,294343,-0.08663240075111389,0.0933656319975853,1.049899935722351,-15.90371036529541,22.963111877441406,-6.658176422119141,0.9989500045776367,-0.19199039041996002,-0.23398829996585846,-1.5121806859970093,-0.898446798324585,-0.16947264969348907
122,294352,294353,0.039312414824962616,0.06361131370067596,1.0295296907424927,-10.394871711730957,20.27330207824707,-6.168131351470947,0.9959501624107361,-0.16499175131320953,-0.23098844289779663,-1.6108862161636353,-1.1373099088668823,-0.28605496883392334
123,294362,294363,0.018392128869891167,0.15723396837711334,1.0996923446655273,-2.318272829055786,16.601259231567383,-3.818716049194336,0.9944502711296082,-0.17849107086658478,-0.21448926627635956,-1.8384356498718262,-1.2703819274902344,-0.351245641708374
124,294372,294373,0.014832296408712864,0.15259823203086853,1.096502423286438,-4.604670524597168,9.878274917602539,-2.625068426132202,0.9794510006904602,-0.16949152946472168,-0.22048896551132202,-2.0474085807800293,-1.2499786615371704,-0.37337467074394226
125,294382,294383,-0.008428151719272137,0.10967358946800232,1.0754159688949585,-22.107620239257812,1.6996766328811646,-0.4030628502368927,0.9929503202438354,-0.170991450548172,-0.22198890149593353,-2.065595865249634,-1.3243762254714966,-0.44372522830963135
126,294392,294393,-0.02741074562072754,0.06030617281794548,1.0555195808410645,-46.7341423034668,-8.666976928710938,4.014675140380859,0.9899504780769348,-0.17699114978313446,-0.2189890444278717,-2.1513586044311523,-1.6032382249832153,-0.4670518934726715
127,294402,294403,0.0015814477810636163,0.1250356137752533,1.1168534755706787,-57.22688674926758,-13.313237190246582,4.828733444213867,1.0019499063491821,-0.170991450548172,-0.22498874366283417,-2.047778606414795,-2.0486347675323486,-0.4637526273727417
128,294412,294413,-0.028131889179348946,0.14476794004440308,1.1296610832214355,-58.78754425048828,-19.980606079101562,4.74902868270874,1.0064496994018555,-0.16949152946472168,-0.2294885218143463,-1.8567979335784912,-2.3084914684295654,-0.345293253660202
129,294422,294423,-0.03411346673965454,0.14196299016475677,1.1332247257232666,-54.270042419433594,-22.869096755981445,3.2647299766540527,0.9989500045776367,-0.1619918942451477,-0.22198890149593353,-1.643395185470581,-3.0333051681518555,-0.3437279462814331
130,294432,294433,-0.03963763266801834,0.11454929411411285,1.0972658395767212,-28.977216720581055,-26.494731903076172,3.3439481258392334,0.9944502711296082,-0.16349181532859802,-0.22348882257938385,-1.433174967765808,-3.7260234355926514,-0.33264386653900146
131,294442,294443,0.05607890710234642,-0.004749887157231569,1.0421346426010132,-2.9718284606933594,-31.262496948242188,4.31706428527832,0.9899504780769348,-0.1619918942451477,-0.22498874366283417,-1.445233941078186,-3.813586711883545,-0.09372103959321976
132,294452,294453,0.007347757928073406,0.0748041421175003,1.056420922279358,22.274873733520508,-30.617034912109375,1.9079450368881226,0.9974501132965088,-0.14849257469177246,-0.2084895670413971,-0.959836483001709,-3.9292705059051514,-0.12384943664073944
133,294462,294463,-0.014965436421334743,0.15132172405719757,1.0857869386672974,46.513404846191406,-26.933250427246094,4.635556697845459,0.9929503202438354,-0.16799159348011017,-0.227988600730896,-0.5710243582725525,-3.7581522464752197,-0.11148817837238312
134,294472,294473,-0.014379260130226612,0.20066918432712555,1.0319112539291382,61.8410530090332,-18.630109786987305,7.735223770141602,0.9974501132965088,-0.15749211609363556,-0.21448926627635956,-0.5454201102256775,-3.2896671295166016,0.08549346774816513
135,294482,294483,-0.008133608847856522,0.008258849382400513,1.0135948657989502,64.63005065917969,-5.919719219207764,8.707940101623535,0.9914504289627075,-0.1604919731616974,-0.22048896551132202,-0.2194920778274536,-2.6179635524749756,0.12687303125858307
136,294492,294493,-0.13206619024276733,0.11119423806667328,0.9258273839950562,59.69019317626953,7.98545503616333,10.262284278869629,0.9884505867958069,-0.17249137163162231,-0.2084895670413971,-0.33011195063591003,-2.0519187450408936,0.30333319306373596
137,294502,294503,-0.046310171484947205,0.17281456291675568,0.9717943668365479,48.15540313720703,23.615793228149414,6.198467254638672,0.9989500045776367,-0.16499175131320953,-0.2099895030260086,-0.30218926072120667,-1.5063374042510986,0.3432140648365021
138,294512,294513,-0.02005203627049923,0.12253981083631516,1.0184792280197144,35.21946716308594,39.80743408203125,2.498833656311035,0.9779511094093323,-0.15899205207824707,-0.20698964595794678,-0.7366521954536438,-1.139741063117981,0.5025431513786316
139,294522,294523,0.005136173218488693,0.08348813652992249,0.9785189032554626,21.34297752380371,48.76047897338867,0.23555053770542145,0.9839507937431335,-0.15899205207824707,-0.21298934519290924,-1.0347025394439697,-0.7672604322433472,0.4935760200023651
140,294532,294533,0.012443163432180882,0.11623135954141617,0.993482232093811,9.72439956665039,47.0107421875,-0.3888359069824219,0.9884505867958069,-0.1604919731616974,-0.2174891233444214,-1.5127161741256714,-0.7380384802818298,0.44552338123321533
141,294542,294543,0.031835973262786865,0.08281632512807846,0.96103835105896,-3.990316867828369,35.961524963378906,1.6980544328689575,0.965951681137085,-0.14699265360832214,-0.21598920226097107,-2.009721040725708,-0.6182975172996521,0.4467023015022278
142,294552,294553,-0.0013680023839697242,0.0641568973660469,0.9214295744895935,-16.340415954589844,21.71870231628418,1.7116010189056396,0.9719513654708862,-0.15899205207824707,-0.21598920226097107,-2.31817364692688,-0.7182191610336304,0.39462947845458984
143,294562,294563,0.03782361373305321,0.27741748094558716,0.9807952642440796,-17.842214584350586,1.7328970432281494,4.853521823883057,0.9824508428573608,-0.16349181532859802,-0.22348882257938385,-2.5339395999908447,-0.7500095367431641,0.4285561442375183
144,294572,294573,0.13254575431346893,0.2235037237405777,1.033486247062683,-11.858551979064941,-21.452281951904297,6.761275291442871,0.9854506850242615,-0.17249137163162231,-0.2084895670413971,-2.512228488922119,-1.067543387413025,0.3856952488422394
145,294582,294583,0.15401476621627808,0.06893502175807953,0.9466696381568909,4.534378528594971,-37.104957580566406,9.118969917297363,0.9884505867958069,-0.1604919731616974,-0.21148942410945892,-2.4303126335144043,-1.1844819784164429,0.48270997405052185
146,294592,294593,0.09166025370359421,0.06940678507089615,0.9789791107177734,27.126482009887695,-43.17455291748047,13.223455429077148,0.9854506850242615,-0.16649167239665985,-0.2174891233444214,-1.894099235534668,-1.0204216241836548,0.5473421812057495
147,294602,294603,-0.09917201101779938,0.08405155688524246,0.989168643951416,37.5352668762207,-42.04985046386719,16.197341918945312,0.9824508428573608,-0.16949152946472168,-0.22048896551132202,-1.4074985980987549,-0.7019065618515015,0.6780494451522827
148,294612,294613,-0.0203852578997612,0.10345891863107681,1.0298064947128296,38.97944259643555,-35.96604537963867,15.336363792419434,0.9794510006904602,-0.1814909279346466,-0.2084895670413971,-1.1593213081359863,-0.44216859340667725,0.8762404322624207
149,294622,294623,0.01678968220949173,0.062292229384183884,1.0035436153411865,33.35475158691406,-24.372949600219727,11.951340675354004,0.9959501624107361,-0.170991450548172,-0.2099895030260086,-0.6737530827522278,-0.16301579773426056,0.9574694037437439
150,294632,294633,0.03562266007065773,-0.02743537351489067,0.933155357837677,21.705530166625977,-7.140605926513672,11.164621353149414,0.9854506850242615,-0.17849107086658478,-0.23248836398124695,-0.6687352061271667,0.2859557271003723,1.2027862071990967
151,294642,294643,-0.02298942767083645,0.04584483429789543,0.9722571969032288,14.571955680847168,15.165425300598145,9.602858543395996,0.9869506359100342,-0.17399129271507263,-0.20698964595794678,-0.5829693078994751,0.49672362208366394,1.3121464252471924
152,294652,294653,-0.04005921259522438,0.13767634332180023,1.0155425071716309,11.692387580871582,29.012144088745117,7.056924343109131,0.9884505867958069,-0.1514924168586731,-0.21448926627635956,-0.8178768754005432,0.7495571970939636,1.4772017002105713
153,294662,294663,-0.052088528871536255,0.11699212342500687,0.9960657954216003,1.9688060283660889,27.501100540161133,7.108333587646484,0.9899504780769348,-0.170991450548172,-0.20398980379104614,-1.0049461126327515,0.8491960763931274,1.5266339778900146
154,294672,294673,0.13634750247001648,0.14317823946475983,0.9875195622444153,-15.13720417022705,21.477476119995117,8.036444664001465,0.9929503202438354,-0.16799159348011017,-0.2099895030260086,-1.4093046188354492,0.9031726121902466,1.6309605836868286
155,294682,294683,-0.018156589940190315,0.032066334038972855,0.8497301340103149,-24.387929916381836,3.571471929550171,10.360153198242188,0.9929503202438354,-0.16499175131320953,-0.22498874366283417,-1.5806772708892822,0.6616693735122681,1.6637592315673828
156,294692,294693,-0.02109532617032528,0.007046119775623083,0.9488394260406494,-33.95956039428711,-11.619675636291504,9.374983787536621,0.9899504780769348,-0.16799159348011017,-0.2189890444278717,-1.5614609718322754,0.3266166150569916,1.7208898067474365
157,294702,294703,-0.05145338550209999,0.05266872048377991,0.9335340857505798,-52.06119918823242,-22.701129913330078,10.157586097717285,1.00344979763031,-0.17549122869968414,-0.21148942410945892,-1.587195873260498,0.14924435317516327,1.8673136234283447
158,294712,294713,-0.015370148234069347,0.10616383701562881,0.9806219935417175,-69.20465850830078,-34.37409591674805,6.3600311279296875,1.00344979763031,-0.1814909279346466,-0.2174891233444214,-1.26724374294281,-0.3876175284385681,1.9366466999053955
159,294722,294723,0.05535375326871872,0.17649626731872559,0.9606474041938782,-73.5230484008789,-46.00675582885742,1.0040181875228882,1.004949688911438,-0.16499175131320953,-0.2099895030260086,-1.0665032863616943,-1.486678957939148,1.9273971319198608
160,294732,294733,0.0077900090254843235,0.017199894413352013,1.1000550985336304,-54.76744079589844,-55.104007720947266,-5.2001423835754395,1.019948959350586,-0.15599219501018524,-0.21298934519290924,-0.7397414445877075,-1.7882819175720215,2.072735071182251
161,294742,294743,-0.03265221416950226,0.0717800185084343,1.0824494361877441,-16.949607849121094,-41.460716247558594,-9.002439498901367,1.01694917678833,-0.14699265360832214,-0.21598920226097107,-0.14381442964076996,-2.4587643146514893,2.0294744968414307
162,294752,294753,-0.08841343224048615,-0.014080619439482689,1.0672461986541748,27.029747009277344,-33.509429931640625,-9.901508331298828,1.0019499063491821,-0.14699265360832214,-0.2099895030260086,0.291899174451828,-2.586151123046875,1.9960789680480957
163,294762,294763,-0.034150365740060806,-0.038009192794561386,1.0122543573379517,64.92826843261719,-38.7044677734375,-11.25126838684082,1.00344979763031,-0.15449227392673492,-0.2084895670413971,0.5813958644866943,-2.262075185775757,1.9489965438842773
164,294772,294773,0.0039145611226558685,0.06383066624403,1.1136131286621094,84.86473083496094,-41.45207214355469,-13.139182090759277,0.9944502711296082,-0.1604919731616974,-0.199490025639534,0.9118031859397888,-1.868750810623169,1.843572974205017
165,294782,294783,-0.05834143981337547,0.06084370240569115,1.0019100904464722,96.4487533569336,-40.28656768798828,-13.944656372070312,0.9989500045776367,-0.1799909919500351,-0.19799008965492249,1.506049633026123,-0.7964385151863098,1.7103781700134277
166,294792,294793,-0.06997817754745483,0.10964078456163406,1.0151739120483398,96.1002426147461,-34.864471435546875,-16.999454498291016,1.0004500150680542,-0.17249137163162231,-0.20548972487449646,1.9824042320251465,0.2139960378408432,1.564970850944519
167,294802,294803,-0.07248750329017639,0.0867738276720047,0.9437127113342285,85.45630645751953,-23.131303787231445,-18.757579803466797,1.0139492750167847,-0.1889905482530594,-0.22198890149593353,2.197924852371216,1.0494335889816284,1.4264800548553467
168,294812,294813,0.01155773550271988,0.12223739922046661,0.9086116552352905,58.579524993896484,-4.1540422439575195,-18.598915100097656,1.0124493837356567,-0.16949152946472168,-0.22048896551132202,2.5506093502044678,1.7356317043304443,1.2201145887374878
169,294822,294823,0.07523699849843979,0.2221529334783554,0.912181556224823,11.154959678649902,14.799121856689453,-21.73501205444336,1.0124493837356567,-0.16949152946472168,-0.22048896551132202,2.5962724685668945,2.305694341659546,1.047251582145691
170,294832,294833,0.1263328343629837,0.2187574952840805,0.9332069158554077,-32.13224792480469,27.728212356567383,-22.392906188964844,1.0154491662979126,-0.16649167239665985,-0.2294885218143463,2.3667776584625244,2.4380762577056885,0.8694505095481873
171,294842,294843,-0.019047673791646957,0.07017012685537338,0.8980145454406738,-48.412940979003906,37.58869934082031,-22.662248611450195,1.01694917678833,-0.17699114978313446,-0.21598920226097107,1.9953476190567017,2.1108570098876953,0.6823194026947021
172,294852,294853,0.02253090776503086,0.10317155718803406,0.9983207583427429,-50.75008010864258,41.427310943603516,-20.691495895385742,1.01694917678833,-0.1619918942451477,-0.22498874366283417,1.7556806802749634,1.8091204166412354,0.4404599964618683
173,294862,294863,0.05616666004061699,0.18621331453323364,0.9672816395759583,-48.47483444213867,40.639095306396484,-15.199588775634766,1.0109494924545288,-0.1619918942451477,-0.2189890444278717,1.3255048990249634,1.170465350151062,0.2644520699977875
174,294872,294873,0.09965140372514725,0.2669599652290344,0.9856374263763428,-43.00695037841797,33.81896209716797,-11.603302001953125,1.0154491662979126,-0.16649167239665985,-0.22348882257938385,1.0635132789611816,0.8544822931289673,0.0754900798201561
175,294882,294883,-0.0257257167249918,0.10627608746290207,0.9639448523521423,-15.924153327941895,19.411035537719727,-10.073417663574219,1.0079495906829834,-0.170991450548172,-0.21298934519290924,0.6433644890785217,0.5734037756919861,-0.07233257591724396
176,294892,294893,-0.028990956023335457,0.07894133031368256,0.9379153251647949,17.22348976135254,2.5332610607147217,-7.151192665100098,1.0154491662979126,-0.16349181532859802,-0.2084895670413971,0.3958650529384613,0.4382123053073883,-0.1895228922367096
177,294902,294903,0.06129489094018936,0.12649351358413696,0.9997690916061401,36.9626350402832,-16.449949264526367,-6.367699146270752,0.9974501132965088,-0.18449077010154724,-0.20248986780643463,0.4272472560405731,0.6254390478134155,-0.2706083059310913
178,294912,294913,-0.020749570801854134,0.07567650824785233,0.9048429131507874,41.19339370727539,-34.39652633666992,-2.2247986793518066,0.9884505867958069,-0.1814909279346466,-0.2174891233444214,0.7638505101203918,1.1394548416137695,-0.35992729663848877
179,294922,294923,0.0699138194322586,0.11966215074062347,0.9003711938858032,36.98145294189453,-43.52185821533203,5.150857448577881,1.0079495906829834,-0.19499024748802185,-0.21598920226097107,1.1225396394729614,1.356892466545105,-0.3620615303516388
180,294932,294933,0.02787361666560173,0.0011309599503874779,0.951684832572937,32.667381286621094,-47.97371292114258,11.618572235107422,1.0079495906829834,-0.20098994672298431,-0.22498874366283417,1.6278951168060303,1.7278363704681396,-0.3309779465198517
181,294942,294943,-0.04658671095967293,-0.03131214529275894,0.8700745701789856,32.99889373779297,-45.96939468383789,16.024538040161133,1.0154491662979126,-0.20248986780643463,-0.2294885218143463,2.110703468322754,2.05692458152771,-0.24474647641181946
182,294952,294953,-0.0397704541683197,0.021872902289032936,0.8822049498558044,25.596803665161133,-32.62995529174805,18.681676864624023,1.0154491662979126,-0.20248986780643463,-0.2294885218143463,2.5853278636932373,2.4037649631500244,-0.11849148571491241
183,294962,294963,-0.02783464640378952,0.07966763526201248,0.9246947765350342,16.553651809692383,-4.014719009399414,19.244436264038086,1.0154491662979126,-0.20248986780643463,-0.2294885218143463,2.717928171157837,2.8452095985412598,-0.020230678841471672
184,294972,294973,-0.04948664829134941,0.06694050878286362,0.9335848689079285,5.082726955413818,31.588132858276367,17.721649169921875,1.0094494819641113,-0.2084895670413971,-0.22648866474628448,2.745177984237671,2.969348669052124,0.1693759262561798
185,294982,294983,0.019089655950665474,0.0051037464290857315,0.9844520688056946,-10.278227806091309,62.141693115234375,18.257568359375,1.0064496994018555,-0.21148942410945892,-0.23248836398124695,2.234018564224243,3.0305168628692627,0.31429922580718994
186,294992,294993,-0.027801264077425003,0.06370817869901657,0.9600655436515808,-16.009113311767578,73.42112731933594,19.20246696472168,1.0139492750167847,-0.18599069118499756,-0.23098844289779663,1.753824234008789,2.899249315261841,0.5492544174194336
187,295002,295003,0.012746849097311497,0.05719957500696182,0.9487321972846985,-16.62117576599121,68.23680114746094,20.278812408447266,1.0124493837356567,-0.19649016857147217,-0.2294885218143463,1.1784213781356812,2.817434787750244,0.7775325179100037
188,295012,295013,-0.03305277228355408,0.08747811615467072,0.9806181192398071,-13.689180374145508,52.45744323730469,20.93402862548828,1.0079495906829834,-0.19799008965492249,-0.22198890149593353,0.6232620477676392,2.79923939704895,1.0003005266189575
189,295022,295023,-0.010555403307080269,0.2215310037136078,1.0100106000900269,-11.029675483703613,34.20171356201172,21.16492462158203,1.0004500150680542,-0.19649016857147217,-0.23548822104930878,0.03699001297354698,2.5298550128936768,1.2612775564193726
190,295032,295033,0.028734281659126282,0.3058563768863678,1.019466519355774,-11.155961036682129,15.729466438293457,20.946565628051758,0.9959501624107361,-0.20698964595794678,-0.227988600730896,-0.25646063685417175,2.365739345550537,1.5228804349899292
191,295042,295043,0.00268306746147573,0.10353435575962067,0.9528281092643738,-9.441333770751953,-0.1531124860048294,21.255826950073242,1.0019499063491821,-0.20698964595794678,-0.22498874366283417,-0.48353633284568787,2.4986493587493896,1.6713486909866333
192,295052,295053,0.003696371102705598,0.04550628736615181,0.9528264403343201,-5.712770462036133,-10.713839530944824,20.120532989501953,1.0109494924545288,-0.19799008965492249,-0.2369881421327591,-0.45795097947120667,2.3029258251190186,1.9179470539093018
193,295062,295063,-0.0045189629308879375,0.03358308970928192,0.9836481213569641,-8.010798454284668,-16.474184036254883,19.26559829711914,1.00344979763031,-0.19349032640457153,-0.21448926627635956,-0.27463504672050476,2.211160659790039,2.1507506370544434
194,295072,295073,-0.03713485598564148,0.10657263547182083,1.0095000267028809,-13.82367992401123,-14.649325370788574,17.645814895629883,1.00344979763031,-0.20248986780643463,-0.23548822104930878,-0.03884733468294144,2.2805593013763428,2.3364572525024414
195,295082,295083,-0.008732722140848637,0.11262667179107666,0.9750290513038635,-27.46443748474121,-3.5377280712127686,14.448737144470215,1.018449068069458,-0.20548972487449646,-0.23548822104930878,0.1291583627462387,2.002929210662842,2.5409934520721436
196,295092,295093,0.0077907852828502655,0.13744115829467773,1.0150964260101318,-53.46308517456055,9.640130996704102,13.0430269241333,1.0109494924545288,-0.19499024748802185,-0.24298784136772156,0.12583760917186737,1.9562426805496216,2.6365480422973633
197,295102,295103,0.02242066152393818,0.12773026525974274,1.07842218875885,-77.73722839355469,29.426130294799805,12.11083698272705,1.01694917678833,-0.19199039041996002,-0.23398829996585846,-0.11397957801818848,1.156937599182129,2.762828826904297
198,295112,295113,-0.1684522032737732,0.15803489089012146,0.987438976764679,-94.25628662109375,33.48554229736328,10.662161827087402,1.004949688911438,-0.19199039041996002,-0.23398829996585846,-0.3015301823616028,0.635809600353241,2.8799002170562744
199,295122,295123,-0.0996076688170433,0.03090604394674301,1.090646743774414,-92.59809112548828,25.145410537719727,10.765364646911621,1.019948959350586,-0.1889905482530594,-0.23098844289779663,-0.6683549284934998,-0.3881419003009796,2.989863157272339
200,295132,295133,0.011923638172447681,0.03876984119415283,1.081485390663147,-83.91246795654297,7.470444679260254,9.919384002685547,1.0124493837356567,-0.18749062716960907,-0.2384880781173706,-0.8937798738479614,-0.8807160258293152,3.0602846145629883
201,295142,295143,0.04999895393848419,0.11295728385448456,1.1488838195800781,-54.64594268798828,-24.332263946533203,11.65787410736084,1.018449068069458,-0.17249137163162231,-0.23248836398124695,-0.8334907293319702,-1.7983014583587646,3.209744691848755
202,295152,295153,0.009448579512536526,0.05736031383275986,1.0985424518585205,-19.69029426574707,-31.600879669189453,8.818734169006348,1.0109494924545288,-0.17699114978313446,-0.2189890444278717,-0.6181372404098511,-2.325915575027466,3.332146644592285
203,295162,295163,-0.008592020720243454,0.12789712846279144,1.1154099702835083,33.21105194091797,-8.850976943969727,5.640769958496094,1.0289485454559326,-0.18599069118499756,-0.227988600730896,-0.5145415663719177,-2.482056140899658,3.3994100093841553
204,295172,295173,0.0738314613699913,0.11179447174072266,1.1707817316055298,80.46040344238281,28.44295883178711,4.430010795593262,1.0079495906829834,-0.16799159348011017,-0.21298934519290924,-0.45337364077568054,-1.9716004133224487,3.4433507919311523
205,295182,295183,0.02256486564874649,0.12755297124385834,1.002764105796814,78.93159484863281,64.41678619384766,2.14331316947937,1.0079495906829834,-0.1799909919500351,-0.227988600730896,-0.6828762292861938,-1.4820160865783691,3.492488145828247
206,295192,295193,0.009362464770674706,0.04888535663485527,0.9469236731529236,51.76418685913086,76.29110717773438,-5.588722229003906,0.9854506850242615,-0.17249137163162231,-0.23248836398124695,-1.4592359066009521,-0.6183700561523438,3.5034024715423584
207,295202,295203,0.04941732436418533,0.15695393085479736,1.0670262575149536,18.74947166442871,71.99372100830078,-9.47866153717041,0.9929503202438354,-0.170991450548172,-0.23098844289779663,-2.3119611740112305,-0.13087914884090424,3.454653739929199
208,295212,295213,0.0005351592553779483,0.13482965528964996,1.072115182876587,-4.839395999908447,44.44257354736328,-12.325774192810059,0.9959501624107361,-0.170991450548172,-0.2099895030260086,-2.7900094985961914,-0.050211284309625626,3.353104591369629
209,295222,295223,-0.03240751475095749,0.1550365835428238,1.0648502111434937,-20.45772361755371,-0.6362434029579163,-14.713581085205078,0.9809509515762329,-0.16799159348011017,-0.22498874366283417,-3.352999210357666,-0.24522706866264343,3.216552257537842
210,295232,295233,0.035575974732637405,0.19400136172771454,1.0045133829116821,-34.6115608215332,-32.35679626464844,-16.600133895874023,0.9959501624107361,-0.1799909919500351,-0.2189890444278717,-3.261762857437134,-0.2663363814353943,3.091959238052368
211,295242,295243,0.06590357422828674,0.23029214143753052,1.0488605499267578,-43.111576080322266,-53.6406364440918,-21.226041793823242,0.9959501624107361,-0.18299084901809692,-0.2099895030260086,-2.8304331302642822,-0.7211604714393616,2.9037411212921143
212,295252,295253,0.04131719097495079,0.20915603637695312,1.1317195892333984,-33.50728988647461,-69.2483901977539,-25.495071411132812,1.0154491662979126,-0.18749062716960907,-0.22348882257938385,-2.62823224067688,-1.093942403793335,2.7323806285858154
213,295262,295263,-0.022774050012230873,0.054333873093128204,1.0512583255767822,-19.8740177154541,-71.94583129882812,-27.78559684753418,1.019948959350586,-0.19199039041996002,-0.227988600730896,-1.8373165130615234,-1.5331008434295654,2.4787323474884033
214,295272,295273,-0.02485792525112629,0.07163933664560318,1.0608819723129272,-2.141578197479248,-64.09274291992188,-28.03487777709961,1.0154491662979126,-0.19349032640457153,-0.22348882257938385,-1.0252439975738525,-1.7259622812271118,2.2293150424957275
215,295282,295283,-0.029975537210702896,0.13315686583518982,0.9789379239082336,12.053108215332031,-53.54528045654297,-26.742069244384766,1.004949688911438,-0.18299084901809692,-0.23098844289779663,-0.5598245859146118,-1.7954391241073608,1.991952896118164
216,295292,295293,-0.07537336647510529,0.11126502603292465,1.0165005922317505,18.9841365814209,-45.191650390625,-25.099945068359375,1.0094494819641113,-0.17549122869968414,-0.21448926627635956,0.10857756435871124,-1.652463674545288,1.7363758087158203
217,295302,295303,-0.17963455617427826,-0.007653034292161465,1.11238694190979,23.866294860839844,-31.168426513671875,-24.356849670410156,1.0079495906829834,-0.170991450548172,-0.22498874366283417,0.33412954211235046,-1.4666721820831299,1.5333260297775269
218,295312,295313,-0.09340935200452805,0.016017870977520943,1.0127900838851929,29.44121742248535,-3.987121343612671,-20.162113189697266,1.004949688911438,-0.17399129271507263,-0.227988600730896,0.7234621644020081,-1.1306838989257812,1.3091517686843872
219,295322,295323,-0.059990718960762024,0.05978885665535927,0.9712792634963989,30.781614303588867,18.81769371032715,-19.338775634765625,0.9989500045776367,-0.170991450548172,-0.22198890149593353,0.7695601582527161,-1.0075603723526,1.0923207998275757
220,295332,295333,-0.005738993175327778,0.19186533987522125,0.970278263092041,27.49048614501953,31.174589157104492,-19.65788459777832,0.9959501624107361,-0.16499175131320953,-0.21598920226097107,0.4788040816783905,-0.6315203309059143,0.9324371814727783
221,295342,295343,0.0012481904122978449,0.094626285135746,0.9670581221580505,0.1348934769630432,27.11341667175293,-20.931432723999023,1.0139492750167847,-0.170991450548172,-0.22198890149593353,0.04888176918029785,-0.42489758133888245,0.7549319863319397
222,295352,295353,-0.027578255161643028,0.27600720524787903,1.041732668876648,-34.89907455444336,15.284828186035156,-21.547277450561523,0.9959501624107361,-0.170991450548172,-0.22498874366283417,0.056281961500644684,-0.3892174959182739,0.4898672103881836
223,295362,295363,0.01612921804189682,0.11287681758403778,1.0992590188980103,-58.203704833984375,7.921696662902832,-21.444822311401367,1.0214488506317139,-0.17249137163162231,-0.2174891233444214,-0.13719189167022705,-0.7925045490264893,0.26493343710899353
224,295372,295373,0.021271228790283203,0.09194968640804291,1.1209321022033691,-56.701385498046875,-3.5574865341186523,-19.30308723449707,1.0004500150680542,-0.16949152946472168,-0.2294885218143463,-0.17333446443080902,-1.1928441524505615,0.04933138191699982
225,295382,295383,-0.024035941809415817,0.07004223763942719,1.0758388042449951,-36.19291687011719,-10.355035781860352,-18.76031494140625,1.0064496994018555,-0.16349181532859802,-0.22348882257938385,-0.04922305792570114,-1.7945523262023926,-0.16755932569503784
226,295392,295393,-0.03583891689777374,0.014566205441951752,0.9774553179740906,-11.559768676757812,-17.21380043029785,-17.743555068969727,1.0094494819641113,-0.15449227392673492,-0.2174891233444214,0.11532942950725555,-2.333746910095215,-0.3738958239555359
227,295402,295403,-0.020783204585313797,0.07457675784826279,1.0469011068344116,16.006988525390625,-19.707054138183594,-19.1353759765625,1.01694917678833,-0.16499175131320953,-0.22498874366283417,0.15069150924682617,-2.2514705657958984,-0.5070245265960693
228,295412,295413,-0.08183656632900238,-0.0541461817920208,1.0581799745559692,34.96455764770508,-15.557863235473633,-20.42774772644043,1.0004500150680542,-0.16649167239665985,-0.22048896551132202,0.43037697672843933,-2.055819511413574,-0.7016639709472656
229,295422,295423,-0.07392394542694092,0.028411617502570152,0.9852914810180664,43.157779693603516,-7.55638313293457,-23.694385528564453,1.0154491662979126,-0.1814909279346466,-0.21148942410945892,0.5381763577461243,-1.7193840742111206,-0.8803045749664307
230,295432,295433,-0.06406315416097641,0.037047553807497025,0.9364466071128845,46.67888259887695,-5.637144565582275,-24.194612503051758,0.9989500045776367,-0.17699114978313446,-0.21598920226097107,0.687190055847168,-1.263043761253357,-1.123797059059143
231,295442,295443,-0.04817131906747818,0.05129187926650047,0.9610703587532043,43.884037017822266,-9.96068286895752,-21.882373809814453,1.0004500150680542,-0.16949152946472168,-0.22048896551132202,0.7533144950866699,-0.6398990750312805,-1.369781732559204
232,295452,295453,-0.06641433387994766,0.1654299795627594,1.046795129776001,32.53574752807617,-23.29816436767578,-19.450037002563477,0.9974501132965088,-0.18449077010154724,-0.21448926627635956,0.9291146397590637,-0.46199876070022583,-1.6052824258804321
233,295462,295463,0.027094196528196335,0.2576514482498169,0.9857856035232544,9.233997344970703,-31.15050506591797,-18.3604793548584,1.0004500150680542,-0.1814909279346466,-0.22048896551132202,1.2104833126068115,-0.0590895377099514,-1.8190470933914185
234,295472,295473,-0.0347980372607708,0.10179567337036133,0.9290809035301208,-16.25470542907715,-24.48936653137207,-18.4880313873291,1.0064496994018555,-0.18749062716960907,-0.22648866474628448,1.3291441202163696,-0.03821293264627457,-1.952720284461975
235,295482,295483,-0.056565336883068085,0.061199381947517395,0.9793726205825806,-31.994495391845703,-13.41422176361084,-19.24779510498047,1.0259486436843872,-0.19199039041996002,-0.2369881421327591,1.6504371166229248,-0.03318654000759125,-2.164992570877075
236,295492,295493,-0.020704831928014755,0.03524615988135338,0.9583854675292969,-44.1342887878418,-3.6219146251678467,-19.582908630371094,1.0244487524032593,-0.18449077010154724,-0.22648866474628448,1.7249195575714111,-0.15162158012390137,-2.353856325149536
237,295502,295503,-0.031094729900360107,0.09867239743471146,1.0403659343719482,-49.68433380126953,3.1267216205596924,-18.934778213500977,1.0124493837356567,-0.18449077010154724,-0.22648866474628448,1.7769314050674438,-0.7443531155586243,-2.526118278503418
238,295512,295513,-0.06401727348566055,0.051465168595314026,0.9638821482658386,-42.35818099975586,5.606227397918701,-17.06119155883789,1.018449068069458,-0.16649167239665985,-0.22348882257938385,1.7436577081680298,-1.2035781145095825,-2.7194440364837646
239,295522,295523,0.012801144272089005,-0.06398092955350876,0.956641674041748,-25.30525779724121,9.93046760559082,-15.363097190856934,1.01694917678833,-0.16799159348011017,-0.22198890149593353,1.7251040935516357,-1.4469549655914307,-2.9280123710632324
240,295532,295533,-0.031837448477745056,0.03240617364645004,0.9691064357757568,-2.6826159954071045,11.93136978149414,-12.26069164276123,1.0079495906829834,-0.1619918942451477,-0.23398829996585846,1.5730258226394653,-1.8209174871444702,-3.0543887615203857
241,295542,295543,-0.008632411248981953,0.11592458188533783,1.0127402544021606,23.058168411254883,15.858725547790527,-10.14404582977295,1.0019499063491821,-0.16799159348011017,-0.21598920226097107,1.4498181343078613,-1.6076334714889526,-3.2359116077423096
242,295552,295553,0.0031841457821428776,0.11360786110162735,1.0235390663146973,36.96165084838867,15.761600494384766,-8.945116996765137,0.9974501132965088,-0.16349181532859802,-0.2084895670413971,1.29646635055542,-1.2617186307907104,-3.373563528060913
243,295562,295563,-0.009135347791016102,0.09552190452814102,1.0658369064331055,38.103294372558594,17.186565399169922,-8.33180046081543,1.00344979763031,-0.17249137163162231,-0.22048896551132202,1.116806149482727,-0.6698965430259705,-3.515326976776123
244,295572,295573,-0.08204729855060577,-0.02089928463101387,1.0300332307815552,32.324737548828125,16.238372802734375,-8.265446662902832,0.9959501624107361,-0.16799159348011017,-0.22198890149593353,0.9916929602622986,-0.5083780884742737,-3.5637145042419434
245,295582,295583,-0.06077560409903526,-0.023614652454853058,0.9430273771286011,20.912080764770508,17.49086570739746,-3.9178497791290283,0.9959501624107361,-0.16799159348011017,-0.22498874366283417,0.8109222054481506,-0.25006482005119324,-3.6251742839813232
246,295592,295593,-0.05189249664545059,-0.02986055240035057,0.9018979072570801,9.408783912658691,14.818866729736328,-2.218950033187866,0.9959501624107361,-0.16499175131320953,-0.21598920226097107,0.7733864188194275,-0.030706871300935745,-3.692697525024414
247,295602,295603,0.05897591635584831,0.13787421584129333,0.8939239382743835,1.8593425750732422,13.159930229187012,0.32175102829933167,0.9899504780769348,-0.15899205207824707,-0.21298934519290924,0.5915423035621643,0.04847481846809387,-3.7012267112731934
248,295612,295613,0.005620913580060005,0.058369625359773636,0.9751777052879333,-7.664886474609375,10.429424285888672,-0.08124160021543503,1.00344979763031,-0.17249137163162231,-0.20548972487449646,0.5863584876060486,0.047074612230062485,-3.715792179107666
249,295622,295623,-0.03525729849934578,0.06044923514127731,0.9957363605499268,-16.87105941772461,8.379399299621582,-0.3626895248889923,1.0064496994018555,-0.16949152946472168,-0.21448926627635956,0.4883943498134613,0.24000082910060883,-3.767974853515625
250,295632,295633,0.0275593101978302,0.11732300370931625,1.0650333166122437,-25.827167510986328,9.069910049438477,1.1615867614746094,0.9854506850242615,-0.17849107086658478,-0.21448926627635956,0.3379681408405304,-0.15657828748226166,-3.7201788425445557
251,295642,295643,-0.03215545788407326,0.0922175943851471,1.0176907777786255,-29.59894371032715,5.887485504150391,0.13561618328094482,1.004949688911438,-0.16799159348011017,-0.2189890444278717,0.3395282030105591,-0.5063969492912292,-3.7041611671447754
252,295652,295653,0.1398225575685501,0.23197336494922638,1.0327930450439453,-49.215293884277344,2.402362585067749,1.547101616859436,1.004949688911438,-0.16799159348011017,-0.2189890444278717,0.2892455458641052,-0.8474197387695312,-3.6899070739746094
253,295662,295663,0.018009908497333527,0.12868091464042664,1.0560144186019897,-66.68660736083984,-4.039361000061035,-0.41526690125465393,1.004949688911438,-0.16799159348011017,-0.2189890444278717,0.33687832951545715,-1.0684983730316162,-3.72422456741333
254,295672,295673,-0.04073092341423035,0.04804183542728424,1.013339877128601,-71.00061798095703,-3.3996565341949463,-2.105313301086426,0.9989500045776367,-0.18599069118499756,-0.2189890444278717,0.37954840064048767,-1.9424560070037842,-3.6886608600616455
255,295682,295683,-0.07194936275482178,0.07211174070835114,1.033258080482483,-78.24931335449219,-2.462709903717041,-1.4698868989944458,1.0064496994018555,-0.1814909279346466,-0.22048896551132202,0.42020198702812195,-2.7001168727874756,-3.699709177017212
256,295692,295693,-0.05790533125400543,0.09489625692367554,1.0966622829437256,-62.62353515625,-1.6316778659820557,0.4622659683227539,1.00344979763031,-0.16949152946472168,-0.22348882257938385,0.37566816806793213,-3.2463698387145996,-3.734581232070923
257,295702,295703,-0.008743696846067905,0.10715193301439285,1.1397957801818848,-26.9309139251709,-19.245153427124023,0.791698157787323,1.0079495906829834,-0.16499175131320953,-0.2189890444278717,0.4710886776447296,-3.743190288543701,-3.7609481811523438
258,295712,295713,0.019842498004436493,0.03077700175344944,1.1347334384918213,6.788192272186279,-40.23394012451172,0.9865694046020508,1.004949688911438,-0.15599219501018524,-0.22498874366283417,0.7555515766143799,-4.065695285797119,-3.770447015762329
259,295722,295723,0.010600906796753407,0.04444810003042221,1.1762688159942627,35.59644317626953,-50.55400466918945,1.040463924407959,1.0019499063491821,-0.16499175131320953,-0.20698964595794678,1.2013708353042603,-4.063631534576416,-3.7484891414642334
260,295732,295733,0.016477234661579132,0.09819505363702774,1.1852284669876099,53.335418701171875,-44.78803634643555,0.823566734790802,1.0019499063491821,-0.17399129271507263,-0.22198890149593353,1.526175856590271,-3.6116530895233154,-3.676457166671753
261,295742,295743,-0.016596369445323944,0.08083099871873856,1.1373491287231445,68.73221588134766,-27.107982635498047,-2.407364845275879,1.0019499063491821,-0.16799159348011017,-0.2189890444278717,2.1549594402313232,-2.9518253803253174,-3.7148590087890625
262,295752,295753,0.054219506680965424,0.14048242568969727,1.0768851041793823,78.08412170410156,-16.852689743041992,-8.615310668945312,1.004949688911438,-0.170991450548172,-0.22198890149593353,2.5326972007751465,-2.1533772945404053,-3.7694766521453857
263,295762,295763,-0.09050770848989487,0.11333145946264267,1.1941300630569458,61.846702575683594,5.714385986328125,-13.212689399719238,1.0094494819641113,-0.16349181532859802,-0.20248986780643463,2.535047769546509,-1.7369236946105957,-3.7076570987701416
264,295772,295773,-0.004273850005120039,0.0787249282002449,1.1168452501296997,24.57707405090332,49.23674011230469,-14.438040733337402,1.0064496994018555,-0.17249137163162231,-0.22048896551132202,2.288759469985962,-0.9728560447692871,-3.7859690189361572
265,295782,295783,-0.04256509989500046,0.040759216994047165,0.9844788908958435,-23.28208351135254,70.7968978881836,-13.486837387084961,0.9974501132965088,-0.1514924168586731,-0.2174891233444214,2.1067070960998535,-0.8000867962837219,-3.9820568561553955
266,295792,295793,-0.08693356812000275,0.06595835089683533,1.0189940929412842,-55.93836975097656,85.841064453125,-6.949955463409424,0.9974501132965088,-0.14849257469177246,-0.20548972487449646,1.2784276008605957,-1.12284255027771,-4.0462799072265625
267,295802,295803,-0.0863800123333931,0.11524124443531036,1.059166669845581,-64.502685546875,74.19041442871094,-3.7936203479766846,0.9929503202438354,-0.14699265360832214,-0.2099895030260086,0.14073818922042847,-1.7796063423156738,-4.027416229248047
268,295812,295813,-0.09595035016536713,0.0842716246843338,0.94532710313797,-64.04354095458984,49.68433380126953,2.5035455226898193,0.9869506359100342,-0.14399279654026031,-0.2099895030260086,-0.4254037141799927,-2.274061441421509,-4.1795830726623535
269,295822,295823,-0.08558713644742966,0.05602603405714035,0.9606044888496399,-53.383522033691406,17.285491943359375,6.435837268829346,1.00344979763031,-0.13949301838874817,-0.21148942410945892,-0.7158044576644897,-2.881614923477173,-4.25270938873291
270,295832,295833,-0.05132702738046646,0.11842352151870728,1.02577805519104,-23.68759536743164,-11.127655029296875,9.542486190795898,0.9899504780769348,-0.14399279654026031,-0.2099895030260086,-0.9562638998031616,-3.437917947769165,-4.200002670288086
271,295842,295843,-0.057972945272922516,0.1417965292930603,1.062182068824768,18.188716888427734,-32.05424880981445,10.711115837097168,0.9914504289627075,-0.13949301838874817,-0.20548972487449646,-0.7633887529373169,-3.677004337310791,-4.14726448059082
272,295852,295853,-0.05267870053648949,0.09773296117782593,1.0099300146102905,65.00804138183594,-46.241455078125,13.938843727111816,0.9974501132965088,-0.1604919731616974,-0.20248986780643463,-0.2653161585330963,-3.363402843475342,-4.109376907348633
273,295862,295863,-0.10079099982976913,0.11073943227529526,1.0123215913772583,104.67282104492188,-45.48069381713867,15.615935325622559,0.9884505867958069,-0.15749211609363556,-0.20248986780643463,0.10277406126260757,-2.890263557434082,-3.9226598739624023
274,295872,295873,-0.07741682976484299,0.06872276216745377,0.9690144062042236,129.90939331054688,-36.1826057434082,18.01862144470215,0.9989500045776367,-0.16499175131320953,-0.2189890444278717,0.6533427238464355,-1.475110411643982,-3.8182222843170166
275,295882,295883,-0.0322127565741539,0.08316131681203842,0.9730537533760071,130.0417938232422,-16.488723754882812,17.122201919555664,0.9869506359100342,-0.18299084901809692,-0.22498874366283417,0.949352502822876,-0.482043981552124,-3.5875494480133057
276,295892,295893,-0.06916959583759308,-0.08206348866224289,0.8391714096069336,105.09811401367188,13.400318145751953,16.78447914123535,0.9809509515762329,-0.19799008965492249,-0.2189890444278717,1.0463694334030151,0.8764037489891052,-3.3860652446746826
277,295902,295903,-0.0704093798995018,0.002325000474229455,0.9081422090530396,58.43651580810547,39.972320556640625,12.774592399597168,0.9899504780769348,-0.19199039041996002,-0.22198890149593353,1.0262869596481323,1.743356466293335,-3.217311143875122
278,295912,295913,-0.10936002433300018,0.12146050482988358,0.947842538356781,0.2045428603887558,64.18859100341797,11.151080131530762,0.9794510006904602,-0.1814909279346466,-0.22048896551132202,0.502689003944397,2.278937339782715,-3.018157958984375
279,295922,295923,-0.1040278822183609,-0.13696642220020294,0.8942486047744751,-49.266292572021484,73.23237609863281,9.331002235412598,0.9884505867958069,-0.17549122869968414,-0.22648866474628448,-0.26926693320274353,2.1827797889709473,-2.8421871662139893
280,295932,295933,-0.13286764919757843,0.04037696123123169,0.9460847973823547,-87.21105194091797,77.88985443115234,8.432263374328613,0.9929503202438354,-0.18299084901809692,-0.22198890149593353,-0.7138233780860901,1.7554728984832764,-2.75176739692688
281,295942,295943,-0.015266352333128452,0.17358297109603882,1.0854800939559937,-107.18648529052734,71.11036682128906,6.33392333984375,0.9959501624107361,-0.17399129271507263,-0.227988600730896,-1.7614060640335083,0.5766055583953857,-2.617347240447998
282,295952,295953,-0.03929806128144264,0.06605400145053864,0.9646292924880981,-120.65318298339844,58.99321746826172,4.458477020263672,0.9989500045776367,-0.18299084901809692,-0.22198890149593353,-2.0824568271636963,-0.2764641344547272,-2.554802417755127
283,295962,295963,-0.005015844479203224,0.08419664204120636,1.014407992362976,-119.73980712890625,50.543983459472656,3.282496690750122,0.9944502711296082,-0.16649167239665985,-0.23248836398124695,-2.806130886077881,-1.638206958770752,-2.5250306129455566
284,295972,295973,-0.008102230727672577,0.05848188325762749,0.9880945086479187,-104.39114379882812,42.108577728271484,-3.3548576831817627,0.9914504289627075,-0.16649167239665985,-0.22048896551132202,-3.255141258239746,-2.5002403259277344,-2.477931022644043
285,295982,295983,-0.021075190976262093,0.11145933717489243,1.0520778894424438,-75.77464294433594,23.186840057373047,-9.5377779006958,0.9869506359100342,-0.14999249577522278,-0.2189890444278717,-3.647834300994873,-3.7246313095092773,-2.5459845066070557
286,295992,295993,-0.0012208953266963363,0.09104988723993301,1.0723140239715576,-46.53841018676758,-1.2595493793487549,-16.355440139770508,0.9719513654708862,-0.1529923528432846,-0.22198890149593353,-3.9835777282714844,-4.494546413421631,-2.638787031173706
287,296002,296003,-0.026628490537405014,0.06959434598684311,1.045673131942749,-4.869781017303467,-21.002641677856445,-23.604267120361328,0.9734513163566589,-0.1514924168586731,-0.22048896551132202,-3.930912494659424,-5.003897190093994,-2.7946274280548096
288,296012,296013,-0.0012638242915272713,0.10756933689117432,1.0908455848693848,51.27693557739258,-41.400604248046875,-23.3352108001709,0.9719513654708862,-0.14099295437335968,-0.20398980379104614,-3.5461153984069824,-4.855854034423828,-2.946950674057007
289,296022,296023,-0.05987183377146721,-0.046247538179159164,0.9871485233306885,105.50708770751953,-54.028053283691406,-22.62258529663086,0.965951681137085,-0.14699265360832214,-0.20098994672298431,-3.2435450553894043,-4.460180282592773,-3.1381943225860596
290,296032,296033,-0.050778038799762726,-0.0008903121342882514,0.9300040006637573,140.0678253173828,-60.47519302368164,-21.04236602783203,0.965951681137085,-0.1619918942451477,-0.20698964595794678,-2.3861989974975586,-3.240769863128662,-3.3206288814544678
291,296042,296043,-0.021400881931185722,0.03171183913946152,0.926239550113678,151.90676879882812,-64.96656799316406,-19.66051483154297,0.9614518880844116,-0.16349181532859802,-0.20248986780643463,-1.720374345779419,-1.5548903942108154,-3.399850368499756
292,296052,296053,-0.015728460624814034,0.036442793905735016,0.9318836331367493,132.04176330566406,-54.08179473876953,-21.247695922851562,0.9749512076377869,-0.1799909919500351,-0.21598920226097107,-1.1957517862319946,-0.5314481854438782,-3.7282469272613525
293,296062,296063,0.00689355656504631,0.05535944551229477,0.9463066458702087,88.72721099853516,-31.836021423339844,-23.02170753479004,0.9689515233039856,-0.16799159348011017,-0.22198890149593353,-0.5979208946228027,0.763802707195282,-3.963489055633545
294,296072,296073,-0.08231209963560104,0.025528080761432648,0.8978506922721863,42.74296951293945,-2.670910120010376,-22.73149871826172,0.9764511585235596,-0.17849107086658478,-0.22348882257938385,-0.39909234642982483,1.310702919960022,-4.301895618438721
295,296082,296083,-0.005544350948184729,0.05500394478440285,0.9291983246803284,7.95383358001709,24.719392776489258,-20.707904815673828,0.9674516320228577,-0.17549122869968414,-0.20548972487449646,-0.43866485357284546,1.8196959495544434,-4.508421897888184
296,296092,296093,-0.2161310762166977,0.017336906865239143,0.8593665361404419,-14.152514457702637,48.10377502441406,-17.2962703704834,0.9794510006904602,-0.1604919731616974,-0.20548972487449646,-0.7038361430168152,1.9365715980529785,-4.7105207443237305
297,296102,296103,-0.11409029364585876,0.017532404512166977,0.8999831676483154,-15.97193717956543,63.07767105102539,-13.054882049560547,0.9824508428573608,-0.14849257469177246,-0.2174891233444214,-1.2388825416564941,1.8394033908843994,-4.862780570983887
298,296112,296113,-0.060677509754896164,0.020608410239219666,0.927817165851593,-9.196200370788574,65.26787567138672,-10.445880889892578,0.9839507937431335,-0.15899205207824707,-0.21598920226097107,-1.9492809772491455,1.6483025550842285,-4.982089042663574
299,296122,296123,0.019861461594700813,0.08143561333417892,1.0076894760131836,8.266081809997559,58.77008056640625,-7.638265132904053,0.9644517302513123,-0.16349181532859802,-0.23248836398124695,-2.4379289150238037,1.612021803855896,-5.044327735900879
300,296132,296133,-0.03903670236468315,0.04391849786043167,0.945083737373352,31.3043270111084,33.875892639160156,-6.164772033691406,0.9674516320228577,-0.16649167239665985,-0.2174891233444214,-2.830887794494629,1.8831878900527954,-5.0279622077941895
301,296142,296143,-0.05206741765141487,0.00819138903170824,0.9066787362098694,52.76211166381836,1.5675628185272217,-3.7803046703338623,0.9689515233039856,-0.18299084901809692,-0.21598920226097107,-3.245328426361084,2.134852170944214,-5.08739709854126
302,296152,296153,-0.004408284556120634,0.05634194612503052,0.978131115436554,67.12007904052734,-25.158180236816406,-1.30745530128479,0.958452045917511,-0.19649016857147217,-0.23248836398124695,-3.2147703170776367,2.707148790359497,-5.079084396362305
303,296162,296163,-0.0370948351919651,0.0653424859046936,0.9468191266059875,68.02133178710938,-46.94339370727539,-1.757563829421997,0.9464526772499084,-0.2084895670413971,-0.22048896551132202,-2.7758774757385254,3.461045742034912,-5.032641887664795
304,296172,296173,-0.661766529083252,0.00498738419264555,0.8669185042381287,61.460899353027344,-59.63124084472656,-4.5756330490112305,0.9779511094093323,-0.23398829996585846,-0.227988600730896,-2.3932044506073,3.98112416267395,-5.153148174285889
305,296182,296183,-0.8658144474029541,-0.06763163208961487,0.9401397705078125,47.27114486694336,-63.606903076171875,-6.449623107910156,0.965951681137085,-0.22198890149593353,-0.23998799920082092,-1.6844029426574707,4.641979694366455,-5.182994365692139
306,296192,296193,-0.324238121509552,0.01448474358767271,0.9504987597465515,26.558446884155273,-56.70432662963867,-5.473415851593018,0.9809509515762329,-0.227988600730896,-0.227988600730896,-1.1809144020080566,4.980698108673096,-5.394829273223877
307,296202,296203,-0.010767761617898941,0.02337818779051304,0.9163066148757935,-3.9141528606414795,-37.09098815917969,-4.763808250427246,0.9794510006904602,-0.21448926627635956,-0.2384880781173706,-0.5928536653518677,5.299676895141602,-5.492593765258789
308,296212,296213,-0.21419019997119904,-0.0701851025223732,0.8097947835922241,-35.335174560546875,-9.83206844329834,-2.6477341651916504,0.9869506359100342,-0.22198890149593353,-0.23998799920082092,-0.19492003321647644,5.417071342468262,-5.546363353729248
309,296222,296223,-0.2330380529165268,-0.03786744922399521,0.859097421169281,-59.65515899658203,17.63306999206543,-0.06861188262701035,0.9974501132965088,-0.2174891233444214,-0.2384880781173706,-0.2033649981021881,4.888745307922363,-5.72507381439209
310,296232,296233,-0.04683684930205345,0.04065793752670288,0.9839418530464172,-72.5794677734375,39.29086685180664,2.1395974159240723,1.0019499063491821,-0.21298934519290924,-0.2549872398376465,-0.609849214553833,4.447085857391357,-5.827127456665039
311,296242,296243,-0.023398682475090027,0.04892142862081528,1.0231293439865112,-67.54324340820312,53.94528579711914,4.6352338790893555,0.9944502711296082,-0.20548972487449646,-0.24148792028427124,-1.0473027229309082,3.860085964202881,-5.797444820404053
312,296252,296253,-0.15924035012722015,0.02799893729388714,0.9586590528488159,-59.350486755371094,57.05384826660156,7.779619216918945,0.9884505867958069,-0.2084895670413971,-0.25048747658729553,-1.5284719467163086,3.110450267791748,-5.713154315948486
313,296262,296263,-0.10346807539463043,0.014542299322783947,0.9498400688171387,-52.13127899169922,44.52562713623047,10.38864803314209,0.9734513163566589,-0.21148942410945892,-0.24148792028427124,-2.1978933811187744,2.8426644802093506,-5.57846736907959
314,296272,296273,-0.026044560596346855,0.09049330651760101,1.0600988864898682,-52.40137481689453,18.104705810546875,13.03158187866211,0.9914504289627075,-0.20548972487449646,-0.2474876195192337,-2.8173515796661377,2.2117583751678467,-5.581809043884277
315,296282,296283,-0.021127352491021156,0.08103810250759125,1.0949774980545044,-53.95878601074219,-12.081356048583984,16.759674072265625,0.9824508428573608,-0.20248986780643463,-0.2384880781173706,-2.921161413192749,1.8117575645446777,-5.336729049682617
316,296292,296293,-0.015614904463291168,0.11581677198410034,1.171504020690918,-50.656959533691406,-41.75367736816406,19.97206687927246,0.9959501624107361,-0.21598920226097107,-0.24298784136772156,-2.6055734157562256,1.5333563089370728,-4.947408199310303
317,296302,296303,-0.0593193881213665,0.030916742980480194,1.0908993482589722,-38.70697784423828,-69.2821273803711,19.097686767578125,1.0064496994018555,-0.2294885218143463,-0.25048747658729553,-2.186696767807007,0.6666430234909058,-4.854206562042236
318,296312,296313,-0.033331602811813354,0.07959220558404922,1.0998767614364624,-17.06096839904785,-89.61407470703125,20.587629318237305,0.9959501624107361,-0.23398829996585846,-0.24898754060268402,-1.5572389364242554,0.6439993381500244,-4.553563594818115
319,296322,296323,-0.027918782085180283,0.0953744575381279,1.0718523263931274,-9.239117622375488,-78.43585968017578,19.414857864379883,1.0064496994018555,-0.22048896551132202,-0.2474876195192337,-0.669221043586731,0.5724874138832092,-4.305257320404053
320,296332,296333,-0.07186060398817062,0.1790381819009781,1.0818939208984375,-9.782123565673828,-47.49527359008789,17.799358367919922,0.9959501624107361,-0.21298934519290924,-0.2369881421327591,-0.142631396651268,0.6005292534828186,-4.225300312042236
321,296342,296343,-0.07484689354896545,0.11966068297624588,1.1034544706344604,-27.957054138183594,-5.493110656738281,16.267826080322266,0.9959501624107361,-0.19499024748802185,-0.25198739767074585,0.33867818117141724,0.3243827223777771,-4.1175971031188965
322,296352,296353,-0.07056020945310593,0.07112038135528564,1.07632315158844,-47.30538558959961,21.725006103515625,17.12392234802246,0.9959501624107361,-0.19499024748802185,-0.25198739767074585,0.44029760360717773,-0.1518738567829132,-4.01847505569458
323,296362,296363,-0.05544480308890343,0.11426614224910736,1.1308035850524902,-61.95082092285156,33.667015075683594,20.224227905273438,0.9959501624107361,-0.19499024748802185,-0.25198739767074585,0.28505197167396545,-0.34922200441360474,-3.790396213531494
324,296372,296373,-0.12719912827014923,0.09084273129701614,1.110662579536438,-63.69296646118164,45.583744049072266,25.561471939086914,0.9989500045776367,-0.170991450548172,-0.2369881421327591,-0.14573951065540314,-1.0218982696533203,-3.6525626182556152
325,296382,296383,-0.04801745340228081,0.1261105090379715,1.1170811653137207,-53.343929290771484,58.15652084350586,30.266244888305664,0.9989500045776367,-0.1889905482530594,-0.23098844289779663,-0.430978000164032,-1.3891198635101318,-3.325528860092163
326,296392,296393,-0.025011349469423294,0.0786290392279625,1.0622375011444092,-36.86854553222656,56.66807174682617,28.61457061767578,1.0004500150680542,-0.16649167239665985,-0.22648866474628448,-1.3502317667007446,-2.295109987258911,-3.209237813949585
327,296402,296403,-0.016892360523343086,0.0818890631198883,1.0988035202026367,-28.743581771850586,41.98655319213867,25.557682037353516,1.0004500150680542,-0.16649167239665985,-0.22648866474628448,-1.6952177286148071,-2.587947368621826,-2.8712518215179443
328,296412,296413,-0.012961896136403084,0.11208952963352203,1.1477930545806885,-20.989473342895508,6.845747470855713,24.15900230407715,0.9854506850242615,-0.15449227392673492,-0.21448926627635956,-2.1395413875579834,-2.8354344367980957,-2.6280064582824707
329,296422,296423,-0.014724244363605976,0.056278541684150696,1.0788066387176514,-0.290008544921875,-28.78899383544922,19.35727882385254,0.9824508428573608,-0.1604919731616974,-0.22048896551132202,-2.111575126647949,-3.0084879398345947,-2.3654439449310303
330,296432,296433,0.04487677291035652,0.21646566689014435,1.1349701881408691,4.553140163421631,-35.70984649658203,15.647103309631348,0.9824508428573608,-0.1604919731616974,-0.2174891233444214,-1.8078694343566895,-3.077514171600342,-2.1567940711975098
331,296442,296443,-0.026125792413949966,0.08581344038248062,1.00583016872406,3.501634120941162,-25.375762939453125,14.693002700805664,0.9914504289627075,-0.16349181532859802,-0.22648866474628448,-1.5693888664245605,-3.062600612640381,-1.988295078277588
332,296452,296453,-0.008914971724152565,0.13867267966270447,1.123144507408142,-4.949410438537598,-11.352418899536133,13.864974975585938,1.0109494924545288,-0.17699114978313446,-0.227988600730896,-1.2767239809036255,-2.825698137283325,-1.79509699344635
333,296462,296463,-0.028282154351472855,0.0828704908490181,1.0376384258270264,-1.5869001150131226,1.2475128173828125,11.032309532165527,0.9779511094093323,-0.1529923528432846,-0.22498874366283417,-1.1220821142196655,-2.961045026779175,-1.6685936450958252
334,296472,296473,-0.0145985446870327,0.12343548238277435,1.0951533317565918,12.104483604431152,11.315357208251953,8.18515396118164,0.9959501624107361,-0.14999249577522278,-0.20698964595794678,-1.151919960975647,-2.8597943782806396,-1.5319963693618774
335,296482,296483,-0.02238977514207363,0.08357429504394531,1.0225564241409302,27.949554443359375,25.939739227294922,5.520627975463867,0.9869506359100342,-0.14999249577522278,-0.2189890444278717,-1.3716071844100952,-2.7529091835021973,-1.4311952590942383
336,296492,296493,-0.05740397050976753,0.055594995617866516,0.9848741292953491,35.309505462646484,32.982940673828125,3.628222703933716,0.9674516320228577,-0.1514924168586731,-0.20548972487449646,-1.7133287191390991,-2.4256296157836914,-1.3508667945861816
337,296502,296503,-0.03760673478245735,0.050858981907367706,0.9890325665473938,35.699913024902344,24.786273956298828,3.428032398223877,0.9824508428573608,-0.16649167239665985,-0.22348882257938385,-2.027268648147583,-2.1363868713378906,-1.3335094451904297
338,296512,296513,0.0270476546138525,0.05355909839272499,1.0076524019241333,29.233062744140625,5.181490421295166,3.213423013687134,0.9854506850242615,-0.1604919731616974,-0.2084895670413971,-2.1626780033111572,-1.7084639072418213,-1.3257992267608643
339,296522,296523,0.0009108869126066566,0.026241064071655273,0.994208574295044,20.596330642700195,-18.163536071777344,2.8509719371795654,0.9614518880844116,-0.15749211609363556,-0.22048896551132202,-2.1170167922973633,-1.534824013710022,-1.356432557106018
340,296532,296533,0.004094851668924093,0.02867937460541725,0.9923505187034607,10.119497299194336,-43.76136016845703,3.6277503967285156,0.9779511094093323,-0.16499175131320953,-0.2189890444278717,-1.8945411443710327,-1.3645111322402954,-1.3514310121536255
341,296542,296543,-0.01816740818321705,0.06280230730772018,1.0258643627166748,1.0651638507843018,-59.680625915527344,4.862605094909668,0.9854506850242615,-0.17249137163162231,-0.21148942410945892,-1.2444089651107788,-1.3428081274032593,-1.3878141641616821
342,296552,296553,-0.049026623368263245,0.039471108466386795,1.0347678661346436,-6.755319118499756,-60.88487243652344,7.844277381896973,1.0019499063491821,-0.18299084901809692,-0.21298934519290924,-0.910220205783844,-1.3848503828048706,-1.28046715259552
343,296562,296563,-0.03572418913245201,0.030740877613425255,1.013167381286621,-11.746278762817383,-48.929832458496094,11.337125778198242,1.0094494819641113,-0.19349032640457153,-0.21448926627635956,-0.44487160444259644,-1.4683160781860352,-1.1627278327941895
344,296572,296573,-0.011804837733507156,0.058313582092523575,1.0513722896575928,-16.795637130737305,-30.086721420288086,14.106541633605957,1.0004500150680542,-0.17549122869968414,-0.2294885218143463,-0.04054819792509079,-1.5690873861312866,-1.0153018236160278
345,296582,296583,0.04815790802240372,0.04972291365265846,1.1515849828720093,-17.83903694152832,-7.580186367034912,15.245123863220215,1.0109494924545288,-0.16799159348011017,-0.21598920226097107,0.41527703404426575,-1.803451418876648,-0.9128512144088745
346,296592,296593,-0.003860390279442072,0.041540347039699554,1.074103593826294,-16.584646224975586,11.241745948791504,17.618148803710938,1.0079495906829834,-0.16799159348011017,-0.21598920226097107,0.4401848316192627,-2.0455877780914307,-0.7472613453865051
347,296602,296603,0.03185475990176201,0.08188261836767197,1.063242793083191,-3.260702133178711,24.598299026489258,21.135499954223633,1.0064496994018555,-0.1514924168586731,-0.21448926627635956,0.24396228790283203,-2.126481771469116,-0.5467713475227356
348,296612,296613,0.1421882063150406,0.1926981657743454,1.115590214729309,5.914629936218262,29.036195755004883,20.14139175415039,0.9914504289627075,-0.1514924168586731,-0.2084895670413971,-0.06712964177131653,-2.093034267425537,-0.3238585591316223
349,296622,296623,0.034009210765361786,0.11056149750947952,1.0784120559692383,1.363796353340149,22.525789260864258,17.454265594482422,0.9989500045776367,-0.15899205207824707,-0.22198890149593353,-0.3911948800086975,-2.1131973266601562,-0.1278998851776123
350,296632,296633,-0.03653201088309288,0.05174485594034195,1.0511232614517212,-10.301335334777832,14.358845710754395,12.06648063659668,0.9944502711296082,-0.15449227392673492,-0.2174891233444214,-0.4754093587398529,-2.1423470973968506,-0.0037029068917036057
351,296642,296643,0.026917599141597748,0.08645138889551163,1.0831266641616821,-19.13906478881836,7.4298858642578125,7.880684852600098,0.9959501624107361,-0.15899205207824707,-0.21598920226097107,-0.6483989357948303,-2.345079183578491,0.11732573807239532
352,296652,296653,0.05062354728579521,0.0765232965350151,1.1387357711791992,-24.116605758666992,2.1390466690063477,1.5102107524871826,1.0019499063491821,-0.14699265360832214,-0.22498874366283417,-0.9106109142303467,-2.5291993618011475,0.2485136240720749
353,296662,296663,-0.06348918378353119,0.03299666568636894,1.1175870895385742,-30.024120330810547,-3.1372427940368652,-1.235455870628357,0.9884505867958069,-0.14549271762371063,-0.2174891233444214,-0.9242855906486511,-2.795832633972168,0.26374638080596924
354,296672,296673,-0.008192049339413643,0.05695077404379845,1.0279022455215454,-30.398685455322266,-17.547014236450195,-7.693902492523193,1.0019499063491821,-0.1319933980703354,-0.20698964595794678,-0.7397867441177368,-2.9873101711273193,0.2071588784456253
355,296682,296683,-0.008033594116568565,0.18664759397506714,0.9850242137908936,-27.458402633666992,-26.85810661315918,-14.400311470031738,0.9959501624107361,-0.13499325513839722,-0.22198890149593353,-0.5207926034927368,-3.1054553985595703,0.13449646532535553
356,296692,296693,-0.038113489747047424,0.08519715070724487,1.028125524520874,-25.579572677612305,-29.932884216308594,-19.286209106445312,1.0019499063491821,-0.13499325513839722,-0.22198890149593353,-0.4511163532733917,-3.489589214324951,0.07866163551807404
357,296702,296703,-0.05323471501469612,0.06605029106140137,1.0379629135131836,-0.09407629072666168,-30.368066787719727,-21.43970489501953,1.00344979763031,-0.14549271762371063,-0.21148942410945892,-0.17009983956813812,-3.787487030029297,-0.08131954073905945
358,296712,296713,-0.020227300003170967,0.08458764106035233,1.029239535331726,33.91838836669922,-42.34661865234375,-17.030479431152344,0.9944502711296082,-0.13949301838874817,-0.20248986780643463,0.4550703465938568,-3.651487350463867,-0.38781484961509705
359,296722,296723,-0.05422496050596237,0.07594489306211472,1.0357974767684937,70.02522277832031,-68.15423583984375,-11.666906356811523,0.9914504289627075,-0.1334933191537857,-0.2084895670413971,0.6746584177017212,-3.4454264640808105,-0.46044406294822693
360,296732,296733,-0.051336195319890976,0.07760696113109589,1.061381459236145,83.26171112060547,-83.49983215332031,-3.0493874549865723,1.0004500150680542,-0.15749211609363556,-0.20248986780643463,1.5436289310455322,-2.7479028701782227,-0.649127721786499
361,296742,296743,-0.08604882657527924,0.047666773200035095,1.0081366300582886,75.15726470947266,-86.4372787475586,0.3792804777622223,1.004949688911438,-0.1619918942451477,-0.20098994672298431,2.103043556213379,-2.116529703140259,-0.5209217667579651
362,296752,296753,-0.06551925837993622,0.1006217822432518,1.041733741760254,68.26538848876953,-85.66372680664062,-0.5306085348129272,1.01694917678833,-0.1799909919500351,-0.21598920226097107,3.0699284076690674,-1.294215440750122,-0.5480421781539917
363,296762,296763,-0.11832386255264282,0.12400509417057037,1.0559967756271362,62.839073181152344,-57.358177185058594,-1.1223115921020508,1.019948959350586,-0.18599069118499756,-0.2189890444278717,3.685554027557373,-0.8577264547348022,-0.3835204243659973
364,296772,296773,-0.3292904496192932,-0.03193233534693718,1.1123971939086914,51.924163818359375,-10.656115531921387,0.9107697010040283,1.0214488506317139,-0.16349181532859802,-0.2084895670413971,4.380283832550049,-0.10663935542106628,-0.4431700110435486
365,296782,296783,-0.36818745732307434,-0.0930701270699501,0.9551860690116882,39.33067321777344,38.84245681762695,3.7462220191955566,1.0124493837356567,-0.15449227392673492,-0.21148942410945892,4.448168754577637,0.3334544003009796,-0.37136855721473694
366,296792,296793,-0.09020336717367172,0.038012173026800156,0.9510511159896851,19.218101501464844,70.57459259033203,6.30975866317749,0.9989500045776367,-0.14699265360832214,-0.20398980379104614,4.178070068359375,0.690331220626831,-0.31172963976860046
367,296802,296803,-0.08402716368436813,0.03531878441572189,1.0800175666809082,7.985722064971924,76.91583251953125,12.516094207763672,1.0139492750167847,-0.14999249577522278,-0.21598920226097107,3.384969472885132,0.9028348326683044,-0.20084907114505768
368,296812,296813,-0.07167349755764008,0.16424380242824554,0.9592614769935608,-1.6668517589569092,67.96519470214844,15.806297302246094,1.0139492750167847,-0.14699265360832214,-0.2189890444278717,2.9322032928466797,1.0712816715240479,-0.1803264617919922
369,296822,296823,-0.022595368325710297,0.09442006051540375,0.9554617404937744,-13.922518730163574,51.66844177246094,18.955965042114258,1.0109494924545288,-0.14999249577522278,-0.22498874366283417,1.9794883728027344,0.92256760597229,0.1063663437962532
370,296832,296833,-0.025849301367998123,0.09438208490610123,1.0031877756118774,-28.166593551635742,32.44926834106445,21.06267738342285,1.0004500150680542,-0.16349181532859802,-0.21148942410945892,1.507022738456726,0.7790091633796692,0.294909805059433
371,296842,296843,-0.04762769863009453,0.06124067306518555,0.937204897403717,-35.54495620727539,10.98094654083252,19.89623260498047,1.018449068069458,-0.1514924168586731,-0.22648866474628448,1.424238681793213,0.514987587928772,0.4805634319782257
372,296852,296853,-0.029617134481668472,0.1030033528804779,0.9575909376144409,-33.625335693359375,-2.967711925506592,19.57524871826172,1.0109494924545288,-0.16799159348011017,-0.20398980379104614,1.3511149883270264,0.022499294951558113,0.7513402700424194
373,296862,296863,0.033122025430202484,0.14299115538597107,1.003549575805664,-17.736217498779297,-4.079235076904297,18.73008155822754,1.0229488611221313,-0.170991450548172,-0.22498874366283417,1.4508538246154785,-0.11031480133533478,0.8379722237586975
374,296872,296873,-0.03603092581033707,0.06745431572198868,0.8940030932426453,16.13977813720703,2.527594566345215,18.772512435913086,1.00344979763031,-0.1604919731616974,-0.22348882257938385,1.4849501848220825,-0.15858013927936554,0.9451465010643005
375,296882,296883,-0.02721547894179821,0.1012173742055893,0.9304143786430359,55.91395568847656,21.041240692138672,17.82178497314453,1.0004500150680542,-0.15749211609363556,-0.21148942410945892,1.5697922706604004,-0.014865665696561337,1.0970277786254883
376,296892,296893,0.011873469687998295,0.046025343239307404,0.8692975044250488,84.95526885986328,35.385684967041016,16.591251373291016,1.0109494924545288,-0.17399129271507263,-0.20698964595794678,1.1763283014297485,0.6457694172859192,1.1926376819610596
377,296902,296903,-0.016899054870009422,0.11186835914850235,0.9646251797676086,97.65106201171875,48.21350860595703,13.03149700164795,0.9884505867958069,-0.1814909279346466,-0.22348882257938385,0.6253660321235657,1.6478327512741089,1.2699943780899048
378,296912,296913,-0.05129506066441536,0.04660738259553909,0.8700542449951172,87.64134216308594,52.824806213378906,7.453458786010742,0.9914504289627075,-0.1814909279346466,-0.23248836398124695,0.4116261899471283,2.3564367294311523,1.5399404764175415
379,296922,296923,-0.017570555210113525,0.0412868857383728,0.8630304932594299,64.15848541259766,45.69047164916992,-1.6088045835494995,0.9884505867958069,-0.18749062716960907,-0.2294885218143463,-0.14662116765975952,3.380204200744629,1.5989474058151245
380,296932,296933,0.0006972335395403206,0.07510582357645035,0.957165539264679,18.582998275756836,26.626312255859375,-8.973359107971191,0.9974501132965088,-0.1904904693365097,-0.22348882257938385,-0.4800376892089844,3.8031797409057617,1.7549858093261719
381,296942,296943,-0.01522074081003666,0.041088104248046875,0.9338258504867554,-40.276145935058594,5.790612697601318,-19.515804290771484,0.9959501624107361,-0.1799909919500351,-0.227988600730896,-0.8037444353103638,3.9516851902008057,1.7521800994873047
382,296952,296953,-0.09673238545656204,-0.03703682869672775,0.9283134937286377,-88.82164764404297,-15.392050743103027,-30.53467559814453,0.9974501132965088,-0.1904904693365097,-0.22048896551132202,-0.864290714263916,3.3585386276245117,1.69695246219635
383,296962,296963,-0.02311757393181324,0.12190373241901398,0.9498517513275146,-102.34522247314453,-38.697669982910156,-37.17450714111328,1.0274486541748047,-0.20548972487449646,-0.23548822104930878,-0.5998208522796631,2.763359785079956,1.4174572229385376
384,296972,296973,-0.003185026114806533,0.07468634843826294,0.9546158313751221,-98.53170013427734,-60.01959991455078,-40.60809326171875,1.00344979763031,-0.18749062716960907,-0.22648866474628448,-0.1740051954984665,1.7357864379882812,1.0900914669036865
385,296982,296983,-0.06953421235084534,0.03672545775771141,0.9489300847053528,-87.84022521972656,-63.04310989379883,-40.9696044921875,1.018449068069458,-0.20248986780643463,-0.24148792028427124,0.32429686188697815,0.8505033254623413,0.6338850259780884
386,296992,296993,-0.08057749271392822,-0.014658910222351551,0.9721844792366028,-77.94033813476562,-49.37144470214844,-36.77170944213867,1.0124493837356567,-0.19349032640457153,-0.24448777735233307,0.9024932384490967,-0.10774485766887665,0.21461383998394012
387,297002,297003,-0.041704170405864716,0.058373428881168365,1.0478790998458862,-55.25859451293945,-33.87897491455078,-33.1683349609375,1.0064496994018555,-0.17249137163162231,-0.22648866474628448,1.2217605113983154,-0.5577861666679382,-0.30983003973960876
388,297012,297013,-0.03252370283007622,0.08481723070144653,1.0362505912780762,-16.53832244873047,-9.371941566467285,-26.42458724975586,1.018449068069458,-0.16349181532859802,-0.22348882257938385,1.6781065464019775,-1.3036009073257446,-0.5817911624908447
389,297022,297023,-0.0973065122961998,0.010300951078534126,1.0333868265151978,24.47871208190918,19.920408248901367,-19.92071533203125,0.9959501624107361,-0.14699265360832214,-0.21598920226097107,1.727683186531067,-1.3623853921890259,-0.9282214641571045
390,297032,297033,-0.03824030980467796,-0.017355935648083687,0.990058422088623,60.00200271606445,40.11905288696289,-13.419205665588379,0.9989500045776367,-0.14999249577522278,-0.21298934519290924,1.5603902339935303,-1.147444486618042,-1.1703087091445923
391,297042,297043,-0.0628381296992302,0.04972491413354874,0.996242880821228,80.99115753173828,44.84561538696289,-8.847931861877441,0.9854506850242615,-0.15749211609363556,-0.22048896551132202,1.189327597618103,-0.48063910007476807,-1.3588943481445312
392,297052,297053,0.024738870561122894,0.07742475718259811,1.0031675100326538,88.85697937011719,35.74824142456055,-3.056926965713501,0.9854506850242615,-0.15749211609363556,-0.22048896551132202,0.9635782837867737,0.009101721458137035,-1.3411203622817993
393,297062,297063,-0.0005873876507394016,0.06532132625579834,0.9676849246025085,90.90605926513672,23.61359214782715,4.8684983253479,0.9854506850242615,-0.15749211609363556,-0.22048896551132202,0.45344290137290955,1.1286460161209106,-1.4702751636505127
394,297072,297073,-0.009306048043072224,0.14001955091953278,0.9018555283546448,79.58123016357422,11.7051362991333,12.9737548828125,0.9944502711296082,-0.17849107086658478,-0.2084895670413971,0.14622674882411957,2.1446399688720703,-1.4636385440826416
395,297082,297083,-0.0646500512957573,0.0019487824756652117,0.8694638013839722,47.38822937011719,0.06314802914857864,16.029817581176758,0.9944502711296082,-0.18449077010154724,-0.21148942410945892,0.18059352040290833,2.68660044670105,-1.2431985139846802
396,297092,297093,-0.1292145848274231,0.0008547358447685838,0.8545611500740051,13.713693618774414,-2.979017496109009,18.21575927734375,0.9779511094093323,-0.18299084901809692,-0.2099895030260086,0.14262504875659943,3.1747689247131348,-1.0810776948928833
397,297102,297103,-0.031876496970653534,0.005541535560041666,0.8989222049713135,-8.085661888122559,-3.1054463386535645,21.690998077392578,0.9794510006904602,-0.17849107086658478,-0.22348882257938385,0.30754441022872925,3.3587448596954346,-0.863095760345459
398,297112,297113,0.03274884074926376,0.08804462850093842,0.9404427409172058,-15.618940353393555,-0.7208589315414429,24.486494064331055,0.9944502711296082,-0.1814909279346466,-0.22048896551132202,0.3200247585773468,3.2310235500335693,-0.656249463558197
399,297122,297123,0.08335113525390625,0.08769586682319641,0.980804979801178,-13.516444206237793,5.700786113739014,23.525672912597656,0.9989500045776367,-0.1889905482530594,-0.23098844289779663,0.3528521656990051,3.0818145275115967,-0.41653555631637573
400,297132,297133,0.01574528031051159,0.06524936109781265,0.9586930274963379,-18.24710464477539,9.154208183288574,21.92275619506836,0.9989500045776367,-0.1799909919500351,-0.23098844289779663,0.23731893301010132,2.906611919403076,-0.2043195515871048
401,297142,297143,0.12057621777057648,0.22721974551677704,0.9719911217689514,-20.3564510345459,11.23279857635498,22.009809494018555,0.9929503202438354,-0.20098994672298431,-0.23398829996585846,0.1336158961057663,2.7555129528045654,-0.0012938539730384946
402,297152,297153,0.04795649275183678,0.11948879808187485,0.8763154745101929,-27.40769386291504,13.217828750610352,22.660350799560547,0.9959501624107361,-0.20098994672298431,-0.23398829996585846,0.11710415780544281,2.6709702014923096,0.24049906432628632
403,297162,297163,-0.0028214987833052874,0.05185706913471222,1.0159693956375122,-32.20808410644531,17.39514923095703,20.47199058532715,1.0019499063491821,-0.1889905482530594,-0.227988600730896,-0.014901503920555115,2.493159055709839,0.46293655037879944
404,297172,297173,-0.049894362688064575,0.07207569479942322,1.0405374765396118,-22.297082901000977,25.101181030273438,15.671473503112793,1.00344979763031,-0.19349032640457153,-0.23248836398124695,-0.37051090598106384,2.3560829162597656,0.5694998502731323
405,297182,297183,0.024544481188058853,0.10189151018857956,1.125161051750183,-13.950546264648438,31.71830940246582,13.289586067199707,0.9974501132965088,-0.19349032640457153,-0.22648866474628448,-0.6796254515647888,1.9792604446411133,0.7243101000785828
406,297192,297193,-0.009352785535156727,0.06651908159255981,1.0589478015899658,-9.603547096252441,34.64907455444336,11.496384620666504,0.9914504289627075,-0.19349032640457153,-0.22348882257938385,-1.0049269199371338,1.7426681518554688,0.8654872179031372
407,297202,297203,-0.07012409716844559,0.025414152070879936,0.9810430407524109,-10.899015426635742,30.466943740844727,10.632400512695312,0.9914504289627075,-0.17849107086658478,-0.22048896551132202,-1.27912437915802,1.9084819555282593,1.0106472969055176
408,297212,297213,0.038218848407268524,0.15171167254447937,1.1043990850448608,-14.084430694580078,17.1926212310791,9.509514808654785,0.9929503202438354,-0.17399129271507263,-0.23098844289779663,-1.741672396659851,1.7523068189620972,1.0593761205673218
409,297222,297223,-0.02478121593594551,0.0795031189918518,1.0627665519714355,-24.328994750976562,-10.287942886352539,10.672693252563477,0.9899504780769348,-0.17399129271507263,-0.22498874366283417,-1.7038578987121582,1.6543018817901611,1.2698919773101807
410,297232,297233,-0.09261437505483627,0.09205202013254166,1.0536233186721802,-25.301860809326172,-23.5146484375,10.278402328491211,1.0019499063491821,-0.17699114978313446,-0.227988600730896,-1.7383345365524292,1.2293217182159424,1.324954867362976
411,297242,297243,-0.0317959226667881,0.08161445707082748,1.0497353076934814,-31.77782440185547,-24.729541778564453,11.23423957824707,1.00344979763031,-0.18449077010154724,-0.22648866474628448,-1.3034639358520508,1.4578076601028442,1.544651985168457
412,297252,297253,-0.05305876582860947,0.06038915738463402,0.9951566457748413,-45.599388122558594,-5.4837751388549805,8.729735374450684,0.9989500045776367,-0.19799008965492249,-0.2369881421327591,-1.0066475868225098,0.891377866268158,1.6509157419204712
413,297262,297263,-0.005177616141736507,-0.005438197869807482,0.990689754486084,-54.166263580322266,19.37037467956543,5.474895000457764,0.9944502711296082,-0.17849107086658478,-0.2174891233444214,-1.0182708501815796,0.3592561185359955,1.685301423072815
414,297272,297273,0.006620005238801241,0.028374280780553818,1.0256733894348145,-46.276405334472656,24.573984146118164,1.9017326831817627,1.0004500150680542,-0.1604919731616974,-0.22348882257938385,-1.0593156814575195,0.1886671930551529,1.8165563344955444
415,297282,297283,-0.08076118677854538,0.12349821627140045,1.166911005973816,-30.101825714111328,16.968631744384766,-0.926699161529541,0.9884505867958069,-0.15749211609363556,-0.2174891233444214,-1.4448078870773315,-0.4258240759372711,1.7786511182785034
416,297292,297293,-0.03005126118659973,0.044793300330638885,1.037070393562317,-3.441511631011963,4.1252593994140625,-2.761957883834839,0.9989500045776367,-0.14699265360832214,-0.19799008965492249,-1.5348197221755981,-0.6645697951316833,1.8154457807540894
417,297302,297303,-0.04109160229563713,0.05783877521753311,1.0111010074615479,22.590007781982422,-2.855081558227539,-1.8583948612213135,0.9929503202438354,-0.14999249577522278,-0.2099895030260086,-1.5991591215133667,-0.7109519243240356,1.792417049407959
418,297312,297313,0.019360188394784927,0.0624723955988884,1.0263867378234863,37.98834991455078,-7.93253755569458,-0.4150741398334503,0.9764511585235596,-0.16649167239665985,-0.21448926627635956,-1.4924685955047607,-0.38263508677482605,1.821223497390747
419,297322,297323,-0.0014554552035406232,0.007653381209820509,0.9621353149414062,45.585819244384766,-15.007424354553223,0.6411612033843994,0.9764511585235596,-0.16649167239665985,-0.21148942410945892,-1.441389560699463,-0.03744051605463028,1.8080267906188965
420,297332,297333,-0.02345702424645424,-0.04607576131820679,1.0293688774108887,46.97404098510742,-23.73443603515625,1.4393136501312256,0.9914504289627075,-0.17849107086658478,-0.21148942410945892,-1.1948245763778687,0.6324913501739502,1.8769463300704956
421,297342,297343,-0.06223991513252258,-0.007670791354030371,0.9323302507400513,36.92106246948242,-20.971593856811523,1.3165050745010376,0.9974501132965088,-0.17849107086658478,-0.2084895670413971,-0.9363596439361572,0.9826028347015381,1.8712687492370605
422,297352,297353,-0.03294936195015907,0.046621162444353104,0.9706295728683472,13.01538372039795,-11.560293197631836,1.530744194984436,0.9944502711296082,-0.18749062716960907,-0.2174891233444214,-0.6689872145652771,1.3349212408065796,1.881104588508606
423,297362,297363,-0.05623893812298775,-0.05732162296772003,0.9061605930328369,-18.787456512451172,-6.070084571838379,0.6072524189949036,0.9854506850242615,-0.17849107086658478,-0.2084895670413971,-0.6614383459091187,1.3655251264572144,1.8398054838180542
424,297372,297373,0.004296021535992622,0.01958530955016613,0.9416950941085815,-41.514625549316406,1.6770689487457275,-1.2855619192123413,0.9914504289627075,-0.17249137163162231,-0.22048896551132202,-0.6831583976745605,1.2339842319488525,1.826688289642334
425,297382,297383,0.012225905433297157,0.04855050891637802,0.9595212936401367,-58.48153305053711,17.201595306396484,-2.253781795501709,1.004949688911438,-0.17399129271507263,-0.21598920226097107,-0.7125001549720764,0.64415043592453,1.7747002840042114
426,297392,297393,-0.07362906634807587,0.039327722042798996,0.9750412106513977,-67.57488250732422,33.10453414916992,-4.958819389343262,1.0079495906829834,-0.1619918942451477,-0.20098994672298431,-0.8394144773483276,0.2425440102815628,1.7792994976043701
427,297402,297403,-0.006156657822430134,0.08097117394208908,1.0123010873794556,-64.4657974243164,45.53297805786133,-6.622401237487793,0.9884505867958069,-0.1604919731616974,-0.22348882257938385,-1.284428358078003,-0.47977909445762634,1.6990326642990112
428,297412,297413,-0.05120426043868065,0.060373056679964066,0.9598687291145325,-48.946720123291016,50.6327018737793,-8.392897605895996,0.9854506850242615,-0.15449227392673492,-0.22048896551132202,-1.5418354272842407,-0.8259044885635376,1.7139571905136108
429,297422,297423,-0.011968123726546764,0.0602429136633873,0.9795071482658386,-24.9984188079834,47.78997039794922,-9.769906997680664,0.9869506359100342,-0.14699265360832214,-0.21598920226097107,-2.218773126602173,-1.349085807800293,1.6018776893615723
430,297432,297433,-0.017885442823171616,0.07303667068481445,0.9822375178337097,-0.5130563974380493,31.36655044555664,-8.101653099060059,0.9854506850242615,-0.14549271762371063,-0.22048896551132202,-2.7022852897644043,-1.7058448791503906,1.4820990562438965
431,297442,297443,0.06281759589910507,0.24682846665382385,0.9957575798034668,15.330916404724121,-0.36430150270462036,-2.518524169921875,0.9809509515762329,-0.14399279654026031,-0.21598920226097107,-2.8055994510650635,-1.6954014301300049,1.4124982357025146
432,297452,297453,0.02197331190109253,0.10313484817743301,0.9950852990150452,15.093544006347656,-35.70380783081055,2.853576183319092,0.9794510006904602,-0.15749211609363556,-0.22048896551132202,-2.8010008335113525,-1.5481576919555664,1.3808544874191284
433,297462,297463,0.08606669306755066,0.2387421578168869,1.0116502046585083,-4.343624591827393,-62.65576934814453,7.688517093658447,0.9854506850242615,-0.17549122869968414,-0.21148942410945892,-2.5938913822174072,-1.4639530181884766,1.3775393962860107
434,297472,297473,-0.012611284852027893,0.16283589601516724,1.002951979637146,-30.205827713012695,-76.15276336669922,8.781665802001953,1.00344979763031,-0.1814909279346466,-0.2084895670413971,-1.6838139295578003,-1.4881467819213867,1.4367914199829102
435,297482,297483,-0.05605548992753029,0.06963373720645905,1.0096524953842163,-38.33085250854492,-77.25830078125,7.434813499450684,1.0079495906829834,-0.1799909919500351,-0.21598920226097107,-1.2593332529067993,-1.6254808902740479,1.5945481061935425
436,297492,297493,-0.13120800256729126,0.08933649957180023,1.061962366104126,-32.531864166259766,-66.58903503417969,-1.749273419380188,1.0109494924545288,-0.1799909919500351,-0.227988600730896,-0.4781407415866852,-2.152082920074463,1.6520329713821411
437,297502,297503,-0.02772345207631588,0.09117820113897324,1.0359264612197876,-38.710941314697266,-39.86552810668945,-9.194247245788574,1.0079495906829834,-0.17699114978313446,-0.22498874366283417,0.3003664016723633,-2.504199981689453,1.6715432405471802
438,297512,297513,-0.0328555665910244,0.060281604528427124,0.981126070022583,-53.36549758911133,-1.7804207801818848,-12.508584976196289,1.019948959350586,-0.15899205207824707,-0.23098844289779663,0.6020511388778687,-2.829674482345581,1.648622989654541
439,297522,297523,-0.03810952976346016,0.052108556032180786,1.016426920890808,-49.77421951293945,26.62514305114746,-11.08545207977295,1.0139492750167847,-0.14099295437335968,-0.21598920226097107,0.5617102384567261,-3.4334700107574463,1.5380702018737793
440,297532,297533,-0.04061782360076904,0.0515313483774662,1.1523858308792114,-27.56171989440918,52.21531295776367,-7.610376834869385,1.0139492750167847,-0.13499325513839722,-0.2369881421327591,0.20226162672042847,-3.777782917022705,1.4686132669448853
441,297542,297543,-0.009320057928562164,0.08160709589719772,1.0976256132125854,-12.536675453186035,63.30559158325195,-4.003844261169434,1.0154491662979126,-0.13649317622184753,-0.21448926627635956,-0.49396273493766785,-4.193804740905762,1.4008663892745972
442,297552,297553,-0.05101264268159866,0.0570959635078907,1.0257915258407593,-11.548346519470215,45.296119689941406,1.7574615478515625,1.00344979763031,-0.14849257469177246,-0.21148942410945892,-1.1015454530715942,-4.253587245941162,1.322607398033142
443,297562,297563,-0.05105201154947281,0.02912265807390213,1.066413164138794,-6.358813285827637,17.209672927856445,6.077872276306152,1.0109494924545288,-0.1319933980703354,-0.21598920226097107,-1.288297176361084,-4.396944999694824,1.172703742980957
444,297572,297573,-0.06765000522136688,0.07146657258272171,1.0469732284545898,6.336739540100098,-27.354469299316406,9.54583740234375,0.9884505867958069,-0.14249287545681,-0.2084895670413971,-1.3920540809631348,-4.506924152374268,1.1433855295181274
445,297582,297583,-0.009316799230873585,0.11697952449321747,1.0857828855514526,21.07851791381836,-69.16297912597656,11.1409330368042,1.0124493837356567,-0.1604919731616974,-0.20248986780643463,-1.0880240201950073,-4.454211711883545,1.1928645372390747
446,297592,297593,0.05320828780531883,0.06071893498301506,1.0718218088150024,36.051795959472656,-91.61600494384766,10.721536636352539,1.01694917678833,-0.16799159348011017,-0.22198890149593353,-0.2070867419242859,-4.147947311401367,1.2310088872909546
447,297602,297603,-0.07907851785421371,0.056811198592185974,1.0220202207565308,38.38040542602539,-90.7690658569336,10.1593017578125,1.0229488611221313,-0.16499175131320953,-0.21598920226097107,0.44461822509765625,-4.036162376403809,1.4788347482681274
448,297612,297613,-0.07050628960132599,0.09764477610588074,1.056710958480835,37.00408172607422,-74.72151947021484,7.036539077758789,1.0229488611221313,-0.1799909919500351,-0.20698964595794678,1.498329758644104,-3.639893054962158,1.562740445137024
449,297622,297623,-0.00959707610309124,0.02456844598054886,0.9584547281265259,33.49017333984375,-43.95281982421875,0.2145398110151291,1.0274486541748047,-0.16949152946472168,-0.21448926627635956,2.16458797454834,-3.135843276977539,1.7615782022476196
450,297632,297633,-0.051901910454034805,0.016016114503145218,1.018466591835022,29.515422821044922,7.488697052001953,-10.299513816833496,1.019948959350586,-0.16499175131320953,-0.22198890149593353,2.633342742919922,-3.043074131011963,1.8316030502319336
451,297642,297643,-0.04115680605173111,0.05335692688822746,1.0093885660171509,30.79941177368164,69.5009536743164,-18.692907333374023,1.0109494924545288,-0.1529923528432846,-0.2189890444278717,2.3106746673583984,-2.6892435550689697,1.9659417867660522
452,297652,297653,-0.029504776000976562,0.02302999049425125,0.9413520693778992,33.604347229003906,114.98887634277344,-26.220314025878906,1.0109494924545288,-0.14399279654026031,-0.21598920226097107,1.933580756187439,-2.4444375038146973,1.6646274328231812
453,297662,297663,-0.08130819350481033,0.08782194554805756,1.0225577354431152,39.66909408569336,130.2906036376953,-33.3786735534668,1.0094494819641113,-0.1514924168586731,-0.21448926627635956,0.5779765248298645,-2.1326231956481934,1.5616081953048706
454,297672,297673,-0.032395582646131516,0.06712529063224792,0.991720974445343,50.778053283691406,121.24085998535156,-37.563499450683594,0.9914504289627075,-0.14849257469177246,-0.23248836398124695,-1.0299575328826904,-1.4959298372268677,1.369982361793518
455,297682,297683,0.02655544877052307,0.09997400641441345,1.0461887121200562,64.41770935058594,88.96703338623047,-40.64948272705078,0.9854506850242615,-0.15749211609363556,-0.22048896551132202,-1.699052333831787,-1.2025809288024902,0.6825148463249207
456,297692,297693,-0.041756462305784225,0.00503945117816329,0.9928432106971741,72.14027404785156,43.53643035888672,-41.74525833129883,0.9959501624107361,-0.16799159348011017,-0.23398829996585846,-2.7691304683685303,-0.2790035009384155,0.31279000639915466
457,297702,297703,-0.18921202421188354,-0.18404051661491394,0.8935092687606812,67.7183609008789,6.687713146209717,-38.643463134765625,0.965951681137085,-0.1799909919500351,-0.227988600730896,-2.9624521732330322,-0.010716299526393414,-0.2742629647254944
458,297712,297713,-0.0773664340376854,-0.014171726070344448,0.9353241920471191,49.65570068359375,-27.37356948852539,-30.923749923706055,0.9749512076377869,-0.20098994672298431,-0.23398829996585846,-2.99483585357666,0.6142489314079285,-0.7287044525146484
459,297722,297723,0.05291227996349335,0.13546167314052582,0.9922003746032715,21.29723358154297,-70.55886840820312,-22.588844299316406,0.9764511585235596,-0.18449077010154724,-0.23548822104930878,-2.7668328285217285,1.1259924173355103,-1.0724960565567017
460,297732,297733,-0.1096741333603859,0.035504456609487534,0.8808386921882629,-10.31531810760498,-99.31626892089844,-16.573665618896484,1.00344979763031,-0.2084895670413971,-0.23548822104930878,-1.912009596824646,1.322034239768982,-1.4257055521011353
461,297742,297743,-0.09455514699220657,0.021723629906773567,0.9989815354347229,-44.63152313232422,-105.66021728515625,-11.467604637145996,1.00344979763031,-0.2084895670413971,-0.23548822104930878,-0.7595898509025574,1.0827678442001343,-1.7087551355361938
462,297752,297753,0.11736986041069031,0.1647758185863495,1.1051870584487915,-68.99402618408203,-94.5259780883789,-5.733715534210205,1.00344979763031,-0.2084895670413971,-0.23548822104930878,0.024141093716025352,0.7714421153068542,-1.7815231084823608
463,297762,297763,-0.025102579966187477,0.07597262412309647,1.086714506149292,-74.81228637695312,-76.96701049804688,-0.3085610568523407,1.018449068069458,-0.2174891233444214,-0.23548822104930878,1.0653550624847412,-0.23404046893119812,-1.898982286453247
464,297772,297773,-0.05755011737346649,0.031981922686100006,1.0309813022613525,-52.6065559387207,-57.60466384887695,5.506895065307617,1.033448338508606,-0.21148942410945892,-0.24448777735233307,1.7500402927398682,-0.5769246816635132,-1.8659348487854004
465,297782,297783,-0.06037132441997528,0.06706268340349197,1.0321869850158691,-12.915482521057129,-31.89120864868164,10.72736644744873,1.0154491662979126,-0.1814909279346466,-0.24448777735233307,2.3157107830047607,-1.2540102005004883,-1.8042229413986206
466,297792,297793,-0.04076467081904411,0.04564017057418823,0.9986333250999451,22.993873596191406,11.95413875579834,16.565296173095703,1.0214488506317139,-0.1814909279346466,-0.22048896551132202,2.3694229125976562,-1.3080140352249146,-1.6543776988983154
467,297802,297803,0.0053445324301719666,0.08907130360603333,0.9892570972442627,52.70133590698242,54.174102783203125,19.565401077270508,0.9974501132965088,-0.16649167239665985,-0.22048896551132202,2.129746675491333,-1.032788872718811,-1.4761170148849487
468,297812,297813,-0.05819401144981384,-0.0352027527987957,1.0205273628234863,80.49356842041016,84.46123504638672,17.5490779876709,0.9944502711296082,-0.15449227392673492,-0.22648866474628448,1.486627459526062,-0.3539821207523346,-1.2902781963348389
469,297822,297823,-0.016971375793218613,-0.0035342241171747446,0.8806030750274658,90.28621673583984,94.13744354248047,12.573779106140137,0.9974501132965088,-0.16349181532859802,-0.2174891233444214,0.8383528590202332,0.19047193229198456,-1.109488606452942
470,297832,297833,-0.10162300616502762,-0.07637690752744675,0.8677986264228821,87.54059600830078,81.80099487304688,8.110879898071289,0.9899504780769348,-0.16499175131320953,-0.22498874366283417,-0.25393199920654297,1.1705952882766724,-0.9493190050125122
471,297842,297843,-0.061792317777872086,-0.044273633509874344,0.9109312295913696,70.11579132080078,60.09367752075195,4.555812835693359,0.9929503202438354,-0.18299084901809692,-0.22498874366283417,-0.9168601036071777,1.8452422618865967,-0.8315407037734985
