,timestamp_start,timestamp_end,acc.x,acc.y,acc.z,gyro.x,gyro.y,gyro.z,mag.x,mag.y,mag.z,stabilizer.pitch,stabilizer.roll,stabilizer.yaw
0,45216,45217,0.07238316535949707,-0.11949257552623749,1.0051699876785278,-0.5170810222625732,1.122338056564331,-9.039361000061035,1.0004500150680542,1.0694465637207031,0.17549122869968414,-2.17224383354187,-0.40597864985466003,-0.33900681138038635
1,45226,45227,0.1345074325799942,0.03973584622144699,1.1256089210510254,-3.8198606967926025,-2.6068906784057617,-7.682522296905518,0.9989500045776367,1.073946237564087,0.17699114978313446,-2.059264898300171,-0.5171141028404236,-0.46503451466560364
2,45236,45237,0.09189688414335251,0.15325941145420074,1.0891923904418945,-1.0605292320251465,1.1941075325012207,-5.610928535461426,0.9974501132965088,1.0694465637207031,0.18749062716960907,-2.1911938190460205,-0.5113803744316101,-0.5050056576728821
3,45246,45247,0.010905619710683823,0.06598247587680817,1.0058399438858032,5.86033821105957,11.204055786132812,-4.707296371459961,1.0019499063491821,1.0679465532302856,0.17699114978313446,-1.9284191131591797,-0.5133162140846252,-0.6077008843421936
4,45256,45257,-0.12247559428215027,0.00189586088526994,1.0078984498977661,12.720606803894043,19.34382438659668,-4.5815911293029785,0.9944502711296082,1.0754462480545044,0.1904904693365097,-2.1797709465026855,-0.39637094736099243,-0.6253474950790405
5,45266,45267,0.07230011373758316,-0.07840229570865631,1.073602557182312,24.844030380249023,26.360641479492188,-6.581191539764404,0.9899504780769348,1.0619468688964844,0.1799909919500351,-2.3422985076904297,-0.3567124307155609,-0.697498083114624
6,45276,45277,0.1700274497270584,-0.2421300858259201,0.9818030595779419,40.492332458496094,31.023361206054688,-8.906296730041504,0.9869506359100342,1.0619468688964844,0.16799159348011017,-2.8027071952819824,-0.09884925186634064,-0.7360347509384155
7,45286,45287,0.08740350604057312,-0.098094142973423,0.9480407238006592,55.076271057128906,28.455671310424805,-9.20763111114502,0.9974501132965088,1.0664466619491577,0.17849107086658478,-2.855346441268921,0.40281182527542114,-0.8227471113204956
8,45296,45297,-0.005825508385896683,0.07185132801532745,1.0729169845581055,57.83641052246094,23.15874481201172,-9.771180152893066,0.9929503202438354,1.0679465532302856,0.16799159348011017,-3.336092233657837,1.0081937313079834,-0.8715546131134033
9,45306,45307,-0.011704145930707455,-0.1802079975605011,0.9043838977813721,47.959163665771484,17.468782424926758,-10.322705268859863,0.9839507937431335,1.0529472827911377,0.17399129271507263,-3.507444381713867,1.3981056213378906,-1.0285427570343018
10,45316,45317,-0.02375173568725586,-0.1818970888853073,1.0071622133255005,30.69797706604004,10.464885711669922,-10.70568561553955,0.9869506359100342,1.0469475984573364,0.1799909919500351,-3.8415582180023193,2.1357803344726562,-1.0277553796768188
11,45326,45327,-0.05153629556298256,-0.017324116080999374,1.0427765846252441,6.1268768310546875,2.2659833431243896,-9.503990173339844,0.9734513163566589,1.042447805404663,0.16949152946472168,-3.974461555480957,2.1108219623565674,-1.2477184534072876
12,45336,45337,-0.2068897932767868,0.07403567433357239,1.1166003942489624,-13.624456405639648,-6.395164966583252,-8.088085174560547,0.9839507937431335,1.0469475984573364,0.16799159348011017,-3.8221588134765625,2.088127613067627,-1.3710103034973145
13,45346,45347,-0.025543389841914177,-0.20191071927547455,0.8825674653053284,-28.465423583984375,-14.256669998168945,-8.02497673034668,0.9704514741897583,1.048447608947754,0.18449077010154724,-3.7608561515808105,1.8957473039627075,-1.4685492515563965
14,45356,45357,0.19576263427734375,-0.061980001628398895,0.9914758205413818,-33.17034149169922,-19.66448211669922,-9.757438659667969,0.9854506850242615,1.048447608947754,0.16949152946472168,-3.5905802249908447,1.5220012664794922,-1.5803149938583374
15,45366,45367,0.16643090546131134,0.019018027931451797,0.905910074710846,-27.517349243164062,-23.216659545898438,-9.247040748596191,0.9719513654708862,1.055947184562683,0.16499175131320953,-3.336237907409668,1.4125714302062988,-1.561982274055481
16,45376,45377,0.02182372659444809,-0.034881170839071274,0.8116486668586731,-15.872054100036621,-24.964134216308594,-9.838841438293457,0.9869506359100342,1.0499475002288818,0.16799159348011017,-3.025003671646118,1.0765819549560547,-1.681962490081787
17,45386,45387,-0.08345916122198105,-0.1556273251771927,0.9065471887588501,-4.629402160644531,-22.79844856262207,-9.344817161560059,1.0079495906829834,1.0439478158950806,0.16799159348011017,-3.025364875793457,0.9407498836517334,-1.8191183805465698
18,45396,45397,-0.04404958710074425,-0.14225570857524872,0.9991821646690369,5.318130016326904,-15.769716262817383,-7.706417560577393,0.9839507937431335,1.0529472827911377,0.170991450548172,-2.7942888736724854,0.8437183499336243,-1.9453301429748535
19,45406,45407,-0.08601886034011841,0.04278036952018738,1.0230752229690552,11.194904327392578,-4.376783847808838,-8.173869132995605,0.9884505867958069,1.048447608947754,0.1814909279346466,-2.7838621139526367,1.01914381980896,-1.9937410354614258
20,45416,45417,-0.19836777448654175,0.08983846753835678,0.9676336646080017,18.003215789794922,6.212409496307373,-8.061665534973145,0.9959501624107361,1.0469475984573364,0.1619918942451477,-2.8107452392578125,1.142632007598877,-2.0846004486083984
21,45426,45427,-0.23198896646499634,0.0510576069355011,1.0724538564682007,20.824506759643555,12.123885154724121,-9.238832473754883,0.9749512076377869,1.0499475002288818,0.170991450548172,-2.831871747970581,1.346863865852356,-2.14975905418396
22,45436,45437,-0.07313694059848785,-0.1482483297586441,0.933257520198822,20.842266082763672,10.55803394317627,-10.37890911102295,0.9914504289627075,1.0544472932815552,0.16949152946472168,-3.0439934730529785,1.7073101997375488,-2.1826698780059814
23,45446,45447,0.07140722870826721,-0.03453821316361427,0.9878360629081726,20.225751876831055,4.3154520988464355,-12.38519287109375,1.0004500150680542,1.042447805404663,0.17549122869968414,-2.739548921585083,1.77056884765625,-2.265352725982666
24,45456,45457,0.12764304876327515,0.027151869609951973,0.9716576933860779,19.66387176513672,-8.928361892700195,-13.483668327331543,0.9944502711296082,1.0514473915100098,0.16649167239665985,-2.908630609512329,1.6992039680480957,-2.5304694175720215
25,45466,45467,-0.05434444546699524,-0.09474043548107147,0.8713767528533936,19.06317710876465,-19.217063903808594,-11.162344932556152,0.9989500045776367,1.0289485454559326,0.1619918942451477,-2.7174198627471924,1.9156049489974976,-2.636509418487549
26,45476,45477,0.07731080055236816,-0.0965472087264061,0.9098948836326599,16.06328010559082,-27.136159896850586,-7.564490795135498,1.004949688911438,1.0379481315612793,0.1619918942451477,-2.5132529735565186,2.09722638130188,-2.753868579864502
27,45486,45487,-0.007662211079150438,0.12799189984798431,0.9530037641525269,10.915109634399414,-34.096004486083984,-4.775531768798828,0.9839507937431335,1.0409479141235352,0.1619918942451477,-2.3913819789886475,2.2857327461242676,-2.856870174407959
28,45496,45497,-0.13995207846164703,0.11543948203325272,0.986741840839386,2.632831335067749,-32.02015686035156,-3.383594512939453,0.9959501624107361,1.0289485454559326,0.170991450548172,-2.1697044372558594,2.3504867553710938,-2.9527907371520996
29,45506,45507,0.01848454400897026,-0.015158920548856258,0.9556496739387512,-8.097882270812988,-24.004545211791992,-0.5122268199920654,1.0064496994018555,1.0274486541748047,0.1604919731616974,-2.0208733081817627,2.342512369155884,-3.0304160118103027
30,45516,45517,-0.018088338896632195,-0.09662621468305588,0.8102335929870605,-18.939353942871094,-18.693546295166016,1.9724479913711548,0.9914504289627075,1.0454477071762085,0.17249137163162231,-1.7271685600280762,2.174983501434326,-3.0537233352661133
31,45526,45527,-0.21537959575653076,-0.06469815969467163,1.007712960243225,-29.585233688354492,-10.959637641906738,2.8030972480773926,1.0019499063491821,1.0499475002288818,0.16799159348011017,-1.6633973121643066,1.904394507408142,-3.1040279865264893
32,45536,45537,-0.11537883430719376,-0.08114215731620789,0.93277508020401,-31.77324104309082,-5.688316822052002,3.4547231197357178,1.004949688911438,1.0499475002288818,0.1529923528432846,-1.641514539718628,1.850656509399414,-3.016606569290161
33,45546,45547,0.01675792783498764,-0.06880636513233185,0.873673677444458,-23.92972183227539,-3.30015230178833,5.1194891929626465,0.9914504289627075,1.0514473915100098,0.17849107086658478,-1.5396422147750854,1.6732258796691895,-2.918739080429077
34,45556,45557,0.011147270910441875,0.05180042237043381,0.8959197998046875,-9.994037628173828,-4.177353382110596,6.059412002563477,0.9989500045776367,1.0529472827911377,0.17699114978313446,-1.4178082942962646,1.3803906440734863,-2.8651981353759766
35,45566,45567,-0.060621991753578186,0.015611644834280014,0.9624623656272888,0.8586249351501465,-3.1799581050872803,6.906747817993164,0.9959501624107361,1.0589470863342285,0.17399129271507263,-1.2888017892837524,1.2248386144638062,-2.8093411922454834
36,45576,45577,-0.11962239444255829,-0.033204421401023865,1.0557161569595337,9.44461727142334,-2.0728673934936523,7.134897708892822,1.0109494924545288,1.0589470863342285,0.16499175131320953,-1.202652931213379,1.368127465248108,-2.7035391330718994
37,45586,45587,-0.14966031908988953,-0.12825679779052734,0.8913981914520264,17.361190795898438,-1.6065033674240112,9.145014762878418,1.00344979763031,1.0604469776153564,0.17249137163162231,-1.1744614839553833,1.4947912693023682,-2.6246893405914307
38,45596,45597,-0.012916628271341324,-0.05673827603459358,0.9315655827522278,18.484708786010742,1.0331898927688599,10.465042114257812,1.0064496994018555,1.0544472932815552,0.17249137163162231,-1.2402803897857666,1.7045331001281738,-2.5379533767700195
39,45606,45607,-0.008801577612757683,-0.08497467637062073,0.8143284916877747,12.80129623413086,-0.7944594621658325,11.812631607055664,0.9959501624107361,1.0589470863342285,0.170991450548172,-1.2758326530456543,1.8316504955291748,-2.4483683109283447
40,45616,45617,-0.033405471593141556,0.06562160700559616,0.9050418138504028,4.961850643157959,-9.951750755310059,13.145423889160156,0.9974501132965088,1.048447608947754,0.16649167239665985,-1.2677257061004639,2.0033938884735107,-2.3310928344726562
41,45626,45627,-0.22116342186927795,0.08878014236688614,1.0784318447113037,-5.157939434051514,-18.234392166137695,14.910290718078613,0.9974501132965088,1.048447608947754,0.15749211609363556,-1.4128692150115967,2.1449599266052246,-2.2611687183380127
42,45636,45637,0.03866457939147949,-0.0004456944589037448,0.9387736916542053,-17.755878448486328,-20.683000564575195,16.513690948486328,0.9944502711296082,1.0664466619491577,0.1814909279346466,-1.2095260620117188,1.953488826751709,-2.1350555419921875
43,45646,45647,0.16563810408115387,-0.049305740743875504,0.8003206849098206,-26.671499252319336,-21.60219955444336,16.745895385742188,1.0004500150680542,1.0604469776153564,0.17549122869968414,-1.0349692106246948,2.0815258026123047,-1.9352288246154785
44,45656,45657,-0.14823931455612183,0.08422551304101944,0.9607092142105103,-32.70668029785156,-24.03028678894043,15.486150741577148,1.004949688911438,1.0679465532302856,0.16799159348011017,-0.6575319766998291,1.6464364528656006,-1.7607548236846924
45,45666,45667,-0.24398629367351532,0.1437876671552658,1.0861374139785767,-36.15195083618164,-22.612567901611328,12.500192642211914,1.0124493837356567,1.0694465637207031,0.17849107086658478,-0.4132199287414551,1.399627685546875,-1.6102045774459839
46,45676,45677,-0.08669937402009964,0.021840861067175865,1.0129555463790894,-35.33356857299805,-15.629947662353516,12.051858901977539,1.0259486436843872,1.0679465532302856,0.16799159348011017,-0.30128172039985657,0.9786241054534912,-1.5246267318725586
47,45686,45687,0.047709234058856964,-0.2269478291273117,0.8386551737785339,-30.2132625579834,-10.99953556060791,12.23664379119873,0.9929503202438354,1.0679465532302856,0.17699114978313446,0.011453977786004543,0.740971028804779,-1.3605111837387085
48,45696,45697,-0.02831866405904293,-0.08802669495344162,0.9755313992500305,-20.780908584594727,-8.359655380249023,11.620817184448242,1.0154491662979126,1.0664466619491577,0.17249137163162231,0.15781746804714203,0.320117712020874,-1.2360951900482178
49,45706,45707,-0.013868700712919235,0.10082797706127167,1.08331298828125,-14.623334884643555,-5.097963809967041,9.831753730773926,1.0154491662979126,1.0694465637207031,0.16649167239665985,-0.06474737077951431,0.1552416980266571,-1.1843085289001465
50,45716,45717,-0.20018942654132843,-0.029489904642105103,1.0395022630691528,-10.72136116027832,-5.049345016479492,7.7368550300598145,1.0139492750167847,1.0679465532302856,0.170991450548172,-0.003934720531105995,0.2914159595966339,-1.0820363759994507
51,45726,45727,-0.17285209894180298,-0.25567305088043213,0.9349601864814758,-6.861949920654297,-8.252347946166992,7.280268669128418,1.01694917678833,1.0679465532302856,0.1799909919500351,0.1596827507019043,0.21134823560714722,-0.9848029017448425
52,45736,45737,-0.03699877858161926,-0.08357831090688705,0.9282426834106445,-7.5425496101379395,-16.446491241455078,5.858546257019043,1.0139492750167847,1.0649467706680298,0.16799159348011017,0.34114018082618713,0.02757461927831173,-0.8967881798744202
53,45746,45747,-0.08277168869972229,-0.01976344734430313,0.9708737730979919,-9.609643936157227,-20.42287826538086,4.214395523071289,1.019948959350586,1.0679465532302856,0.17399129271507263,0.3383149802684784,0.10598818212747574,-0.8766006827354431
54,45756,45757,-0.03189419209957123,-0.042886700481176376,0.9260926842689514,-8.322622299194336,-20.101011276245117,4.064292907714844,1.019948959350586,1.070946455001831,0.18299084901809692,0.6681389212608337,0.02064303308725357,-0.8221055269241333
55,45766,45767,-0.04892571642994881,-0.04730428382754326,0.9500113725662231,-5.0449299812316895,-16.976221084594727,4.300751209259033,1.0274486541748047,1.0694465637207031,0.1814909279346466,0.7587131857872009,-0.0367785282433033,-0.7958731651306152
56,45776,45777,0.0008143502054736018,0.004127312917262316,1.0042976140975952,-3.3000504970550537,-12.223616600036621,4.650917053222656,1.0214488506317139,1.072446346282959,0.16649167239665985,0.9306897521018982,-0.19093409180641174,-0.7404587864875793
57,45786,45787,-0.12452597916126251,0.13764111697673798,0.9725367426872253,-4.437427520751953,-7.857591152191162,2.586259365081787,1.0154491662979126,1.0754462480545044,0.17849107086658478,1.0323561429977417,-0.25680258870124817,-0.6912651658058167
58,45796,45797,-0.07178360223770142,-0.035277124494314194,0.9191784858703613,-4.912494659423828,-3.556159257888794,2.7879583835601807,1.01694917678833,1.070946455001831,0.17399129271507263,1.0628013610839844,-0.33885738253593445,-0.6594921946525574
59,45806,45807,-0.02734377235174179,-0.08624166995286942,0.9737592339515686,-4.785468578338623,-0.44438183307647705,2.53586745262146,1.018449068069458,1.0784460306167603,0.17249137163162231,1.0470409393310547,-0.33976826071739197,-0.6476894617080688
60,45816,45817,0.025479357689619064,-0.06950052082538605,0.9778761863708496,-7.0703206062316895,2.854292869567871,3.8376035690307617,1.0259486436843872,1.070946455001831,0.170991450548172,1.0985565185546875,-0.22231455147266388,-0.6571499109268188
61,45826,45827,0.007498717866837978,0.055355947464704514,1.0231817960739136,-10.208303451538086,6.685804843902588,4.9027605056762695,1.0304484367370605,1.072446346282959,0.17849107086658478,1.0781192779541016,-0.4334449768066406,-0.5840588212013245
62,45836,45837,-0.06907469034194946,-0.013111213222146034,0.9499456286430359,-11.98121166229248,3.5163509845733643,6.342813014984131,1.0124493837356567,1.0604469776153564,0.15749211609363556,1.0784245729446411,-0.5300798416137695,-0.5365503430366516
63,45846,45847,-0.17170576751232147,0.014908377081155777,1.0784261226654053,-16.92950439453125,0.7830495238304138,6.98766565322876,1.018449068069458,1.0784460306167603,0.16349181532859802,1.0284907817840576,-0.6176720857620239,-0.48574012517929077
64,45856,45857,-0.04673337563872337,-0.04767708480358124,1.0351601839065552,-23.709468841552734,0.974380612373352,6.710023880004883,1.0109494924545288,1.085945725440979,0.17399129271507263,1.0247260332107544,-0.8023316860198975,-0.4166071116924286
65,45866,45867,0.11015370488166809,-0.07308037579059601,0.9298728704452515,-27.677043914794922,-3.6496505737304688,4.964047908782959,1.01694917678833,1.0769461393356323,0.18299084901809692,0.9966148138046265,-1.1348066329956055,-0.3180639445781708
66,45876,45877,-0.030161390081048012,-0.07970793545246124,0.9692755341529846,-27.553442001342773,-10.209113121032715,3.695253372192383,1.01694917678833,1.0769461393356323,0.18299084901809692,1.1442174911499023,-1.3664692640304565,-0.2826739251613617
67,45886,45887,-0.28147032856941223,0.10697934776544571,1.0845568180084229,-24.32030487060547,-15.764391899108887,2.2952704429626465,1.0094494819641113,1.0934453010559082,0.1814909279346466,1.310478687286377,-1.6623084545135498,-0.24720819294452667
68,45896,45897,-0.24065813422203064,0.07547479122877121,1.0943104028701782,-19.163206100463867,-18.398536682128906,0.8600525259971619,1.0109494924545288,1.0919454097747803,0.17699114978313446,1.560198426246643,-1.607797622680664,-0.32580265402793884
69,45906,45907,-0.021830208599567413,0.07791903614997864,1.1408172845840454,-13.556456565856934,-11.91450023651123,0.14681346714496613,1.01694917678833,1.0889455080032349,0.17699114978313446,1.7746047973632812,-1.7583551406860352,-0.32997754216194153
70,45916,45917,0.13652193546295166,-0.20992259681224823,0.8872361183166504,-12.151850700378418,-0.9322654008865356,-0.25827479362487793,1.01694917678833,1.0949451923370361,0.1799909919500351,1.787909984588623,-1.978265404701233,-0.27545586228370667
71,45926,45927,0.05618974566459656,-0.10163286328315735,0.9834198951721191,-15.43419361114502,10.196608543395996,-0.8055484294891357,1.0109494924545288,1.085945725440979,0.17699114978313446,1.702214241027832,-2.2001256942749023,-0.22468818724155426
72,45936,45937,-0.15679924190044403,0.1301857978105545,1.0426533222198486,-18.856096267700195,18.194772720336914,-1.6163336038589478,1.0079495906829834,1.0889455080032349,0.17399129271507263,1.626905083656311,-2.2621119022369385,-0.2758268117904663
73,45946,45947,-0.2276325672864914,0.02004007250070572,1.1199122667312622,-17.17870330810547,26.169757843017578,-0.7170333862304688,1.0094494819641113,1.0994449853897095,0.1814909279346466,1.3106106519699097,-2.492457866668701,-0.2551361322402954
74,45956,45957,-0.08345349133014679,-0.0666707307100296,1.0970953702926636,-10.088520050048828,28.21162986755371,0.8025333881378174,1.0109494924545288,1.0979450941085815,0.18299084901809692,1.1770414113998413,-2.505539894104004,-0.36513254046440125
75,45966,45967,0.02053290791809559,-0.15314047038555145,0.9676135182380676,-3.5003349781036377,23.0196590423584,-0.07823821902275085,1.0109494924545288,1.1039447784423828,0.19199039041996002,0.7278367877006531,-2.6443440914154053,-0.3204115629196167
76,45976,45977,0.040873102843761444,-0.03963468223810196,1.0274739265441895,4.210468292236328,11.08605670928955,-1.2993061542510986,1.01694917678833,1.1039447784423828,0.17699114978313446,0.5513207912445068,-2.732600450515747,-0.3365422189235687
77,45986,45987,0.06873486191034317,0.04863160848617554,1.0054025650024414,10.4862642288208,0.22081880271434784,-2.878478765487671,1.0094494819641113,1.0934453010559082,0.1814909279346466,0.40286222100257874,-2.6386070251464844,-0.37238040566444397
78,45996,45997,0.01697159744799137,0.025450706481933594,0.9223585724830627,16.732585906982422,-7.675708293914795,-3.963749647140503,1.0244487524032593,1.0964452028274536,0.17549122869968414,0.3539021909236908,-2.517362356185913,-0.4060220718383789
79,46006,46007,-0.011578314937651157,0.0951540544629097,0.9997571706771851,20.753721237182617,-10.371346473693848,-3.978688955307007,1.018449068069458,1.0844457149505615,0.16949152946472168,0.5119956731796265,-2.287368059158325,-0.49558767676353455
80,46016,46017,-0.13282933831214905,-0.03871705010533333,1.060318946838379,21.929723739624023,-10.926328659057617,-2.261526346206665,1.0094494819641113,1.087445616722107,0.1904904693365097,0.7208619117736816,-2.1401076316833496,-0.5416347980499268
81,46026,46027,0.009910021908581257,-0.07024664431810379,0.9750205874443054,17.95484733581543,-8.005914688110352,-1.1371818780899048,1.004949688911438,1.0979450941085815,0.18299084901809692,0.9051211476325989,-1.85787832736969,-0.6083458065986633
82,46036,46037,0.066439189016819,-0.007591173984110355,1.071537733078003,10.879079818725586,-6.707819938659668,1.8240498304367065,1.0094494819641113,1.0844457149505615,0.17849107086658478,1.058927059173584,-1.6508715152740479,-0.642766535282135
83,46046,46047,-0.06697043776512146,0.006635456811636686,1.0015658140182495,1.9606353044509888,-3.165254592895508,5.025065898895264,1.0079495906829834,1.0949451923370361,0.1799909919500351,0.950941264629364,-1.7185895442962646,-0.49931657314300537
84,46056,46057,-0.17223475873470306,-0.024700351059436798,1.1398983001708984,-5.974545478820801,1.4211276769638062,6.677260875701904,1.00344979763031,1.0844457149505615,0.17849107086658478,0.9911049008369446,-1.774163007736206,-0.4343540668487549
85,46066,46067,-0.19272209703922272,0.07474943995475769,1.0862915515899658,-13.64926815032959,7.268172740936279,9.685507774353027,1.01694917678833,1.073946237564087,0.170991450548172,0.8839924931526184,-1.8769824504852295,-0.321736216545105
86,46076,46077,-0.008926628157496452,-0.04920339211821556,0.9461865425109863,-16.047243118286133,11.791812896728516,11.727561950683594,1.0229488611221313,1.0799460411071777,0.18299084901809692,0.8986809253692627,-1.9901827573776245,-0.26483553647994995
87,46086,46087,-0.01472262479364872,0.05812634900212288,1.0080935955047607,-15.366568565368652,9.907323837280273,12.579629898071289,1.0109494924545288,1.0829458236694336,0.18299084901809692,0.7703686356544495,-2.2006051540374756,-0.12222474813461304
88,46096,46097,-0.21651221811771393,-0.02118174359202385,1.0366685390472412,-9.154152870178223,10.009537696838379,12.329089164733887,1.0229488611221313,1.0769461393356323,0.170991450548172,0.6440607905387878,-2.36572003364563,0.015734747052192688
89,46106,46107,-0.10791994631290436,0.06582995504140854,1.1318968534469604,-0.44365882873535156,5.821488857269287,13.07461166381836,1.0154491662979126,1.0754462480545044,0.16949152946472168,0.516350507736206,-2.3486151695251465,0.11365455389022827
90,46116,46117,0.004293407779186964,0.006792586762458086,1.0065546035766602,10.513476371765137,0.3080514073371887,13.892077445983887,1.0214488506317139,1.0784460306167603,0.18449077010154724,0.45112788677215576,-2.313295841217041,0.23021748661994934
91,46126,46127,0.1687103807926178,-0.13209162652492523,0.9869544506072998,16.327312469482422,-4.572801113128662,14.5812349319458,1.0214488506317139,1.0784460306167603,0.17849107086658478,0.4641300439834595,-2.262608051300049,0.3726005256175995
92,46136,46137,0.03667835891246796,-0.10871732980012894,0.9511504173278809,16.37271499633789,-9.111993789672852,14.288103103637695,1.019948959350586,1.073946237564087,0.17399129271507263,0.4271222651004791,-2.075263261795044,0.5450712442398071
93,46146,46147,0.004233847837895155,0.12449721992015839,1.1229716539382935,13.637681007385254,-13.295507431030273,13.703215599060059,1.0229488611221313,1.0679465532302856,0.17699114978313446,0.6081374883651733,-1.983149528503418,0.6711795330047607
94,46156,46157,-0.09552987664937973,0.025744253769516945,1.0536272525787354,8.093497276306152,-11.786059379577637,13.421717643737793,1.0154491662979126,1.0634467601776123,0.17249137163162231,0.752519428730011,-1.7883679866790771,0.7905541062355042
95,46166,46167,-0.031471122056245804,-0.07790327817201614,0.8676068782806396,4.381308078765869,-8.302932739257812,12.571674346923828,1.0124493837356567,1.0634467601776123,0.17249137163162231,0.9255106449127197,-1.8301447629928589,0.9369625449180603
96,46176,46177,-0.18174384534358978,0.10917342454195023,1.0133848190307617,-1.0435658693313599,-0.9360876083374023,10.805495262145996,1.0139492750167847,1.0829458236694336,0.17399129271507263,1.0304138660430908,-1.7941149473190308,1.0517019033432007
97,46186,46187,-0.20766951143741608,0.044967710971832275,1.06654691696167,-7.79273796081543,10.03199577331543,8.658851623535156,1.004949688911438,1.0619468688964844,0.16799159348011017,1.0046250820159912,-1.9038050174713135,1.1979435682296753
98,46196,46197,-0.09062649309635162,-0.029669279232621193,1.0184245109558105,-8.088441848754883,18.149513244628906,4.986164093017578,1.0124493837356567,1.0844457149505615,0.16349181532859802,0.7997689247131348,-2.015458345413208,1.3284058570861816
99,46206,46207,-0.05567358061671257,-0.047612886875867844,0.9930859208106995,-3.0526278018951416,27.281291961669922,3.5464553833007812,1.0154491662979126,1.0784460306167603,0.17549122869968414,0.4492698013782501,-2.1054317951202393,1.4279741048812866
100,46216,46217,-0.07316123694181442,-0.07074392586946487,1.052066445350647,9.466588020324707,31.722719192504883,3.0013298988342285,1.01694917678833,1.0889455080032349,0.1799909919500351,0.13312262296676636,-2.201040506362915,1.4820019006729126
101,46226,46227,0.022582493722438812,-0.06824400275945663,1.0611733198165894,25.60357666015625,24.82758140563965,4.42348051071167,1.004949688911438,1.073946237564087,0.17699114978313446,-0.03584412857890129,-1.8614970445632935,1.4010674953460693
102,46236,46237,0.09284137934446335,-0.0992799922823906,0.9512134790420532,38.92422103881836,10.286993980407715,4.762518882751465,1.0094494819641113,1.0634467601776123,0.17549122869968414,-0.06472519040107727,-1.571839451789856,1.359673023223877
103,46246,46247,-0.042562417685985565,-0.07267340272665024,0.9498459100723267,41.40166473388672,0.4961657226085663,5.232774257659912,1.00344979763031,1.0604469776153564,0.16349181532859802,-0.20275449752807617,-1.1947541236877441,1.415449619293213
104,46256,46257,-0.0890999510884285,0.04099304601550102,1.0665336847305298,33.95359802246094,-1.5512137413024902,6.14606237411499,1.019948959350586,1.0439478158950806,0.17399129271507263,-0.3492777645587921,-0.954753577709198,1.5412474870681763
105,46266,46267,-0.07713375985622406,0.0840122401714325,1.222782850265503,20.575687408447266,-0.6547965407371521,4.864518642425537,1.0154491662979126,1.057447075843811,0.17549122869968414,-0.32450351119041443,-0.6484528183937073,1.6038262844085693
106,46276,46277,0.007292070891708136,-0.010889125987887383,1.005983591079712,6.656866073608398,0.5191822052001953,3.0162792205810547,1.019948959350586,1.0529472827911377,0.1799909919500351,-0.3329862654209137,-0.5069781541824341,1.658376693725586
107,46286,46287,-0.028765441849827766,-0.03422440215945244,0.978903591632843,-3.6215195655822754,0.5437180995941162,2.2893900871276855,1.033448338508606,1.0454477071762085,0.17849107086658478,-0.3479987680912018,-0.4896531403064728,1.6939117908477783
108,46296,46297,-0.05766109749674797,0.010045506060123444,1.0492007732391357,-7.539623260498047,-1.3924049139022827,4.169798374176025,1.0274486541748047,1.0514473915100098,0.16649167239665985,-0.347038209438324,-0.5251649618148804,1.7213867902755737
109,46306,46307,-0.06089076027274132,0.008731063455343246,1.054271936416626,-8.697296142578125,-2.961596965789795,4.901867389678955,1.0139492750167847,1.0469475984573364,0.170991450548172,-0.25959545373916626,-0.6134400367736816,1.7439326047897339
110,46316,46317,-0.03968655318021774,-0.0817360207438469,0.8933123350143433,-9.185372352600098,-1.7053523063659668,4.743410587310791,1.0109494924545288,1.0619468688964844,0.170991450548172,-0.5051800012588501,-0.780173659324646,1.8547382354736328
111,46326,46327,-0.14568398892879486,0.0002611745148897171,0.8328461647033691,-4.716516017913818,-0.9145604372024536,4.284990310668945,1.004949688911438,1.0589470863342285,0.170991450548172,-0.526971697807312,-0.8583748936653137,1.9102426767349243
112,46336,46337,-0.1010085791349411,0.03936796635389328,1.0256637334823608,6.084545135498047,-0.9642312526702881,3.0710325241088867,1.0079495906829834,1.055947184562683,0.16499175131320953,-0.4922533631324768,-0.8882685899734497,1.9472887516021729
113,46346,46347,-0.24812614917755127,0.03178194537758827,1.0636759996414185,15.48593807220459,-1.652345895767212,2.0334057807922363,0.9974501132965088,1.0544472932815552,0.16949152946472168,-0.45931312441825867,-0.6920583248138428,1.9641318321228027
114,46356,46357,-0.09116151183843613,0.046136438846588135,1.0745562314987183,20.52714729309082,-3.5947465896606445,2.128910541534424,1.018449068069458,1.0544472932815552,0.17249137163162231,-0.4024234414100647,-0.7871679663658142,1.9861247539520264
115,46366,46367,0.04339926689863205,-0.16836504638195038,0.995309054851532,23.102596282958984,-8.720344543457031,0.8682219982147217,1.019948959350586,1.0499475002288818,0.16799159348011017,-0.31054434180259705,-0.4489547610282898,1.9962142705917358
116,46376,46377,-0.015006349422037601,-0.015083185397088528,1.0345942974090576,20.225130081176758,-9.215225219726562,-1.1851762533187866,1.0124493837356567,1.0604469776153564,0.17249137163162231,-0.16623635590076447,-0.3170164227485657,1.9955828189849854
117,46386,46387,0.03653770312666893,0.07003502547740936,0.8842583894729614,15.547918319702148,-6.452865123748779,-1.5919303894042969,1.01694917678833,1.0499475002288818,0.16499175131320953,-0.15887834131717682,-0.010621394030749798,1.9966998100280762
118,46396,46397,0.04892437160015106,-0.026593700051307678,0.8483073115348816,8.38074779510498,-2.037445545196533,-1.482550024986267,1.0124493837356567,1.042447805404663,0.17549122869968414,-0.0625745952129364,0.05027345195412636,1.980607271194458
119,46406,46407,-0.05420142412185669,-0.03677649796009064,0.9433692097663879,0.738255500793457,5.148879051208496,-2.495675563812256,1.0139492750167847,1.0589470863342285,0.16799159348011017,-0.14351843297481537,0.060837965458631516,1.9728271961212158
120,46416,46417,-0.030377386137843132,-0.059758808463811874,0.8923364281654358,-2.9671220779418945,8.936725616455078,-2.870976448059082,1.00344979763031,1.057447075843811,0.16949152946472168,-0.22889664769172668,0.12050672620534897,1.951582431793213
121,46426,46427,-0.027511276304721832,0.013697325251996517,1.01957106590271,-2.7753899097442627,10.484622955322266,-2.2047085762023926,1.0109494924545288,1.0529472827911377,0.17399129271507263,-0.29446449875831604,-0.14039157330989838,1.922705888748169
122,46436,46437,-0.16305488348007202,0.17833709716796875,1.1424291133880615,-4.127674579620361,8.014081001281738,-1.4493408203125,1.0139492750167847,1.0469475984573364,0.17399129271507263,-0.3616616129875183,-0.11493844538927078,1.8947018384933472
123,46446,46447,-0.04683827608823776,0.0076799350790679455,0.9586724638938904,-3.4045028686523438,3.8086724281311035,-1.0796785354614258,1.0109494924545288,1.0499475002288818,0.15599219501018524,-0.44027113914489746,-0.09499988704919815,1.8809932470321655
124,46456,46457,-0.07844873517751694,-0.0064220610074698925,1.0133558511734009,5.5671257972717285,-0.7741931080818176,-2.519937753677368,1.0109494924545288,1.0619468688964844,0.1799909919500351,-0.364761084318161,-0.09467493742704391,1.8672963380813599
125,46466,46467,0.1720089614391327,-0.10988561809062958,0.8735263347625732,17.19852638244629,-1.959621787071228,-3.0903899669647217,1.004949688911438,1.0499475002288818,0.17699114978313446,-0.32404598593711853,-0.08890531212091446,1.8425885438919067
126,46476,46477,-0.0274878591299057,-0.043709706515073776,0.9821073412895203,28.17972755432129,-1.5245273113250732,-4.099104404449463,1.019948959350586,1.055947184562683,0.17399129271507263,-0.3662424683570862,0.11029195040464401,1.8130682706832886
127,46486,46487,-0.04908135533332825,-0.030992060899734497,0.9735591411590576,33.076271057128906,4.258211135864258,-4.377441883087158,1.0214488506317139,1.042447805404663,0.1814909279346466,-0.3715580105781555,0.4603671431541443,1.7754045724868774
128,46496,46497,-0.05988365039229393,0.16218401491641998,1.0522828102111816,32.043392181396484,13.011996269226074,-6.202486515045166,1.0064496994018555,1.048447608947754,0.16649167239665985,-0.5498553514480591,0.6370957493782043,1.7244758605957031
129,46506,46507,-0.11808697134256363,0.024945782497525215,1.08864426612854,27.62282371520996,16.605268478393555,-6.2068562507629395,1.0124493837356567,1.048447608947754,0.16649167239665985,-0.7614741921424866,1.0663896799087524,1.6667594909667969
130,46516,46517,-0.06790706515312195,-0.0856827050447464,0.8995821475982666,20.096860885620117,13.029641151428223,-7.540806293487549,0.9959501624107361,1.0529472827911377,0.16499175131320953,-0.8404896855354309,1.3268922567367554,1.608336091041565
131,46526,46527,-0.06845062971115112,0.04741589352488518,1.0480881929397583,12.858118057250977,4.256294250488281,-8.22148609161377,1.0064496994018555,1.042447805404663,0.16649167239665985,-0.9747153520584106,1.6188844442367554,1.5405216217041016
132,46536,46537,0.06814191490411758,0.028757117688655853,1.192490816116333,4.375732421875,-3.9444167613983154,-9.910032272338867,1.0019499063491821,1.0529472827911377,0.16799159348011017,-0.990234375,1.8409576416015625,1.4683310985565186
133,46546,46547,-0.006532830651849508,-0.03858472406864166,0.9413955211639404,-2.594836711883545,-15.244009971618652,-11.386481285095215,1.0094494819641113,1.0394480228424072,0.1604919731616974,-0.8323760032653809,1.7104709148406982,1.367212176322937
134,46556,46557,-0.00292384997010231,-0.1322125792503357,0.9086442589759827,-9.243058204650879,-21.961584091186523,-12.583013534545898,1.0139492750167847,1.0349482297897339,0.170991450548172,-0.6472967267036438,1.6956677436828613,1.251163363456726
135,46566,46567,0.01920093409717083,-0.13830676674842834,0.834845781326294,-12.77685546875,-21.45127296447754,-13.833969116210938,1.0019499063491821,1.0439478158950806,0.16499175131320953,-0.28674691915512085,1.585465669631958,1.141570806503296
136,46576,46577,-0.041169654577970505,0.02604861743748188,1.0053828954696655,-12.658949851989746,-16.15807342529297,-13.954439163208008,1.0019499063491821,1.0319483280181885,0.170991450548172,-0.2540295720100403,1.4369218349456787,0.9674667716026306
137,46586,46587,-0.022161761298775673,-0.14989599585533142,0.8517773151397705,-9.858588218688965,-9.66442584991455,-13.687742233276367,1.0109494924545288,1.0469475984573364,0.16799159348011017,-0.13104668259620667,1.2987772226333618,0.8165391087532043
138,46596,46597,0.018405281007289886,-0.028807904571294785,0.936208188533783,-2.2740447521209717,-5.522797107696533,-13.607604026794434,1.0139492750167847,1.0469475984573364,0.17699114978313446,0.050218984484672546,1.233736276626587,0.6947249174118042
139,46606,46607,-0.016969118267297745,0.015503071248531342,0.9754056334495544,7.0839080810546875,-3.662508964538574,-13.49597454071045,1.0154491662979126,1.0454477071762085,0.17249137163162231,0.015671227127313614,1.298158049583435,0.5430272817611694
140,46616,46617,0.007921171374619007,-0.07984170317649841,0.9360648393630981,11.75098705291748,3.23412823677063,-13.90773868560791,1.0079495906829834,1.0499475002288818,0.17699114978313446,0.10219207406044006,1.2705692052841187,0.4176102578639984
141,46626,46627,-0.1960386037826538,0.23705007135868073,1.1905471086502075,14.044896125793457,7.463455677032471,-15.195501327514648,1.018449068069458,1.0514473915100098,0.16649167239665985,-0.02168249897658825,1.388674020767212,0.2619817554950714
142,46636,46637,-0.04961644485592842,-0.042796775698661804,0.9018080830574036,11.381890296936035,10.982710838317871,-14.622115135192871,1.0094494819641113,1.0634467601776123,0.17849107086658478,-0.2068347930908203,1.5092206001281738,0.08890696614980698
143,46646,46647,-0.031223148107528687,-0.08310198783874512,0.9813855886459351,6.689689636230469,10.376550674438477,-13.81960678100586,0.9959501624107361,1.0619468688964844,0.16799159348011017,-0.36208978295326233,1.5730094909667969,-0.06763660162687302
144,46656,46657,0.031566549092531204,-0.1376357525587082,0.7827394604682922,0.7407143115997314,4.0488386154174805,-12.463948249816895,1.01694917678833,1.073946237564087,0.17399129271507263,-0.33194711804389954,1.6268161535263062,-0.16858775913715363
145,46666,46667,-0.12796495854854584,-0.10706638544797897,1.022750735282898,-3.880507469177246,-5.29083776473999,-11.080907821655273,0.9989500045776367,1.0439478158950806,0.1619918942451477,-0.3749169707298279,1.6594818830490112,-0.29272887110710144
146,46676,46677,-0.07489386200904846,-0.10556343197822571,1.0687779188156128,-9.235857009887695,-3.8455440998077393,-9.320428848266602,1.0124493837356567,1.057447075843811,0.18449077010154724,-0.2606668472290039,1.606764316558838,-0.38429662585258484
147,46686,46687,-0.002095477655529976,0.05663050711154938,1.0914167165756226,-8.826423645019531,-1.348118543624878,-6.768675804138184,1.0079495906829834,1.0589470863342285,0.1799909919500351,-0.32334277033805847,1.5081697702407837,-0.507205605506897
148,46696,46697,-0.06219642236828804,-0.06556175649166107,0.9187002778053284,-6.59730339050293,-0.3005101978778839,-4.161427974700928,1.0109494924545288,1.0619468688964844,0.17699114978313446,-0.27060556411743164,1.4239580631256104,-0.5641874074935913
149,46706,46707,-0.10451963543891907,0.0421636588871479,1.0464117527008057,-4.518336296081543,-0.6031157970428467,-2.237457036972046,1.0064496994018555,1.048447608947754,0.17249137163162231,-0.23867809772491455,1.3677889108657837,-0.5966233015060425
150,46716,46717,0.03931846842169762,-0.033500801771879196,0.9110234379768372,-0.5816023945808411,-3.1799683570861816,0.08758781105279922,1.0109494924545288,1.0499475002288818,0.18599069118499756,-0.18496400117874146,1.3513349294662476,-0.6034373044967651
151,46726,46727,0.10813737660646439,0.005158663727343082,1.1138997077941895,3.0618114471435547,0.5688374638557434,3.1410765647888184,1.018449068069458,1.0454477071762085,0.17249137163162231,-0.42410027980804443,1.3863106966018677,-0.6819984316825867
152,46736,46737,0.019543996080756187,-0.009638776071369648,0.9763407707214355,9.017037391662598,-2.892446517944336,8.415205955505371,1.0244487524032593,1.0514473915100098,0.16949152946472168,-0.3614111840724945,1.4998472929000854,-0.6240900754928589
153,46746,46747,0.08820027858018875,-0.013566702604293823,1.0606719255447388,13.377914428710938,-2.3171896934509277,11.788182258605957,1.0259486436843872,1.0589470863342285,0.16799159348011017,-0.2912681996822357,1.6937178373336792,-0.5226563215255737
154,46756,46757,0.30110612511634827,-0.009308132342994213,1.0961058139801025,13.721091270446777,-2.476942539215088,14.058331489562988,1.0214488506317139,1.0544472932815552,0.17249137163162231,-0.3135475814342499,1.57720947265625,-0.4325040578842163
155,46766,46767,0.05125058442354202,0.016474662348628044,1.0103293657302856,12.347224235534668,-6.032255172729492,14.234675407409668,1.0229488611221313,1.0499475002288818,0.17399129271507263,-0.22368845343589783,1.8193913698196411,-0.27145323157310486
156,46776,46777,0.19371280074119568,-0.10172133147716522,0.9931812882423401,9.097466468811035,-5.3510661125183105,14.533526420593262,1.0154491662979126,1.0514473915100098,0.17549122869968414,-0.37551048398017883,1.8862091302871704,-0.19612683355808258
157,46786,46787,0.016874058172106743,0.026667535305023193,1.0857967138290405,5.937004089355469,-2.383604049682617,15.795326232910156,1.0274486541748047,1.0364481210708618,0.16649167239665985,-0.3100632429122925,2.042646646499634,-0.045801784843206406
158,46796,46797,0.022086432203650475,0.014638762921094894,0.9621533751487732,2.565554141998291,2.4324088096618652,17.882646560668945,1.0139492750167847,1.0229488611221313,0.17699114978313446,-0.25040221214294434,2.065692663192749,0.12131107598543167
159,46806,46807,-0.06562016904354095,0.0026229284703731537,0.9523310661315918,-1.6369906663894653,-0.5826383233070374,17.081920623779297,1.0094494819641113,1.0304484367370605,0.17849107086658478,-0.23786357045173645,1.9590281248092651,0.30333489179611206
160,46816,46817,0.21425777673721313,-0.11114273220300674,0.9587274193763733,-8.86281967163086,-3.986715793609619,18.286161422729492,1.0124493837356567,1.0394480228424072,0.16649167239665985,-0.19067244231700897,1.9183260202407837,0.4897899627685547
161,46826,46827,0.07169957458972931,0.013237709179520607,1.0323108434677124,-14.018227577209473,-15.895678520202637,18.017536163330078,1.004949688911438,1.0379481315612793,0.170991450548172,-0.1392119824886322,1.8532129526138306,0.6729251146316528
162,46836,46837,-0.04126337170600891,-0.027040837332606316,0.9083630442619324,-13.810843467712402,-21.928787231445312,17.378543853759766,1.018449068069458,1.0364481210708618,0.1604919731616974,-0.21179316937923431,1.648906946182251,0.7636263370513916
163,46846,46847,0.0017266233917325735,-0.02484755404293537,0.8988281488418579,-10.39181900024414,-23.281335830688477,17.646486282348633,1.0154491662979126,1.033448338508606,0.16949152946472168,0.08567142486572266,1.4698164463043213,0.9536556005477905
164,46856,46857,-0.20394137501716614,0.19428667426109314,1.133272647857666,-4.188652038574219,-21.37805938720703,18.173858642578125,1.0274486541748047,1.0364481210708618,0.17849107086658478,0.18395934998989105,1.5007238388061523,1.0840765237808228
165,46866,46867,-0.058757416903972626,0.01075111236423254,0.9490068554878235,2.3875043392181396,-19.168720245361328,18.9880428314209,1.018449068069458,1.033448338508606,0.17849107086658478,0.46887150406837463,1.4028761386871338,1.2788816690444946
166,46876,46877,0.19205623865127563,-0.13423718512058258,0.9357780814170837,3.935286521911621,-15.649078369140625,18.391664505004883,1.0154491662979126,1.0544472932815552,0.16649167239665985,0.6132703423500061,1.5308102369308472,1.4458973407745361
167,46886,46887,0.0017292097909376025,-0.13694001734256744,0.9866793155670166,2.6229827404022217,-10.800533294677734,17.10721206665039,1.0394480228424072,1.048447608947754,0.17849107086658478,0.8304701447486877,1.5268930196762085,1.648443579673767
168,46896,46897,0.007978003472089767,-0.07760272175073624,0.912734866142273,2.5999791622161865,-9.028071403503418,18.558181762695312,1.01694917678833,1.0499475002288818,0.1619918942451477,0.9777243733406067,1.6452897787094116,1.8278096914291382
169,46906,46907,0.029094811528921127,0.06544149667024612,1.0814285278320312,-1.2439388036727905,-8.40775203704834,17.216814041137695,1.0319483280181885,1.0649467706680298,0.17699114978313446,1.0564393997192383,1.5938163995742798,2.007619619369507
170,46916,46917,-0.007283843122422695,-0.011841493658721447,0.9652257561683655,-7.356480121612549,-5.487075328826904,17.308637619018555,1.018449068069458,1.048447608947754,0.16949152946472168,1.1039870977401733,1.5397390127182007,2.167140007019043
171,46926,46927,-0.04815812408924103,-0.0028003205079585314,0.9660905599594116,-12.90376091003418,-3.9125492572784424,16.88835906982422,1.0229488611221313,1.0499475002288818,0.1799909919500351,1.178267240524292,1.3878700733184814,2.3475136756896973
172,46936,46937,-0.10788322240114212,0.20329882204532623,1.0468273162841797,-14.352046012878418,-5.392008304595947,16.640968322753906,0.9944502711296082,1.0544472932815552,0.17849107086658478,1.0559356212615967,1.3195375204086304,2.46272349357605
173,46946,46947,-0.03938992694020271,0.054635897278785706,0.9974638223648071,-13.203274726867676,-8.329991340637207,17.6312313079834,1.018449068069458,1.057447075843811,0.16949152946472168,1.1016290187835693,1.1541786193847656,2.6231484413146973
174,46956,46957,-0.0396655909717083,-0.0526341088116169,0.9330554604530334,-10.48369312286377,-10.812273979187012,17.41773796081543,1.0244487524032593,1.0604469776153564,0.17549122869968414,1.1705557107925415,1.09083890914917,2.7822978496551514
175,46966,46967,0.03724576160311699,-0.034798458218574524,1.1711899042129517,-9.926828384399414,-17.212007522583008,15.904800415039062,1.0289485454559326,1.055947184562683,0.17699114978313446,1.3140344619750977,0.9029123187065125,2.972318172454834
176,46976,46977,0.07828620821237564,-0.11848906427621841,1.1535027027130127,-5.924166679382324,-20.01211929321289,14.95772933959961,1.033448338508606,1.0394480228424072,0.17249137163162231,1.5750857591629028,0.8928483724594116,3.138550281524658
177,46986,46987,0.08667530864477158,-0.1743459701538086,0.9222124218940735,-5.086174488067627,-26.80558204650879,13.614415168762207,1.0349482297897339,1.0529472827911377,0.170991450548172,1.862892985343933,0.7934747934341431,3.3125081062316895
178,46996,46997,-0.05570273473858833,0.016027197241783142,1.067116379737854,-7.799385070800781,-21.588581085205078,12.833233833312988,1.0139492750167847,1.0589470863342285,0.17399129271507263,1.8945016860961914,0.674026608467102,3.405500650405884
179,47006,47007,-0.05017876252532005,-0.12445569783449173,0.8194723725318909,-7.353762626647949,-15.394551277160645,12.566141128540039,1.0229488611221313,1.0619468688964844,0.16499175131320953,2.1254427433013916,0.537932813167572,3.5492465496063232
180,47016,47017,0.05694335699081421,-0.013709869235754013,0.8922258019447327,-4.341084957122803,-13.224135398864746,12.360343933105469,1.0259486436843872,1.0649467706680298,0.18299084901809692,2.2505650520324707,0.44479355216026306,3.673570394515991
181,47026,47027,-0.057644084095954895,0.04958714544773102,1.039534330368042,-2.57320499420166,-6.374817371368408,10.936064720153809,1.0364481210708618,1.0664466619491577,0.17249137163162231,2.439309597015381,0.3809843361377716,3.8129937648773193
182,47036,47037,-0.05598149076104164,-0.1101105809211731,0.943714439868927,0.16543927788734436,-3.4406578540802,9.802576065063477,1.0214488506317139,1.0634467601776123,0.17849107086658478,2.5829548835754395,0.4214620292186737,3.914867401123047
183,47046,47047,-0.23287871479988098,0.11397745460271835,0.9803009629249573,1.4049835205078125,-3.122986078262329,9.244209289550781,1.0274486541748047,1.0694465637207031,0.17549122869968414,2.7018415927886963,0.5105525851249695,4.001237392425537
184,47056,47057,-0.11256387829780579,-0.017042456194758415,0.9378949403762817,-3.6777236461639404,-5.398329734802246,9.141223907470703,1.0349482297897339,1.055947184562683,0.1799909919500351,2.7413907051086426,0.4165162146091461,4.121703624725342
185,47066,47067,-0.04548826441168785,-0.1473730057477951,0.8931515216827393,-9.087616920471191,-5.031513690948486,7.766177177429199,1.0274486541748047,1.0634467601776123,0.16949152946472168,2.8589274883270264,0.39671650528907776,4.213939189910889
186,47076,47077,-0.18944060802459717,-0.08806278556585312,1.0366382598876953,-12.512965202331543,-1.8806021213531494,6.992101669311523,1.0379481315612793,1.0649467706680298,0.17399129271507263,2.6766152381896973,0.28438156843185425,4.270517349243164
187,47086,47087,-0.13688531517982483,-0.09761732816696167,0.889212429523468,-13.910285949707031,-1.3531450033187866,7.264189720153809,1.0289485454559326,1.0619468688964844,0.1889905482530594,2.8067517280578613,0.136026531457901,4.362992286682129
188,47096,47097,0.008798230439424515,-0.10794798284769058,0.9945324063301086,-14.256447792053223,-2.614565372467041,7.040250301361084,1.0304484367370605,1.0814459323883057,0.18449077010154724,2.876804828643799,-0.013946269638836384,4.452855110168457
189,47106,47107,0.08674872666597366,-0.10229862481355667,0.9439452290534973,-16.311838150024414,-1.154513955116272,4.321462631225586,1.0289485454559326,1.0529472827911377,0.1799909919500351,2.8624656200408936,-0.26134857535362244,4.558359146118164
190,47116,47117,-0.04436417669057846,0.07935508340597153,1.121703028678894,-11.93753719329834,-0.2692156434059143,3.914228677749634,1.0274486541748047,1.0754462480545044,0.1814909279346466,2.5975658893585205,-0.07437314838171005,4.447552680969238
191,47126,47127,-0.03635506331920624,-0.07373718172311783,0.9762648344039917,-9.249186515808105,1.0281943082809448,4.129821300506592,1.0364481210708618,1.072446346282959,0.17849107086658478,2.621220827102661,-0.14639337360858917,4.460196018218994
192,47136,47137,0.029485834762454033,0.03716282173991203,1.144214153289795,-4.810308456420898,3.9119791984558105,3.9353621006011963,1.0259486436843872,1.085945725440979,0.16799159348011017,2.613537549972534,-0.29628217220306396,4.523540019989014
193,47146,47147,0.05327877402305603,-0.03446376696228981,1.2635709047317505,-6.394682884216309,2.92374324798584,2.7423689365386963,1.0229488611221313,1.0919454097747803,0.19199039041996002,2.577564239501953,-0.42619794607162476,4.58371639251709
194,47156,47157,0.03815251216292381,0.07282669842243195,0.9453610181808472,-4.454570293426514,2.0644290447235107,0.7552530765533447,1.0064496994018555,1.0814459323883057,0.18449077010154724,2.5470407009124756,-0.5456864833831787,4.631178855895996
195,47166,47167,0.057742249220609665,0.06637401133775711,1.0510634183883667,-1.5383188724517822,0.16918127238750458,1.2592037916183472,1.018449068069458,1.0694465637207031,0.18449077010154724,2.480562448501587,-0.49393075704574585,4.599645614624023
196,47176,47177,-0.012398988008499146,0.01661287248134613,1.0868233442306519,1.5188443660736084,0.3378562331199646,0.10992331057786942,1.0274486541748047,1.072446346282959,0.18749062716960907,2.500314950942993,-0.5898605585098267,4.646387100219727
197,47186,47187,-0.07633621990680695,-0.005272994749248028,1.060201644897461,2.7327160835266113,2.2765467166900635,-0.06346269696950912,1.0109494924545288,1.0799460411071777,0.18299084901809692,2.504850387573242,-0.49069955945014954,4.615659236907959
198,47196,47197,-0.04512181505560875,-0.07773341983556747,1.0841805934906006,2.1214699745178223,4.6202497482299805,-0.4661763310432434,1.0229488611221313,1.0829458236694336,0.18299084901809692,2.4490466117858887,-0.4646068811416626,4.618295669555664
199,47206,47207,-0.09485234320163727,-0.0637771412730217,1.024702787399292,3.1795473098754883,4.469754219055176,0.6145355105400085,1.0304484367370605,1.0754462480545044,0.18449077010154724,2.458123207092285,-0.4411701560020447,4.612247467041016
200,47216,47217,0.09102566540241241,0.08248516172170639,0.9924532175064087,1.570623517036438,4.0205302238464355,2.888538122177124,1.0124493837356567,1.0604469776153564,0.1814909279346466,2.3398795127868652,-0.41540348529815674,4.629161357879639
201,47226,47227,-0.03853728249669075,0.10077257454395294,1.1458258628845215,-2.8412537574768066,6.124544620513916,4.802680492401123,1.0349482297897339,1.0829458236694336,0.17399129271507263,2.2759194374084473,-0.49239176511764526,4.702646732330322
202,47236,47237,-0.020200330764055252,-0.032131098210811615,1.0512641668319702,-5.548657417297363,5.980971813201904,4.702086925506592,1.0274486541748047,1.0694465637207031,0.18449077010154724,2.2613067626953125,-0.569615364074707,4.761041641235352
203,47246,47247,-0.00440577045083046,-0.3141840398311615,0.9579033851623535,-6.370809555053711,6.364597320556641,6.207608222961426,1.0289485454559326,1.0649467706680298,0.17699114978313446,2.238753080368042,-0.6087019443511963,4.791476726531982
204,47256,47257,-0.06150660291314125,-0.23778116703033447,1.0998066663742065,1.7742512226104736,10.622605323791504,6.839535713195801,1.01694917678833,1.0649467706680298,0.1619918942451477,2.328848361968994,-0.6667969226837158,4.833412170410156
205,47266,47267,-0.0657304897904396,0.03547609969973564,1.110139012336731,4.185838222503662,11.874879837036133,7.879499912261963,1.0214488506317139,1.057447075843811,0.1814909279346466,2.118985414505005,-0.7857942581176758,4.967106819152832
206,47276,47277,-0.002664221916347742,0.07232282310724258,1.1151894330978394,3.4561591148376465,12.124761581420898,7.074183464050293,1.0289485454559326,1.0799460411071777,0.18599069118499756,1.9018675088882446,-0.7115930914878845,5.044641494750977
207,47286,47287,-0.033382292836904526,-0.02206411398947239,0.9853558540344238,2.2015950679779053,15.11620044708252,8.36341667175293,1.01694917678833,1.0589470863342285,0.16799159348011017,1.7587785720825195,-0.6518140435218811,5.115602016448975
208,47296,47297,-0.07750742137432098,0.019723517820239067,1.0719428062438965,3.2947604656219482,13.598590850830078,10.516361236572266,1.0319483280181885,1.0649467706680298,0.17399129271507263,1.7238240242004395,-0.7458223104476929,5.230103969573975
209,47306,47307,-0.013582374900579453,0.032578639686107635,1.0873355865478516,4.691396236419678,9.776225090026855,9.505838394165039,1.019948959350586,1.073946237564087,0.1799909919500351,1.3610905408859253,-0.5336053371429443,5.3021111488342285
210,47316,47317,-0.008707473985850811,0.006878098007291555,1.0347036123275757,4.0136213302612305,10.0513916015625,9.081417083740234,1.0229488611221313,1.0649467706680298,0.1889905482530594,1.6215407848358154,-0.5274785757064819,5.346615314483643
211,47326,47327,-0.03814264014363289,-0.0077553666196763515,0.9795238375663757,7.0054850578308105,8.868547439575195,7.867507457733154,1.0274486541748047,1.0664466619491577,0.1814909279346466,1.5770812034606934,-0.5103476643562317,5.432693958282471
212,47336,47337,-0.07464607805013657,-0.005045108497142792,1.039806842803955,5.968619346618652,9.18807315826416,5.530489921569824,1.0319483280181885,1.055947184562683,0.18599069118499756,1.4525001049041748,-0.40207913517951965,5.497910976409912
213,47346,47347,-0.031215796247124672,-0.03214925527572632,1.0044658184051514,3.0187952518463135,11.637832641601562,4.092274188995361,1.0394480228424072,1.0604469776153564,0.16949152946472168,1.4691786766052246,-0.4523988366127014,5.568838596343994
214,47356,47357,0.1067371740937233,-0.12161456048488617,1.0680078268051147,0.31775060296058655,11.069334983825684,2.1652379035949707,1.01694917678833,1.0529472827911377,0.1799909919500351,1.3172756433486938,-0.3982526361942291,5.611792087554932
215,47366,47367,0.0357927642762661,0.0009007655316963792,1.0970985889434814,1.0802196264266968,6.907944679260254,1.138432264328003,1.0259486436843872,1.0529472827911377,0.16799159348011017,1.1194552183151245,-0.506885826587677,5.67885160446167
216,47376,47377,-0.022319549694657326,0.017142783850431442,1.0413514375686646,1.1579408645629883,6.667702674865723,-0.08062499016523361,1.0289485454559326,1.055947184562683,0.18299084901809692,1.2473379373550415,-0.5296566486358643,5.66200065612793
217,47386,47387,0.03528234735131264,-0.12889695167541504,1.1432334184646606,3.2709975242614746,5.41022253036499,0.07587768137454987,1.0259486436843872,1.055947184562683,0.17699114978313446,1.0110474824905396,-0.48599958419799805,5.683465957641602
218,47396,47397,0.1240389347076416,-0.17453880608081818,1.2635350227355957,6.586930751800537,11.229104995727539,-0.11052580177783966,1.0349482297897339,1.0469475984573364,0.17399129271507263,0.8911725878715515,-0.40798065066337585,5.682185173034668
219,47406,47407,0.06652161478996277,-0.06368888914585114,1.0540077686309814,13.368897438049316,11.211036682128906,-0.12552618980407715,1.0319483280181885,1.0469475984573364,0.17699114978313446,0.746086061000824,-0.23709215223789215,5.668281078338623
220,47416,47417,-0.03426089882850647,0.04331786185503006,1.1001050472259521,14.015573501586914,15.733996391296387,-0.8677531480789185,1.0289485454559326,1.0379481315612793,0.1799909919500351,0.543613076210022,-0.07963889092206955,5.678441524505615
221,47426,47427,0.05553886666893959,0.12497910112142563,0.9735629558563232,14.372919082641602,18.585947036743164,-0.7551912069320679,1.0319483280181885,1.0409479141235352,0.18299084901809692,0.5027501583099365,0.03390319272875786,5.657713413238525
222,47436,47437,0.09012921899557114,0.19734413921833038,0.809568464756012,14.438706398010254,17.44017219543457,-0.4889519512653351,1.0364481210708618,1.048447608947754,0.18749062716960907,0.3028729259967804,0.13973256945610046,5.660215854644775
223,47446,47447,-0.021465234458446503,0.2526754140853882,0.9992000460624695,9.984200477600098,22.800029754638672,-0.792267918586731,1.0319483280181885,1.0379481315612793,0.1799909919500351,-0.07586605846881866,0.13430050015449524,5.6968793869018555
224,47456,47457,0.03058556094765663,-0.023382293060421944,1.019792914390564,12.993901252746582,26.041372299194336,-1.2287158966064453,1.0259486436843872,1.0499475002288818,0.18299084901809692,-0.20791782438755035,0.13533267378807068,5.684406280517578
225,47466,47467,-0.032609786838293076,0.1314646452665329,1.2160574197769165,13.387726783752441,26.24420738220215,-0.6116060614585876,1.018449068069458,1.0514473915100098,0.18449077010154724,-0.47930705547332764,0.44676336646080017,5.668478012084961
226,47476,47477,-0.018953466787934303,0.22452273964881897,1.06651771068573,14.103899955749512,22.94902229309082,2.7722103595733643,1.0154491662979126,1.0304484367370605,0.16349181532859802,-0.4629887640476227,0.48091235756874084,5.634352207183838
227,47486,47487,0.11950506269931793,0.12043053656816483,1.0250577926635742,10.958257675170898,12.453731536865234,3.484401226043701,1.0154491662979126,1.0394480228424072,0.16349181532859802,-0.8291159272193909,0.7120457291603088,5.6764044761657715
228,47496,47497,-0.060314569622278214,0.08727408200502396,1.1355377435684204,5.843388080596924,13.359455108642578,3.76706862449646,1.0109494924545288,1.0349482297897339,0.16799159348011017,-0.8537576794624329,0.7285842299461365,5.695677757263184
229,47506,47507,-0.06367345154285431,-0.007703444454818964,0.9647994637489319,7.589252471923828,10.953466415405273,7.949129581451416,1.0124493837356567,1.042447805404663,0.16949152946472168,-1.125649333000183,0.8692201375961304,5.750605583190918
230,47516,47517,0.0857309028506279,-0.09795837104320526,0.9277275204658508,2.431431531906128,11.106375694274902,8.127652168273926,1.0079495906829834,1.019948959350586,0.17399129271507263,-1.2878791093826294,0.9026473164558411,5.826537132263184
231,47526,47527,0.009683627635240555,-0.003481331979855895,0.9951450228691101,-1.1162527799606323,11.245052337646484,8.183938026428223,1.0079495906829834,1.0319483280181885,0.18299084901809692,-1.5136412382125854,0.8745108842849731,5.905244827270508
232,47536,47537,0.08648891746997833,-0.033276598900556564,1.0123951435089111,-4.272417068481445,7.158877372741699,9.193723678588867,1.0304484367370605,1.0304484367370605,0.16949152946472168,-1.5578742027282715,0.879315972328186,5.990146160125732
233,47546,47547,0.053296469151973724,-0.08345538377761841,0.8838885426521301,-9.897422790527344,-1.2712945938110352,9.384809494018555,1.0139492750167847,1.0229488611221313,0.17399129271507263,-1.7208006381988525,0.8005373477935791,6.0756120681762695
234,47556,47557,0.08959788829088211,-0.13723179697990417,0.8806025385856628,-11.394721984863281,-6.85219144821167,10.192249298095703,0.9989500045776367,1.0379481315612793,0.18299084901809692,-1.672918677330017,0.7387422919273376,6.1755805015563965
235,47566,47567,-0.06139214336872101,0.015753788873553276,1.0007244348526,-10.869256973266602,-10.935745239257812,9.433810234069824,1.0064496994018555,1.0364481210708618,0.16649167239665985,-1.5591756105422974,0.5785572528839111,6.2586212158203125
236,47576,47577,0.005124509800225496,0.11825450509786606,1.0237839221954346,-10.329702377319336,-10.545646667480469,8.338255882263184,1.01694917678833,1.0259486436843872,0.170991450548172,-1.4124342203140259,0.4239179491996765,6.337836742401123
237,47586,47587,0.019312940537929535,-0.041318003088235855,0.8822911381721497,-5.541832447052002,-10.45341682434082,4.998024940490723,1.0154491662979126,1.042447805404663,0.1604919731616974,-1.2613979578018188,0.4544639587402344,6.454804420471191
238,47596,47597,-0.05224240943789482,-0.12776130437850952,1.0671907663345337,-5.637850761413574,-4.536767482757568,2.3108270168304443,1.0139492750167847,1.0319483280181885,0.17699114978313446,-1.2328730821609497,0.37587037682533264,6.49752950668335
239,47606,47607,0.021294130012392998,0.012956392951309681,1.0164228677749634,-1.6743806600570679,-6.002789497375488,-0.03060598112642765,1.0109494924545288,1.0409479141235352,0.170991450548172,-1.1349579095840454,0.27095693349838257,6.506326198577881
240,47616,47617,-0.09324634820222855,0.11133419722318649,0.7243123054504395,1.8312509059906006,-4.6215500831604,-2.0416314601898193,1.018449068069458,1.0514473915100098,0.1604919731616974,-1.0520583391189575,0.3469349443912506,6.535197734832764
241,47626,47627,-0.0314757265150547,-0.015216685831546783,0.9248645305633545,3.176863670349121,-0.9542704224586487,-4.678445816040039,1.0094494819641113,1.0364481210708618,0.17549122869968414,-1.087593913078308,0.3802468478679657,6.522984027862549
242,47636,47637,-0.012189783155918121,-0.02091890573501587,0.9814121723175049,5.586439609527588,-2.6289713382720947,-6.264715671539307,1.0094494819641113,1.0394480228424072,0.16949152946472168,-1.1472671031951904,0.453048974275589,6.48888635635376
243,47646,47647,0.08321977406740189,-0.2173454761505127,1.0472239255905151,4.166382312774658,-0.5160481929779053,-9.70319652557373,1.018449068069458,1.0454477071762085,0.17549122869968414,-1.0585076808929443,0.54836106300354,6.432756423950195
244,47656,47657,0.05504055693745613,-0.05075763538479805,0.9991913437843323,3.5978031158447266,-6.457248687744141,-11.017953872680664,0.9974501132965088,1.042447805404663,0.16349181532859802,-1.0010976791381836,0.627691924571991,6.351191520690918
245,47666,47667,-0.018535280600190163,0.001344903139397502,0.999300479888916,2.1839725971221924,-10.812973976135254,-13.656611442565918,1.004949688911438,1.0589470863342285,0.16799159348011017,-1.0884275436401367,0.4695075452327728,6.163727760314941
246,47676,47677,-0.046023398637771606,0.038589153438806534,1.0228455066680908,-2.996037006378174,-11.755914688110352,-16.50692367553711,1.004949688911438,1.055947184562683,0.16499175131320953,-0.9722211360931396,0.48683682084083557,6.026493072509766
247,47686,47687,0.059999123215675354,-0.13554330170154572,1.0669912099838257,-3.6041531562805176,-11.214043617248535,-18.866792678833008,1.0004500150680542,1.072446346282959,0.1814909279346466,-0.771726667881012,0.5210588574409485,5.885886192321777
248,47696,47697,0.001202036626636982,-0.01771172694861889,0.9644206762313843,-5.576275825500488,-6.996124744415283,-18.941923141479492,1.0004500150680542,1.0544472932815552,0.17249137163162231,-0.9012980461120605,0.673194408416748,5.760012626647949
249,47706,47707,0.12837918102741241,0.007690338417887688,0.7218927145004272,-7.251835346221924,-6.8285417556762695,-20.699359893798828,1.004949688911438,1.0679465532302856,0.170991450548172,-0.7249117493629456,0.5196309089660645,5.538682460784912
250,47716,47717,0.1482582539319992,-0.051340874284505844,1.1266099214553833,-11.672513008117676,-0.9266921281814575,-22.884910583496094,1.0139492750167847,1.055947184562683,0.170991450548172,-0.674467146396637,0.3729303479194641,5.305062770843506
251,47726,47727,0.01934398151934147,-0.010966591536998749,1.2911299467086792,-16.9656925201416,5.7696709632873535,-24.202651977539062,1.0064496994018555,1.0754462480545044,0.16649167239665985,-0.6904910802841187,0.2840549051761627,5.088700771331787
252,47736,47737,0.027076689526438713,0.09041621536016464,1.1010078191757202,-17.41315269470215,8.311342239379883,-24.42970848083496,0.9989500045776367,1.073946237564087,0.15899205207824707,-0.8116617798805237,0.0069571444764733315,4.814549922943115
253,47746,47747,0.18484899401664734,0.05069893226027489,0.9887979030609131,-15.650554656982422,6.799156188964844,-26.25870704650879,1.00344979763031,1.0934453010559082,0.16949152946472168,-0.926994264125824,-0.26738202571868896,4.536523818969727
254,47756,47757,0.19406241178512573,-0.04168735817074776,1.1107169389724731,-10.41999626159668,4.830021858215332,-29.900405883789062,1.004949688911438,1.073946237564087,0.170991450548172,-1.0133196115493774,-0.5002245903015137,4.250560760498047
255,47766,47767,-0.05866960063576698,-0.014082652516663074,1.148862361907959,-0.09428592771291733,-3.129687786102295,-32.23933792114258,1.0004500150680542,1.072446346282959,0.17249137163162231,-1.158703088760376,-0.39311280846595764,4.024083614349365
256,47776,47777,-0.08520997315645218,0.1503908336162567,1.110689401626587,12.380943298339844,-8.649664878845215,-31.37755012512207,1.0064496994018555,1.0754462480545044,0.18749062716960907,-0.9779356718063354,-0.4719102382659912,3.683466911315918
257,47786,47787,-0.057605985552072525,0.097722128033638,1.085384726524353,21.532297134399414,-11.114668846130371,-34.44474411010742,0.9989500045776367,1.0679465532302856,0.16799159348011017,-1.009887456893921,-0.13519373536109924,3.4408116340637207
258,47796,47797,-0.0721091628074646,0.05272326245903969,1.03066885471344,25.15290641784668,-12.36407470703125,-34.377498626708984,1.0154491662979126,1.0544472932815552,0.17849107086658478,-1.1292654275894165,-0.1156606674194336,3.047673463821411
259,47806,47807,0.03202368691563606,0.009763647802174091,1.050369381904602,21.892850875854492,-8.682963371276855,-34.2809944152832,1.0079495906829834,1.0589470863342285,0.16799159348011017,-1.0236908197402954,0.15581566095352173,2.714751958847046
260,47816,47817,0.1256484091281891,0.07714712619781494,1.0123637914657593,9.620457649230957,-3.3333325386047363,-34.1871223449707,1.0109494924545288,1.0679465532302856,0.1799909919500351,-0.9240075945854187,0.309090256690979,2.3539931774139404
261,47826,47827,0.06021438539028168,0.14982804656028748,1.0022895336151123,-0.14800003170967102,-8.580784797668457,-32.87665557861328,1.0244487524032593,1.0634467601776123,0.18749062716960907,-0.9076915383338928,0.49311307072639465,2.0440447330474854
262,47836,47837,-0.12050102651119232,0.09741771221160889,1.0236388444900513,-6.9584126472473145,-10.32564926147461,-33.114261627197266,1.0019499063491821,1.0799460411071777,0.19199039041996002,-0.6996732354164124,0.4502462148666382,1.6997425556182861
263,47846,47847,-0.11709365993738174,0.024385273456573486,1.0328524112701416,-12.282533645629883,-15.934829711914062,-31.63720703125,1.0154491662979126,1.0664466619491577,0.18449077010154724,-0.5108739137649536,0.3090163767337799,1.3486628532409668
264,47856,47857,-0.0464007593691349,0.08872874081134796,1.0406925678253174,-14.976133346557617,-17.709196090698242,-30.241912841796875,1.0259486436843872,1.0619468688964844,0.17399129271507263,-0.8167960047721863,0.4673273265361786,1.1260021924972534
265,47866,47867,-0.10201207548379898,0.016211088746786118,0.9584659934043884,-15.375251770019531,-21.66065788269043,-30.4417724609375,1.0154491662979126,1.072446346282959,0.16949152946472168,-0.3530031144618988,0.19850200414657593,0.7824089527130127
266,47876,47877,-0.06558079272508621,-0.0710689052939415,0.9594861268997192,-11.335545539855957,-25.016416549682617,-29.44919204711914,1.0214488506317139,1.0694465637207031,0.1904904693365097,-0.1909675896167755,0.045336365699768066,0.47908666729927063
267,47886,47887,-0.08561960607767105,-0.06327277421951294,0.9689707159996033,-4.48166036605835,-27.599517822265625,-28.731929779052734,1.0124493837356567,1.0694465637207031,0.17849107086658478,0.16838297247886658,0.04149801656603813,0.20855511724948883
268,47896,47897,-0.0658968836069107,0.018087871372699738,1.0506364107131958,5.032556533813477,-27.81316566467285,-27.508346557617188,1.0124493837356567,1.0784460306167603,0.1814909279346466,0.47424614429473877,0.01675126887857914,-0.07587180286645889
269,47906,47907,-0.06483354419469833,-0.01145926583558321,1.0088977813720703,12.689772605895996,-22.458147048950195,-25.800025939941406,1.0214488506317139,1.0694465637207031,0.18749062716960907,0.746177077293396,0.07547019422054291,-0.35016947984695435
270,47916,47917,-0.039496537297964096,0.012988602742552757,1.0157487392425537,15.31930160522461,-15.690378189086914,-25.136219024658203,1.0229488611221313,1.0679465532302856,0.18599069118499756,0.7166035771369934,0.09593512862920761,-0.621691107749939
271,47926,47927,-0.0013868855312466621,-0.007892548106610775,0.9662986397743225,12.13225269317627,-5.518266201019287,-23.5938663482666,1.0244487524032593,1.0754462480545044,0.17849107086658478,0.9914892315864563,0.3321140706539154,-0.8655789494514465
272,47936,47937,-0.007223599124699831,-0.1028158888220787,0.9767777323722839,8.251371383666992,-0.05803149938583374,-22.439531326293945,1.0274486541748047,1.0814459323883057,0.18449077010154724,1.1243884563446045,0.44203731417655945,-1.1068919897079468
273,47946,47947,-0.06226922944188118,-0.005650341976433992,1.0507619380950928,2.005309820175171,5.450059413909912,-23.092815399169922,1.0244487524032593,1.0784460306167603,0.18749062716960907,1.1463543176651,0.40285924077033997,-1.3452471494674683
274,47956,47957,-0.05994807556271553,0.017597824335098267,1.0329132080078125,-4.453053951263428,5.336617946624756,-23.105867385864258,1.033448338508606,1.0754462480545044,0.18749062716960907,1.116667628288269,0.4055885672569275,-1.5771485567092896
275,47966,47967,0.11076696217060089,0.10220242291688919,0.9776011109352112,-7.809329032897949,1.4115203619003296,-21.976516723632812,1.042447805404663,1.072446346282959,0.18749062716960907,0.9633061289787292,0.3983055651187897,-1.8021233081817627
276,47976,47977,-0.0009123176569119096,0.07860525697469711,1.0419514179229736,-6.790616512298584,-8.380354881286621,-21.679489135742188,1.0319483280181885,1.0799460411071777,0.19199039041996002,1.0700534582138062,0.41480374336242676,-2.0192806720733643
277,47986,47987,-0.08738058805465698,0.06850869208574295,1.0653331279754639,-4.491335868835449,-9.620617866516113,-20.592592239379883,1.0259486436843872,1.0889455080032349,0.19199039041996002,1.1898585557937622,0.31676915287971497,-2.236267566680908
278,47996,47997,-0.04908554628491402,0.07166524231433868,1.1198214292526245,-1.2283958196640015,-3.7229807376861572,-20.495826721191406,1.0349482297897339,1.0829458236694336,0.1889905482530594,1.3563152551651,0.268783301115036,-2.4445607662200928
279,48006,48007,-0.06064821779727936,-0.10083534568548203,1.0773447751998901,-1.6412705183029175,4.176912307739258,-20.002300262451172,1.0304484367370605,1.0844457149505615,0.1814909279346466,1.345923662185669,0.17700986564159393,-2.6461660861968994
280,48016,48017,0.10627339780330658,0.014417204074561596,1.0372381210327148,1.9067816734313965,17.04758644104004,-21.455810546875,1.0364481210708618,1.0784460306167603,0.1814909279346466,1.240891456604004,0.25184911489486694,-2.853036403656006
281,48026,48027,0.012621003203094006,0.029689908027648926,1.0229668617248535,6.859033107757568,22.86797523498535,-21.64431381225586,1.0319483280181885,1.0799460411071777,0.18299084901809692,0.9785411953926086,0.3206292986869812,-3.068162202835083
282,48036,48037,-0.05587710812687874,-0.054695192724466324,0.9977009296417236,13.336091995239258,28.747905731201172,-19.84585189819336,1.0289485454559326,1.0799460411071777,0.1799909919500351,0.6813194155693054,0.40761157870292664,-3.2806453704833984
283,48046,48047,0.005549627356231213,0.022266313433647156,1.0020841360092163,14.290956497192383,30.840341567993164,-21.500911712646484,1.0304484367370605,1.0844457149505615,0.1814909279346466,0.5232576727867126,0.34764382243156433,-3.466407537460327
284,48056,48057,-0.01101890578866005,0.015855174511671066,1.0707836151123047,15.562314987182617,26.800853729248047,-19.943761825561523,1.0154491662979126,1.0964452028274536,0.18749062716960907,0.08827930688858032,0.6737959980964661,-3.6879727840423584
285,48066,48067,0.0020512051414698362,0.006444219965487719,1.0239652395248413,16.571622848510742,18.1928653717041,-17.83599281311035,1.01694917678833,1.0979450941085815,0.1799909919500351,-0.18528303503990173,0.8536803722381592,-3.883723497390747
286,48076,48077,-0.025235164910554886,0.06260213255882263,0.9869880080223083,15.38421630859375,7.785285949707031,-16.91708755493164,1.0289485454559326,1.070946455001831,0.18599069118499756,-0.11037017405033112,0.9657305479049683,-4.056872844696045
287,48086,48087,-0.042484164237976074,0.032766420394182205,1.0598883628845215,10.840287208557129,2.192291736602783,-14.733622550964355,1.018449068069458,1.072446346282959,0.18449077010154724,-0.3296853005886078,1.2645173072814941,-4.2331132888793945
288,48096,48097,0.11502478271722794,0.19093064963817596,1.0966551303863525,4.244269371032715,-4.308104991912842,-11.166135787963867,1.0244487524032593,1.0694465637207031,0.17249137163162231,-0.1569540947675705,1.1184591054916382,-4.361117362976074
289,48106,48107,0.03266463801264763,0.27865299582481384,1.0332919359207153,-3.381345510482788,-14.295528411865234,-9.674086570739746,1.0139492750167847,1.0679465532302856,0.18599069118499756,0.0021271193400025368,1.0878111124038696,-4.4657440185546875
290,48116,48117,-0.05670018121600151,0.02528979815542698,1.0485564470291138,-11.779147148132324,-16.599124908447266,-8.590847969055176,1.0229488611221313,1.073946237564087,0.17699114978313446,-0.29142236709594727,1.1458457708358765,-4.589846134185791
291,48126,48127,-0.06372712552547455,-0.06769455224275589,0.9939465522766113,-14.933903694152832,-17.88407325744629,-5.967594146728516,1.0124493837356567,1.0694465637207031,0.17249137163162231,0.037733253091573715,1.2167251110076904,-4.669769763946533
292,48136,48137,0.020620036870241165,-0.1277123987674713,0.9957453608512878,-13.744810104370117,-16.28934669494629,-4.37102746963501,1.0259486436843872,1.0679465532302856,0.1799909919500351,0.21035373210906982,0.9660981893539429,-4.730681896209717
293,48146,48147,0.011669086292386055,-0.0818355530500412,1.0378937721252441,-8.559774398803711,-9.448591232299805,-2.0490071773529053,1.0289485454559326,1.0649467706680298,0.17699114978313446,0.46568408608436584,0.6247154474258423,-4.7640156745910645
294,48156,48157,-0.03372424468398094,0.23348848521709442,1.122580885887146,-2.5168638229370117,-2.731170177459717,-1.6447372436523438,1.0229488611221313,1.073946237564087,0.1889905482530594,0.6154976487159729,0.7255058288574219,-4.7879767417907715
295,48166,48167,-0.1428198367357254,0.1240302100777626,0.9677219986915588,5.3804497718811035,3.0586719512939453,-1.4973269701004028,1.0154491662979126,1.0604469776153564,0.17849107086658478,0.4550853967666626,0.7100101709365845,-4.819464683532715
296,48176,48177,-0.16254973411560059,-0.028555311262607574,1.01387619972229,9.647327423095703,9.2772798538208,-0.046899452805519104,1.0304484367370605,1.0544472932815552,0.18749062716960907,0.4105362296104431,0.8044800162315369,-4.833898067474365
297,48186,48187,-0.07786659151315689,-0.05461978539824486,0.9525920152664185,11.188337326049805,14.639030456542969,-0.10753770917654037,1.0289485454559326,1.0529472827911377,0.1799909919500351,0.05619106814265251,0.9600076675415039,-4.856382846832275
298,48196,48197,-0.10262387245893478,-0.02933436632156372,0.9953458905220032,7.160767555236816,14.835448265075684,-0.8161068558692932,1.0259486436843872,1.0529472827911377,0.18299084901809692,0.07897000759840012,1.0975104570388794,-4.843196392059326
299,48206,48207,0.143096923828125,-0.0962190255522728,1.0159711837768555,1.9203118085861206,16.447168350219727,0.3808271884918213,1.0274486541748047,1.057447075843811,0.1814909279346466,0.004393534269183874,1.1746577024459839,-4.840553283691406
300,48216,48217,0.16661804914474487,-0.03199731931090355,1.113864779472351,-5.309645652770996,13.866067886352539,2.8023126125335693,1.0274486541748047,1.0514473915100098,0.17849107086658478,-0.05947466194629669,1.0827765464782715,-4.8232316970825195
301,48226,48227,0.20529437065124512,-0.018910707905888557,0.9125684499740601,-10.70412826538086,7.172922611236572,6.34232759475708,1.0259486436843872,1.0529472827911377,0.1799909919500351,-0.18585354089736938,0.949936032295227,-4.793203353881836
302,48236,48237,0.048605531454086304,0.02797209471464157,0.8939535021781921,-14.074151992797852,1.1553846597671509,6.235766887664795,1.0349482297897339,1.0589470863342285,0.1799909919500351,-0.21274378895759583,0.6697331666946411,-4.7272257804870605
303,48246,48247,-0.0998879000544548,-0.14829541742801666,0.9302136898040771,-12.398551940917969,-4.052287578582764,7.78363561630249,1.0259486436843872,1.0619468688964844,0.1799909919500351,-0.2968677580356598,0.5997369885444641,-4.669445991516113
304,48256,48257,-0.003609324572607875,-0.20019790530204773,0.8685928583145142,-7.691361904144287,-7.930553913116455,8.94579792022705,1.0109494924545288,1.0679465532302856,0.170991450548172,-0.10438729077577591,0.4178585112094879,-4.574554920196533
305,48266,48267,0.04401950165629387,0.002775123342871666,1.0289759635925293,-3.0865824222564697,-12.788443565368652,10.072768211364746,1.019948959350586,1.0679465532302856,0.1799909919500351,0.080070860683918,0.585430920124054,-4.472574710845947
306,48276,48277,0.1079709604382515,0.19145125150680542,1.0623860359191895,0.6450805068016052,-13.601853370666504,8.606141090393066,1.0229488611221313,1.055947184562683,0.18299084901809692,0.2405848354101181,0.32213327288627625,-4.3759541511535645
307,48286,48287,0.05437067896127701,0.2847747802734375,1.0065829753875732,2.2975804805755615,-10.235201835632324,6.629937648773193,1.0109494924545288,1.0619468688964844,0.16499175131320953,-0.08946558833122253,0.75227290391922,-4.328886032104492
308,48296,48297,-0.056929487735033035,0.22822628915309906,0.9817237854003906,4.209914207458496,-8.372210502624512,5.710855007171631,1.0259486436843872,1.070946455001831,0.17699114978313446,-0.07227731496095657,0.7677472829818726,-4.267978668212891
309,48306,48307,-0.0923333391547203,-0.08046400547027588,0.877511203289032,4.899562358856201,-5.268309116363525,4.485276222229004,1.0364481210708618,1.0634467601776123,0.17549122869968414,0.10770679265260696,0.8803926706314087,-4.200418472290039
310,48316,48317,0.05794882774353027,-0.2364756017923355,0.8514167666435242,0.9016656279563904,-1.6373291015625,5.7944254875183105,1.0229488611221313,1.070946455001831,0.17399129271507263,0.1634257584810257,0.8980268239974976,-4.151396751403809
311,48326,48327,0.2121492624282837,0.06062113121151924,1.1482058763504028,-9.678214073181152,-1.9952869415283203,3.8792707920074463,1.0229488611221313,1.073946237564087,0.18299084901809692,0.26744234561920166,0.8203730583190918,-4.095539093017578
312,48336,48337,0.16770151257514954,-0.006902080029249191,0.9994744658470154,-17.20619773864746,-7.315407752990723,3.3720219135284424,1.0229488611221313,1.073946237564087,0.18599069118499756,0.3365494906902313,0.741753339767456,-4.056221961975098
313,48346,48347,-0.0069732372649014,-0.18983198702335358,0.8394994735717773,-25.826208114624023,-17.127132415771484,2.4271657466888428,1.019948959350586,1.073946237564087,0.18599069118499756,0.19692367315292358,0.5046638250350952,-4.044987678527832
314,48356,48357,-0.06349316239356995,-0.18427346646785736,1.0337002277374268,-31.426082611083984,-23.452592849731445,1.134559988975525,1.0124493837356567,1.0784460306167603,0.1904904693365097,0.5296624302864075,0.14153993129730225,-4.008077621459961
315,48366,48367,-0.004021387081593275,-0.21945980191230774,1.0746146440505981,-29.520273208618164,-19.277677536010742,-0.9443809986114502,1.0364481210708618,1.0754462480545044,0.18749062716960907,0.7630046010017395,-0.11492634564638138,-3.9986016750335693
316,48376,48377,0.08422652631998062,-0.1841130554676056,0.9858653545379639,-21.24015235900879,-21.1944580078125,-1.8988078832626343,1.0244487524032593,1.0904453992843628,0.1814909279346466,0.921564519405365,-0.443781316280365,-4.0119853019714355
317,48386,48387,-0.01097488310188055,0.01013206597417593,0.9953580498695374,-11.756141662597656,-22.387292861938477,-2.7265303134918213,1.0229488611221313,1.1009448766708374,0.18599069118499756,1.2357804775238037,-0.6980703473091125,-4.029664516448975
318,48396,48397,-0.1178053468465805,-0.021275533363223076,1.0019047260284424,-3.3547143936157227,-18.44483184814453,-4.145074367523193,1.0244487524032593,1.0844457149505615,0.19349032640457153,1.381469488143921,-0.7338374257087708,-4.063724517822266
319,48406,48407,-0.014420570805668831,-0.15766844153404236,0.9494214057922363,7.038051605224609,-12.6784029006958,-3.9751851558685303,1.0274486541748047,1.0784460306167603,0.17849107086658478,1.3884868621826172,-0.6831424832344055,-4.106373310089111
320,48416,48417,0.06103133782744408,-0.06611631065607071,0.9682698845863342,13.025753021240234,0.7413526177406311,-4.7807183265686035,1.033448338508606,1.0814459323883057,0.16949152946472168,1.4819697141647339,-0.4947648346424103,-4.156707763671875
321,48426,48427,0.007881947793066502,-0.08573411405086517,0.9577606916427612,19.128368377685547,5.580489635467529,-6.133519649505615,1.0349482297897339,1.0829458236694336,0.17399129271507263,1.4788825511932373,-0.3531547486782074,-4.209226608276367
322,48436,48437,-0.012774099595844746,-0.1594472974538803,1.0424245595932007,20.68013572692871,10.474907875061035,-6.368966102600098,1.0214488506317139,1.0994449853897095,0.18449077010154724,1.512041449546814,-0.27475324273109436,-4.263896465301514
323,48446,48447,-0.03764835000038147,-0.04124518483877182,1.0666985511779785,15.14238452911377,16.263463973999023,-8.229287147521973,1.0379481315612793,1.0949451923370361,0.17399129271507263,1.3889516592025757,-0.006092714611440897,-4.343329906463623
324,48456,48457,-0.0158061720430851,-0.1334977000951767,0.9779490232467651,11.598480224609375,15.69520378112793,-7.90319299697876,1.033448338508606,1.0754462480545044,0.18749062716960907,1.2287862300872803,0.04050380736589432,-4.410693645477295
325,48466,48467,0.02530650421977043,-0.14541585743427277,0.8895562887191772,6.806188583374023,14.40092945098877,-5.21377420425415,1.0274486541748047,1.0844457149505615,0.17549122869968414,1.212632656097412,-0.03720882534980774,-4.463634014129639
326,48476,48477,-0.07645349949598312,0.07047320157289505,1.064560890197754,0.5719152092933655,11.638226509094238,-6.353471755981445,1.0244487524032593,1.0904453992843628,0.16649167239665985,1.0880329608917236,0.028704829514026642,-4.5197343826293945
327,48486,48487,0.04963405802845955,-0.017576782032847404,1.0488473176956177,-3.001143455505371,1.551620364189148,-4.588240146636963,1.0229488611221313,1.0769461393356323,0.17399129271507263,0.9805594086647034,0.14061830937862396,-4.594638824462891
328,48496,48497,-0.0790620669722557,0.050824832171201706,1.169710636138916,-5.432080268859863,-8.05981159210205,-4.397388935089111,1.01694917678833,1.0769461393356323,0.1889905482530594,1.1029497385025024,0.05812564119696617,-4.639974117279053
329,48506,48507,-0.04777790233492851,-0.10022670775651932,0.9104077816009521,-3.792055130004883,-13.791723251342773,-3.603867530822754,1.018449068069458,1.0904453992843628,0.18449077010154724,1.143701434135437,-0.17455248534679413,-4.6500749588012695
330,48516,48517,-0.00047909325803630054,-0.0546395480632782,0.9489948153495789,0.7979231476783752,-11.25801944732666,-5.168157577514648,1.0274486541748047,1.0844457149505615,0.18449077010154724,1.23002290725708,-0.07787641137838364,-4.704861164093018
331,48526,48527,-0.027427058666944504,-0.02255936712026596,0.9748176336288452,12.132516860961914,-2.5258498191833496,-4.615077972412109,1.0229488611221313,1.073946237564087,0.17399129271507263,1.309285044670105,0.12222801893949509,-4.78339147567749
332,48536,48537,-0.10571972280740738,0.058319199830293655,1.1180860996246338,24.54500961303711,8.162592887878418,-5.611509323120117,1.0214488506317139,1.0844457149505615,0.1814909279346466,1.3138912916183472,0.3560807704925537,-4.847327709197998
333,48546,48547,-0.0748758316040039,0.02500169724225998,0.9470341801643372,35.547218322753906,15.845205307006836,-3.9663760662078857,1.0289485454559326,1.070946455001831,0.18599069118499756,1.234025001525879,0.4304327368736267,-4.863929748535156
334,48556,48557,-0.10269127786159515,0.09461097419261932,1.1072838306427002,37.95551681518555,15.458710670471191,-3.413529634475708,1.0229488611221313,1.0829458236694336,0.1799909919500351,1.1535388231277466,0.7921664118766785,-4.905368328094482
335,48566,48567,-0.016386911273002625,0.017668014392256737,0.9618233442306519,34.0579719543457,14.797370910644531,-2.1556761264801025,1.0229488611221313,1.073946237564087,0.17399129271507263,0.9059479236602783,1.1525788307189941,-4.929542064666748
336,48576,48577,-0.11005799472332001,-0.019012484699487686,1.0317734479904175,21.11221694946289,14.361567497253418,-1.8008414506912231,1.01694917678833,1.0769461393356323,0.17699114978313446,0.6751742959022522,1.601631999015808,-4.966852188110352
337,48586,48587,-0.041652776300907135,-0.059021852910518646,0.9510838389396667,6.812954902648926,7.9131011962890625,-0.5695666670799255,1.0319483280181885,1.070946455001831,0.1799909919500351,0.5597695708274841,1.7451162338256836,-4.9750471115112305
338,48596,48597,0.04969248175621033,-0.1430169939994812,0.9295309782028198,-6.99665641784668,2.7342820167541504,-0.46102848649024963,1.01694917678833,1.0589470863342285,0.170991450548172,0.6126545667648315,1.5321547985076904,-4.940773010253906
339,48606,48607,0.18834614753723145,-0.08837678283452988,0.9863399267196655,-14.6836576461792,-8.472919464111328,-1.5418832302093506,1.0274486541748047,1.072446346282959,0.199490025639534,0.6399300694465637,1.4280294179916382,-4.945437431335449
340,48616,48617,0.12076068669557571,-0.046616215258836746,0.9397452473640442,-14.39426326751709,-8.315652847290039,-1.8150452375411987,1.0259486436843872,1.0799460411071777,0.17699114978313446,0.7520229816436768,1.376501441001892,-4.97954797744751
341,48626,48627,0.029617179185152054,0.048288606107234955,1.0350323915481567,-9.92020034790039,-6.901733875274658,-2.362457752227783,1.0259486436843872,1.073946237564087,0.17699114978313446,0.7927646040916443,1.151669979095459,-4.990251541137695
342,48636,48637,0.02847028523683548,0.01544270385056734,1.124983310699463,-3.016629457473755,4.57132625579834,-4.2460150718688965,1.0139492750167847,1.0799460411071777,0.17699114978313446,0.8254019021987915,1.0939875841140747,-5.018129825592041
343,48646,48647,-0.0553223192691803,0.025214526802301407,1.1592477560043335,6.048038959503174,6.751008033752441,-4.4398088455200195,1.0244487524032593,1.0814459323883057,0.16349181532859802,0.7209411263465881,1.0681829452514648,-5.061235427856445
344,48656,48657,-0.09564311802387238,-0.1825019121170044,0.9257303476333618,9.694928169250488,13.209031105041504,-4.376191139221191,1.0439478158950806,1.073946237564087,0.1799909919500351,0.6860970258712769,1.1485705375671387,-5.0986480712890625
345,48666,48667,-0.1317877471446991,-0.07778056710958481,0.979167103767395,11.704791069030762,11.663148880004883,-6.339486122131348,1.0349482297897339,1.0799460411071777,0.1889905482530594,0.4445234537124634,1.284314751625061,-5.156227111816406
346,48676,48677,-0.10419492423534393,0.031061630696058273,1.1015405654907227,6.0479817390441895,16.20486068725586,-6.710444450378418,1.019948959350586,1.0799460411071777,0.1889905482530594,0.25935664772987366,1.3981499671936035,-5.223052024841309
347,48686,48687,-0.09013991057872772,0.06327607482671738,1.0348694324493408,-2.407606363296509,12.249615669250488,-8.464255332946777,1.0229488611221313,1.073946237564087,0.18599069118499756,-0.06517669558525085,2.1120076179504395,-5.373129367828369
348,48696,48697,0.03676951304078102,0.08972486853599548,1.0187119245529175,-17.695911407470703,14.018128395080566,-8.148846626281738,1.0154491662979126,1.0784460306167603,0.1814909279346466,-0.2753598392009735,2.106027126312256,-5.46735143661499
349,48706,48707,0.0823822021484375,0.09342897683382034,0.9602193236351013,-30.869129180908203,9.693391799926758,-11.288469314575195,1.004949688911438,1.0769461393356323,0.19199039041996002,-0.3196994364261627,1.8050607442855835,-5.533412456512451
350,48716,48717,0.10153824090957642,0.12986789643764496,0.9977750778198242,-47.420318603515625,10.671422958374023,-11.471555709838867,1.0214488506317139,1.0784460306167603,0.18749062716960907,-0.3374675214290619,1.1318751573562622,-5.6146368980407715
351,48726,48727,0.07291851192712784,0.032347671687603,0.9929249286651611,-53.36470413208008,6.099464416503906,-12.646561622619629,1.018449068069458,1.0994449853897095,0.18749062716960907,-0.39918628334999084,0.8322271704673767,-5.73136568069458
352,48736,48737,0.0339517816901207,0.1152404323220253,1.0518548488616943,-54.67591857910156,2.4499073028564453,-13.983207702636719,1.019948959350586,1.1009448766708374,0.17699114978313446,-0.40597349405288696,0.16322170197963715,-5.849349498748779
353,48746,48747,-0.020684953778982162,0.24853888154029846,1.0340838432312012,-44.94933319091797,-1.8313300609588623,-13.8923921585083,1.0064496994018555,1.0994449853897095,0.17549122869968414,-0.42348915338516235,-0.1591104418039322,-5.986719608306885
354,48756,48757,-0.0942908227443695,0.15347103774547577,0.9686639308929443,-29.958044052124023,-8.149316787719727,-15.339694023132324,1.0154491662979126,1.087445616722107,0.18449077010154724,-0.3607158660888672,-0.7266321182250977,-6.128236293792725
355,48766,48767,-0.03031955286860466,0.05449148267507553,1.0270171165466309,-13.242260932922363,-3.5097248554229736,-15.29626178741455,1.0109494924545288,1.0769461393356323,0.1799909919500351,-0.30455344915390015,-0.8830820918083191,-6.275207996368408
356,48776,48777,0.13481156527996063,0.08065551519393921,0.9474483132362366,0.4342516362667084,-2.2521615028381348,-16.041046142578125,1.0259486436843872,1.0949451923370361,0.18599069118499756,-0.20061539113521576,-1.0748616456985474,-6.426965236663818
357,48786,48787,-0.032438792288303375,0.09172231703996658,1.0609179735183716,7.967845916748047,2.330549955368042,-16.09612274169922,1.0094494819641113,1.087445616722107,0.17849107086658478,-0.22277775406837463,-1.0149766206741333,-6.581160068511963
358,48796,48797,-0.09388111531734467,-0.025159966200590134,0.923221230506897,11.130859375,6.513820648193359,-15.215605735778809,1.019948959350586,1.0889455080032349,0.17399129271507263,-0.2578777074813843,-0.9418241381645203,-6.7368621826171875
359,48806,48807,-0.1766328513622284,-0.18357069790363312,0.9616537094116211,3.524322509765625,10.572942733764648,-16.049400329589844,1.004949688911438,1.1039447784423828,0.18299084901809692,-0.3587767779827118,-0.8270813226699829,-6.887389659881592
360,48816,48817,-0.11619487404823303,-0.28166013956069946,0.8878976106643677,-2.8704400062561035,17.05205726623535,-13.731603622436523,1.0124493837356567,1.0964452028274536,0.17849107086658478,-0.5485699772834778,-0.8250564336776733,-7.042870044708252
361,48826,48827,-0.0501084178686142,-0.2535613477230072,1.0070663690567017,-15.512415885925293,22.94122886657715,-10.750831604003906,1.0154491662979126,1.1054446697235107,0.17549122869968414,-0.6784645915031433,-0.902534008026123,-7.179226875305176
362,48836,48837,0.05520167946815491,-0.08392699807882309,0.9515988230705261,-22.98624038696289,20.09068489074707,-3.6340126991271973,1.0094494819641113,1.1054446697235107,0.1814909279346466,-0.9797026515007019,-1.1483463048934937,-7.275899410247803
363,48846,48847,-0.08530212193727493,0.07644010335206985,1.0402108430862427,-26.791532516479492,10.485532760620117,0.5069863796234131,1.0124493837356567,1.1024448871612549,0.1814909279346466,-1.1944459676742554,-1.2113925218582153,-7.282284259796143
364,48856,48857,-0.023939121514558792,0.042604710906744,1.0750974416732788,-24.1207332611084,5.522282123565674,4.849544525146484,1.01694917678833,1.0979450941085815,0.16799159348011017,-1.2133370637893677,-1.5624995231628418,-7.288486003875732
365,48866,48867,0.05498005077242851,0.09810720384120941,0.9845100045204163,-17.775482177734375,-10.397921562194824,6.390930652618408,1.019948959350586,1.1069446802139282,0.1889905482530594,-1.2098811864852905,-1.832584023475647,-7.246400833129883
366,48876,48877,0.007846028544008732,0.12764383852481842,1.0395405292510986,-8.124939918518066,-20.484785079956055,8.679227828979492,1.0124493837356567,1.1024448871612549,0.17849107086658478,-1.0011094808578491,-2.1833715438842773,-7.214844703674316
367,48886,48887,-0.01570288836956024,0.038015469908714294,1.0828851461410522,1.0673747062683105,-21.797409057617188,10.920510292053223,1.0154491662979126,1.0964452028274536,0.1814909279346466,-0.8208655118942261,-2.0929853916168213,-7.08146333694458
368,48896,48897,-0.009753724560141563,-0.09273422509431839,0.8912614583969116,10.887687683105469,-22.563968658447266,10.535611152648926,1.0109494924545288,1.0889455080032349,0.17699114978313446,-0.7770794630050659,-1.7791416645050049,-6.8738932609558105
369,48906,48907,-0.008674945682287216,-0.12685874104499817,0.9534445405006409,15.23194694519043,-10.597794532775879,10.020631790161133,1.0229488611221313,1.0919454097747803,0.18299084901809692,-0.42291104793548584,-1.8510768413543701,-6.8293070793151855
370,48916,48917,0.1299356371164322,-0.05893150717020035,0.9626366496086121,12.971478462219238,-0.8956001996994019,10.599666595458984,1.0139492750167847,1.1009448766708374,0.17699114978313446,-0.24725405871868134,-1.672154188156128,-6.7369184494018555
371,48926,48927,0.03452722728252411,-0.05455774441361427,0.927090048789978,7.0019941329956055,4.830783367156982,9.378836631774902,1.0274486541748047,1.0934453010559082,0.17849107086658478,-0.35127729177474976,-1.5524239540100098,-6.599501132965088
372,48936,48937,-0.012467233464121819,-0.04797467961907387,0.9399096369743347,1.3071613311767578,8.795857429504395,8.749113082885742,1.018449068069458,1.0994449853897095,0.17849107086658478,-0.6053951382637024,-1.4520649909973145,-6.4380950927734375
373,48946,48947,0.01171399187296629,-0.036087147891521454,0.9287152290344238,-4.301868915557861,5.744100570678711,7.088747024536133,1.01694917678833,1.1039447784423828,0.1799909919500351,-0.7318989634513855,-1.4442963600158691,-6.338892459869385
374,48956,48957,0.008290515281260014,-0.04365696758031845,0.9762492775917053,-7.272367477416992,-2.151460647583008,6.217731952667236,1.0094494819641113,1.111444354057312,0.16349181532859802,-0.7863101959228516,-1.507506012916565,-6.270379543304443
375,48966,48967,-0.0636044293642044,-0.010482577607035637,0.9708186984062195,-6.072835445404053,-13.384269714355469,6.012392520904541,1.0259486436843872,1.1159441471099854,0.1799909919500351,-0.7781233191490173,-1.6667463779449463,-6.216854095458984
376,48976,48977,0.0067258006893098354,0.041773684322834015,1.003790259361267,-2.7486464977264404,-21.34483528137207,5.047662734985352,1.0004500150680542,1.111444354057312,0.17849107086658478,-0.5170935392379761,-1.7886779308319092,-6.204556941986084
377,48986,48987,-0.05015914514660835,0.03171111270785332,1.087142825126648,2.0016467571258545,-28.67560577392578,4.12817907333374,1.019948959350586,1.1069446802139282,0.1889905482530594,-0.2830753028392792,-1.9173712730407715,-6.171745777130127
378,48996,48997,0.009316465817391872,-0.033840715885162354,0.9186176061630249,5.075290679931641,-30.0914363861084,3.5394442081451416,1.0109494924545288,1.1039447784423828,0.18599069118499756,0.10750478506088257,-1.8900740146636963,-6.151711463928223
379,49006,49007,0.026426412165164948,0.0011399731738492846,0.9642007946968079,5.687076568603516,-31.72328758239746,2.797980308532715,1.0214488506317139,1.111444354057312,0.17849107086658478,0.29301467537879944,-1.962700605392456,-6.0945892333984375
380,49016,49017,0.00640326039865613,-0.01524366531521082,1.006678819656372,3.3104166984558105,-27.711685180664062,1.6185214519500732,1.0229488611221313,1.1009448766708374,0.1799909919500351,0.8227741718292236,-1.8932040929794312,-6.131585121154785
381,49026,49027,-0.002650125417858362,0.019820593297481537,1.068555235862732,1.5150073766708374,-21.301416397094727,2.0933446884155273,1.0409479141235352,1.1009448766708374,0.17399129271507263,0.8415963649749756,-1.8626940250396729,-6.017333030700684
382,49036,49037,0.026619235053658485,-0.009146003983914852,1.1051478385925293,-0.1869834065437317,-13.668292045593262,1.5297287702560425,1.033448338508606,1.1054446697235107,0.1814909279346466,1.20137357711792,-1.9985382556915283,-6.060521125793457
383,49046,49047,0.04135224595665932,0.10756849497556686,1.0377719402313232,2.2842376232147217,-4.331943035125732,4.091919898986816,1.0379481315612793,1.0979450941085815,0.19199039041996002,1.2631410360336304,-1.976051926612854,-6.012237071990967
384,49056,49057,-0.04166300967335701,0.1356838345527649,1.1071467399597168,6.8799333572387695,6.18121862411499,3.5742874145507812,1.01694917678833,1.1039447784423828,0.18599069118499756,1.255232572555542,-1.8977457284927368,-5.955165386199951
385,49066,49067,-0.08296100050210953,0.026071207597851753,1.061437964439392,13.71475887298584,13.125608444213867,5.86837911605835,1.0379481315612793,1.1129443645477295,0.1799909919500351,1.247664451599121,-1.9492741823196411,-5.9393839836120605
386,49076,49077,0.006186801008880138,-0.0431380569934845,0.9627236127853394,20.318483352661133,10.819341659545898,6.567378997802734,1.0289485454559326,1.0919454097747803,0.19199039041996002,0.9693330526351929,-1.7403298616409302,-5.823334217071533
387,49086,49087,-0.04473268240690231,-0.05078989639878273,1.0587122440338135,31.323366165161133,2.7636911869049072,7.579820156097412,1.0349482297897339,1.0889455080032349,0.17699114978313446,0.8705888986587524,-1.6122699975967407,-5.760922908782959
388,49096,49097,0.0258468147367239,-0.03554828464984894,1.0213364362716675,37.684051513671875,-4.211440563201904,6.417211055755615,1.0244487524032593,1.0934453010559082,0.1814909279346466,0.884809672832489,-1.2440290451049805,-5.707984447479248
389,49106,49107,0.022662660107016563,-0.0253645870834589,1.0547584295272827,37.15335464477539,-8.804147720336914,4.188966751098633,1.0469475984573364,1.0949451923370361,0.18299084901809692,1.0805304050445557,-1.0242305994033813,-5.702171325683594
390,49116,49117,0.08824023604393005,-0.06531523913145065,0.9526405334472656,32.89099884033203,-12.796170234680176,2.8958005905151367,1.0409479141235352,1.0889455080032349,0.20098994672298431,1.3534427881240845,-0.5459936857223511,-5.732757568359375
391,49126,49127,0.07178603857755661,-0.058529842644929886,0.9899389147758484,24.633047103881836,-19.562971115112305,1.2877976894378662,1.0349482297897339,1.0829458236694336,0.19199039041996002,1.2830337285995483,-0.3121970295906067,-5.628766059875488
392,49136,49137,0.001284502912312746,-0.1400699019432068,0.9004780650138855,19.048492431640625,-22.419912338256836,1.4809385538101196,1.0379481315612793,1.085945725440979,0.1889905482530594,1.576984167098999,0.09287096560001373,-5.657506942749023
393,49146,49147,0.011834999546408653,-0.21823111176490784,0.8628373742103577,12.889899253845215,-22.78243064880371,0.9794062972068787,1.0379481315612793,1.0889455080032349,0.17399129271507263,1.6684777736663818,0.1670432686805725,-5.594042778015137
394,49156,49157,-0.0607871487736702,-0.09685837477445602,0.9350395202636719,9.25879192352295,-23.3243465423584,2.8378186225891113,1.0349482297897339,1.0829458236694336,0.170991450548172,2.024463653564453,0.1627013087272644,-5.6037163734436035
395,49166,49167,-0.07892608642578125,0.03258606418967247,1.0363199710845947,5.727133274078369,-15.45594596862793,3.3609201908111572,1.033448338508606,1.0814459323883057,0.1814909279346466,2.2633862495422363,0.26073724031448364,-5.5867228507995605
396,49176,49177,-0.09203747659921646,0.1297227442264557,1.09110426902771,5.529198169708252,-10.156712532043457,2.312847852706909,1.0319483280181885,1.0829458236694336,0.17699114978313446,2.457151174545288,0.39396318793296814,-5.5810747146606445
397,49186,49187,-0.13433757424354553,0.16795678436756134,1.0421576499938965,4.774620532989502,6.008322238922119,1.5248838663101196,1.0349482297897339,1.085945725440979,0.18299084901809692,2.525872230529785,0.3051323890686035,-5.527143955230713
398,49196,49197,-0.18076935410499573,0.026228729635477066,0.9748332500457764,7.638626575469971,12.232674598693848,-0.6066521406173706,1.0454477071762085,1.087445616722107,0.17549122869968414,2.321218490600586,0.4424532353878021,-5.507621765136719
399,49206,49207,-0.21101915836334229,0.13127021491527557,1.0569647550582886,4.3799638748168945,24.201208114624023,1.682898759841919,1.0364481210708618,1.0754462480545044,0.16949152946472168,2.1098108291625977,0.5830821990966797,-5.515145778656006
400,49216,49217,-0.11719217896461487,0.20253726840019226,1.1301368474960327,-4.433162689208984,35.60411834716797,1.2428621053695679,1.0409479141235352,1.085945725440979,0.18299084901809692,1.6460859775543213,0.7039211392402649,-5.498946666717529
401,49226,49227,-0.12011130899190903,0.24812206625938416,1.1404709815979004,-11.297460556030273,39.391334533691406,3.3182621002197266,1.0349482297897339,1.0919454097747803,0.17399129271507263,1.4072558879852295,0.6165608167648315,-5.479305267333984
402,49236,49237,-0.07251055538654327,0.08951344341039658,1.0219998359680176,-15.321054458618164,33.93612289428711,6.180586338043213,1.0319483280181885,1.0889455080032349,0.19499024748802185,1.0840591192245483,0.43230104446411133,-5.426424026489258
403,49246,49247,0.041993580758571625,-0.14378106594085693,0.959262490272522,-12.503267288208008,24.36060333251953,9.428581237792969,1.0289485454559326,1.0829458236694336,0.19799008965492249,0.6737257838249207,0.4352157711982727,-5.393887042999268
404,49256,49257,-0.05723581463098526,-0.1867390125989914,0.9720670580863953,-2.6311349868774414,5.319533348083496,11.534518241882324,1.0289485454559326,1.0829458236694336,0.17699114978313446,0.49180853366851807,0.30162689089775085,-5.293342590332031
405,49266,49267,0.02687426470220089,-0.17068958282470703,0.9214871525764465,2.6019225120544434,-15.657275199890137,13.24032974243164,1.0274486541748047,1.0904453992843628,0.17849107086658478,0.5572599172592163,0.31500402092933655,-5.184693336486816
406,49276,49277,-0.01657969504594803,-0.013608620502054691,1.0294400453567505,2.452596426010132,-27.432680130004883,13.900105476379395,1.0229488611221313,1.070946455001831,0.17399129271507263,0.8886083364486694,0.37126627564430237,-5.061500072479248
407,49286,49287,-0.02082071453332901,0.12863729894161224,1.1642613410949707,-4.837184429168701,-32.20510482788086,13.020050048828125,1.0214488506317139,1.0814459323883057,0.17849107086658478,1.0843383073806763,0.3029131293296814,-4.910859107971191
408,49296,49297,0.00883015152066946,0.09609947353601456,1.1609435081481934,-16.212575912475586,-19.54170799255371,12.601526260375977,1.0229488611221313,1.0919454097747803,0.1799909919500351,1.4908934831619263,0.1671358346939087,-4.766890525817871
409,49306,49307,-0.012142335996031761,0.03288733959197998,1.0433626174926758,-19.201509475708008,-9.471510887145996,13.825382232666016,1.0379481315612793,1.0799460411071777,0.1889905482530594,1.5490825176239014,0.17794878780841827,-4.677413463592529
410,49316,49317,-0.04804571717977524,-0.005689446814358234,1.05526602268219,-12.728934288024902,9.627717971801758,14.186159133911133,1.033448338508606,1.0844457149505615,0.1814909279346466,1.5964053869247437,-0.024591758847236633,-4.53683614730835
411,49326,49327,0.021750450134277344,0.032598234713077545,1.049193024635315,-3.868079423904419,29.883441925048828,15.393684387207031,1.0319483280181885,1.070946455001831,0.170991450548172,1.484542727470398,-0.1707986444234848,-4.388370990753174
412,49336,49337,-0.0340745747089386,0.02628537267446518,0.9404118657112122,8.877947807312012,31.96860122680664,17.265323638916016,1.0319483280181885,1.0799460411071777,0.17399129271507263,1.075221061706543,-0.21751859784126282,-4.231362342834473
413,49346,49347,-0.06497465819120407,-0.03573724627494812,0.9727131724357605,19.963560104370117,31.97624969482422,18.3862247467041,1.0364481210708618,1.072446346282959,0.17249137163162231,1.0430983304977417,0.013617179356515408,-4.0765228271484375
414,49356,49357,0.016343295574188232,0.0445929691195488,1.1294084787368774,24.54259490966797,32.89360809326172,18.372310638427734,1.0304484367370605,1.0664466619491577,0.17249137163162231,0.660527765750885,0.37742266058921814,-3.927112579345703
415,49366,49367,0.23366650938987732,-0.11861058324575424,0.7854578495025635,24.407407760620117,29.187353134155273,15.984143257141113,1.0304484367370605,1.0784460306167603,0.17849107086658478,0.4636673033237457,0.7117242813110352,-3.7562575340270996
416,49376,49377,0.06476597487926483,-0.01827457919716835,1.055673360824585,15.832609176635742,19.28891944885254,12.657180786132812,1.0379481315612793,1.073946237564087,0.17699114978313446,0.05981355905532837,0.7687803506851196,-3.571861982345581
417,49386,49387,0.06653855741024017,-0.3675263524055481,0.8387839198112488,0.45926809310913086,8.299718856811523,10.821322441101074,1.0379481315612793,1.0679465532302856,0.17699114978313446,-0.06238427758216858,0.7827344536781311,-3.4211628437042236
418,49396,49397,-0.08115510642528534,-0.11708621680736542,1.1104153394699097,-17.72732925415039,1.6581059694290161,10.057012557983398,1.0304484367370605,1.0604469776153564,0.17549122869968414,-0.20834413170814514,0.7492493987083435,-3.3129305839538574
419,49406,49407,0.027635153383016586,0.034071072936058044,1.0625673532485962,-32.211769104003906,-3.920588731765747,7.366652011871338,1.0229488611221313,1.0679465532302856,0.19199039041996002,-0.2454560399055481,0.7164598703384399,-3.2356038093566895
420,49416,49417,-0.1741458773612976,0.27044448256492615,1.011125922203064,-34.9127311706543,-7.568577766418457,5.960336685180664,1.0109494924545288,1.0829458236694336,0.18299084901809692,-0.11267498135566711,0.17358700931072235,-3.1337594985961914
421,49426,49427,-0.1312926858663559,0.15042419731616974,1.0103920698165894,-29.741146087646484,-7.771881580352783,3.3533501625061035,1.033448338508606,1.072446346282959,0.16949152946472168,-0.00824776478111744,0.005626621190458536,-3.088029623031616
422,49436,49437,-0.09218891710042953,-0.04727863147854805,1.0489568710327148,-21.14580535888672,-6.077708721160889,2.3760886192321777,1.0274486541748047,1.0814459323883057,0.17549122869968414,0.019931387156248093,-0.28381797671318054,-3.0614514350891113
423,49446,49447,0.03384251520037651,-0.051575977355241776,1.0726537704467773,-11.437782287597656,-1.2897406816482544,0.6745617389678955,1.042447805404663,1.0784460306167603,0.17849107086658478,0.07438716292381287,-0.41249483823776245,-3.042792558670044
424,49456,49457,0.08008940517902374,-0.03657832741737366,0.9254290461540222,-5.859736442565918,6.9569621086120605,0.22638680040836334,1.0214488506317139,1.0664466619491577,0.17249137163162231,0.2430262565612793,-0.4263152480125427,-3.0258705615997314
425,49466,49467,0.061025675386190414,0.045794013887643814,0.9147743582725525,1.6466165781021118,10.77683162689209,-0.09247464686632156,1.0349482297897339,1.073946237564087,0.1889905482530594,0.138518825173378,-0.48168662190437317,-3.027831792831421
426,49476,49477,-0.05757579952478409,-0.012712692841887474,0.9238530397415161,7.601278305053711,10.647780418395996,0.49873700737953186,1.0304484367370605,1.072446346282959,0.16949152946472168,-0.06700055301189423,-0.42373794317245483,-3.035410165786743
427,49486,49487,0.02556026726961136,-0.1405477523803711,0.8916096091270447,9.466238021850586,13.977571487426758,0.34560757875442505,1.0094494819641113,1.0634467601776123,0.17549122869968414,-0.2801661193370819,-0.36434268951416016,-3.0353927612304688
428,49496,49497,0.07007992267608643,0.01131175272166729,1.0663485527038574,7.662490367889404,11.764564514160156,-0.5211189389228821,1.019948959350586,1.0949451923370361,0.17699114978313446,-0.45105740427970886,-0.23638533055782318,-3.0345265865325928
429,49506,49507,0.033378083258867264,-0.0007229441544041038,0.9913612008094788,2.4644265174865723,9.123941421508789,-2.483060121536255,1.0094494819641113,1.0844457149505615,0.1904904693365097,-0.5653429627418518,-0.15727153420448303,-3.0423378944396973
430,49516,49517,0.09218928217887878,-0.12515249848365784,0.8619927167892456,-2.08772611618042,-0.15936297178268433,-3.2325258255004883,1.0109494924545288,1.0829458236694336,0.170991450548172,-0.7318454384803772,-0.16391223669052124,-3.071786642074585
431,49526,49527,-0.04983053356409073,-0.2140016406774521,0.9668609499931335,-9.472196578979492,-8.677661895751953,-6.810535430908203,1.0154491662979126,1.0754462480545044,0.17249137163162231,-0.6054556369781494,-0.1895110011100769,-3.105175733566284
432,49536,49537,-0.012635129503905773,-0.20993512868881226,0.8882308602333069,-19.32615852355957,-15.922589302062988,-10.337231636047363,1.0109494924545288,1.0949451923370361,0.17399129271507263,-0.4300343990325928,-0.349687397480011,-3.174710273742676
433,49546,49547,-0.020666077733039856,-0.02154257707297802,0.9735264182090759,-24.30360984802246,-19.437978744506836,-12.204082489013672,1.0094494819641113,1.0754462480545044,0.18749062716960907,-0.3001125752925873,-0.41847288608551025,-3.2648117542266846
434,49556,49557,-0.07657796889543533,-0.008768931031227112,0.9787213206291199,-25.148029327392578,-17.740787506103516,-12.552627563476562,1.0109494924545288,1.0829458236694336,0.18599069118499756,0.0011977331014350057,-0.8317093849182129,-3.397693157196045
435,49566,49567,-0.01388357114046812,0.04490229859948158,1.0622254610061646,-21.992982864379883,-13.807419776916504,-12.579197883605957,1.0409479141235352,1.0889455080032349,0.170991450548172,0.10855899751186371,-0.9507222771644592,-3.51037859916687
436,49576,49577,-0.01236023847013712,0.025219954550266266,1.060733437538147,-15.894750595092773,-7.255466461181641,-10.990445137023926,1.0109494924545288,1.0949451923370361,0.18599069118499756,0.21464122831821442,-1.2883261442184448,-3.6449806690216064
437,49586,49587,-0.016226716339588165,-0.02965478040277958,0.9818547964096069,-4.716941833496094,2.2637698650360107,-8.722402572631836,1.0259486436843872,1.0919454097747803,0.17699114978313446,0.27263927459716797,-1.3487211465835571,-3.7432048320770264
438,49596,49597,-0.013430296443402767,-0.062326036393642426,0.9379062652587891,9.208832740783691,10.388524055480957,-6.989663600921631,1.0349482297897339,1.1009448766708374,0.1799909919500351,0.314564973115921,-1.3653721809387207,-3.828409194946289
439,49606,49607,-0.07996736466884613,0.028586072847247124,1.0806827545166016,20.967880249023438,17.648590087890625,-7.8102006912231445,1.0319483280181885,1.1039447784423828,0.17399129271507263,0.08191636949777603,-1.1544439792633057,-3.8845934867858887
440,49616,49617,-0.14595229923725128,0.019890425726771355,1.1145230531692505,24.437179565429688,23.1395263671875,-6.488894939422607,1.019948959350586,1.1009448766708374,0.17399129271507263,-0.24977274239063263,-0.8754634857177734,-3.949198007583618
441,49626,49627,-0.10306201875209808,0.0040126158855855465,1.0068669319152832,21.158891677856445,22.464826583862305,-5.236126899719238,1.0289485454559326,1.0829458236694336,0.17399129271507263,-0.3529745042324066,-0.6571037173271179,-4.0277509689331055
442,49636,49637,-0.06041998416185379,0.006591063924133778,0.9893929362297058,11.887510299682617,16.179460525512695,-5.02606725692749,1.019948959350586,1.0979450941085815,0.17699114978313446,-0.6800708770751953,-0.5220246911048889,-4.081298351287842
443,49646,49647,-0.07617123425006866,0.06161920726299286,1.1030569076538086,1.1125298738479614,1.2707538604736328,-1.8693894147872925,1.0109494924545288,1.085945725440979,0.18299084901809692,-0.5641782283782959,-0.5375353693962097,-4.165096282958984
444,49656,49657,-0.009928674437105656,-0.06663230806589127,0.9394568800926208,-5.76057243347168,-11.515674591064453,1.4759429693222046,1.0274486541748047,1.0844457149505615,0.18449077010154724,-0.5900843143463135,-0.4903072416782379,-4.17303466796875
445,49666,49667,-0.06428150087594986,-0.05456335097551346,0.9735491871833801,-11.409870147705078,-21.795583724975586,2.660170316696167,1.0139492750167847,1.0799460411071777,0.17699114978313446,-0.4220436215400696,-0.6288628578186035,-4.171632766723633
446,49676,49677,-0.006056131329387426,0.04218346253037453,1.0689258575439453,-13.751768112182617,-25.520265579223633,4.6682891845703125,1.0139492750167847,1.0769461393356323,0.17399129271507263,-0.07077652215957642,-0.688988983631134,-4.143395900726318
447,49686,49687,0.023020155727863312,-0.07902176678180695,0.9502449035644531,-13.291150093078613,-22.904069900512695,6.384061813354492,1.0139492750167847,1.0769461393356323,0.1889905482530594,-0.04685385525226593,-0.7724132537841797,-4.06619119644165
448,49696,49697,-0.029559578746557236,-0.06641246378421783,1.0184779167175293,-7.512538433074951,-16.077348709106445,7.109163284301758,1.018449068069458,1.0694465637207031,0.17549122869968414,0.26950883865356445,-0.9576662182807922,-4.016722202301025
449,49706,49707,-0.04355290159583092,0.03284352645277977,0.9909117817878723,-3.603708028793335,-9.379754066467285,8.548003196716309,1.0139492750167847,1.0829458236694336,0.17699114978313446,0.3345707356929779,-1.0563713312149048,-3.9370932579040527
450,49716,49717,0.012725635431706905,0.010708309710025787,0.9561935067176819,1.7399044036865234,1.5548900365829468,9.7838773727417,1.0349482297897339,1.085945725440979,0.18599069118499756,0.4815784692764282,-1.0696027278900146,-3.8556935787200928
451,49726,49727,0.09781718254089355,-0.06860610097646713,1.0092687606811523,5.425585746765137,10.667224884033203,12.268941879272461,1.0244487524032593,1.0694465637207031,0.17849107086658478,0.3856997489929199,-0.9463078379631042,-3.740525960922241
452,49736,49737,0.09403181821107864,-0.03586943820118904,0.9826836585998535,10.487154006958008,17.94900131225586,13.428753852844238,1.0319483280181885,1.073946237564087,0.1889905482530594,0.15483975410461426,-0.8325448632240295,-3.60038685798645
453,49746,49747,0.04419798031449318,0.00038071416202001274,0.9628570675849915,13.584327697753906,20.835994720458984,15.064573287963867,1.0364481210708618,1.0814459323883057,0.17849107086658478,0.13027389347553253,-0.7866448760032654,-3.4859979152679443
454,49756,49757,0.18456722795963287,-0.003062599105760455,1.0289360284805298,13.462596893310547,23.365245819091797,16.010189056396484,1.0214488506317139,1.072446346282959,0.16949152946472168,-0.10770155489444733,-0.7718519568443298,-3.345756769180298
455,49766,49767,0.029354093596339226,0.05764294043183327,1.0960732698440552,12.475619316101074,15.721935272216797,16.252090454101562,1.0379481315612793,1.073946237564087,0.18299084901809692,-0.472815603017807,-0.6901999711990356,-3.179250717163086
456,49776,49777,-0.016098931431770325,-0.13146184384822845,0.8217426538467407,9.09646987915039,6.896096229553223,17.560073852539062,1.0304484367370605,1.072446346282959,0.17249137163162231,-0.6990848779678345,-0.49441495537757874,-3.00083065032959
457,49786,49787,-0.08678482472896576,-0.07145839184522629,1.0132254362106323,3.641875982284546,-3.1372148990631104,18.10081672668457,1.0244487524032593,1.0664466619491577,0.17249137163162231,-0.6282756924629211,-0.5144025683403015,-2.849668502807617
458,49796,49797,-0.024316344410181046,-0.11067058145999908,1.0192526578903198,-2.6643121242523193,-8.992634773254395,19.694246292114258,1.0379481315612793,1.0679465532302856,0.17699114978313446,-0.49000921845436096,-0.47245946526527405,-2.6729955673217773
459,49806,49807,0.00522398017346859,0.09052706509828568,1.1110872030258179,-7.581729412078857,-10.067756652832031,19.242332458496094,1.0154491662979126,1.0634467601776123,0.16949152946472168,-0.48460233211517334,-0.46084970235824585,-2.4629273414611816
460,49816,49817,-0.0877121314406395,0.1853410005569458,1.1075273752212524,-8.83017635345459,-9.494056701660156,19.358116149902344,1.0214488506317139,1.0664466619491577,0.17249137163162231,-0.31311437487602234,-0.564951479434967,-2.2776296138763428
461,49826,49827,-0.021223612129688263,0.06575524061918259,0.8796361088752747,-6.420821189880371,-8.973077774047852,19.81035614013672,1.0244487524032593,1.0604469776153564,0.17249137163162231,-0.30556732416152954,-0.6034584641456604,-2.0679938793182373
462,49836,49837,-0.0799594596028328,-0.06571166217327118,0.7706167697906494,-2.4621007442474365,-3.8432998657226562,18.67902374267578,1.0214488506317139,1.0664466619491577,0.17249137163162231,-0.19331806898117065,-0.6643558144569397,-1.8747888803482056
463,49846,49847,0.03338683396577835,-0.11208076775074005,0.8767925500869751,1.806404948234558,1.243727684020996,17.918758392333984,1.0274486541748047,1.0754462480545044,0.17549122869968414,-0.18935899436473846,-0.6641958951950073,-1.6850316524505615
464,49856,49857,-0.0067072585225105286,-0.1661817878484726,0.9689019322395325,4.138728141784668,6.804434776306152,17.90062141418457,1.033448338508606,1.087445616722107,0.17849107086658478,-0.2749348282814026,-0.6095256209373474,-1.499569296836853
465,49866,49867,-0.08100435882806778,-0.030218634754419327,1.1563148498535156,6.456653118133545,14.028573989868164,18.237546920776367,1.0229488611221313,1.0679465532302856,0.17699114978313446,-0.14653955399990082,-0.6405483484268188,-1.3466169834136963
466,49876,49877,0.11894142627716064,-0.04672366753220558,1.1051703691482544,8.520790100097656,18.36840057373047,18.375743865966797,1.018449068069458,1.0694465637207031,0.17549122869968414,-0.33743301033973694,-0.5662996768951416,-1.162825584411621
467,49886,49887,0.21749064326286316,-0.13181361556053162,1.0422910451889038,13.127434730529785,16.562013626098633,19.386981964111328,1.01694917678833,1.0679465532302856,0.17399129271507263,-0.3573087155818939,-0.5879799127578735,-1.0080807209014893
468,49896,49897,0.21948666870594025,-0.10639478266239166,1.0085241794586182,15.242960929870605,13.958258628845215,18.0062313079834,1.0229488611221313,1.070946455001831,0.17399129271507263,-0.577082097530365,-0.39529886841773987,-0.8061920404434204
469,49906,49907,0.07481920719146729,0.000605082546826452,1.0730466842651367,14.040421485900879,12.319729804992676,17.255474090576172,1.0154491662979126,1.0634467601776123,0.16949152946472168,-0.8032220602035522,-0.40007439255714417,-0.6426477432250977
470,49916,49917,-0.020716199651360512,-0.018720151856541634,1.0841093063354492,11.259771347045898,10.122526168823242,16.631446838378906,1.019948959350586,1.0649467706680298,0.17699114978313446,-0.9276629090309143,-0.21352991461753845,-0.46278947591781616
471,49926,49927,-0.043585509061813354,-0.007661441806703806,1.0040571689605713,10.219313621520996,6.097855567932129,15.730622291564941,1.0229488611221313,1.0529472827911377,0.18299084901809692,-0.9155166745185852,0.008925490081310272,-0.2847211956977844
472,49936,49937,-0.0859689861536026,0.07427781820297241,1.0414767265319824,8.211647033691406,1.1698652505874634,14.213434219360352,1.0229488611221313,1.0529472827911377,0.17699114978313446,-0.9886218309402466,0.1925080269575119,-0.11521786451339722
473,49946,49947,0.08798433095216751,0.03807434067130089,1.0967251062393188,6.221868991851807,-2.540386438369751,12.242768287658691,1.01694917678833,1.0529472827911377,0.1619918942451477,-0.9928332567214966,0.13231100142002106,-0.0011526079615578055
474,49956,49957,0.0768846794962883,-0.13057202100753784,0.9496685862541199,5.824892997741699,-3.871453046798706,10.75898265838623,1.0139492750167847,1.0499475002288818,0.18299084901809692,-1.0261037349700928,0.2656862735748291,0.13511493802070618
475,49966,49967,-0.09741489589214325,0.011931142769753933,1.0584126710891724,6.972448348999023,-2.914189577102661,9.995935440063477,1.0289485454559326,1.0499475002288818,0.16799159348011017,-0.952042818069458,0.3402613401412964,0.24352245032787323
476,49976,49977,-0.04637261480093002,-0.01685602031648159,0.916150689125061,7.151541709899902,-3.528658628463745,6.561677932739258,1.0229488611221313,1.0499475002288818,0.170991450548172,-0.9764866828918457,0.33373957872390747,0.32196855545043945
477,49986,49987,-0.0021444279700517654,-0.02020714245736599,1.0050047636032104,4.12518835067749,-4.475653648376465,5.785839557647705,1.0229488611221313,1.0409479141235352,0.16799159348011017,-0.9825005531311035,0.3891242742538452,0.3865680992603302
478,49996,49997,0.11239635944366455,-0.09973660856485367,0.8891467452049255,1.6604169607162476,-1.091280221939087,3.979400873184204,1.019948959350586,1.0589470863342285,0.16799159348011017,-0.9337297081947327,0.4779326319694519,0.45339956879615784
479,50006,50007,0.03440209850668907,0.005777415819466114,1.0573492050170898,-0.6734406352043152,-2.0968120098114014,2.780273914337158,1.0229488611221313,1.0379481315612793,0.17399129271507263,-0.9778881669044495,0.5182417035102844,0.49547678232192993
480,50016,50017,0.17247335612773895,-0.016072340309619904,1.0273019075393677,-5.439105987548828,-1.8895819187164307,2.4691100120544434,1.0229488611221313,1.0469475984573364,0.1799909919500351,-0.9715216755867004,0.3535007834434509,0.49538516998291016
481,50026,50027,0.15449389815330505,0.0692090392112732,1.2577537298202515,-7.703139781951904,-3.286961078643799,2.2459423542022705,1.0454477071762085,1.048447608947754,0.16649167239665985,-0.9453680515289307,0.27627116441726685,0.5149457454681396
