,timestamp_start,timestamp_end,acc.x,acc.y,acc.z,gyro.x,gyro.y,gyro.z,mag.x,mag.y,mag.z,stabilizer.pitch,stabilizer.roll,stabilizer.yaw
0,353181,353183,0.005092394072562456,-0.06878729164600372,1.116571068763733,16.19168472290039,-14.493959426879883,4.150638103485107,-0.7799609899520874,1.4339282512664795,0.3509824573993683,-3.7696895599365234,-1.5778558254241943,5.127713203430176
1,353191,353193,-0.017074156552553177,0.05806690454483032,1.0004621744155884,18.9940242767334,-21.173442840576172,3.276560068130493,-0.7709614634513855,1.436928153038025,0.3509824573993683,-3.651099681854248,-1.4809173345565796,5.151864528656006
2,353201,353203,-0.01281728595495224,-0.0738256573677063,1.0895384550094604,14.715095520019531,-27.230234146118164,1.34870183467865,-0.7784610390663147,1.4714263677597046,0.3584820628166199,-3.414754629135132,-1.4306714534759521,5.139290809631348
3,353211,353213,-0.04177980497479439,-0.028504587709903717,1.1137232780456543,15.679936408996582,-30.440654754638672,4.0955047607421875,-0.7724613547325134,1.4654266834259033,0.3494825065135956,-3.148871660232544,-1.4618762731552124,5.110104560852051
4,353221,353223,0.010429076850414276,-0.002213583327829838,1.108449935913086,15.87173080444336,-25.81488800048828,4.271005630493164,-0.7814609408378601,1.4684265851974487,0.35548222064971924,-2.704301595687866,-1.1846288442611694,5.160318851470947
5,353231,353233,0.017348866909742355,-0.08644542843103409,1.1384892463684082,8.409863471984863,-21.498525619506836,4.8746256828308105,-0.7589620351791382,1.4579271078109741,0.34798258543014526,-2.5500521659851074,-1.0148595571517944,5.239492416381836
6,353241,353243,-0.01847892440855503,-0.007718399632722139,1.003941535949707,9.538911819458008,-12.599559783935547,4.059562683105469,-0.7664616703987122,1.4474276304244995,0.3494825065135956,-2.3975703716278076,-1.0661565065383911,5.268572807312012
7,353251,353253,0.00780066754668951,-0.07407131046056747,1.1303017139434814,-1.2365771532058716,-13.948432922363281,3.19069504737854,-0.7799609899520874,1.4429278373718262,0.36598169803619385,-2.4232375621795654,-0.8762874007225037,5.361246585845947
8,353261,353263,-0.03474605083465576,0.06657864153385162,1.0273736715316772,7.4659600257873535,-12.635078430175781,2.196720600128174,-0.7754611968994141,1.4504274129867554,0.3314834237098694,-2.150649070739746,-0.8461295366287231,5.3750810623168945
9,353271,353273,-0.022765111178159714,0.04605472832918167,1.05055832862854,6.136900901794434,-17.17444610595703,1.032812476158142,-0.7619618773460388,1.436928153038025,0.35698214173316956,-2.005375623703003,-0.7544674277305603,5.401700496673584
10,353281,353283,-0.0375780388712883,0.07593806087970734,0.9387210011482239,15.004240036010742,-12.577388763427734,1.1435668468475342,-0.7709614634513855,1.421928882598877,0.34798258543014526,-2.022390842437744,-0.5705373883247375,5.446958541870117
11,353291,353293,0.001112318248488009,-0.10644102096557617,1.1961500644683838,9.065147399902344,-16.3820858001709,0.01743190735578537,-0.7589620351791382,1.4309284687042236,0.3599819839000702,-1.7884987592697144,-0.36314064264297485,5.456840515136719
12,353301,353303,0.013733191415667534,0.042571526020765305,1.063799262046814,18.303966522216797,-13.821209907531738,1.1870477199554443,-0.7649617195129395,1.421928882598877,0.33598318696022034,-1.7243201732635498,-0.4501958191394806,5.4610748291015625
13,353311,353313,0.026840120553970337,-0.1280612349510193,1.1499872207641602,11.415584564208984,-16.349857330322266,-0.7335649132728577,-0.7529623508453369,1.4249287843704224,0.3509824573993683,-1.600527048110962,-0.2400367110967636,5.47456693649292
14,353321,353323,0.010628455318510532,-0.01607656665146351,0.9967334866523743,14.073333740234375,-19.067869186401367,0.7693235278129578,-0.7484625577926636,1.4294284582138062,0.35548222064971924,-1.430336356163025,-0.0331895649433136,5.4735541343688965
15,353331,353333,-0.00950550101697445,0.04014046862721443,1.0433261394500732,2.6754205226898193,-21.92035675048828,-0.7155444622039795,-0.7499625086784363,1.4129292964935303,0.34498274326324463,-1.2929363250732422,0.06866757571697235,5.479250431060791
16,353341,353343,-0.08169145882129669,-0.06361264735460281,1.1683846712112427,-8.617551803588867,-24.085954666137695,-1.301734447479248,-0.7484625577926636,1.3964301347732544,0.33448326587677,-1.1123713254928589,0.08039092272520065,5.474245071411133
17,353351,353353,-0.08229373395442963,-0.04108792915940285,1.0912095308303833,-10.278470993041992,-20.318012237548828,-2.462261199951172,-0.7424628734588623,1.4024298191070557,0.33748310804367065,-1.0488548278808594,-0.03521792218089104,5.462621688842773
18,353361,353363,-0.053801704198122025,0.01569373719394207,1.0562291145324707,-14.4426908493042,-21.305280685424805,-5.1976318359375,-0.7439627647399902,1.4039298295974731,0.34498274326324463,-0.6068175435066223,-0.2075381726026535,5.456383228302002
19,353371,353373,-0.02923383191227913,0.008699394762516022,1.0359611511230469,-9.77491569519043,-22.350759506225586,-6.979346752166748,-0.737963080406189,1.4009299278259277,0.32998350262641907,-0.5053709745407104,-0.2659635841846466,5.3879714012146
20,353381,353383,-0.08712367713451385,-0.03356184810400009,1.035395622253418,-0.9671274423599243,-17.440139770507812,-9.024967193603516,-0.7259637117385864,1.3949302434921265,0.34798258543014526,-0.1970341056585312,-0.32703903317451477,5.319540500640869
21,353391,353393,-0.022778498008847237,-0.06936641782522202,1.126555323600769,2.0410239696502686,-14.649962425231934,-11.50438404083252,-0.7199639678001404,1.391930341720581,0.34498274326324463,-0.22135362029075623,-0.3208473026752472,5.20811653137207
22,353401,353403,0.0007998078945092857,-0.07627323269844055,0.9758700728416443,8.917498588562012,-13.094450950622559,-13.061990737915039,-0.730463445186615,1.3814308643341064,0.3584820628166199,0.1248755007982254,-0.24897491931915283,5.105015754699707
23,353411,353413,-0.00800187885761261,0.05328601971268654,0.9947275519371033,9.690909385681152,-9.856979370117188,-14.909411430358887,-0.730463445186615,1.3904304504394531,0.33448326587677,0.09138556569814682,-0.18122224509716034,4.9583001136779785
24,353421,353423,-0.09553758054971695,-0.03960791602730751,1.0367467403411865,-0.6363889575004578,-9.05841064453125,-17.745223999023438,-0.737963080406189,1.391930341720581,0.33898305892944336,0.35881346464157104,-0.06306132674217224,4.813243865966797
25,353431,353433,-0.0874062031507492,-0.07428282499313354,1.0079960823059082,-9.443312644958496,-8.74453353881836,-18.859230041503906,-0.736463189125061,1.3844307661056519,0.34648266434669495,0.5327901840209961,-0.08520526438951492,4.655106067657471
26,353441,353443,-0.07915022224187851,0.034805718809366226,0.9247577786445618,-12.91030502319336,-7.415115833282471,-18.358610153198242,-0.736463189125061,1.3964301347732544,0.33748310804367065,0.08780285716056824,-0.24394486844539642,4.429962635040283
27,353451,353453,0.010864737443625927,0.11200928688049316,0.9411502480506897,-10.090115547180176,-3.645531177520752,-19.751707077026367,-0.7319633960723877,1.391930341720581,0.33898305892944336,0.3229861557483673,-0.3762591779232025,4.263952255249023
28,353461,353463,0.11784914135932922,0.04584255442023277,0.9965049028396606,-6.210583686828613,-5.181153774261475,-23.37847328186035,-0.7424628734588623,1.4024298191070557,0.3224838674068451,0.2610914409160614,-0.5234570503234863,4.063162803649902
29,353471,353473,0.00888935849070549,-0.11724884063005447,0.9827345609664917,-1.2117774486541748,-12.541921615600586,-25.76134490966797,-0.722963809967041,1.3889305591583252,0.33598318696022034,0.4524379372596741,-0.5880388617515564,3.8505356311798096
30,353481,353483,-0.0491185337305069,-0.08543194830417633,0.9394398927688599,1.3387563228607178,-16.763364791870117,-25.672901153564453,-0.736463189125061,1.3934303522109985,0.33748310804367065,0.7217162251472473,-0.5712013840675354,3.6086483001708984
31,353491,353493,-0.04246917739510536,0.025548327714204788,0.8985344767570496,2.4223134517669678,-16.343271255493164,-24.534379959106445,-0.7289635539054871,1.3979300260543823,0.34498274326324463,0.9489690065383911,-0.38071075081825256,3.2928524017333984
32,353501,353503,-0.009410775266587734,0.02819889970123768,0.8770212531089783,0.04384543001651764,-12.196897506713867,-23.281566619873047,-0.7274636030197144,1.3874305486679077,0.3434828221797943,1.0151606798171997,-0.3423471748828888,3.029183864593506
33,353511,353513,-0.002633705036714673,0.045945387333631516,0.9020335674285889,-0.20243902504444122,-5.012404918670654,-21.70050621032715,-0.736463189125061,1.3934303522109985,0.3434828221797943,0.9474107623100281,-0.27752912044525146,2.7437498569488525
34,353521,353523,0.015492093749344349,0.029445255175232887,0.9335556030273438,4.766313076019287,1.0302271842956543,-21.21140480041504,-0.7319633960723877,1.3979300260543823,0.33898305892944336,1.1080036163330078,-0.27353349328041077,2.5446691513061523
35,353531,353533,-0.016263647004961967,0.03266541659832001,0.9366028904914856,10.017912864685059,2.8124072551727295,-21.150503158569336,-0.7274636030197144,1.3904304504394531,0.33448326587677,1.107803463935852,-0.17880889773368835,2.317085027694702
36,353541,353543,-0.05666187405586243,0.11047854274511337,0.9453647136688232,9.99626350402832,1.9604449272155762,-20.527326583862305,-0.722963809967041,1.406929612159729,0.33598318696022034,1.0797621011734009,-0.017223017290234566,2.076505661010742
37,353551,353553,-0.07378482818603516,0.12238090485334396,0.9388480186462402,9.083338737487793,1.7516238689422607,-19.8060359954834,-0.7424628734588623,1.3994300365447998,0.3434828221797943,1.1424521207809448,0.06440809369087219,1.8917856216430664
38,353561,353563,-0.02904650941491127,0.015281308442354202,0.891914427280426,3.7068169116973877,-0.7388589978218079,-19.201265335083008,-0.7274636030197144,1.4024298191070557,0.3434828221797943,1.21686589717865,0.1283978521823883,1.71723210811615
39,353571,353573,-0.0031314699444919825,0.041179973632097244,0.8904135227203369,2.2090697288513184,0.10799481719732285,-18.02799415588379,-0.7349632382392883,1.391930341720581,0.34498274326324463,1.3069472312927246,0.17634683847427368,1.5325899124145508
40,353581,353583,0.02396884374320507,0.05984238162636757,0.9024465084075928,1.9757137298583984,1.6823174953460693,-17.016468048095703,-0.7349632382392883,1.4009299278259277,0.3329833447933197,1.0425989627838135,0.27940911054611206,1.2693748474121094
41,353591,353593,0.03670881688594818,0.02424713782966137,0.9001867771148682,5.121924877166748,4.017745018005371,-15.819828033447266,-0.7319633960723877,1.4009299278259277,0.3329833447933197,0.966451108455658,0.3815675377845764,1.0530622005462646
42,353601,353603,0.046888768672943115,0.02155490033328533,0.911810040473938,9.155308723449707,1.3306310176849365,-15.444808006286621,-0.7289635539054871,1.391930341720581,0.33598318696022034,1.014614224433899,0.47071194648742676,0.8952163457870483
43,353611,353613,0.07717788219451904,0.012833002023398876,0.9113876819610596,9.692388534545898,-3.9400079250335693,-15.900935173034668,-0.7319633960723877,1.3889305591583252,0.33598318696022034,0.9040880799293518,0.6794049143791199,0.6597048044204712
44,353621,353623,0.0778825581073761,0.02407963015139103,0.9232808351516724,6.923443794250488,-8.304990768432617,-15.789372444152832,-0.7274636030197144,1.3994300365447998,0.3524823784828186,1.0156644582748413,0.8670915365219116,0.4597845673561096
45,353631,353633,0.0845787525177002,0.040973275899887085,0.9064264893531799,0.34915947914123535,-13.210478782653809,-16.16026496887207,-0.7289635539054871,1.3979300260543823,0.3239837884902954,1.0609577894210815,0.8413802981376648,0.331473708152771
46,353641,353643,0.011652112938463688,0.01157387811690569,0.9069951176643372,-9.714527130126953,-16.545089721679688,-17.074954986572266,-0.7319633960723877,1.4039298295974731,0.3329833447933197,1.309677243232727,0.9941805005073547,0.09673312306404114
47,353651,353653,-0.023205844685435295,-0.008245949633419514,0.9161365032196045,-19.17278289794922,-14.429927825927734,-17.374897003173828,-0.7439627647399902,1.4129292964935303,0.341982901096344,1.5758166313171387,0.7622143626213074,0.014724144712090492
48,353661,353663,-0.030933750793337822,0.023760009557008743,0.9466099739074707,-20.580942153930664,-9.320398330688477,-17.917037963867188,-0.7319633960723877,1.4009299278259277,0.34798258543014526,1.519034743309021,0.6218752861022949,-0.2315206676721573
49,353671,353673,-0.09014767408370972,0.04143524914979935,0.9644588828086853,-18.751232147216797,-7.176198959350586,-15.948932647705078,-0.7334632873535156,1.4174290895462036,0.33448326587677,1.6015130281448364,0.3233201205730438,-0.35550132393836975
50,353681,353683,-0.13269180059432983,0.035186465829610825,0.9493460059165955,-12.277024269104004,-8.727450370788574,-15.274462699890137,-0.730463445186615,1.405429720878601,0.3314834237098694,1.7984411716461182,0.1464652270078659,-0.4844863712787628
51,353691,353693,-0.25540444254875183,0.006169386673718691,0.9371274709701538,-7.301589488983154,-10.142918586730957,-14.574806213378906,-0.7274636030197144,1.4024298191070557,0.33748310804367065,1.737529993057251,-0.06034313142299652,-0.6189993619918823
52,353701,353703,-0.0651279091835022,-0.059097807854413986,0.910735547542572,-2.228433847427368,-6.679436206817627,-13.544772148132324,-0.737963080406189,1.4189289808273315,0.341982901096344,1.8348290920257568,0.025271713733673096,-0.846799910068512
53,353711,353713,0.006827498320490122,-0.0030996918212622404,0.9395844340324402,0.7602846026420593,-1.266518473625183,-12.808926582336426,-0.722963809967041,1.4159291982650757,0.34498274326324463,1.9975653886795044,0.10602682828903198,-1.0120817422866821
54,353721,353723,0.007921692915260792,0.011753044091165066,0.9374057650566101,0.29865190386772156,2.6938414573669434,-13.013681411743164,-0.730463445186615,1.420428991317749,0.3404829800128937,2.0702455043792725,0.0784759446978569,-1.1053787469863892
55,353731,353733,-0.005321884993463755,0.002810225822031498,0.9245481491088867,-1.3895000219345093,5.295413970947266,-13.089970588684082,-0.736463189125061,1.4264286756515503,0.33748310804367065,1.7973772287368774,0.040907226502895355,-1.2663806676864624
56,353741,353743,0.07785630971193314,-0.004924197215586901,0.9043955206871033,-4.265662670135498,8.248581886291504,-12.095309257507324,-0.7244637608528137,1.4294284582138062,0.3434828221797943,1.7800662517547607,0.11402338743209839,-1.4380165338516235
57,353751,353753,0.08690252155065536,0.03433762118220329,0.9126604199409485,-3.620091199874878,4.680742263793945,-11.222818374633789,-0.736463189125061,1.4234287738800049,0.33748310804367065,1.9468556642532349,0.0008080975385382771,-1.4643604755401611
58,353761,353763,0.030643492937088013,0.05227947607636452,0.9429171085357666,-4.772885322570801,0.42563197016716003,-12.093231201171875,-0.7289635539054871,1.4279285669326782,0.341982901096344,1.9512301683425903,-0.10021942853927612,-1.5353965759277344
59,353771,353773,0.010898669250309467,0.04793447256088257,0.9658221006393433,-9.171878814697266,-1.5302228927612305,-13.006837844848633,-0.736463189125061,1.4414279460906982,0.3314834237098694,1.8731690645217896,-0.08732836693525314,-1.7159507274627686
60,353781,353783,-0.03171782195568085,0.023465877398848534,1.0248149633407593,-8.258838653564453,2.1919353008270264,-13.219367980957031,-0.7319633960723877,1.445927619934082,0.3539822995662689,1.5984492301940918,-0.19783064723014832,-1.8866535425186157
61,353791,353793,-0.024348143488168716,-0.04768328368663788,1.0185072422027588,-4.075826168060303,6.191824436187744,-13.156376838684082,-0.7589620351791382,1.445927619934082,0.34798258543014526,1.633802890777588,-0.2105359137058258,-2.0362191200256348
62,353801,353803,0.07925007492303848,-0.03409422188997269,0.980604887008667,5.333183765411377,9.843295097351074,-11.499784469604492,-0.7334632873535156,1.4474276304244995,0.3494825065135956,1.5186939239501953,-0.1245640218257904,-2.2280311584472656
63,353811,353813,0.07605190575122833,-0.034350890666246414,0.9305659532546997,12.83980655670166,13.49885082244873,-10.302019119262695,-0.7349632382392883,1.4489275217056274,0.33898305892944336,1.4195002317428589,-0.038652073591947556,-2.345278024673462
64,353821,353823,0.020956702530384064,0.0007174809579737484,0.9855985641479492,16.404050827026367,17.660612106323242,-10.621760368347168,-0.736463189125061,1.4414279460906982,0.3314834237098694,1.3193811178207397,0.13771380484104156,-2.4642436504364014
65,353831,353833,-0.029561340808868408,0.025115329772233963,1.0220674276351929,9.31673812866211,15.940988540649414,-9.61734676361084,-0.7559621930122375,1.445927619934082,0.34798258543014526,1.0902984142303467,0.2557018995285034,-2.5605502128601074
66,353841,353843,0.024115148931741714,0.008977074176073074,0.9733680486679077,0.3019515573978424,12.72015380859375,-9.445414543151855,-0.7334632873535156,1.4414279460906982,0.3434828221797943,0.9121408462524414,0.3238701820373535,-2.6563260555267334
67,353851,353853,0.09518337994813919,0.09853532910346985,0.9426910877227783,-4.982495307922363,2.6590850353240967,-6.386542320251465,-0.7409629225730896,1.4429278373718262,0.34498274326324463,0.7532393336296082,0.24739357829093933,-2.7209506034851074
68,353861,353863,0.055899132043123245,0.1025947630405426,0.9451085925102234,-12.21475887298584,-6.2805376052856445,-6.019786834716797,-0.7424628734588623,1.4474276304244995,0.3494825065135956,0.7418569922447205,0.14160525798797607,-2.77496600151062
69,353871,353873,-0.035076938569545746,0.06953996419906616,1.0636361837387085,-18.70035743713379,-9.401345252990723,-7.42431640625,-0.730463445186615,1.444427728652954,0.34648266434669495,0.903337299823761,-0.05590580031275749,-2.7949414253234863
70,353881,353883,-0.0560293011367321,0.060702186077833176,1.113592505455017,-18.75751304626465,-9.011435508728027,-7.790002346038818,-0.7289635539054871,1.4549272060394287,0.33598318696022034,0.9690150022506714,-0.12141111493110657,-2.9315388202667236
71,353891,353893,0.009904694743454456,0.09119522571563721,0.99638432264328,-13.378691673278809,-11.717998504638672,-5.591614246368408,-0.7289635539054871,1.4429278373718262,0.33598318696022034,1.0438538789749146,-0.3789079189300537,-2.969034433364868
72,353901,353903,0.03417337313294411,0.0780661329627037,1.0005922317504883,-8.141879081726074,-10.53731918334961,-6.1299238204956055,-0.7274636030197144,1.4234287738800049,0.34648266434669495,1.2868666648864746,-0.4047808349132538,-3.0499234199523926
73,353911,353913,-0.04427552968263626,0.04671892151236534,1.001407504081726,-3.7354559898376465,-10.584897994995117,-5.705418586730957,-0.7439627647399902,1.4399279356002808,0.34798258543014526,1.3659178018569946,-0.28368908166885376,-3.1989376544952393
74,353921,353923,-0.09327908605337143,0.0864703357219696,1.1329087018966675,-1.044681429862976,-2.1768460273742676,-6.407217502593994,-0.7334632873535156,1.4414279460906982,0.3404829800128937,1.4673134088516235,-0.38609522581100464,-3.220357894897461
75,353931,353933,-0.040873847901821136,0.08693163096904755,1.057213544845581,2.9372565746307373,7.470438480377197,-5.434396743774414,-0.7289635539054871,1.4429278373718262,0.34498274326324463,1.2978792190551758,-0.43911778926849365,-3.2819151878356934
76,353941,353943,0.09652886539697647,0.15860489010810852,0.9398967027664185,6.486403465270996,10.696318626403809,-4.339163303375244,-0.730463445186615,1.435428261756897,0.3404829800128937,1.1372758150100708,-0.42257100343704224,-3.337557792663574
77,353951,353953,0.04413367807865143,0.10435441136360168,0.9919301867485046,6.343815326690674,12.180584907531738,-4.840442180633545,-0.737963080406189,1.4309284687042236,0.34498274326324463,0.9907664656639099,-0.368264377117157,-3.388819694519043
78,353961,353963,-0.056658390909433365,0.01774773932993412,1.0941392183303833,0.929058313369751,11.366727828979492,-6.057870864868164,-0.7319633960723877,1.4249287843704224,0.34498274326324463,0.8492856025695801,-0.3293592631816864,-3.4391658306121826
79,353971,353973,-0.03050481528043747,0.06265942752361298,1.1116750240325928,-3.313518762588501,5.6252760887146,-5.344611167907715,-0.7244637608528137,1.4414279460906982,0.3524823784828186,0.8805967569351196,-0.36813780665397644,-3.464245557785034
80,353981,353983,-0.029433108866214752,0.0456211194396019,1.0008301734924316,-9.390734672546387,-4.140425205230713,-4.066640853881836,-0.7574620842933655,1.435428261756897,0.33748310804367065,0.8031823635101318,-0.40979382395744324,-3.5191502571105957
81,353991,353993,0.05053679272532463,0.0582195408642292,0.8926505446434021,-14.471404075622559,-9.72655963897705,-3.15895676612854,-0.7259637117385864,1.4429278373718262,0.33598318696022034,0.9998670816421509,-0.5606610178947449,-3.53035569190979
82,354001,354003,0.01338052935898304,0.02518497221171856,0.9811697602272034,-20.6130313873291,-11.593832969665527,-3.1905601024627686,-0.7409629225730896,1.4309284687042236,0.34798258543014526,1.1199955940246582,-0.6594659090042114,-3.5866167545318604
83,354011,354013,-0.02944856882095337,-0.0001914802851388231,1.0321077108383179,-20.20694351196289,-5.748855113983154,-2.742286205291748,-0.736463189125061,1.4294284582138062,0.3494825065135956,1.1753069162368774,-0.8946996927261353,-3.610797166824341
84,354021,354023,-0.06237800791859627,-0.002102237893268466,1.0446373224258423,-13.022148132324219,-4.266391277313232,-2.0192534923553467,-0.7319633960723877,1.445927619934082,0.33898305892944336,0.9501588940620422,-1.023586630821228,-3.6778371334075928
85,354031,354033,-0.00453686248511076,0.040070854127407074,1.0449950695037842,-0.15698787569999695,1.089714527130127,-0.2824001908302307,-0.7394630312919617,1.444427728652954,0.3314834237098694,1.0513917207717896,-1.2223241329193115,-3.6543970108032227
86,354041,354043,-0.004720145836472511,-0.05112333223223686,0.9690098166465759,8.183725357055664,5.334646701812744,1.421715497970581,-0.736463189125061,1.4624269008636475,0.3404829800128937,1.0636427402496338,-1.00923490524292,-3.7185425758361816
87,354051,354053,0.0240546315908432,0.03887081891298294,1.0146414041519165,13.232881546020508,8.816770553588867,2.5293405055999756,-0.7289635539054871,1.4549272060394287,0.33898305892944336,1.0014183521270752,-0.8282967209815979,-3.7336044311523438
88,354061,354063,-0.010619157925248146,0.05374599248170853,0.9624776244163513,10.334342956542969,6.211505889892578,3.0756332874298096,-0.7274636030197144,1.4504274129867554,0.33448326587677,0.905915379524231,-0.67157381772995,-3.719691038131714
89,354071,354073,-0.06375207751989365,0.030105460435152054,0.9718204736709595,3.5067057609558105,0.8877261281013489,4.023579120635986,-0.7289635539054871,1.436928153038025,0.341982901096344,0.8523351550102234,-0.7281229496002197,-3.6443099975585938
90,354081,354083,-0.0985340103507042,-0.06592944264411926,1.0077706575393677,-6.8840203285217285,-2.4985995292663574,5.091059684753418,-0.7319633960723877,1.4639267921447754,0.33898305892944336,0.8868130445480347,-0.6893137693405151,-3.608668327331543
91,354091,354093,-0.05714024603366852,-0.07707734405994415,1.0602049827575684,-15.37160587310791,-5.617395401000977,6.364576816558838,-0.730463445186615,1.459426999092102,0.3434828221797943,0.8331826329231262,-0.8113929033279419,-3.543856620788574
92,354101,354103,-0.010132807306945324,-0.10656324774026871,1.0306289196014404,-20.8137149810791,-8.671217918395996,7.721583366394043,-0.7409629225730896,1.4579271078109741,0.34498274326324463,0.8396722078323364,-1.0492379665374756,-3.455174446105957
93,354111,354113,0.028610214591026306,-0.05665936693549156,1.018149971961975,-20.09743881225586,-10.9454984664917,8.885096549987793,-0.7439627647399902,1.46092689037323,0.33898305892944336,1.0331002473831177,-1.2087053060531616,-3.386518716812134
94,354121,354123,0.019425103440880775,0.04117419570684433,0.9465251564979553,-12.990859985351562,-14.566088676452637,10.494437217712402,-0.736463189125061,1.459426999092102,0.3434828221797943,1.1236279010772705,-1.4074499607086182,-3.290907382965088
95,354131,354133,0.01354015339165926,0.180195152759552,0.9731807112693787,-2.7956161499023438,-15.21397590637207,12.587080955505371,-0.7409629225730896,1.4699264764785767,0.34498274326324463,1.251924991607666,-1.4078636169433594,-3.2111589908599854
96,354141,354143,-0.03930315747857094,0.13770122826099396,0.9912930130958557,2.9558329582214355,-10.225014686584473,14.028863906860352,-0.7454627156257629,1.4654266834259033,0.35548222064971924,1.3777178525924683,-1.4119641780853271,-3.086543321609497
97,354151,354153,-0.06803443282842636,0.09786121547222137,1.0876896381378174,6.463371753692627,-6.488958358764648,16.440793991088867,-0.7394630312919617,1.459426999092102,0.3404829800128937,1.2120336294174194,-1.3823940753936768,-2.929051637649536
98,354161,354163,-0.036302752792835236,0.011996828950941563,1.0925309658050537,6.6917805671691895,-4.6264729499816895,18.992691040039062,-0.7424628734588623,1.4654266834259033,0.3434828221797943,1.1384851932525635,-1.3225882053375244,-2.7547719478607178
99,354171,354173,-0.01360796857625246,-0.07214915752410889,1.0839101076126099,4.220808029174805,-4.241046905517578,20.267011642456055,-0.7424628734588623,1.4654266834259033,0.3434828221797943,1.2046235799789429,-1.1955586671829224,-2.579277753829956
100,354181,354183,0.03462354466319084,-0.12493419647216797,1.0068035125732422,2.4637458324432373,-7.242741584777832,22.081886291503906,-0.7169641256332397,1.4579271078109741,0.3509824573993683,1.4740251302719116,-1.1907597780227661,-2.3757176399230957
101,354191,354193,0.07303425669670105,-0.01799357309937477,0.9835740923881531,0.15851004421710968,-10.446589469909668,23.193866729736328,-0.7184640765190125,1.4534273147583008,0.3584820628166199,1.4349395036697388,-1.270333170890808,-2.1186776161193848
102,354201,354203,0.07433763891458511,0.015076665207743645,0.9863148927688599,-2.1349077224731445,-12.80674934387207,23.205528259277344,-0.7334632873535156,1.459426999092102,0.3524823784828186,1.6486413478851318,-1.2995522022247314,-1.8829333782196045
103,354211,354213,-0.013779839500784874,-0.022541897371411324,1.0529603958129883,-4.1141133308410645,-12.798584938049316,23.218360900878906,-0.7244637608528137,1.4534273147583008,0.3434828221797943,1.8237318992614746,-1.4428730010986328,-1.621193528175354
104,354221,354223,-0.017511960119009018,-0.011700855568051338,1.0485811233520508,-4.494613170623779,-14.434744834899902,24.335514068603516,-0.7259637117385864,1.4519274234771729,0.32998350262641907,1.860425353050232,-1.475806474685669,-1.381914496421814
105,354231,354233,0.004936737474054098,0.06815110892057419,0.9647470712661743,-1.8002078533172607,-12.211298942565918,25.700706481933594,-0.7199639678001404,1.445927619934082,0.341982901096344,1.9740252494812012,-1.5681499242782593,-1.120267629623413
106,354241,354243,-0.1094660758972168,-0.04039666801691055,1.0033822059631348,0.026536254212260246,-4.677626609802246,25.767545700073242,-0.722963809967041,1.4639267921447754,0.34498274326324463,1.8961491584777832,-1.5338904857635498,-0.8571524024009705
107,354251,354253,-0.03407973051071167,0.016098259016871452,1.0271834135055542,6.012182235717773,5.6733551025390625,25.63889503479004,-0.7274636030197144,1.4564270973205566,0.3524823784828186,1.8425723314285278,-1.5284854173660278,-0.5896298885345459
108,354261,354263,0.006628837902098894,-0.019246544688940048,0.9824560880661011,6.24865198135376,15.50040054321289,24.424728393554688,-0.7274636030197144,1.4474276304244995,0.3404829800128937,1.7622500658035278,-1.3833086490631104,-0.36080360412597656
109,354271,354273,-0.06357913464307785,0.0010794802801683545,1.0365269184112549,7.146642684936523,20.498313903808594,23.289209365844727,-0.7199639678001404,1.4399279356002808,0.3329833447933197,1.6032928228378296,-1.36637544631958,-0.10858521610498428
110,354281,354283,-0.011859416030347347,-0.0158031415194273,1.0193711519241333,6.216172218322754,20.138992309570312,21.039854049682617,-0.7274636030197144,1.435428261756897,0.3494825065135956,1.382236361503601,-1.4173418283462524,0.1469901204109192
111,354291,354293,0.011780040338635445,0.10979021340608597,0.9641821384429932,7.3138203620910645,16.113239288330078,19.59499740600586,-0.736463189125061,1.435428261756897,0.33748310804367065,1.3786388635635376,-1.3250075578689575,0.3186476528644562
112,354301,354303,0.0007596611394546926,0.11624224483966827,0.9932898283004761,3.854520559310913,7.091477870941162,17.21614646911621,-0.736463189125061,1.435428261756897,0.33748310804367065,1.1776922941207886,-1.210218906402588,0.5031400918960571
113,354311,354313,0.018799277022480965,-0.013740980066359043,0.9990078210830688,2.6972475051879883,-0.5731012225151062,14.982732772827148,-0.736463189125061,1.435428261756897,0.33748310804367065,1.0479074716567993,-1.2978960275650024,0.7097930312156677
114,354321,354323,-0.011025113984942436,0.007421641610562801,1.008217453956604,0.8507428169250488,-7.066416263580322,12.920066833496094,-0.736463189125061,1.435428261756897,0.33748310804367065,1.1048767566680908,-1.2653255462646484,0.8460606336593628
115,354331,354333,-0.0021865374874323606,-0.03308893367648125,1.0619820356369019,5.354992866516113,-11.892171859741211,11.91214656829834,-0.736463189125061,1.435428261756897,0.33748310804367065,1.26728355884552,-1.2314116954803467,0.9612235426902771
116,354341,354343,0.018390387296676636,-0.05896473303437233,1.0440751314163208,12.495817184448242,-10.23374080657959,11.231955528259277,-0.730463445186615,1.4294284582138062,0.3404829800128937,1.4738885164260864,-1.1422808170318604,1.0608748197555542
117,354351,354353,-0.010412792675197124,0.03237464278936386,1.0188783407211304,16.976882934570312,-2.61751651763916,11.248188018798828,-0.7109644412994385,1.4279285669326782,0.3329833447933197,1.5583460330963135,-0.9924109578132629,1.1700408458709717
118,354361,354363,0.012068950571119785,-0.0018275236943736672,0.978077232837677,17.642353057861328,5.865550518035889,11.506806373596191,-0.7154642343521118,1.435428261756897,0.33448326587677,1.4424352645874023,-0.7809994220733643,1.2891699075698853
119,354371,354373,-0.04941242188215256,-0.0275198332965374,1.0443665981292725,14.575946807861328,13.752396583557129,10.622570991516113,-0.7154642343521118,1.4294284582138062,0.33748310804367065,1.3209439516067505,-0.6481264233589172,1.4132672548294067
120,354381,354383,-0.0067679728381335735,-0.010896856896579266,1.0327742099761963,13.159399032592773,19.51513671875,10.35739517211914,-0.7199639678001404,1.436928153038025,0.341982901096344,1.0947282314300537,-0.7104695439338684,1.5659091472625732
121,354391,354393,0.007768379524350166,0.0767342671751976,0.9483317732810974,14.426704406738281,20.02997589111328,10.868636131286621,-0.7289635539054871,1.4339282512664795,0.33898305892944336,0.999245285987854,-0.48480358719825745,1.6358333826065063
122,354401,354403,0.010700292885303497,0.052087970077991486,0.9882745146751404,15.005561828613281,17.149288177490234,11.196345329284668,-0.7409629225730896,1.421928882598877,0.3329833447933197,0.7707462310791016,-0.37317073345184326,1.7550935745239258
123,354411,354413,0.02071801759302616,-0.0843309536576271,1.0198650360107422,14.36935806274414,10.088380813598633,11.678802490234375,-0.7184640765190125,1.4114294052124023,0.33448326587677,0.5384951829910278,-0.2667251229286194,1.881760597229004
124,354421,354423,-0.005753674078732729,-0.036113571375608444,0.9958791136741638,15.411221504211426,3.482475757598877,13.910109519958496,-0.730463445186615,1.4144293069839478,0.3524823784828186,0.4921133816242218,-0.15390706062316895,2.004837989807129
125,354431,354433,-0.023616816848516464,0.021250352263450623,1.0121371746063232,15.504161834716797,-0.9292142987251282,15.673395156860352,-0.7259637117385864,1.4189289808273315,0.3329833447933197,0.6066787242889404,0.11644098907709122,2.1168053150177
126,354441,354443,-0.0003171912976540625,0.011063730344176292,1.0105035305023193,10.847156524658203,-1.9424244165420532,16.718547821044922,-0.7319633960723877,1.4159291982650757,0.34498274326324463,0.6356236934661865,0.23260490596294403,2.278613567352295
127,354451,354453,0.016988426446914673,-0.04716793820261955,1.0097812414169312,7.762021064758301,0.24496792256832123,17.158620834350586,-0.7214639186859131,1.420428991317749,0.34648266434669495,0.533898651599884,0.20730946958065033,2.4727516174316406
128,354461,354463,-0.018832553178071976,0.012966850772500038,1.0497053861618042,4.997575283050537,1.7104183435440063,17.892662048339844,-0.7349632382392883,1.4039298295974731,0.33898305892944336,0.5326049327850342,0.32528749108314514,2.6368017196655273
129,354471,354473,-0.008372290059924126,0.05538654699921608,1.0564249753952026,2.6574463844299316,4.728569984436035,18.58156967163086,-0.736463189125061,1.420428991317749,0.3494825065135956,0.5043997764587402,0.3524538278579712,2.8201048374176025
130,354481,354483,0.034188251942396164,0.010417580604553223,1.007608413696289,0.2620406448841095,6.582633972167969,19.530195236206055,-0.7319633960723877,1.421928882598877,0.32998350262641907,0.43460091948509216,0.40584737062454224,3.0056991577148438
131,354491,354493,0.006259923800826073,-0.00038852079887874424,1.017433524131775,-5.400720596313477,4.587521553039551,21.688358306884766,-0.730463445186615,1.3994300365447998,0.33448326587677,0.3459659516811371,0.46613001823425293,3.198385715484619
132,354501,354503,-0.008986398577690125,0.004907447379082441,1.0170410871505737,-7.9510345458984375,2.817026138305664,23.580585479736328,-0.730463445186615,1.408429503440857,0.34648266434669495,0.355910062789917,0.3860696256160736,3.422391176223755
133,354511,354513,-0.017689740285277367,0.003612206783145666,1.0005161762237549,-8.465786933898926,1.7238212823867798,25.199424743652344,-0.7184640765190125,1.4234287738800049,0.33448326587677,0.46358445286750793,0.34973177313804626,3.665605306625366
134,354521,354523,0.004350009839981794,0.006769669707864523,1.0136065483093262,-4.484630584716797,1.2681890726089478,26.407711029052734,-0.7199639678001404,1.4189289808273315,0.32998350262641907,-0.039581477642059326,0.2260863184928894,3.8994123935699463
135,354531,354533,0.01055253017693758,-0.005999469663947821,0.9963164925575256,0.5477176904678345,1.0704504251480103,27.17922019958496,-0.7334632873535156,1.4324283599853516,0.3434828221797943,0.45635175704956055,0.191509410738945,4.1972761154174805
136,354541,354543,-0.004319681786000729,0.04938777536153793,0.9364644289016724,6.3892502784729,2.6125574111938477,27.701990127563477,-0.7319633960723877,1.4039298295974731,0.3329833447933197,0.2918463349342346,0.3035918176174164,4.454618453979492
137,354551,354553,-0.01438701432198286,0.009983048774302006,0.9725935459136963,10.386754035949707,5.146097183227539,27.104997634887695,-0.7289635539054871,1.4099295139312744,0.32998350262641907,0.37815141677856445,0.37581175565719604,4.741098403930664
138,354561,354563,-0.03760107606649399,-0.08108474314212799,1.0115023851394653,14.274335861206055,5.718050956726074,26.191638946533203,-0.7154642343521118,1.4174290895462036,0.3314834237098694,0.2915898263454437,0.488375186920166,5.007032871246338
139,354571,354573,-0.037978947162628174,-0.008140508085489273,0.922978937625885,18.261978149414062,5.1011962890625,25.921144485473633,-0.7334632873535156,1.4114294052124023,0.32848358154296875,0.06414065510034561,0.3903353214263916,5.262324333190918
140,354581,354583,-0.028762781992554665,0.012745416723191738,0.9787499308586121,14.033475875854492,4.184979438781738,24.81009864807129,-0.7214639186859131,1.405429720878601,0.33448326587677,-0.1385832130908966,0.503062903881073,5.507828712463379
141,354591,354593,-0.019338341429829597,-0.009220011532306671,1.0044317245483398,8.069257736206055,-0.5554365515708923,23.42962646484375,-0.7454627156257629,1.405429720878601,0.3404829800128937,-0.16510842740535736,0.7127202153205872,5.752603054046631
142,354601,354603,-0.005348339676856995,0.01895577646791935,0.9807606935501099,1.215531826019287,-4.512789726257324,21.30775260925293,-0.7289635539054871,1.4009299278259277,0.32698363065719604,-0.11421491205692291,0.7738748788833618,5.987660884857178
143,354611,354613,-0.013001298531889915,-0.02927444502711296,1.023322343826294,-1.5545035600662231,-7.0418477058410645,20.12401008605957,-0.7259637117385864,1.3979300260543823,0.32998350262641907,0.002330969786271453,0.8053445219993591,6.205982208251953
144,354621,354623,0.0006018122076056898,-0.18509186804294586,1.097678542137146,-3.5464584827423096,-6.726621150970459,18.204912185668945,-0.7274636030197144,1.4024298191070557,0.3134843111038208,0.1525789350271225,0.7868912816047668,6.4104743003845215
145,354631,354633,-0.040561117231845856,-0.053865447640419006,1.0007940530776978,1.614222526550293,-4.401224613189697,17.25798797607422,-0.722963809967041,1.3889305591583252,0.3239837884902954,0.058578215539455414,0.7808074355125427,6.57226037979126
146,354641,354643,-0.012980145402252674,-0.0074387891218066216,0.9743858575820923,-1.3761184215545654,0.10471771657466888,16.579408645629883,-0.7334632873535156,1.4144293069839478,0.33448326587677,0.13345427811145782,0.814643383026123,6.748991012573242
147,354651,354653,-0.02078639343380928,0.04812121391296387,0.9992318153381348,-0.014298055320978165,3.0113625526428223,16.148860931396484,-0.7214639186859131,1.408429503440857,0.33448326587677,0.14659538865089417,0.7403514981269836,6.9153218269348145
148,354661,354663,-0.008818534202873707,-0.06753408163785934,0.9923565983772278,0.40347790718078613,6.3877081871032715,15.535463333129883,-0.7214639186859131,1.3994300365447998,0.3224838674068451,0.032515671104192734,0.8247913718223572,7.068323135375977
149,354671,354673,0.03902077302336693,-0.024776918813586235,0.9859650135040283,-0.9938085079193115,8.5719575881958,15.234879493713379,-0.7319633960723877,1.3949302434921265,0.3239837884902954,-0.042810287326574326,0.8946890234947205,7.224511623382568
150,354681,354683,0.018485628068447113,0.05920207500457764,0.9619805216789246,0.21212638914585114,6.133398532867432,14.916516304016113,-0.7169641256332397,1.3979300260543823,0.33598318696022034,-0.14417853951454163,0.8843718767166138,7.375210762023926
151,354691,354693,-0.024767398834228516,0.001006455859169364,1.0639234781265259,-2.388639450073242,1.3268721103668213,14.483680725097656,-0.7244637608528137,1.4024298191070557,0.33448326587677,-0.11877202242612839,0.7503010034561157,7.528937816619873
152,354701,354703,-0.03040691651403904,0.008938475511968136,0.9881499409675598,-3.732038736343384,-3.2150094509124756,14.599583625793457,-0.7289635539054871,1.3889305591583252,0.3209839463233948,-0.08148293197154999,0.8287914395332336,7.686140537261963
153,354711,354713,0.006003924645483494,0.025328321382403374,0.910632312297821,-5.000028610229492,-9.121672630310059,14.601099967956543,-0.722963809967041,1.3979300260543823,0.32998350262641907,-0.06761342287063599,0.9093548059463501,7.835275173187256
154,354721,354723,0.02547890692949295,-0.021113766357302666,1.0021249055862427,-8.967646598815918,-11.618788719177246,14.950467109680176,-0.7259637117385864,1.391930341720581,0.32698363065719604,0.13592393696308136,0.8185039162635803,7.9949846267700195
155,354731,354733,-0.036793988198041916,0.02379407361149788,0.9506569504737854,-4.536710262298584,-15.502187728881836,16.05875587463379,-0.7139642834663391,1.4039298295974731,0.32698363065719604,0.2889220714569092,0.6632853150367737,8.14693546295166
156,354741,354743,-0.0629412978887558,-0.03201661258935928,1.0236982107162476,-5.337653636932373,-17.131301879882812,15.812345504760742,-0.7154642343521118,1.4144293069839478,0.3254837095737457,0.13288158178329468,0.8757835626602173,8.262280464172363
157,354751,354753,0.00968459714204073,0.024175919592380524,0.9678730368614197,-1.181496262550354,-15.725218772888184,15.833063125610352,-0.7259637117385864,1.4039298295974731,0.32998350262641907,0.459517240524292,0.7582769989967346,8.44475269317627
158,354761,354763,0.01581648923456669,0.051813866943120956,0.9417300224304199,-3.1063058376312256,-18.073305130004883,14.444275856018066,-0.7139642834663391,1.4129292964935303,0.33898305892944336,0.5838465690612793,0.733510434627533,8.5910005569458
159,354771,354773,-0.01866084337234497,0.11859080940485,0.9657260775566101,-4.644353866577148,-16.790475845336914,13.112738609313965,-0.7244637608528137,1.408429503440857,0.33748310804367065,0.7634851336479187,0.6582051515579224,8.729619979858398
160,354781,354783,0.021395854651927948,0.0891539454460144,0.9367577433586121,-6.568129539489746,-14.57076358795166,12.539222717285156,-0.7064646482467651,1.405429720878601,0.33448326587677,0.8265042304992676,0.6344848871231079,8.8446626663208
161,354791,354793,-0.009061576798558235,0.06763406842947006,0.9467262625694275,-3.969034433364868,-11.282402992248535,13.435684204101562,-0.7004649639129639,1.408429503440857,0.3404829800128937,1.0844440460205078,0.5258668661117554,8.99321460723877
162,354801,354803,-0.024309594184160233,0.0898447334766388,1.0041674375534058,2.284986734390259,-3.648792266845703,12.950458526611328,-0.7244637608528137,1.4294284582138062,0.33448326587677,1.1836490631103516,0.6204830408096313,9.132577896118164
163,354811,354813,0.003081861650571227,0.025137314572930336,1.0826854705810547,3.5148980617523193,4.6303205490112305,11.416242599487305,-0.7124643921852112,1.420428991317749,0.32848358154296875,1.1714264154434204,0.5412631630897522,9.248621940612793
164,354821,354823,0.06882714480161667,0.02381759136915207,0.9888976216316223,5.763921737670898,13.091261863708496,10.787445068359375,-0.7169641256332397,1.4189289808273315,0.32698363065719604,1.0548303127288818,0.5990919470787048,9.358100891113281
165,354831,354833,-0.0010300296125933528,0.013267617672681808,1.0373892784118652,4.357004642486572,17.99115753173828,9.48055648803711,-0.7274636030197144,1.4264286756515503,0.3404829800128937,0.8731129169464111,0.6661441922187805,9.453692436218262
166,354841,354843,-0.002901521511375904,0.09117688238620758,0.979160726070404,1.1957207918167114,19.74053382873535,7.733673095703125,-0.7289635539054871,1.4099295139312744,0.33598318696022034,0.5979951620101929,0.6807120442390442,9.534441947937012
167,354851,354853,0.013038755394518375,0.0017474888591095805,1.0187360048294067,-1.7572230100631714,16.94182586669922,6.7838053703308105,-0.7394630312919617,1.4144293069839478,0.33748310804367065,0.460627019405365,0.7946388125419617,9.6225004196167
168,354861,354863,-0.008578562177717686,-0.008851472288370132,1.0162532329559326,-3.9285430908203125,14.419127464294434,6.921281337738037,-0.737963080406189,1.4189289808273315,0.34798258543014526,0.21962003409862518,0.7234290242195129,9.681074142456055
169,354871,354873,0.026255719363689423,-0.08748769015073776,1.1091400384902954,-7.342005252838135,10.70803165435791,6.201913833618164,-0.7319633960723877,1.4189289808273315,0.32998350262641907,0.17207391560077667,0.6132369637489319,9.767240524291992
170,354881,354883,0.03454524278640747,-0.0833844542503357,1.1776701211929321,-10.790679931640625,5.298732757568359,5.182293891906738,-0.7169641256332397,1.4129292964935303,0.3329833447933197,0.03448472172021866,0.4710533022880554,9.817333221435547
171,354891,354893,0.031726401299238205,-0.004343243781477213,1.0856980085372925,-11.269107818603516,-0.2518455684185028,4.011479377746582,-0.730463445186615,1.4114294052124023,0.34648266434669495,-0.011860908940434456,0.47110676765441895,9.867155075073242
172,354901,354903,0.0056596179492771626,0.04471224546432495,1.1148991584777832,-10.679622650146484,-8.726234436035156,3.8160340785980225,-0.722963809967041,1.406929612159729,0.341982901096344,0.04896651208400726,0.2348012626171112,9.912184715270996
173,354911,354913,0.019876383244991302,-0.02505212277173996,1.0161117315292358,-11.989482879638672,-16.0775146484375,4.607763767242432,-0.7199639678001404,1.4279285669326782,0.33598318696022034,0.17103298008441925,0.22857533395290375,9.957168579101562
174,354921,354923,-0.00010320808360120282,-0.04771990329027176,1.066851258277893,-13.79134750366211,-18.433780670166016,4.752213954925537,-0.7289635539054871,1.4099295139312744,0.32998350262641907,0.4159260392189026,0.2697544991970062,10.013561248779297
175,354931,354933,-0.025731738656759262,0.008406957611441612,1.0369518995285034,-9.093868255615234,-17.06529426574707,5.07358455657959,-0.7094644904136658,1.4114294052124023,0.3254837095737457,0.6740800738334656,0.24343852698802948,10.074331283569336
176,354941,354943,0.008586116135120392,-0.009180924855172634,1.002203345298767,-6.372156143188477,-10.717695236206055,5.135748386383057,-0.7049647569656372,1.406929612159729,0.3209839463233948,0.7998815774917603,0.043076980859041214,10.119394302368164
177,354951,354953,-0.0015261940425261855,-0.0191491711884737,1.0104378461837769,-2.4295365810394287,-2.757479667663574,4.6105828285217285,-0.7169641256332397,1.406929612159729,0.32998350262641907,0.8847850561141968,-0.09023797512054443,10.16687297821045
178,354961,354963,-0.03165574371814728,0.031434956938028336,1.0219694375991821,-2.6445107460021973,5.276638031005859,4.319823265075684,-0.7094644904136658,1.4024298191070557,0.3314834237098694,0.7703170776367188,-0.03664184361696243,10.195865631103516
179,354971,354973,0.001926551223732531,-0.019534830003976822,1.0142078399658203,-2.617832899093628,11.314940452575684,3.4630579948425293,-0.7214639186859131,1.405429720878601,0.33448326587677,0.6820665001869202,-0.11913815885782242,10.23581314086914
180,354981,354983,0.021652590483427048,0.025948794558644295,0.9658907651901245,-5.890552997589111,10.411836624145508,3.3780477046966553,-0.7139642834663391,1.4009299278259277,0.33598318696022034,0.5901033878326416,0.050412971526384354,10.27367877960205
181,354991,354993,-0.024692051112651825,-0.042413271963596344,1.0170044898986816,-14.443991661071777,5.591176509857178,3.1143481731414795,-0.7169641256332397,1.3949302434921265,0.3329833447933197,0.5066317319869995,-0.10634762048721313,10.307561874389648
182,355001,355003,-0.04779138043522835,-0.004037739243358374,0.9797490835189819,-26.665618896484375,0.8669272661209106,2.2646031379699707,-0.7094644904136658,1.4114294052124023,0.32848358154296875,0.4817177355289459,-0.3457809090614319,10.337164878845215
183,355011,355013,0.04649092257022858,0.017016850411891937,0.9215188026428223,-33.21977996826172,1.8949508666992188,2.32319974899292,-0.7244637608528137,1.405429720878601,0.32848358154296875,0.593664288520813,-0.5592151880264282,10.37466049194336
184,355021,355023,-0.0014471521135419607,-0.043783072382211685,1.016129493713379,-34.423095703125,4.305123805999756,1.523654818534851,-0.7184640765190125,1.3964301347732544,0.33748310804367065,0.4512728154659271,-0.896756112575531,10.383208274841309
185,355031,355033,-0.016158452257514,0.0658712387084961,0.9587246179580688,-30.480710983276367,6.229218006134033,1.1090067625045776,-0.7289635539054871,1.4039298295974731,0.3329833447933197,0.3623109757900238,-1.3692151308059692,10.397927284240723
186,355041,355043,0.008805422112345695,-0.020640671253204346,1.0104976892471313,-23.567106246948242,5.062886714935303,-1.4600701332092285,-0.722963809967041,1.4159291982650757,0.32998350262641907,0.37091633677482605,-1.7020963430404663,10.405027389526367
187,355051,355053,-0.019480692222714424,0.04064814746379852,0.9825202226638794,-16.979633331298828,-0.4663797616958618,-2.6413402557373047,-0.7184640765190125,1.4174290895462036,0.3404829800128937,0.24055330455303192,-1.7815443277359009,10.382197380065918
188,355061,355063,0.013237946666777134,0.0025180689990520477,0.9712991118431091,-11.59503173828125,-5.61594295501709,-4.90166711807251,-0.7199639678001404,1.406929612159729,0.32998350262641907,0.2964944541454315,-2.0213825702667236,10.351311683654785
189,355071,355073,0.021032724529504776,0.03369269520044327,0.9771677851676941,-8.806130409240723,-11.098846435546875,-5.417988300323486,-0.7079645991325378,1.4189289808273315,0.33898305892944336,0.4283357560634613,-2.010505437850952,10.301957130432129
190,355081,355083,0.011417674832046032,-0.016407713294029236,0.9585295915603638,-8.250307083129883,-16.572711944580078,-6.108566761016846,-0.7049647569656372,1.4159291982650757,0.34498274326324463,0.6283911466598511,-1.9974031448364258,10.246264457702637
191,355091,355093,0.005154038779437542,0.01307667139917612,0.97395920753479,-6.9951043128967285,-17.747570037841797,-4.72667121887207,-0.7184640765190125,1.405429720878601,0.3404829800128937,0.9317082762718201,-2.219412088394165,10.188586235046387
192,355101,355103,-0.004990758374333382,0.03278043493628502,0.9827170968055725,-6.156302452087402,-14.830245018005371,-4.16099214553833,-0.7094644904136658,1.4174290895462036,0.32848358154296875,0.843400776386261,-2.3107399940490723,10.169958114624023
193,355111,355113,-0.0033605287317186594,-0.019039148464798927,1.07938551902771,-3.9000449180603027,-8.22224235534668,-3.960188865661621,-0.7064646482467651,1.4174290895462036,0.33748310804367065,1.015521764755249,-2.418832540512085,10.133255004882812
194,355121,355123,0.01963977888226509,-0.008878251537680626,1.0654637813568115,-0.5827040672302246,-4.210211277008057,-3.5341637134552,-0.7139642834663391,1.4309284687042236,0.34798258543014526,1.0797171592712402,-2.497420072555542,10.101781845092773
195,355131,355133,0.02334235981106758,0.03237470984458923,1.0125709772109985,2.223439931869507,1.6601829528808594,-3.769667863845825,-0.7004649639129639,1.4294284582138062,0.3434828221797943,1.0795866250991821,-2.48514986038208,10.074645042419434
196,355141,355143,0.008925444446504116,-0.0055541545152664185,1.00014066696167,6.501139163970947,7.183137893676758,-3.8250622749328613,-0.7199639678001404,1.4339282512664795,0.3329833447933197,1.021417498588562,-2.4058940410614014,10.034597396850586
197,355151,355153,-0.016030143946409225,-0.0074640256352722645,0.9973205924034119,7.710668563842773,8.600176811218262,-3.801839590072632,-0.7019649147987366,1.4279285669326782,0.32998350262641907,0.906740128993988,-2.31527042388916,9.998431205749512
198,355161,355163,0.0018320881063118577,-0.023773610591888428,1.0011001825332642,4.255473613739014,8.208281517028809,-4.059066295623779,-0.7154642343521118,1.4384280443191528,0.3314834237098694,0.7639467716217041,-2.2727935314178467,9.966082572937012
199,355171,355173,0.01268812082707882,0.06522022187709808,1.0008134841918945,-0.11823870241641998,7.189598560333252,-3.8799450397491455,-0.7289635539054871,1.4249287843704224,0.33598318696022034,0.7932618856430054,-2.310368537902832,9.904449462890625
200,355181,355183,0.003702113637700677,0.008102250285446644,1.028442621231079,-1.6893819570541382,5.696731090545654,-4.217192649841309,-0.7244637608528137,1.4324283599853516,0.3254837095737457,0.6196535229682922,-2.255282163619995,9.883155822753906
201,355191,355193,-0.004929596558213234,-0.0010910523124039173,0.9763287305831909,-0.527330219745636,5.301216125488281,-4.25013542175293,-0.7259637117385864,1.436928153038025,0.34498274326324463,0.6142468452453613,-2.3490407466888428,9.831755638122559
202,355201,355203,0.05167373642325401,-0.014244919642806053,0.9801608920097351,0.752224326133728,1.433110237121582,-4.5261454582214355,-0.7154642343521118,1.4384280443191528,0.3404829800128937,0.5541341304779053,-2.2808499336242676,9.786177635192871
203,355211,355213,0.04872267320752144,0.042266685515642166,1.0040552616119385,0.8745095729827881,-1.1965835094451904,-4.576836109161377,-0.7169641256332397,1.4249287843704224,0.33898305892944336,0.5578232407569885,-2.262507200241089,9.739627838134766
204,355221,355223,-0.00301320175640285,0.02601061575114727,1.0357792377471924,-0.893599271774292,-6.631457328796387,-4.702565670013428,-0.7154642343521118,1.4294284582138062,0.33748310804367065,0.6244675517082214,-2.2558727264404297,9.683568000793457
205,355231,355233,0.013343126513063908,0.028736162930727005,0.9739271998405457,1.7724782228469849,-10.717493057250977,-5.220063209533691,-0.7169641256332397,1.4309284687042236,0.34798258543014526,0.664294958114624,-2.2474989891052246,9.648104667663574
206,355241,355243,0.013686143793165684,0.059865016490221024,1.0267162322998047,2.7389376163482666,-12.7447509765625,-5.194660663604736,-0.7139642834663391,1.4519274234771729,0.3329833447933197,0.9749971628189087,-2.278613805770874,9.551026344299316
207,355251,355253,-0.0022242411505430937,0.05771851912140846,1.0502440929412842,4.916899681091309,-13.421067237854004,-3.7334392070770264,-0.7199639678001404,1.4309284687042236,0.34498274326324463,1.0173718929290771,-2.1230547428131104,9.52875804901123
208,355261,355263,-0.019788455218076706,-0.04186633229255676,1.0440346002578735,5.713476657867432,-9.737090110778809,-3.872227191925049,-0.7079645991325378,1.4489275217056274,0.34498274326324463,1.2313786745071411,-2.057277202606201,9.465444564819336
209,355271,355273,-0.08935310691595078,-0.009860116057097912,0.8347200155258179,7.994959354400635,-2.39817214012146,-3.1719067096710205,-0.7259637117385864,1.4189289808273315,0.34798258543014526,1.3679288625717163,-1.9021525382995605,9.416050910949707
210,355281,355283,-0.05821437016129494,-0.06264634430408478,0.961564302444458,7.309167861938477,2.0585670471191406,-2.8646862506866455,-0.7199639678001404,1.436928153038025,0.341982901096344,1.3855687379837036,-1.8203356266021729,9.38687515258789
211,355291,355293,-0.09860600531101227,0.015084401704370975,0.8468425273895264,6.815181732177734,11.547950744628906,-3.028853416442871,-0.7049647569656372,1.4429278373718262,0.34498274326324463,1.2787445783615112,-1.8787562847137451,9.379144668579102
212,355301,355303,-0.04798100143671036,0.007621879689395428,0.940914511680603,2.1532466411590576,10.900949478149414,-4.189089298248291,-0.7169641256332397,1.4519274234771729,0.341982901096344,1.1097362041473389,-1.7899830341339111,9.3602876663208
213,355311,355313,-0.00357757112942636,-0.059878312051296234,0.986731767654419,2.8224596977233887,8.93668270111084,-4.013576030731201,-0.7289635539054871,1.4489275217056274,0.33898305892944336,0.9179977774620056,-1.8966783285140991,9.348409652709961
214,355321,355323,-0.04959592595696449,-0.019481956958770752,0.9784829020500183,1.8008439540863037,3.8280158042907715,-3.738940954208374,-0.730463445186615,1.4414279460906982,0.34648266434669495,0.6924889087677002,-1.7918697595596313,9.340106010437012
215,355331,355333,-0.07747042179107666,-0.002423814032226801,1.0489658117294312,3.255079984664917,-2.4526431560516357,-3.067922830581665,-0.7244637608528137,1.4504274129867554,0.33448326587677,0.9215871095657349,-1.9763675928115845,9.252374649047852
216,355341,355343,-0.031675104051828384,-0.0009008710621856153,0.999962568283081,8.05368709564209,-4.985967636108398,-2.3535494804382324,-0.7124643921852112,1.4534273147583008,0.3434828221797943,0.7791022658348083,-1.8419383764266968,9.261478424072266
217,355351,355353,-0.0030505487229675055,-0.049840182065963745,1.0326611995697021,11.784518241882324,-2.1613011360168457,-1.9624563455581665,-0.7244637608528137,1.4474276304244995,0.33448326587677,0.8550176620483398,-1.7403833866119385,9.23147201538086
218,355361,355363,-0.0016683608992025256,0.008620607666671276,1.0143861770629883,17.258907318115234,2.796290159225464,-2.706570625305176,-0.7124643921852112,1.4414279460906982,0.3434828221797943,0.9070209264755249,-1.5635775327682495,9.200629234313965
219,355371,355373,0.025873923674225807,0.06183459237217903,1.062252163887024,22.53847312927246,8.423978805541992,-3.3455121517181396,-0.7274636030197144,1.4474276304244995,0.33748310804367065,0.8691244721412659,-1.5545705556869507,9.185308456420898
220,355381,355383,0.05604953318834305,0.03218553215265274,1.1329917907714844,22.029401779174805,13.347804069519043,-4.047301769256592,-0.7319633960723877,1.4429278373718262,0.34498274326324463,0.6998243927955627,-1.1587849855422974,9.152491569519043
221,355391,355393,0.05227397754788399,0.09282489120960236,0.9972407817840576,15.727715492248535,14.89266300201416,-4.237552165985107,-0.7289635539054871,1.4549272060394287,0.33898305892944336,0.4899604916572571,-1.180144190788269,9.144455909729004
222,355401,355403,0.04093552008271217,0.06811829656362534,1.0045825242996216,8.953540802001953,13.056926727294922,-4.954568386077881,-0.7244637608528137,1.4384280443191528,0.34648266434669495,0.2530227303504944,-0.8858194947242737,9.114425659179688
223,355411,355413,0.027615774422883987,-0.006337799597531557,1.0445970296859741,2.6504344940185547,6.3827924728393555,-5.827844619750977,-0.7259637117385864,1.421928882598877,0.341982901096344,0.2762666344642639,-1.0200133323669434,9.036848068237305
224,355421,355423,0.026034776121377945,0.03530637174844742,0.9425246715545654,-0.5891264081001282,-0.8638673424720764,-6.800062656402588,-0.7094644904136658,1.4384280443191528,0.3434828221797943,0.16596248745918274,-0.8774815201759338,8.978941917419434
225,355431,355433,0.04212067276239395,0.06958914548158646,1.0359165668487549,-1.5898630619049072,-7.4688591957092285,-7.371309280395508,-0.722963809967041,1.4309284687042236,0.33598318696022034,0.2963436245918274,-1.1426962614059448,8.904552459716797
226,355441,355443,0.009152844548225403,-0.017861634492874146,1.050699234008789,2.20670747756958,-10.21799087524414,-7.423593044281006,-0.7124643921852112,1.4294284582138062,0.33748310804367065,0.4067951738834381,-1.0685268640518188,8.820611953735352
227,355451,355453,0.004985463805496693,0.016216251999139786,1.0541284084320068,10.208544731140137,-7.871077537536621,-7.915933132171631,-0.7274636030197144,1.4324283599853516,0.3404829800128937,0.4204683303833008,-0.927297830581665,8.759021759033203
228,355461,355463,0.06288480013608932,0.006877976469695568,1.1182620525360107,15.12759017944336,-0.742099404335022,-8.820123672485352,-0.7094644904136658,1.4294284582138062,0.33448326587677,0.5337426662445068,-0.9200581312179565,8.67618179321289
229,355471,355473,0.01961800456047058,0.008174697868525982,1.0117520093917847,18.226064682006836,5.719645023345947,-9.368586540222168,-0.7169641256332397,1.4249287843704224,0.33898305892944336,0.5107637643814087,-0.7961804866790771,8.591120719909668
230,355481,355483,-0.020249830558896065,0.07318443059921265,0.9740890264511108,23.386781692504883,9.725198745727539,-9.82041072845459,-0.722963809967041,1.4279285669326782,0.341982901096344,0.40932101011276245,-0.6849325299263,8.506021499633789
231,355491,355493,-0.0005489889299497008,0.015877636149525642,1.0962094068527222,23.418909072875977,10.93555736541748,-10.3016357421875,-0.7289635539054871,1.4159291982650757,0.3329833447933197,0.24299763143062592,-0.38388872146606445,8.41383171081543
232,355501,355503,0.027923082932829857,0.0546591617166996,0.9699361324310303,20.483407974243164,8.58265495300293,-10.499856948852539,-0.7274636030197144,1.4174290895462036,0.3314834237098694,0.10379226505756378,-0.10020872205495834,8.312050819396973
233,355511,355513,0.015199688263237476,0.038920652121305466,1.0719186067581177,14.797209739685059,3.1436703205108643,-10.1959810256958,-0.7124643921852112,1.4114294052124023,0.33448326587677,0.22970959544181824,-0.0033226357772946358,8.187344551086426
234,355521,355523,0.018770979717373848,0.012148971669375896,1.003162145614624,10.187027931213379,-2.5138099193573,-9.149889945983887,-0.7199639678001404,1.4159291982650757,0.33898305892944336,0.18906255066394806,0.24637587368488312,8.090076446533203
235,355531,355533,0.03131541237235069,0.012138294987380505,0.996270477771759,5.54367208480835,-5.645064353942871,-7.749821662902832,-0.7274636030197144,1.4114294052124023,0.33748310804367065,0.22648370265960693,0.19523073732852936,7.997572422027588
236,355541,355543,0.01910577155649662,0.03482848405838013,0.9875015616416931,0.7496485114097595,-7.834749221801758,-6.295747756958008,-0.7109644412994385,1.3979300260543823,0.32998350262641907,0.315074622631073,0.28971895575523376,7.918822765350342
237,355551,355553,0.0021980293095111847,0.04944199323654175,0.9977208375930786,1.662649393081665,-7.6565351486206055,-5.200779438018799,-0.7259637117385864,1.406929612159729,0.32698363065719604,0.43045568466186523,0.26045578718185425,7.855384826660156
238,355561,355563,0.002388156484812498,0.06619185954332352,0.9657014608383179,2.114825487136841,-5.542624473571777,-3.502943277359009,-0.7109644412994385,1.4189289808273315,0.33598318696022034,0.5356901288032532,0.368876188993454,7.805800914764404
239,355571,355573,-0.0056284405291080475,0.12477147579193115,0.8852033615112305,5.0755157470703125,1.1673502922058105,-2.043872356414795,-0.7199639678001404,1.3949302434921265,0.341982901096344,0.5591082572937012,0.2507835030555725,7.769825458526611
240,355581,355583,-0.008353772573173046,0.03011240065097809,0.9740504622459412,6.589050769805908,7.185781002044678,-1.2445573806762695,-0.7334632873535156,1.420428991317749,0.33448326587677,0.2851893901824951,0.5059553384780884,7.750176906585693
241,355591,355593,-0.0009195802267640829,-0.061433155089616776,1.0341126918792725,8.602814674377441,11.710975646972656,-1.3731951713562012,-0.730463445186615,1.4144293069839478,0.33748310804367065,0.2163374423980713,0.36103320121765137,7.731722354888916
242,355601,355603,0.014367122203111649,-0.013237746432423592,1.0139031410217285,7.823540210723877,10.660529136657715,-1.7242772579193115,-0.7199639678001404,1.4159291982650757,0.3329833447933197,0.0863799899816513,0.5181267857551575,7.717155456542969
243,355611,355613,0.04678564518690109,-0.04329124838113785,1.1184606552124023,6.314639568328857,4.244998455047607,-1.8963491916656494,-0.7199639678001404,1.4189289808273315,0.33598318696022034,-0.0724678635597229,0.48083898425102234,7.693841457366943
244,355621,355623,0.009495317935943604,0.032876431941986084,1.0260062217712402,8.213205337524414,-1.288799524307251,-2.439025640487671,-0.7259637117385864,1.4249287843704224,0.341982901096344,-0.06492969393730164,0.6198241114616394,7.679895877838135
245,355631,355633,0.0322868749499321,0.07896449416875839,1.011895775794983,11.864446640014648,-8.007110595703125,-3.0530312061309814,-0.7154642343521118,1.4114294052124023,0.3434828221797943,-0.020291414111852646,0.47890400886535645,7.64959192276001
246,355641,355643,0.02165851555764675,-0.08929464221000671,1.047523856163025,14.030511856079102,-12.615619659423828,-2.5261006355285645,-0.7184640765190125,1.405429720878601,0.33448326587677,0.03768596425652504,0.7081686854362488,7.617851257324219
247,355651,355653,0.007866064086556435,-0.016593003645539284,1.023046851158142,16.953144073486328,-14.075165748596191,-3.0163581371307373,-0.7274636030197144,1.4144293069839478,0.32848358154296875,0.2333151400089264,0.9763596057891846,7.602017879486084
248,355661,355663,0.0016370639204978943,-0.03683076798915863,1.0807777643203735,15.80812931060791,-14.786520957946777,-2.874919891357422,-0.7169641256332397,1.4099295139312744,0.3509824573993683,0.4726896584033966,1.1647320985794067,7.583451747894287
249,355671,355673,-0.032755475491285324,0.012829131446778774,0.9669692516326904,9.039422988891602,-14.042742729187012,-3.803053617477417,-0.7169641256332397,1.4039298295974731,0.34798258543014526,0.4793495833873749,1.3721778392791748,7.529238224029541
250,355681,355683,-0.012549985200166702,0.09584932029247284,0.8805775046348572,-1.5471093654632568,-12.581753730773926,-4.844955921173096,-0.7109644412994385,1.406929612159729,0.3239837884902954,0.6149904131889343,1.295651912689209,7.482882499694824
251,355691,355693,0.01913393847644329,-0.02713748626410961,1.0422154664993286,-11.638829231262207,-10.721726417541504,-5.254510879516602,-0.7199639678001404,1.4039298295974731,0.32998350262641907,0.8203211426734924,1.303830623626709,7.446798801422119
252,355701,355703,-0.04153415933251381,-0.003174686571583152,0.9589238166809082,-15.577479362487793,-3.1110823154449463,-5.2654266357421875,-0.7139642834663391,1.4159291982650757,0.33598318696022034,0.8113406896591187,1.0725666284561157,7.366118907928467
253,355711,355713,-0.029945725575089455,0.07914474606513977,0.8939564228057861,-16.32535743713379,3.5955235958099365,-4.8073577880859375,-0.7154642343521118,1.408429503440857,0.33448326587677,0.8269176483154297,0.9098559617996216,7.314622402191162
254,355721,355723,0.01560575794428587,-0.04145311936736107,1.01246976852417,-13.320108413696289,8.857207298278809,-4.444973468780518,-0.7274636030197144,1.4144293069839478,0.32848358154296875,0.7412469387054443,0.6489906907081604,7.257656097412109
255,355731,355733,0.07330524176359177,-0.03333674743771553,0.9941134452819824,-8.633832931518555,11.64369010925293,-5.3350830078125,-0.7424628734588623,1.435428261756897,0.33748310804367065,0.510997474193573,0.5370529890060425,7.181999683380127
256,355741,355743,0.028115419670939445,0.11681007593870163,0.8949462175369263,-4.133199214935303,7.409231185913086,-5.903351306915283,-0.730463445186615,1.4234287738800049,0.3314834237098694,0.38565608859062195,0.5247041583061218,7.129103660583496
257,355751,355753,0.08583898097276688,0.055940862745046616,1.0326502323150635,0.6440915465354919,0.7961170673370361,-6.928379535675049,-0.730463445186615,1.4234287738800049,0.3314834237098694,0.42216354608535767,0.49268922209739685,7.089782238006592
258,355761,355763,0.04260852932929993,0.004212031606584787,1.067245602607727,7.7395100593566895,-6.472423553466797,-7.747286319732666,-0.730463445186615,1.4234287738800049,0.3314834237098694,0.5935430526733398,0.39916491508483887,7.050832271575928
259,355771,355773,-0.0037585850805044174,0.0250377357006073,0.9696043729782104,14.108796119689941,-8.603402137756348,-7.497730255126953,-0.730463445186615,1.4234287738800049,0.3314834237098694,0.46260783076286316,0.5065481662750244,6.929755210876465
260,355781,355783,-0.020459380000829697,0.0505296066403389,0.8749633431434631,20.670469284057617,-7.781099796295166,-7.453920841217041,-0.7334632873535156,1.435428261756897,0.3434828221797943,0.6004458069801331,0.7401402592658997,6.8667802810668945
261,355791,355793,-0.02046857960522175,0.0861501470208168,0.9574220776557922,22.314838409423828,-4.499382972717285,-7.990986347198486,-0.7214639186859131,1.4234287738800049,0.33748310804367065,0.7293491959571838,0.8726023435592651,6.802137851715088
262,355801,355803,-0.0008912275661714375,0.046581484377384186,0.9968814253807068,23.053693771362305,2.4917593002319336,-8.608489036560059,-0.7214639186859131,1.4264286756515503,0.3404829800128937,0.6728578805923462,1.273565411567688,6.706931114196777
263,355811,355813,0.020924808457493782,0.014494210481643677,0.9836493134498596,17.3190860748291,9.391357421875,-9.911694526672363,-0.7169641256332397,1.4249287843704224,0.3539822995662689,0.6208029389381409,1.3054507970809937,6.616963863372803
264,355821,355823,0.011702306568622589,0.1008208617568016,0.9804209470748901,8.785842895507812,10.235281944274902,-10.242351531982422,-0.722963809967041,1.4339282512664795,0.34498274326324463,0.5365015268325806,1.2906813621520996,6.5214152336120605
265,355831,355833,-0.01633496768772602,0.06039584055542946,1.0810413360595703,2.417342185974121,9.759427070617676,-10.201055526733398,-0.7244637608528137,1.4474276304244995,0.3434828221797943,0.3953664302825928,1.4098527431488037,6.410321235656738
266,355841,355843,-0.007076013367623091,0.037075649946928024,1.038396954536438,-2.043621063232422,10.531349182128906,-10.340778350830078,-0.7349632382392883,1.4429278373718262,0.35698214173316956,0.3612338602542877,1.326208472251892,6.3259148597717285
267,355851,355853,-0.0007578356307931244,0.048297252506017685,0.9171006083488464,-5.0111284255981445,11.772074699401855,-10.747801780700684,-0.7334632873535156,1.435428261756897,0.33748310804367065,0.14651919901371002,1.4116028547286987,6.20095157623291
268,355861,355863,-0.0009632749715819955,0.07727748900651932,1.0409985780715942,-6.515279769897461,12.399582862854004,-11.635235786437988,-0.736463189125061,1.435428261756897,0.3434828221797943,0.15947401523590088,1.4157248735427856,6.128281593322754
269,355871,355873,-0.027857055887579918,0.07888686656951904,1.1291159391403198,-6.130793571472168,9.852936744689941,-12.969746589660645,-0.7349632382392883,1.4519274234771729,0.34498274326324463,0.036115389317274094,1.3154393434524536,6.00667667388916
270,355881,355883,-0.02333085425198078,0.0910160169005394,0.991866409778595,-4.116129398345947,4.073394775390625,-13.585264205932617,-0.7274636030197144,1.444427728652954,0.3404829800128937,-0.07167632132768631,1.2532261610031128,5.8741230964660645
271,355891,355893,-0.015059578232467175,0.06066594272851944,0.9415057301521301,-1.737102746963501,-3.0303330421447754,-14.842548370361328,-0.7334632873535156,1.444427728652954,0.3494825065135956,-0.06765812635421753,1.306414246559143,5.746644020080566
272,355901,355903,-0.0027168039232492447,0.049467556178569794,1.0185149908065796,-0.7078410983085632,-5.030563831329346,-15.758118629455566,-0.7274636030197144,1.4384280443191528,0.34648266434669495,-0.08505578339099884,1.2215008735656738,5.575203895568848
273,355911,355913,-0.019169041886925697,0.04252534359693527,1.0881071090698242,3.7781267166137695,-0.19917072355747223,-16.56926155090332,-0.737963080406189,1.4519274234771729,0.341982901096344,-0.011048712767660618,1.1680430173873901,5.418428897857666
274,355921,355923,0.0110208410769701,0.07395818829536438,1.0582088232040405,11.67587661743164,7.223118782043457,-17.922534942626953,-0.7334632873535156,1.4324283599853516,0.33748310804367065,-0.06812149286270142,1.1496134996414185,5.236364364624023
275,355931,355933,0.010495257563889027,0.08937724679708481,1.0005794763565063,23.09485626220703,13.31286334991455,-20.109697341918945,-0.7424628734588623,1.4414279460906982,0.3404829800128937,-0.16730430722236633,1.2720125913619995,5.0543084144592285
276,355941,355943,0.018985623493790627,-0.0077352384105324745,1.1208702325820923,32.841766357421875,17.38962173461914,-23.39484214782715,-0.7439627647399902,1.4429278373718262,0.341982901096344,-0.33642813563346863,1.5523282289505005,4.84611177444458
277,355951,355953,0.008948723785579205,-0.0697646215558052,1.1081759929656982,41.72651672363281,19.883319854736328,-25.644515991210938,-0.7514623999595642,1.4534273147583008,0.3404829800128937,-0.5218027830123901,1.7254376411437988,4.600184440612793
278,355961,355963,-0.0174882635474205,-0.011788920499384403,1.0217090845108032,48.08040237426758,21.07337188720703,-26.764488220214844,-0.7529623508453369,1.436928153038025,0.33898305892944336,-0.684268593788147,2.3309245109558105,4.379445552825928
279,355971,355973,0.03422442823648453,-0.09019890427589417,1.1910117864608765,45.741065979003906,20.748640060424805,-27.63825035095215,-0.7514623999595642,1.4294284582138062,0.34648266434669495,-0.9081102013587952,2.5916388034820557,4.0953569412231445
280,355981,355983,0.00674780085682869,0.05185845494270325,1.0878020524978638,41.357933044433594,14.809798240661621,-27.11042594909668,-0.7469626665115356,1.4249287843704224,0.3509824573993683,-1.1451194286346436,3.092010736465454,3.8291890621185303
281,355991,355993,-0.01371579710394144,0.06247450411319733,1.0788594484329224,33.034603118896484,4.01184606552124,-26.24257469177246,-0.7559621930122375,1.4309284687042236,0.3329833447933197,-1.2193447351455688,3.5352253913879395,3.5910861492156982
282,356001,356003,0.012384414672851562,0.07252801954746246,1.0191960334777832,23.168622970581055,-2.2716727256774902,-25.641794204711914,-0.7349632382392883,1.4099295139312744,0.34798258543014526,-1.1812435388565063,3.8577849864959717,3.3633806705474854
283,356011,356013,-0.006430202163755894,-0.11683085560798645,1.1256812810897827,8.973007202148438,-5.701756954193115,-25.297527313232422,-0.7529623508453369,1.3979300260543823,0.3329833447933197,-1.2471944093704224,4.075923442840576,3.080857753753662
284,356021,356023,0.018631218001246452,0.10552319139242172,0.9917287230491638,0.12533430755138397,-5.764103412628174,-23.81251335144043,-0.7544622421264648,1.408429503440857,0.3434828221797943,-1.2683537006378174,3.9162790775299072,2.7675912380218506
285,356031,356033,-0.007929540239274502,0.0442466102540493,1.0681291818618774,-5.984698295593262,-3.89890456199646,-22.729780197143555,-0.7529623508453369,1.4159291982650757,0.33898305892944336,-1.2121254205703735,3.7163331508636475,2.499891757965088
286,356041,356043,-0.08235201984643936,0.026165252551436424,1.0848004817962646,-11.360487937927246,-0.45721518993377686,-21.81398582458496,-0.7424628734588623,1.4144293069839478,0.33748310804367065,-1.237343192100525,3.6719961166381836,2.258730888366699
287,356051,356053,-0.03144640475511551,0.12867754697799683,1.030099868774414,-12.071710586547852,1.4878379106521606,-20.685062408447266,-0.7529623508453369,1.4039298295974731,0.3539822995662689,-1.2372419834136963,3.7542684078216553,2.0864782333374023
288,356061,356063,-0.039708469063043594,-0.04503738880157471,1.2371163368225098,-10.346673965454102,-0.5681371092796326,-20.36866569519043,-0.7664616703987122,1.4174290895462036,0.3434828221797943,-1.3308149576187134,3.5961861610412598,1.8370321989059448
289,356071,356073,-0.07895419001579285,0.08313316851854324,1.0459883213043213,-5.061264514923096,-5.31235408782959,-18.99163818359375,-0.7334632873535156,1.4174290895462036,0.33448326587677,-1.3200019598007202,3.438326120376587,1.625877022743225
290,356081,356083,-0.11186835169792175,-0.034934721887111664,1.2095885276794434,-0.9304625391960144,-9.6378812789917,-18.48479652404785,-0.7574620842933655,1.4024298191070557,0.3524823784828186,-1.4430745840072632,3.490882635116577,1.37204909324646
291,356091,356093,-0.059078700840473175,0.02526930719614029,1.1364785432815552,2.4481277465820312,-12.507017135620117,-17.640830993652344,-0.7559621930122375,1.4129292964935303,0.32998350262641907,-1.1351630687713623,3.3701846599578857,1.266243815422058
292,356101,356103,-0.072246253490448,0.03769247606396675,1.1053823232650757,6.001030921936035,-12.326568603515625,-17.46260643005371,-0.7514623999595642,1.3994300365447998,0.3314834237098694,-1.017747402191162,3.4115264415740967,1.0855611562728882
293,356111,356113,-0.019374346360564232,-0.06599985063076019,1.1813908815383911,4.771355152130127,-10.286952018737793,-17.15411949157715,-0.7424628734588623,1.3934303522109985,0.3314834237098694,-0.827465295791626,3.531747579574585,0.9614838361740112
294,356121,356123,-0.009565350599586964,0.09245515614748001,0.9915646314620972,-1.7535430192947388,-5.377995014190674,-16.848251342773438,-0.7319633960723877,1.391930341720581,0.34498274326324463,-0.756329357624054,3.648822546005249,0.7965312004089355
295,356131,356133,0.012143195606768131,-0.032744769006967545,1.118998646736145,-13.311990737915039,0.6877977848052979,-16.25119972229004,-0.7424628734588623,1.3934303522109985,0.33748310804367065,-0.7062662839889526,3.6103298664093018,0.6336784362792969
296,356141,356143,-0.05359818786382675,-0.006135732401162386,1.024550437927246,-25.303407669067383,5.5486979484558105,-14.839667320251465,-0.7289635539054871,1.3859306573867798,0.34498274326324463,-0.7425946593284607,3.3104124069213867,0.4273906350135803
297,356151,356153,-0.029429566115140915,0.1004662737250328,0.9325348138809204,-29.323352813720703,5.895979404449463,-13.442441940307617,-0.7274636030197144,1.3724313974380493,0.33748310804367065,-0.8471614718437195,3.0750200748443604,0.2700982391834259
298,356161,356163,-0.013480215333402157,-0.07544013112783432,1.0719373226165771,-26.55949592590332,1.8544154167175293,-12.822607040405273,-0.7349632382392883,1.391930341720581,0.32698363065719604,-0.952631950378418,2.615217447280884,0.07578285783529282
299,356171,356173,0.04239647835493088,-0.0019940482452511787,1.0102851390838623,-16.162845611572266,-3.816258668899536,-11.344245910644531,-0.7499625086784363,1.3889305591583252,0.32998350262641907,-0.9685332775115967,2.5103912353515625,-0.006687783636152744
300,356181,356183,-0.003389043267816305,-0.007334572263062,1.0041521787643433,-2.577530860900879,-7.161803245544434,-9.291815757751465,-0.7409629225730896,1.3859306573867798,0.32998350262641907,-0.8884514570236206,2.3863368034362793,-0.09367194026708603
301,356191,356193,0.0049990080296993256,0.050749145448207855,0.9589645862579346,4.794188499450684,-7.8538126945495605,-6.80735969543457,-0.7349632382392883,1.3889305591583252,0.3149842321872711,-0.8303759098052979,2.515906572341919,-0.15649236738681793
302,356201,356203,-0.004565556067973375,0.04413482919335365,0.9940428733825684,6.381990432739258,-5.35196590423584,-5.4428300857543945,-0.7319633960723877,1.3949302434921265,0.33598318696022034,-0.7066335678100586,2.6002554893493652,-0.19211360812187195
303,356211,356213,0.014635215513408184,0.022270547226071358,0.9814985394477844,2.736941337585449,-3.705190896987915,-4.560487747192383,-0.737963080406189,1.391930341720581,0.33898305892944336,-0.6231409907341003,2.547368288040161,-0.25969764590263367
304,356221,356223,-0.002881907392293215,0.05149395763874054,1.0050530433654785,-6.35030460357666,-2.7020881175994873,-4.281960487365723,-0.7319633960723877,1.3949302434921265,0.32698363065719604,-0.5676489472389221,2.629652738571167,-0.277409166097641
305,356231,356233,-0.023776501417160034,0.02832144685089588,0.9733960628509521,-17.629756927490234,-8.01919174194336,-4.813189506530762,-0.7289635539054871,1.3889305591583252,0.33898305892944336,-0.5041732788085938,2.478654146194458,-0.32727617025375366
306,356241,356243,-0.013644486665725708,-0.0061476263217628,0.9718319177627563,-24.50128173828125,-12.131070137023926,-3.9712436199188232,-0.737963080406189,1.3889305591583252,0.3209839463233948,-0.3584640920162201,2.229719638824463,-0.36422494053840637
307,356251,356253,0.026098839938640594,-0.07581016421318054,1.0034877061843872,-25.797542572021484,-13.668909072875977,-3.97172212600708,-0.7184640765190125,1.3934303522109985,0.3224838674068451,-0.2480490654706955,2.0309042930603027,-0.3984813094139099
308,356261,356263,0.013466285541653633,-0.015782788395881653,1.047479271888733,-21.910350799560547,-9.4135103225708,-4.210858345031738,-0.722963809967041,1.3949302434921265,0.3329833447933197,-0.19151800870895386,1.5936222076416016,-0.507956326007843
309,356271,356273,0.051427438855171204,0.0823361724615097,0.953117847442627,-13.73128890991211,-0.8364085555076599,-4.765689849853516,-0.7349632382392883,1.3859306573867798,0.341982901096344,-0.06896328926086426,1.2766836881637573,-0.5547297596931458
310,356281,356283,-0.0040761549025774,-0.09342575073242188,1.0849416255950928,-5.71250057220459,9.548470497131348,-5.60946798324585,-0.7199639678001404,1.3949302434921265,0.341982901096344,-0.024965956807136536,1.0677093267440796,-0.5981503129005432
311,356291,356293,-0.015857910737395287,-0.019254839047789574,1.0149049758911133,4.9290947914123535,18.037120819091797,-7.267060279846191,-0.7244637608528137,1.405429720878601,0.3314834237098694,-0.6736598014831543,1.6168577671051025,-0.7358332872390747
312,356301,356303,0.010699303820729256,0.1303292214870453,0.9474461674690247,11.631529808044434,20.256471633911133,-8.900679588317871,-0.737963080406189,1.406929612159729,0.341982901096344,-0.9284095168113708,1.6988028287887573,-0.8235801458358765
313,356311,356313,-0.009201130829751492,0.011325504630804062,0.9983859062194824,10.856646537780762,14.23882007598877,-9.99742603302002,-0.730463445186615,1.4024298191070557,0.3434828221797943,-1.0770163536071777,1.7653865814208984,-0.8987939357757568
314,356321,356323,-0.024148905649781227,-0.06079685315489769,0.9301416277885437,8.024681091308594,4.15031623840332,-10.319852828979492,-0.7409629225730896,1.3889305591583252,0.32998350262641907,-1.1864668130874634,1.8813761472702026,-0.9820860624313354
315,356331,356333,-0.0329861044883728,-0.0659651830792427,0.9303193092346191,2.4929187297821045,-7.980573654174805,-9.818163871765137,-0.7244637608528137,1.3994300365447998,0.33748310804367065,-1.1819250583648682,1.9611179828643799,-1.072149395942688
316,356341,356343,-0.04528437927365303,0.004406645894050598,0.9577276110649109,-6.2249555587768555,-19.492361068725586,-8.840930938720703,-0.7394630312919617,1.3964301347732544,0.3524823784828186,-0.9797288179397583,1.9419727325439453,-1.149001955986023
317,356351,356353,-0.03074565716087818,0.04250553995370865,0.9865858554840088,-13.585172653198242,-24.990520477294922,-7.351342678070068,-0.730463445186615,1.3934303522109985,0.3314834237098694,-0.6777821779251099,1.9919143915176392,-1.1934313774108887
318,356361,356363,-0.030797962099313736,0.057106755673885345,0.9952270984649658,-18.022247314453125,-23.824176788330078,-6.718775749206543,-0.722963809967041,1.3979300260543823,0.32998350262641907,-0.37915199995040894,1.7142783403396606,-1.2911067008972168
319,356371,356373,-0.041986338794231415,-0.008714965544641018,0.9653568863868713,-22.989917755126953,-15.654536247253418,-6.360193729400635,-0.7199639678001404,1.4129292964935303,0.33598318696022034,-0.261925607919693,1.5023539066314697,-1.3992136716842651
320,356381,356383,-0.06269808858633041,-0.07002421468496323,0.9490769505500793,-22.146068572998047,-4.259343147277832,-5.94211483001709,-0.722963809967041,1.3979300260543823,0.341982901096344,-0.07413742691278458,1.2158597707748413,-1.4699199199676514
321,356391,356393,-0.05862228199839592,-0.0008207001956179738,0.9216249585151672,-20.509580612182617,6.901589393615723,-5.92760705947876,-0.7424628734588623,1.408429503440857,0.33448326587677,-0.06358654052019119,1.0199968814849854,-1.5309699773788452
322,356401,356403,-0.03362774848937988,0.053848981857299805,0.8726060390472412,-16.706893920898438,16.34156036376953,-6.223963260650635,-0.737963080406189,1.3949302434921265,0.32998350262641907,-0.09039030224084854,1.0023095607757568,-1.5490998029708862
323,356411,356413,-0.0040185884572565556,0.029560642316937447,0.9497995972633362,-10.621923446655273,22.015087127685547,-5.403722286224365,-0.7439627647399902,1.4099295139312744,0.3329833447933197,-0.4200531542301178,0.8328863382339478,-1.6375821828842163
324,356421,356423,0.08134149014949799,-0.007691964972764254,0.9733082056045532,-6.18652868270874,20.405826568603516,-3.697362184524536,-0.7409629225730896,1.4129292964935303,0.3509824573993683,-0.7605287432670593,0.7464059591293335,-1.7026400566101074
325,356431,356433,0.09718042612075806,-0.026578275486826897,1.0253539085388184,-2.447200298309326,13.232527732849121,-2.514163017272949,-0.7454627156257629,1.4114294052124023,0.33448326587677,-0.9132776856422424,0.585693359375,-1.745876431465149
326,356441,356443,0.0294235497713089,-0.06561806052923203,1.0201631784439087,-0.35116395354270935,0.5002285242080688,-1.6729719638824463,-0.7454627156257629,1.420428991317749,0.3254837095737457,-0.9191403985023499,0.6210224032402039,-1.7500332593917847
327,356451,356453,-0.034498024731874466,-0.020221587270498276,0.9696943163871765,-3.9945483207702637,-10.225889205932617,-1.6113877296447754,-0.7319633960723877,1.4159291982650757,0.3329833447933197,-0.8563652038574219,0.5388697981834412,-1.7745774984359741
328,356461,356463,-0.04796416312456131,0.04654115438461304,0.9313154816627502,-7.641630172729492,-17.650596618652344,-1.3274894952774048,-0.7469626665115356,1.406929612159729,0.3209839463233948,-0.6348644495010376,0.3994675278663635,-1.7944430112838745
329,356471,356473,-0.02050555869936943,0.047946758568286896,0.9585014581680298,-10.326767921447754,-19.998218536376953,-0.8672652840614319,-0.737963080406189,1.4189289808273315,0.32698363065719604,-0.518433153629303,0.34479188919067383,-1.8075878620147705
330,356481,356483,0.043033991008996964,0.07163582742214203,0.9513825178146362,-13.86215591430664,-17.920061111450195,-0.616691529750824,-0.7184640765190125,1.3994300365447998,0.33748310804367065,-0.24093154072761536,0.25845006108283997,-1.8077336549758911
331,356491,356493,0.056046899408102036,0.0813758373260498,0.9764918088912964,-17.5834903717041,-13.245150566101074,-1.1005183458328247,-0.7334632873535156,1.4174290895462036,0.33448326587677,-0.01748380810022354,0.25056472420692444,-1.7953945398330688
332,356501,356503,0.027183713391423225,-0.06873198598623276,0.9792685508728027,-18.64024543762207,-7.939742565155029,-1.0962414741516113,-0.7259637117385864,1.4189289808273315,0.33598318696022034,0.19205474853515625,0.030294591560959816,-1.8133946657180786
333,356511,356513,-0.0030997013673186302,-0.11127790808677673,0.9633496403694153,-17.466215133666992,-1.9380685091018677,-1.1881362199783325,-0.7244637608528137,1.4144293069839478,0.3434828221797943,0.2543722689151764,-0.13428600132465363,-1.825440764427185
334,356521,356523,0.0021694647148251534,-0.02277265302836895,0.9354700446128845,-15.556560516357422,4.424307823181152,-1.4941847324371338,-0.7244637608528137,1.4174290895462036,0.3314834237098694,0.1455947756767273,-0.47819197177886963,-1.8512791395187378
335,356531,356533,-0.04490976780653,0.040056291967630386,0.8625696897506714,-12.406625747680664,7.8245768547058105,-1.7832149267196655,-0.730463445186615,1.4174290895462036,0.33448326587677,-0.022212553769350052,-0.48953792452812195,-1.84546959400177
336,356541,356543,-0.0033519454300403595,0.04691305756568909,0.9548066854476929,-9.788644790649414,9.135300636291504,-1.820550799369812,-0.736463189125061,1.4234287738800049,0.32848358154296875,-0.1196296364068985,-0.6727948188781738,-1.8664060831069946
337,356551,356553,0.04318351671099663,0.007741627283394337,0.9709384441375732,-4.789993762969971,4.025176525115967,-2.40440034866333,-0.7409629225730896,1.4189289808273315,0.33898305892944336,-0.028647735714912415,-0.8111788630485535,-1.9058992862701416
338,356561,356563,0.05087614431977272,-0.01170280110090971,1.0140972137451172,-0.3352513015270233,-2.4521408081054688,-2.5962440967559814,-0.7244637608528137,1.4234287738800049,0.33748310804367065,-0.06532023847103119,-0.9370535612106323,-1.937876582145691
339,356571,356573,0.003791635390371084,0.0381673239171505,0.9930253624916077,6.287696838378906,-8.873701095581055,-2.082972764968872,-0.7334632873535156,1.420428991317749,0.3404829800128937,0.08990766853094101,-0.827525794506073,-1.9733885526657104
340,356581,356583,-0.006089883856475353,0.038101162761449814,0.9808858633041382,10.79791259765625,-14.041410446166992,-2.5309462547302246,-0.7394630312919617,1.4324283599853516,0.3404829800128937,0.27894431352615356,-0.7511178851127625,-2.005969762802124
341,356591,356593,-0.06409966200590134,0.12938879430294037,0.9766925573348999,10.119185447692871,-15.169353485107422,-2.2245378494262695,-0.7274636030197144,1.420428991317749,0.3404829800128937,0.46550971269607544,-0.4810540974140167,-2.0281710624694824
342,356601,356603,-0.1139107272028923,0.18027424812316895,0.9891365766525269,7.588400363922119,-12.550664901733398,-1.9245094060897827,-0.737963080406189,1.421928882598877,0.33598318696022034,0.3749872148036957,-0.3082524836063385,-1.9993565082550049
343,356611,356613,-0.08266108483076096,0.050005897879600525,0.9961517453193665,-0.8052293658256531,-5.649435997009277,-2.093585729598999,-0.7079645991325378,1.4249287843704224,0.341982901096344,0.5830752849578857,-0.27942749857902527,-2.0402138233184814
344,356621,356623,-0.011842712759971619,-0.029131434857845306,0.9520923495292664,-9.417909622192383,1.6012176275253296,-1.3772494792938232,-0.7259637117385864,1.4429278373718262,0.34498274326324463,0.668779730796814,-0.46026378870010376,-2.0685622692108154
345,356631,356633,-0.05161963775753975,0.03201370686292648,0.9194839596748352,-16.946800231933594,7.873105525970459,-0.37246257066726685,-0.7214639186859131,1.420428991317749,0.3254837095737457,0.6487348079681396,-0.6135618090629578,-2.0778677463531494
346,356641,356643,-0.04047626256942749,0.10487029701471329,0.9698525071144104,-21.510011672973633,11.672703742980957,0.7090694904327393,-0.7349632382392883,1.4429278373718262,0.32698363065719604,0.5311514139175415,-0.6625222563743591,-2.072544813156128
347,356651,356653,0.0034470551181584597,0.03731127455830574,1.0056853294372559,-20.162017822265625,11.449109077453613,1.6039330959320068,-0.7289635539054871,1.4549272060394287,0.33598318696022034,0.34614822268486023,-0.8583135604858398,-2.050689697265625
348,356661,356663,0.018922558054327965,-0.005862177349627018,1.0453513860702515,-13.43205451965332,7.6195478439331055,2.7350404262542725,-0.736463189125061,1.4474276304244995,0.3314834237098694,0.1739002764225006,-1.1710784435272217,-2.019092082977295
349,356671,356673,0.010793258436024189,0.03584270551800728,1.0087007284164429,-5.984460830688477,1.3525841236114502,3.9787144660949707,-0.7274636030197144,1.4414279460906982,0.3254837095737457,0.08458312600851059,-1.3437542915344238,-1.9860419034957886
350,356681,356683,0.06654296815395355,0.0052732075564563274,0.9407243132591248,1.24582839012146,-2.7289650440216064,5.2607622146606445,-0.737963080406189,1.4249287843704224,0.34498274326324463,0.09882510453462601,-1.3102211952209473,-1.951794147491455
351,356691,356693,-0.006691549904644489,-0.007006182335317135,0.960929274559021,7.918193340301514,-5.361139297485352,6.285529613494873,-0.736463189125061,1.4384280443191528,0.33448326587677,0.18433810770511627,-1.1737120151519775,-1.9129995107650757
352,356701,356703,-0.04130109027028084,-0.0649869367480278,1.0373862981796265,11.561660766601562,-6.493348598480225,7.549030303955078,-0.737963080406189,1.436928153038025,0.3329833447933197,0.2971106171607971,-1.0966068506240845,-1.8648024797439575
353,356711,356713,-0.007194908335804939,-5.50945769646205e-05,0.9819827675819397,13.665124893188477,-4.591259956359863,8.737672805786133,-0.7184640765190125,1.444427728652954,0.3494825065135956,0.41251835227012634,-1.0209077596664429,-1.8001827001571655
354,356721,356723,-0.022583307698369026,0.11051861196756363,0.9678143858909607,11.130727767944336,0.7027341723442078,9.50539493560791,-0.7394630312919617,1.4384280443191528,0.33448326587677,0.41832590103149414,-0.9239675402641296,-1.6936181783676147
355,356731,356733,-0.052516769617795944,0.05824712663888931,0.9913197159767151,5.444276332855225,6.279466152191162,9.27336311340332,-0.7334632873535156,1.4324283599853516,0.3434828221797943,0.402835488319397,-0.8693599104881287,-1.592453956604004
356,356741,356743,-0.019780458882451057,-0.008541101589798927,1.008182168006897,3.6717398166656494,8.179765701293945,9.096883773803711,-0.7424628734588623,1.4414279460906982,0.34648266434669495,0.3043294847011566,-0.822572648525238,-1.4886579513549805
357,356751,356753,-0.03367994353175163,0.059622976928949356,1.0324920415878296,4.269593715667725,7.580437183380127,9.426532745361328,-0.7319633960723877,1.4489275217056274,0.3329833447933197,0.17743916809558868,-0.7409652471542358,-1.3892029523849487
358,356761,356763,0.01574503257870674,0.11361122131347656,0.9672509431838989,4.448312759399414,4.688547611236572,10.215404510498047,-0.722963809967041,1.4489275217056274,0.3239837884902954,0.07200174033641815,-0.7172629833221436,-1.2823809385299683
359,356771,356773,-0.020397504791617393,0.061568159610033035,1.0071415901184082,4.126039505004883,-1.120744228363037,9.40018367767334,-0.7289635539054871,1.4429278373718262,0.341982901096344,0.022945044562220573,-0.6776523590087891,-1.1788828372955322
360,356781,356783,0.0846337303519249,-0.09756342321634293,1.0450432300567627,3.8983278274536133,-9.739611625671387,8.579021453857422,-0.736463189125061,1.4504274129867554,0.3404829800128937,0.07721687108278275,-0.6503809690475464,-1.0996901988983154
361,356791,356793,0.018323183059692383,-0.004204281140118837,0.9974634647369385,4.893861293792725,-15.811530113220215,8.213369369506836,-0.7394630312919617,1.444427728652954,0.32848358154296875,0.2656216323375702,-0.6276782155036926,-1.0411946773529053
362,356801,356803,-0.014943028800189495,-0.0028749362099915743,0.9725969433784485,1.1591717004776,-17.168367385864258,7.578396797180176,-0.7289635539054871,1.4429278373718262,0.34798258543014526,0.46978065371513367,-0.5354380011558533,-0.9751332402229309
363,356811,356813,-0.008447814732789993,0.01818854548037052,1.0071907043457031,-0.6822903156280518,-16.407567977905273,7.228554725646973,-0.7214639186859131,1.444427728652954,0.32848358154296875,0.4033939838409424,-0.5586628317832947,-0.8151997923851013
364,356821,356823,-0.055860940366983414,0.07589763402938843,1.017891526222229,2.0739922523498535,-11.888335227966309,6.356159210205078,-0.7214639186859131,1.4504274129867554,0.3404829800128937,0.5516429543495178,-0.5295600891113281,-0.7383792996406555
365,356831,356833,0.00435231439769268,-0.007117369212210178,0.985728919506073,2.142077684402466,-5.647761344909668,6.154628753662109,-0.7289635539054871,1.4399279356002808,0.34498274326324463,0.6796295046806335,-0.4634447991847992,-0.6820144653320312
366,356841,356843,-0.03863511607050896,0.009565930813550949,1.0155292749404907,5.71347188949585,1.3318697214126587,6.509939670562744,-0.730463445186615,1.4534273147583008,0.32848358154296875,0.6964966058731079,-0.463288277387619,-0.6084159016609192
367,356851,356853,-0.02933860756456852,0.030728155747056007,1.0300776958465576,7.535402297973633,5.7746806144714355,7.155184745788574,-0.7244637608528137,1.435428261756897,0.33748310804367065,0.5377621650695801,-0.40161335468292236,-0.49938198924064636
368,356861,356863,0.02074386551976204,0.05113193392753601,0.987998902797699,8.022723197937012,5.6542181968688965,8.437623023986816,-0.7244637608528137,1.4414279460906982,0.33748310804367065,0.6114749908447266,-0.3070721924304962,-0.46741676330566406
369,356871,356873,-0.017949702218174934,-0.054342906922101974,1.0986207723617554,3.1983070373535156,-1.5047006607055664,10.58517074584961,-0.7289635539054871,1.4309284687042236,0.34498274326324463,0.6274420022964478,-0.2243032157421112,-0.4005390405654907
370,356881,356883,-0.047189198434352875,-0.015357199124991894,1.0402722358703613,0.26400026679039,-7.608449935913086,12.674445152282715,-0.722963809967041,1.4279285669326782,0.33598318696022034,0.6876824498176575,-0.21725846827030182,-0.3015729486942291
371,356891,356893,-0.05833474546670914,0.1084836944937706,1.0093241930007935,-1.7100478410720825,-12.13833999633789,15.652268409729004,-0.7274636030197144,1.4384280443191528,0.33448326587677,0.7601140141487122,-0.25643327832221985,-0.16334007680416107
372,356901,356903,-0.014103620313107967,-0.016933949664235115,1.0940756797790527,-3.0264368057250977,-13.479632377624512,17.95924949645996,-0.7334632873535156,1.435428261756897,0.32848358154296875,0.8220904469490051,-0.2523353695869446,0.008322791196405888
373,356911,356913,0.011472446843981743,0.0602961964905262,0.9670409560203552,-6.805575847625732,-12.69869327545166,20.5805721282959,-0.7124643921852112,1.4324283599853516,0.3404829800128937,0.9747716784477234,-0.20719806849956512,0.1769285500049591
374,356921,356923,0.017575902864336967,0.07689942419528961,0.9995378255844116,-11.791071891784668,-11.990192413330078,22.022991180419922,-0.7154642343521118,1.4384280443191528,0.3434828221797943,1.1912416219711304,-0.36759617924690247,0.3739163279533386
375,356931,356933,-0.02336636558175087,-0.02188475802540779,1.118930697441101,-17.209461212158203,-10.523787498474121,23.409807205200195,-0.7109644412994385,1.421928882598877,0.34798258543014526,1.3152049779891968,-0.6202332377433777,0.6097391247749329
376,356941,356943,0.016361266374588013,0.05424468219280243,0.9382163882255554,-15.710411071777344,-4.820033073425293,24.431419372558594,-0.7109644412994385,1.4279285669326782,0.33598318696022034,1.4679566621780396,-0.6385807394981384,0.8121439814567566
377,356951,356953,0.021643981337547302,-0.08280409872531891,1.1779769659042358,-12.133707046508789,3.7639541625976562,23.998838424682617,-0.7199639678001404,1.436928153038025,0.33898305892944336,1.5115673542022705,-0.8683446049690247,1.0616223812103271
378,356961,356963,-0.026309626176953316,0.07363216578960419,1.017103672027588,-5.482799530029297,9.913858413696289,23.15191650390625,-0.7214639186859131,1.4234287738800049,0.33448326587677,1.4325886964797974,-0.9506065845489502,1.3033243417739868
379,356971,356973,-0.03451712056994438,0.019952677190303802,1.1239092350006104,0.07203543186187744,12.352038383483887,21.7537784576416,-0.7349632382392883,1.421928882598877,0.31798410415649414,1.2618274688720703,-1.060630440711975,1.5608363151550293
380,356981,356983,-0.05515887960791588,0.17657575011253357,0.9916936755180359,5.096080303192139,12.071932792663574,18.792037963867188,-0.7349632382392883,1.421928882598877,0.31798410415649414,1.0409314632415771,-0.9447417855262756,1.7771815061569214
381,356991,356993,0.02048695832490921,-0.06134236603975296,1.0286978483200073,7.880169868469238,10.058741569519043,15.40089225769043,-0.722963809967041,1.436928153038025,0.33598318696022034,0.8369143605232239,-0.8885753154754639,1.9769569635391235
382,357001,357003,-0.010131069459021091,-0.08621558547019958,1.0059179067611694,11.23031234741211,3.9055042266845703,13.69810962677002,-0.7214639186859131,1.435428261756897,0.3314834237098694,0.7820180654525757,-0.7935243248939514,2.1174063682556152
383,357011,357013,-0.031007736921310425,0.04711192846298218,0.9877275228500366,12.963272094726562,-1.1524748802185059,12.832236289978027,-0.7289635539054871,1.4189289808273315,0.3329833447933197,0.7400698065757751,-0.6337159276008606,2.2493984699249268
384,357021,357023,-0.027676114812493324,0.04778109863400459,1.0703983306884766,10.304774284362793,-1.1052110195159912,13.089607238769531,-0.7169641256332397,1.4309284687042236,0.32998350262641907,1.3132535219192505,-0.537212073802948,2.2389771938323975
385,357031,357033,0.021601559594273567,0.09251543134450912,0.9364253282546997,5.000247955322266,1.9155226945877075,13.354413032531738,-0.7244637608528137,1.420428991317749,0.33448326587677,1.2829641103744507,-0.3330022692680359,2.362612009048462
386,357041,357043,-0.024501940235495567,0.037634968757629395,1.0207384824752808,-4.522297382354736,6.204954624176025,12.071920394897461,-0.7274636030197144,1.435428261756897,0.3494825065135956,1.2050607204437256,-0.3320411741733551,2.5143609046936035
387,357051,357053,-0.026671767234802246,-0.009972584433853626,1.025749683380127,-14.831269264221191,12.655245780944824,9.95206069946289,-0.7244637608528137,1.420428991317749,0.3404829800128937,1.0465582609176636,-0.48255711793899536,2.668785572052002
388,357061,357063,-0.0026347378734499216,-0.061086803674697876,1.1738072633743286,-18.396469116210938,16.515300750732422,8.11295223236084,-0.7334632873535156,1.4174290895462036,0.33748310804367065,0.8084850311279297,-0.6957664489746094,2.8016562461853027
389,357071,357073,-0.02747100405395031,0.044207848608493805,1.1138288974761963,-16.50706672668457,17.123239517211914,6.646496772766113,-0.7244637608528137,1.435428261756897,0.33448326587677,0.5769795775413513,-0.8119383454322815,2.878918409347534
390,357081,357083,0.001960828434675932,-0.10554808378219604,1.1458075046539307,-12.794526100158691,14.041787147521973,4.179764747619629,-0.7184640765190125,1.4294284582138062,0.3404829800128937,0.4088208079338074,-1.1004247665405273,2.958343267440796
391,357091,357093,-0.012878354638814926,-0.005756506230682135,1.014539122581482,-1.4711599349975586,8.18514347076416,1.6552177667617798,-0.722963809967041,1.421928882598877,0.3329833447933197,0.3883151412010193,-1.16256582736969,2.961168050765991
392,357101,357103,-0.009256350807845592,0.013297137804329395,1.0144543647766113,6.10609769821167,-2.216935873031616,-0.9093228578567505,-0.7349632382392883,1.4129292964935303,0.33598318696022034,0.2502007782459259,-1.053430438041687,2.9713377952575684
393,357111,357113,-0.09031040221452713,0.011466816999018192,1.0375556945800781,9.511260986328125,-9.578754425048828,-4.090256214141846,-0.736463189125061,1.4114294052124023,0.33448326587677,0.3295004367828369,-1.0511257648468018,2.9532103538513184
394,357121,357123,-0.04909361153841019,0.012308413162827492,1.0386981964111328,9.687119483947754,-13.50793170928955,-6.973813056945801,-0.7199639678001404,1.421928882598877,0.33598318696022034,0.46244677901268005,-0.9133373498916626,2.8967771530151367
395,357131,357133,-0.004521805327385664,-0.01481231115758419,0.9908861517906189,5.935965061187744,-11.138895988464355,-8.646485328674316,-0.7289635539054871,1.4039298295974731,0.341982901096344,0.647708535194397,-0.7905770540237427,2.8106837272644043
396,357141,357143,-0.09969265013933182,0.1292552351951599,0.7969460487365723,-0.1296996772289276,-6.700273513793945,-9.184847831726074,-0.7274636030197144,1.408429503440857,0.32848358154296875,0.7808407545089722,-0.7308672666549683,2.7205471992492676
397,357151,357153,-0.07507899403572083,-0.006402142811566591,1.044413447380066,-8.316734313964844,3.1142466068267822,-11.187712669372559,-0.7244637608528137,1.405429720878601,0.33748310804367065,0.822320282459259,-0.7078233957290649,2.626441478729248
398,357161,357163,-0.021887248381972313,0.055860552936792374,0.8400734663009644,-14.480950355529785,9.887025833129883,-13.017663955688477,-0.7319633960723877,1.3979300260543823,0.33898305892944336,0.7243291735649109,-0.7433106303215027,2.5218844413757324
399,357171,357173,-0.01847221329808235,0.04024931415915489,0.9214962124824524,-20.95762062072754,11.668045043945312,-14.93195629119873,-0.7409629225730896,1.4189289808273315,0.3239837884902954,0.6569117903709412,-1.0199984312057495,2.3974030017852783
400,357181,357183,-0.01803748309612274,0.010767153464257717,0.9425771832466125,-18.488563537597656,9.793041229248047,-16.66279411315918,-0.722963809967041,1.4159291982650757,0.34498274326324463,0.7156303524971008,-1.2394087314605713,2.209439754486084
401,357191,357193,-0.0062811169773340225,0.02570207603275776,0.9742430448532104,-11.235133171081543,4.984188079833984,-16.461816787719727,-0.722963809967041,1.4159291982650757,0.34498274326324463,0.7385284304618835,-1.3994557857513428,2.0170176029205322
402,357201,357203,-0.05655732378363609,0.005646614357829094,0.9730449318885803,-2.6582834720611572,3.1465015411376953,-15.561716079711914,-0.722963809967041,1.4159291982650757,0.34498274326324463,0.8813296556472778,-1.4372013807296753,1.8038721084594727
403,357211,357213,-0.044864680618047714,0.19753898680210114,0.8701496720314026,7.250175952911377,4.889230251312256,-15.447867393493652,-0.722963809967041,1.4159291982650757,0.34498274326324463,0.8198258876800537,-1.3359489440917969,1.640746831893921
404,357221,357223,-0.017528655007481575,0.06922932714223862,0.9570310711860657,10.466241836547852,11.36992359161377,-17.1099910736084,-0.7424628734588623,1.4264286756515503,0.3314834237098694,0.6383509635925293,-1.164742112159729,1.4981014728546143
405,357231,357233,0.03881969675421715,0.12901701033115387,0.8689004182815552,8.127326011657715,14.761429786682129,-18.62887191772461,-0.7199639678001404,1.4309284687042236,0.341982901096344,0.726938784122467,-1.232015609741211,1.299248456954956
406,357241,357243,0.05715874210000038,-0.05524937063455582,0.9810217618942261,-1.0628212690353394,17.399484634399414,-20.397512435913086,-0.7319633960723877,1.436928153038025,0.3329833447933197,0.4768460988998413,-1.145814061164856,1.1298693418502808
407,357251,357253,0.009120304137468338,-0.030794089660048485,0.9822795391082764,-8.391886711120605,18.286352157592773,-21.933591842651367,-0.7319633960723877,1.4339282512664795,0.32998350262641907,0.39420416951179504,-1.0641690492630005,0.8867270350456238
408,357261,357263,-0.03070961870253086,0.07331841439008713,0.9529844522476196,-10.70169448852539,15.665816307067871,-23.320720672607422,-0.7514623999595642,1.459426999092102,0.33748310804367065,0.29693880677223206,-1.2333664894104004,0.6534988284111023
409,357271,357273,-0.040721338242292404,0.02745695598423481,1.1005810499191284,-10.579422950744629,14.430657386779785,-23.485355377197266,-0.7484625577926636,1.444427728652954,0.3434828221797943,0.02062799595296383,-1.2960176467895508,0.43852370977401733
410,357281,357283,-0.007874533534049988,0.10450960695743561,0.9168408513069153,-2.8706860542297363,18.326709747314453,-23.06473731994629,-0.7469626665115356,1.4549272060394287,0.34798258543014526,-0.1673981100320816,-1.3315261602401733,0.20442898571491241
411,357291,357293,0.02133125253021717,-0.060005638748407364,1.0536718368530273,3.8148908615112305,20.773406982421875,-23.159292221069336,-0.7589620351791382,1.445927619934082,0.3329833447933197,-0.2720463275909424,-1.3943873643875122,-0.04634599760174751
412,357301,357303,-0.0492313988506794,0.06890139728784561,0.9787139296531677,14.00279426574707,23.350618362426758,-22.90704345703125,-0.7604619860649109,1.4534273147583008,0.32848358154296875,-0.4209425747394562,-1.4080147743225098,-0.2925128936767578
413,357311,357313,-0.03957130014896393,0.09408339112997055,1.0666085481643677,20.915294647216797,26.89220428466797,-22.880962371826172,-0.7574620842933655,1.4474276304244995,0.32848358154296875,-0.6890040636062622,-1.1838524341583252,-0.5236759781837463
414,357321,357323,-0.06982854008674622,-0.039754755795001984,1.138057827949524,22.450294494628906,27.94515609741211,-23.25938606262207,-0.7514623999595642,1.444427728652954,0.34648266434669495,-1.0066955089569092,-1.0663831233978271,-0.7445692420005798
415,357331,357333,-0.062369078397750854,0.04886997863650322,1.043329119682312,23.29694175720215,24.170804977416992,-23.480268478393555,-0.7619618773460388,1.4549272060394287,0.341982901096344,-1.2467042207717896,-0.7025880813598633,-0.9898687601089478
416,357341,357343,-0.05546753481030464,0.0454409122467041,1.0929343700408936,18.0035457611084,20.44346809387207,-24.30727195739746,-0.7589620351791382,1.4669265747070312,0.33598318696022034,-1.2901555299758911,-0.5724724531173706,-1.2747489213943481
417,357351,357353,-0.0378400981426239,-0.030995098873972893,1.0863823890686035,10.637160301208496,15.490781784057617,-23.94346809387207,-0.7589620351791382,1.4489275217056274,0.34498274326324463,-1.6993974447250366,-0.31312236189842224,-1.4695833921432495
418,357361,357363,0.010377172380685806,-0.023598376661539078,0.9976096749305725,5.518972873687744,4.792522430419922,-22.01456069946289,-0.7454627156257629,1.4384280443191528,0.3434828221797943,-1.57049560546875,-0.18727609515190125,-1.764035940170288
419,357371,357373,0.0030242116190493107,0.05976661667227745,0.9315019249916077,3.9406845569610596,-1.6399922370910645,-19.50534439086914,-0.7589620351791382,1.436928153038025,0.3329833447933197,-1.7220354080200195,-0.2757264971733093,-1.970987319946289
420,357381,357383,-0.05456152558326721,0.005800980608910322,1.047080636024475,3.44869327545166,0.13984933495521545,-17.957883834838867,-0.7679615616798401,1.4339282512664795,0.3329833447933197,-1.5774576663970947,-0.17701281607151031,-2.182483434677124
421,357391,357393,-0.04313865676522255,0.03106764703989029,1.101849913597107,5.500366687774658,4.1113810539245605,-15.756614685058594,-0.7424628734588623,1.435428261756897,0.3224838674068451,-1.6801350116729736,-0.06458010524511337,-2.331573724746704
422,357401,357403,0.020373200997710228,0.01736091822385788,1.064733624458313,8.297401428222656,12.149482727050781,-13.451345443725586,-0.7589620351791382,1.4309284687042236,0.32698363065719604,-1.7157689332962036,0.0015089325606822968,-2.488386869430542
423,357411,357413,-0.03423303738236427,-0.009077749215066433,1.0527554750442505,8.504251480102539,17.19138526916504,-9.793424606323242,-0.7649617195129395,1.4309284687042236,0.32698363065719604,-2.016017436981201,0.10943790525197983,-2.588134527206421
424,357421,357423,-0.05132698640227318,-0.008934821002185345,1.0446929931640625,6.954174041748047,18.673261642456055,-6.757171154022217,-0.7469626665115356,1.4249287843704224,0.32998350262641907,-2.1003711223602295,0.08332958072423935,-2.717465877532959
425,357431,357433,-0.030383912846446037,-0.0016941889189183712,1.0368489027023315,0.35292962193489075,12.694576263427734,-4.625081539154053,-0.7514623999595642,1.4294284582138062,0.33448326587677,-2.3231635093688965,0.15864305198192596,-2.772955894470215
426,357441,357443,-0.023713920265436172,0.010797107592225075,1.046883463859558,-3.2066266536712646,6.034623622894287,-3.1466550827026367,-0.7544622421264648,1.4264286756515503,0.33448326587677,-2.3592381477355957,0.12327790260314941,-2.8329780101776123
427,357451,357453,-0.03646435588598251,0.010186774656176567,1.0492476224899292,-5.813836097717285,3.52435302734375,-1.3187979459762573,-0.7484625577926636,1.420428991317749,0.33748310804367065,-2.4464712142944336,0.037865713238716125,-2.8710172176361084
428,357461,357463,-0.07653556764125824,-0.032132476568222046,1.0327818393707275,-5.169531345367432,0.9886540770530701,-0.011266784742474556,-0.7454627156257629,1.4174290895462036,0.3254837095737457,-2.559788465499878,0.07560649514198303,-2.849247932434082
429,357471,357473,-0.0525684580206871,-0.0050474354065954685,1.042822241783142,-3.9176623821258545,0.5508151054382324,1.109969139099121,-0.7574620842933655,1.4294284582138062,0.3314834237098694,-2.4948201179504395,0.04650574177503586,-2.846026659011841
430,357481,357483,-0.07567507028579712,-0.010946022346615791,0.9953014254570007,-4.700741767883301,-1.3945616483688354,1.8192496299743652,-0.7544622421264648,1.4024298191070557,0.3164841830730438,-2.485928535461426,0.10337121784687042,-2.802237033843994
431,357491,357493,-0.027154002338647842,0.016245542094111443,1.0276943445205688,-7.099401950836182,1.3492748737335205,1.8786861896514893,-0.7574620842933655,1.408429503440857,0.31948402523994446,-2.398837089538574,-0.004826264921575785,-2.8090388774871826
432,357501,357503,-0.020836463198065758,-0.005279150791466236,1.015967607498169,-7.394233703613281,4.747808933258057,1.9672960042953491,-0.7484625577926636,1.4114294052124023,0.3254837095737457,-2.4944653511047363,-0.14864057302474976,-2.8150198459625244
433,357511,357513,-0.03311092033982277,0.015330816619098186,1.043254017829895,-4.950925827026367,9.624483108520508,1.482149600982666,-0.7619618773460388,1.3979300260543823,0.32698363065719604,-2.5682191848754883,-0.22539588809013367,-2.7967822551727295
434,357521,357523,-0.01226615160703659,-0.016324752941727638,1.0338901281356812,1.2354503870010376,12.408790588378906,1.270094871520996,-0.7484625577926636,1.4174290895462036,0.3254837095737457,-2.7830758094787598,-0.3138439655303955,-2.7988011837005615
435,357531,357533,-0.010374789126217365,-0.01761028915643692,1.0033047199249268,3.656644821166992,9.48107624053955,1.937036395072937,-0.7559621930122375,1.4099295139312744,0.32698363065719604,-2.8010730743408203,-0.22673867642879486,-2.7579593658447266
436,357541,357543,-0.024516621604561806,-0.00536138704046607,0.9965495467185974,0.8894094824790955,7.097043991088867,2.0316622257232666,-0.7574620842933655,1.4234287738800049,0.3134843111038208,-2.910964250564575,-0.2624284327030182,-2.7695744037628174
437,357551,357553,-0.0320059210062027,-0.00029124351567588747,0.9943467974662781,-3.374912738800049,6.78498649597168,2.700765609741211,-0.7604619860649109,1.4114294052124023,0.3164841830730438,-2.85054874420166,-0.27921250462532043,-2.7589399814605713
438,357561,357563,-0.008651286363601685,0.024148132652044296,1.000022530555725,-8.793045043945312,6.490253925323486,2.7293176651000977,-0.7574620842933655,1.408429503440857,0.3164841830730438,-2.9255316257476807,-0.2220485657453537,-2.6880195140838623
439,357571,357573,-0.018123965710401535,-0.0003097990120295435,0.9820311069488525,-15.335658073425293,7.711700439453125,2.7679550647735596,-0.7679615616798401,1.4159291982650757,0.3119843900203705,-3.0718514919281006,-0.19984036684036255,-2.603717803955078
440,357581,357583,0.004608665127307177,-0.09251457452774048,0.9204733967781067,-18.254579544067383,5.295084476470947,2.7705459594726562,-0.7634618282318115,1.4114294052124023,0.3134843111038208,-3.2200121879577637,-0.4924567639827728,-2.642332077026367
441,357591,357593,-0.009674431756138802,-0.006973616313189268,0.9810608625411987,-17.40530014038086,1.8923040628433228,2.8616228103637695,-0.7634618282318115,1.4174290895462036,0.3404829800128937,-3.2473108768463135,-0.5360921621322632,-2.5438971519470215
442,357601,357603,-0.025450440123677254,0.007983727380633354,0.9980303645133972,-13.870590209960938,-3.4580585956573486,1.9218337535858154,-0.7604619860649109,1.420428991317749,0.3164841830730438,-3.279137372970581,-0.8385440111160278,-2.585299253463745
443,357611,357613,-0.01407985296100378,0.00045697393943555653,0.9765379428863525,-6.767918109893799,-7.268681526184082,1.8047795295715332,-0.7589620351791382,1.4189289808273315,0.3209839463233948,-3.2225852012634277,-0.9924514889717102,-2.5803821086883545
444,357621,357623,0.04610726237297058,-0.022384241223335266,0.9559744596481323,-1.9993016719818115,-7.627720355987549,1.6590683460235596,-0.7469626665115356,1.4129292964935303,0.3239837884902954,-3.110306739807129,-0.964492678642273,-2.5132086277008057
445,357631,357633,-0.0041371607221663,-0.025644777342677116,0.9493237733840942,0.28808799386024475,-9.752263069152832,0.6129654049873352,-0.7664616703987122,1.420428991317749,0.31048446893692017,-2.9865052700042725,-1.0124441385269165,-2.514481544494629
446,357641,357643,-0.021899070590734482,-0.008801578544080257,0.9531896114349365,-1.5256301164627075,-9.501097679138184,-0.5563585162162781,-0.7604619860649109,1.4234287738800049,0.31948402523994446,-2.8459160327911377,-0.8919019103050232,-2.4444217681884766
447,357651,357653,-0.04136933013796806,0.05742892250418663,0.947311282157898,-3.818413734436035,-8.806127548217773,-1.887834906578064,-0.7694615125656128,1.420428991317749,0.32848358154296875,-2.7036163806915283,-0.9484392404556274,-2.4732565879821777
448,357661,357663,-0.023245548829436302,-0.01280854269862175,0.9489486217498779,-9.329951286315918,-7.499719619750977,-2.8535454273223877,-0.7529623508453369,1.4099295139312744,0.31798410415649414,-2.632258653640747,-1.0492852926254272,-2.519893169403076
449,357671,357673,0.014006630517542362,-0.0713697224855423,0.9934869408607483,-14.809648513793945,-3.280343532562256,-3.4509053230285645,-0.7559621930122375,1.4039298295974731,0.3119843900203705,-2.5907018184661865,-1.2338759899139404,-2.5914833545684814
450,357681,357683,-0.04749530926346779,0.01725258305668831,0.990899920463562,-16.431766510009766,-1.604431390762329,-3.438859701156616,-0.7409629225730896,1.4129292964935303,0.31798410415649414,-2.683906316757202,-1.2118580341339111,-2.5228922367095947
451,357691,357693,-0.06337841600179672,0.06403142213821411,0.9544925689697266,-10.269928932189941,-1.2414628267288208,-3.987945318222046,-0.7454627156257629,1.4324283599853516,0.3254837095737457,-2.861320734024048,-1.4166847467422485,-2.5713388919830322
452,357701,357703,0.03605567663908005,-0.0761689767241478,0.9487160444259644,0.04061782732605934,-4.634346008300781,-4.918905735015869,-0.7514623999595642,1.4294284582138062,0.3254837095737457,-2.8080499172210693,-1.4455064535140991,-2.5779027938842773
453,357711,357713,0.016942864283919334,-0.02709999866783619,0.964741587638855,15.616686820983887,-12.038546562194824,-6.821446895599365,-0.7649617195129395,1.4339282512664795,0.32998350262641907,-2.7661352157592773,-1.364756464958191,-2.5926458835601807
454,357721,357723,-0.08572506159543991,0.06030777469277382,0.9211389422416687,30.238590240478516,-22.649690628051758,-7.766718864440918,-0.7424628734588623,1.4234287738800049,0.30748462677001953,-2.523707389831543,-1.1031464338302612,-2.6203453540802
455,357731,357733,-0.10933613777160645,0.02609984204173088,0.9815990924835205,38.80290603637695,-30.281272888183594,-6.781974792480469,-0.7604619860649109,1.4144293069839478,0.31948402523994446,-2.109419822692871,-0.6882057189941406,-2.656029462814331
456,357741,357743,-0.049262478947639465,-0.04110528156161308,0.9864161610603333,40.12458801269531,-32.150367736816406,-3.9564311504364014,-0.7589620351791382,1.4279285669326782,0.32698363065719604,-1.8700999021530151,-0.36520156264305115,-2.7463881969451904
457,357751,357753,-0.018098510801792145,-0.08042478561401367,0.9753284454345703,29.94066619873047,-28.1453914642334,-0.3000698387622833,-0.7544622421264648,1.420428991317749,0.3314834237098694,-1.4713070392608643,-0.046722471714019775,-2.823615550994873
458,357761,357763,0.007474289275705814,-0.0983206257224083,0.9828099012374878,13.212761878967285,-18.708606719970703,2.64947247505188,-0.7529623508453369,1.4249287843704224,0.32698363065719604,-1.4980114698410034,0.24625496566295624,-2.788898468017578
459,357771,357773,-0.004087102599442005,0.007687016855925322,0.9701204895973206,-6.084888935089111,-8.102779388427734,4.508939266204834,-0.7439627647399902,1.4159291982650757,0.32998350262641907,-1.3160635232925415,0.18834328651428223,-2.8405025005340576
460,357781,357783,-0.04055154696106911,-0.051795631647109985,0.9526914954185486,-21.716272354125977,-2.886742115020752,6.89114236831665,-0.7514623999595642,1.4024298191070557,0.33448326587677,-1.2208391427993774,0.11396850645542145,-2.793003559112549
461,357791,357793,-0.08460057526826859,-0.062222063541412354,0.9687313437461853,-31.150062561035156,-1.5274391174316406,8.416428565979004,-0.7559621930122375,1.4189289808273315,0.3209839463233948,-1.129501223564148,-0.20396581292152405,-2.764810562133789
462,357801,357803,-0.021101761609315872,0.0015330975875258446,0.9806419610977173,-35.70629119873047,-3.92193865776062,9.131156921386719,-0.7499625086784363,1.4099295139312744,0.3209839463233948,-1.0574747323989868,-0.5814774632453918,-2.7078349590301514
463,357811,357813,0.01879979856312275,-0.023809514939785004,0.9232487678527832,-34.60554885864258,-10.13310432434082,8.634294509887695,-0.7574620842933655,1.4264286756515503,0.31948402523994446,-1.0092328786849976,-0.7415884733200073,-2.5452611446380615
464,357821,357823,0.029431674629449844,-0.07530990988016129,0.9531392455101013,-26.305431365966797,-16.5012149810791,7.0286335945129395,-0.7424628734588623,1.4264286756515503,0.31948402523994446,-1.0607997179031372,-1.232429027557373,-2.5055346488952637
465,357831,357833,-0.000987401232123375,-0.16071268916130066,0.9673761129379272,-12.919844627380371,-23.383331298828125,5.867985248565674,-0.7319633960723877,1.4279285669326782,0.32998350262641907,-0.8571714758872986,-1.2853871583938599,-2.3692946434020996
466,357841,357843,-0.03365134447813034,-0.022649703547358513,0.9717443585395813,3.711884021759033,-25.69455337524414,4.030206680297852,-0.7424628734588623,1.4174290895462036,0.33448326587677,-0.4287220537662506,-1.4639945030212402,-2.338188886642456
467,357851,357853,-0.0429990291595459,0.14214953780174255,0.9806770086288452,20.032320022583008,-25.1364803314209,3.667858839035034,-0.7469626665115356,1.4189289808273315,0.33898305892944336,-0.32444682717323303,-1.2999992370605469,-2.2544209957122803
468,357861,357863,0.006665185559540987,0.06493154913187027,0.9507017731666565,28.271190643310547,-20.130239486694336,2.3323140144348145,-0.737963080406189,1.4189289808273315,0.3239837884902954,-0.232499897480011,-0.9733588695526123,-2.1753151416778564
469,357871,357873,-0.002479009097442031,-0.011524985544383526,0.9902195930480957,26.017993927001953,-15.118470191955566,0.8656079173088074,-0.7484625577926636,1.4234287738800049,0.33748310804367065,0.138844832777977,-0.6840959191322327,-2.1617465019226074
470,357881,357883,-0.006697974167764187,-0.00025617991923354566,0.9853607416152954,16.119962692260742,-10.479473114013672,0.18431198596954346,-0.7394630312919617,1.420428991317749,0.3434828221797943,0.2841953933238983,-0.4485042989253998,-2.154719829559326
471,357891,357893,0.03224192559719086,0.06112276762723923,0.994284451007843,0.5283004641532898,-6.874382972717285,-0.9916362762451172,-0.7289635539054871,1.4249287843704224,0.32998350262641907,0.42404231429100037,-0.31718143820762634,-2.1583962440490723
472,357901,357903,-0.03490903228521347,0.01930668205022812,0.9494301080703735,-8.645268440246582,-4.096944808959961,-2.773792266845703,-0.7424628734588623,1.420428991317749,0.3404829800128937,0.43351203203201294,-0.3601359724998474,-2.170518398284912
473,357911,357913,-0.023519258946180344,-0.0009843023726716638,0.922141969203949,-12.24234676361084,-5.565479755401611,-4.573587417602539,-0.7424628734588623,1.4324283599853516,0.33748310804367065,0.2704988718032837,-0.4646468162536621,-2.1871280670166016
474,357921,357923,-0.06209414079785347,-0.09897591173648834,0.9301187992095947,-9.793468475341797,-11.844860076904297,-6.050302028656006,-0.7244637608528137,1.435428261756897,0.33748310804367065,0.44676709175109863,-0.467040091753006,-2.233139753341675
475,357931,357933,0.013206017203629017,-0.08967339992523193,1.0004996061325073,-0.07520000636577606,-18.505748748779297,-6.021740436553955,-0.7274636030197144,1.4264286756515503,0.33748310804367065,0.7255142331123352,-0.6953970789909363,-2.305678129196167
