,timestamp_start,timestamp_end,acc.x,acc.y,acc.z,gyro.x,gyro.y,gyro.z,mag.x,mag.y,mag.z,stabilizer.pitch,stabilizer.roll,stabilizer.yaw
0,276988,276990,-0.03448280319571495,-0.03465075418353081,0.9501672387123108,25.994258880615234,20.41409683227539,0.8863483667373657,-0.7544622421264648,1.3964301347732544,0.3314834237098694,-2.146348237991333,1.0868276357650757,4.578597545623779
1,276998,277000,-0.0695972740650177,-0.12177392840385437,0.9815880656242371,19.851354598999023,26.864919662475586,-0.03524058684706688,-0.7754611968994141,1.4174290895462036,0.34648266434669495,-2.538064479827881,1.1731629371643066,4.549143314361572
2,277008,277010,-0.07851248234510422,-0.0844387337565422,0.9657206535339355,7.65050745010376,17.920719146728516,-0.8509857654571533,-0.7619618773460388,1.4249287843704224,0.33898305892944336,-2.7595224380493164,1.3703745603561401,4.560586929321289
3,277018,277020,-0.05071169137954712,0.003391542471945286,0.9165137410163879,-4.8490753173828125,-4.2863640785217285,-2.748732089996338,-0.7694615125656128,1.4174290895462036,0.3404829800128937,-2.7867238521575928,1.3993415832519531,4.5503034591674805
4,277028,277030,-0.0008776826434768736,0.023410189896821976,0.9324402213096619,-14.9180269241333,-29.04474639892578,-6.315757751464844,-0.7709614634513855,1.4039298295974731,0.3329833447933197,-2.401428699493408,1.4374204874038696,4.5475969314575195
5,277038,277040,-0.015651756897568703,0.021144352853298187,1.0053287744522095,-21.359514236450195,-51.74519729614258,-8.902694702148438,-0.7574620842933655,1.4174290895462036,0.34648266434669495,-1.7282103300094604,1.1741615533828735,4.459347248077393
6,277048,277050,-0.05021105706691742,0.021698124706745148,1.0470243692398071,-20.580663681030273,-61.89679718017578,-9.72082233428955,-0.7439627647399902,1.4309284687042236,0.3599819839000702,-1.0788391828536987,0.9448702931404114,4.357365131378174
7,277058,277060,0.022907696664333344,0.03943261876702309,0.96369868516922,-16.99762725830078,-54.77493667602539,-10.720535278320312,-0.7394630312919617,1.4234287738800049,0.34648266434669495,-0.7318711876869202,0.8117243647575378,4.239260196685791
8,277068,277070,-0.026127029210329056,0.09595979005098343,0.9145767688751221,-13.5763521194458,-35.212684631347656,-11.899613380432129,-0.7439627647399902,1.4189289808273315,0.33598318696022034,-0.3805948495864868,0.6364954710006714,4.109640121459961
9,277078,277080,0.019056616351008415,0.007467797491699457,1.01775062084198,-16.289485931396484,-9.495884895324707,-13.544631004333496,-0.7439627647399902,1.4429278373718262,0.3509824573993683,0.09295422583818436,0.4510500431060791,3.9926743507385254
10,277088,277090,-0.028560183942317963,0.005511989817023277,0.9880900382995605,-17.664243698120117,12.63648509979248,-15.499234199523926,-0.7469626665115356,1.4399279356002808,0.33598318696022034,-0.464682936668396,0.5636551380157471,3.8357605934143066
11,277098,277100,-0.04246480390429497,0.08807887881994247,0.9860662817955017,-14.329437255859375,26.572891235351562,-16.396638870239258,-0.7484625577926636,1.4474276304244995,0.3524823784828186,-0.5154966115951538,0.4117558002471924,3.68933367729187
12,277108,277110,-0.06177275627851486,-0.0273809265345335,1.1198399066925049,-10.531174659729004,26.891521453857422,-17.15300178527832,-0.7664616703987122,1.4414279460906982,0.3524823784828186,-0.8413112163543701,0.3406534790992737,3.5210964679718018
13,277118,277120,-0.06691209226846695,-0.010890034027397633,1.0376991033554077,-4.100916385650635,17.560869216918945,-17.960966110229492,-0.7619618773460388,1.445927619934082,0.34798258543014526,-1.0252960920333862,0.1465785652399063,3.3464272022247314
14,277128,277130,0.013310659676790237,0.06900820136070251,0.986617386341095,5.744167327880859,1.108808159828186,-18.077058792114258,-0.7499625086784363,1.4399279356002808,0.34498274326324463,-1.0777041912078857,0.18347962200641632,3.172590970993042
15,277138,277140,-0.3731687366962433,0.07526496797800064,1.0902788639068604,12.247882843017578,-15.371979713439941,-18.299667358398438,-0.7544622421264648,1.435428261756897,0.33448326587677,-0.87802654504776,0.41491591930389404,2.9985005855560303
16,277148,277150,-0.7959832549095154,-0.10054711252450943,1.0521866083145142,13.04360580444336,-26.32842254638672,-18.491119384765625,-0.7514623999595642,1.4234287738800049,0.3404829800128937,-0.9379416108131409,0.5559574365615845,2.7974460124969482
17,277158,277160,-0.3242775499820709,-0.05372941493988037,1.0963276624679565,7.82410192489624,-31.377445220947266,-18.096900939941406,-0.7679615616798401,1.4309284687042236,0.34798258543014526,-0.49913302063941956,0.6599200367927551,2.6083412170410156
18,277168,277170,0.009797675535082817,-0.10553444921970367,1.0002368688583374,-1.9032738208770752,-33.670719146728516,-17.798179626464844,-0.7469626665115356,1.4249287843704224,0.34798258543014526,0.13829176127910614,0.7043231725692749,2.4293580055236816
19,277178,277180,-0.022672921419143677,-0.05330384150147438,0.9930694699287415,-15.4702787399292,-29.17238426208496,-17.721027374267578,-0.736463189125061,1.435428261756897,0.35548222064971924,-0.14830030500888824,0.6598330140113831,2.230212450027466
20,277188,277190,0.018320685252547264,0.009795330464839935,0.9952042102813721,-26.1124267578125,-23.16227149963379,-17.225095748901367,-0.737963080406189,1.4339282512664795,0.341982901096344,0.13853974640369415,0.47398698329925537,2.0512444972991943
21,277198,277200,-0.01713631860911846,-0.010010470636188984,1.018031358718872,-33.44466018676758,-19.991422653198242,-16.764671325683594,-0.7499625086784363,1.4399279356002808,0.3509824573993683,0.4159325957298279,0.26036587357521057,1.8738090991973877
22,277208,277210,-0.008078237064182758,0.011010929942131042,1.024024486541748,-34.703948974609375,-16.39055824279785,-16.400087356567383,-0.7514623999595642,1.4474276304244995,0.35548222064971924,0.5030146837234497,-0.2362121343612671,1.7177551984786987
23,277218,277220,-0.02255656197667122,0.012987216003239155,1.023625373840332,-32.15852737426758,-13.68159008026123,-16.289440155029297,-0.7244637608528137,1.4534273147583008,0.36448177695274353,0.7533823847770691,-0.43797406554222107,1.5397067070007324
24,277228,277230,0.0035119103267788887,0.004187160637229681,1.0400805473327637,-23.561494827270508,-12.06645679473877,-15.447608947753906,-0.7334632873535156,1.4414279460906982,0.3434828221797943,0.8144998550415039,-0.6899719834327698,1.373072862625122
25,277238,277240,0.05052346736192703,0.01697976514697075,1.052321195602417,-12.088299751281738,-10.987531661987305,-14.843314170837402,-0.7424628734588623,1.4504274129867554,0.3524823784828186,0.8510602116584778,-0.9300636053085327,1.230292797088623
26,277248,277250,-0.005865116603672504,-0.0337141752243042,1.0610002279281616,-1.5072308778762817,-11.678756713867188,-14.93494987487793,-0.7319633960723877,1.436928153038025,0.34798258543014526,0.8811558485031128,-0.9094293713569641,1.060982584953308
27,277258,277260,0.04177752882242203,0.019818102940917015,1.0159838199615479,6.080639362335205,-13.618781089782715,-14.768970489501953,-0.7199639678001404,1.4429278373718262,0.33898305892944336,1.019412875175476,-0.7609397172927856,0.8823496699333191
28,277268,277270,0.0009460203582420945,-0.005709159653633833,0.9345619678497314,12.090376853942871,-16.005613327026367,-14.21866512298584,-0.7289635539054871,1.4339282512664795,0.341982901096344,1.220106601715088,-0.6209836602210999,0.7311691045761108
29,277278,277280,0.03918718174099922,0.03507009521126747,1.0109541416168213,11.232638359069824,-17.169532775878906,-13.971305847167969,-0.7244637608528137,1.444427728652954,0.33748310804367065,1.4829696416854858,-0.3956063687801361,0.5542398691177368
30,277288,277290,-0.08680988103151321,0.0029230748768895864,1.0730159282684326,6.889370441436768,-15.8430757522583,-13.98172664642334,-0.730463445186615,1.435428261756897,0.33748310804367065,1.4125529527664185,-0.39184606075286865,0.46534764766693115
31,277298,277300,-0.03312968090176582,-0.003700368572026491,1.1231492757797241,-3.55357027053833,-13.259034156799316,-14.083914756774902,-0.7319633960723877,1.436928153038025,0.34798258543014526,1.7695484161376953,-0.4494997262954712,0.3275650441646576
32,277308,277310,0.03040529601275921,-0.006419789511710405,1.0069606304168701,-13.228575706481934,-11.681327819824219,-13.805262565612793,-0.7154642343521118,1.4474276304244995,0.3524823784828186,1.6690940856933594,-0.5902730822563171,0.2315141260623932
33,277318,277320,0.044078174978494644,-0.020685140043497086,0.9410163760185242,-19.408445358276367,-10.56397819519043,-14.036612510681152,-0.7394630312919617,1.4324283599853516,0.34648266434669495,1.7269740104675293,-0.712945282459259,0.08833828568458557
34,277328,277330,-0.053514957427978516,-0.06524750590324402,0.9976129531860352,-19.172664642333984,-12.319199562072754,-14.354087829589844,-0.7109644412994385,1.4399279356002808,0.34798258543014526,1.7910481691360474,-0.8977599143981934,-0.053280267864465714
35,277338,277340,0.02929004654288292,-0.03237193822860718,0.9892503023147583,-13.504559516906738,-15.475728988647461,-14.435042381286621,-0.7154642343521118,1.4414279460906982,0.3404829800128937,1.8226248025894165,-0.9686773419380188,-0.2215089648962021
36,277348,277350,0.02499060519039631,-0.06827764213085175,0.951958954334259,-7.03458309173584,-17.716516494750977,-14.473603248596191,-0.7274636030197144,1.4294284582138062,0.33748310804367065,2.1152615547180176,-1.2166508436203003,-0.3171147406101227
37,277358,277360,0.09342753887176514,0.03266081586480141,0.9204970002174377,-1.0458515882492065,-18.143157958984375,-14.396122932434082,-0.7124643921852112,1.4294284582138062,0.3434828221797943,2.147805690765381,-1.1954097747802734,-0.4535919427871704
38,277368,277370,0.086875319480896,0.06432094424962997,0.9153708219528198,2.6012113094329834,-16.406694412231445,-14.60281753540039,-0.7274636030197144,1.4174290895462036,0.34648266434669495,2.3802449703216553,-1.2311099767684937,-0.5730690360069275
39,277378,277380,-0.010118195787072182,0.00047890545101836324,0.9962928891181946,4.360194683074951,-13.243247985839844,-14.59456729888916,-0.7169641256332397,1.4399279356002808,0.34798258543014526,2.428549289703369,-1.1500998735427856,-0.7149211764335632
40,277388,277390,0.039021123200654984,-0.05323142558336258,1.0800591707229614,3.518918514251709,-8.678947448730469,-14.53720474243164,-0.7274636030197144,1.435428261756897,0.3524823784828186,2.720834255218506,-1.1577308177947998,-0.87496417760849
41,277398,277400,0.023464247584342957,-0.12703493237495422,0.9852781891822815,4.598001480102539,-4.952675819396973,-13.823945999145508,-0.7109644412994385,1.4309284687042236,0.34498274326324463,2.7878313064575195,-1.0940622091293335,-1.0420931577682495
42,277408,277410,0.04874501749873161,-0.042841412127017975,0.8765543699264526,4.347958564758301,-1.7827837467193604,-12.616600036621094,-0.7199639678001404,1.4249287843704224,0.3509824573993683,2.4148197174072266,-1.0596836805343628,-1.0904507637023926
43,277418,277420,-0.028160735964775085,-0.04232983663678169,0.8907029628753662,6.085606098175049,2.3893511295318604,-12.094343185424805,-0.7154642343521118,1.4324283599853516,0.34648266434669495,2.298679828643799,-0.944959819316864,-1.2204725742340088
44,277428,277430,-0.07190901041030884,-0.017099782824516296,1.013493299484253,6.503984451293945,1.6515655517578125,-11.368553161621094,-0.7139642834663391,1.4429278373718262,0.34798258543014526,2.433096170425415,-0.8303031325340271,-1.398576259613037
45,277438,277440,-0.03960967808961868,-0.015837816521525383,0.9784289002418518,5.3789472579956055,-3.1812477111816406,-9.928336143493652,-0.7109644412994385,1.4399279356002808,0.341982901096344,2.519134998321533,-0.786577045917511,-1.5115323066711426
46,277448,277450,0.024166207760572433,-0.0699276477098465,0.918834924697876,0.6691712141036987,-7.437850475311279,-9.22148323059082,-0.7154642343521118,1.4414279460906982,0.33448326587677,2.6648473739624023,-0.6635312438011169,-1.6763476133346558
47,277458,277460,0.03977205976843834,-0.04221254959702492,0.9043772220611572,-3.4005348682403564,-11.414718627929688,-7.4076080322265625,-0.7184640765190125,1.435428261756897,0.3524823784828186,2.8147029876708984,-0.6696047782897949,-1.7666215896606445
48,277468,277470,-0.04587351903319359,-0.0904313325881958,0.9717484712600708,-9.868488311767578,-13.315526008605957,-5.565591812133789,-0.7199639678001404,1.445927619934082,0.341982901096344,2.869210958480835,-0.7037826776504517,-1.8354663848876953
49,277478,277480,-0.01012791320681572,-0.06421337276697159,1.069400429725647,-16.86026382446289,-13.686756134033203,-4.014960289001465,-0.7049647569656372,1.445927619934082,0.35698214173316956,2.9891226291656494,-0.9364889860153198,-1.8328335285186768
50,277488,277490,-0.0006807522149756551,-0.17527742683887482,0.9537792801856995,-16.939748764038086,-11.611006736755371,-2.7318356037139893,-0.7049647569656372,1.4429278373718262,0.33898305892944336,2.885239362716675,-1.0708799362182617,-1.857482671737671
51,277498,277500,0.05197370424866676,-0.028386283665895462,0.8778796195983887,-17.38249969482422,-8.202133178710938,-0.6290439963340759,-0.6989650130271912,1.4489275217056274,0.34798258543014526,3.166067123413086,-1.397071123123169,-1.8080363273620605
52,277508,277510,-0.024233078584074974,0.06810421496629715,0.8937135338783264,-17.683238983154297,-2.845484733581543,1.375563383102417,-0.7049647569656372,1.4489275217056274,0.3599819839000702,3.121168375015259,-1.4226198196411133,-1.8592132329940796
53,277518,277520,-0.07718908041715622,0.10031046718358994,1.0005152225494385,-15.43482780456543,4.397531509399414,3.7479827404022217,-0.7154642343521118,1.4474276304244995,0.3404829800128937,3.109236240386963,-1.3858308792114258,-1.9492228031158447
54,277528,277530,-0.08092673867940903,0.05958472192287445,1.0783324241638184,-11.848769187927246,11.504194259643555,6.7087812423706055,-0.7079645991325378,1.46092689037323,0.34498274326324463,3.078540086746216,-1.6634576320648193,-1.826500654220581
55,277538,277540,-0.01590237207710743,-0.042390238493680954,1.0929288864135742,-10.133125305175781,13.163503646850586,7.755716800689697,-0.7034648060798645,1.4624269008636475,0.3314834237098694,2.8187434673309326,-1.6974934339523315,-1.792502760887146
56,277548,277550,0.0549822635948658,-0.028215186670422554,1.081472396850586,-5.4703826904296875,13.196797370910645,9.643879890441895,-0.7184640765190125,1.4654266834259033,0.3494825065135956,2.6726109981536865,-1.8948500156402588,-1.6553183794021606
57,277558,277560,-0.040392983704805374,-0.014717498794198036,1.017625093460083,-3.215594530105591,9.379530906677246,10.913654327392578,-0.7094644904136658,1.444427728652954,0.33448326587677,2.514622449874878,-1.8694497346878052,-1.5931185483932495
58,277568,277570,-0.5174177289009094,-0.08372821658849716,0.9924988746643066,0.3275308609008789,5.104016304016113,11.768536567687988,-0.7199639678001404,1.4489275217056274,0.32698363065719604,2.425837278366089,-1.9465032815933228,-1.4501515626907349
59,277578,277580,-0.23650367558002472,0.02893618866801262,1.0281414985656738,5.538961887359619,-0.36328670382499695,12.177997589111328,-0.7139642834663391,1.4429278373718262,0.3329833447933197,2.421717405319214,-1.794854998588562,-1.411516547203064
60,277588,277590,0.011738160625100136,0.04138015955686569,1.014378309249878,7.415637493133545,-5.434209823608398,12.650619506835938,-0.7064646482467651,1.435428261756897,0.3614819049835205,2.5629994869232178,-1.7291895151138306,-1.310857892036438
61,277598,277600,0.05634639412164688,0.03565937653183937,1.0462793111801147,6.585789203643799,-9.069306373596191,12.765998840332031,-0.7019649147987366,1.436928153038025,0.341982901096344,2.5424141883850098,-1.5940768718719482,-1.200058937072754
62,277608,277610,0.05889415368437767,-0.028293263167142868,1.0205849409103394,3.4916956424713135,-8.722267150878906,12.902098655700684,-0.6959651708602905,1.445927619934082,0.3509824573993683,2.6183393001556396,-1.5702394247055054,-1.055873155593872
63,277618,277620,0.011573469266295433,-0.0529291033744812,0.9823428988456726,0.7981230616569519,-6.968044281005859,13.432801246643066,-0.6944652795791626,1.4384280443191528,0.3434828221797943,2.8213610649108887,-1.5254137516021729,-0.9722893238067627
64,277628,277630,0.03648800775408745,-0.14349141716957092,0.9244668483734131,-3.9465794563293457,-2.4741268157958984,14.91546630859375,-0.7064646482467651,1.4414279460906982,0.33748310804367065,2.822965383529663,-1.6045044660568237,-0.7816696166992188
65,277638,277640,0.015084004029631615,-0.05894846469163895,0.9215923547744751,-4.707863807678223,5.14642858505249,15.866079330444336,-0.7019649147987366,1.4309284687042236,0.341982901096344,2.8709983825683594,-1.7207235097885132,-0.5980162620544434
66,277648,277650,0.029282500967383385,0.034477896988391876,0.9633910655975342,-2.0872464179992676,11.48145866394043,16.304309844970703,-0.722963809967041,1.4429278373718262,0.34498274326324463,2.5755035877227783,-1.7977631092071533,-0.35772591829299927
67,277658,277660,0.05683205649256706,-0.011785677634179592,1.0359463691711426,1.3598425388336182,15.634966850280762,15.859136581420898,-0.7259637117385864,1.4549272060394287,0.3329833447933197,2.3959503173828125,-1.8369039297103882,-0.1807200014591217
68,277668,277670,0.07585036754608154,-0.07764417678117752,1.0169850587844849,6.624048233032227,16.062793731689453,16.07879638671875,-0.7109644412994385,1.4339282512664795,0.341982901096344,2.1932356357574463,-1.8151403665542603,-0.022204838693141937
69,277678,277680,0.058076538145542145,-0.035468824207782745,0.9758973717689514,12.848859786987305,12.621565818786621,16.42670249938965,-0.7169641256332397,1.4339282512664795,0.3329833447933197,2.0315780639648438,-1.6763590574264526,0.11592782288789749
70,277688,277690,-0.005008440464735031,0.04301742836833,0.959026575088501,18.707456588745117,7.663410663604736,16.661067962646484,-0.6944652795791626,1.4414279460906982,0.33748310804367065,2.082030773162842,-1.428187608718872,0.193589448928833
71,277698,277700,-0.03871222957968712,0.05763983726501465,0.9858865141868591,18.862537384033203,3.4484329223632812,17.504735946655273,-0.7214639186859131,1.4414279460906982,0.33448326587677,1.9767606258392334,-1.1502445936203003,0.32875916361808777
72,277708,277710,-0.10375723242759705,0.028441401198506355,1.0191535949707031,15.662252426147461,1.4046703577041626,18.04453468322754,-0.7259637117385864,1.4339282512664795,0.33898305892944336,1.8544604778289795,-0.9839772582054138,0.5280789732933044
73,277718,277720,-0.06159454211592674,-0.06260444968938828,0.9897595643997192,11.027745246887207,3.5932507514953613,17.525339126586914,-0.7004649639129639,1.444427728652954,0.32848358154296875,2.0162811279296875,-0.8119357824325562,0.6359871029853821
74,277728,277730,-0.07215318083763123,-0.0354074090719223,0.9302077293395996,6.048244953155518,4.300048351287842,16.904579162597656,-0.7109644412994385,1.436928153038025,0.33598318696022034,2.0077924728393555,-0.7031347751617432,0.7955429553985596
75,277738,277740,-0.03684356436133385,0.014453962445259094,0.891295313835144,1.1901136636734009,7.29102087020874,16.16707992553711,-0.7094644904136658,1.435428261756897,0.3314834237098694,2.0320773124694824,-0.8704633116722107,1.0454078912734985
76,277748,277750,-0.041526298969984055,0.12182934582233429,0.9932841062545776,-3.457728385925293,10.27171802520752,14.449919700622559,-0.722963809967041,1.436928153038025,0.32698363065719604,1.638810157775879,-0.9019391536712646,1.2835181951522827
77,277758,277760,-0.004282431211322546,-0.00949118658900261,1.0013930797576904,-4.929828643798828,11.453137397766113,13.288325309753418,-0.7214639186859131,1.4294284582138062,0.33748310804367065,1.4942089319229126,-0.9248180985450745,1.4175357818603516
78,277768,277770,0.011504881083965302,-0.07315077632665634,0.9610137343406677,-4.533272743225098,7.291359901428223,13.27415943145752,-0.7184640765190125,1.4294284582138062,0.3434828221797943,1.3863369226455688,-1.0405009984970093,1.5711209774017334
79,277778,277780,-0.013338281773030758,0.0027084907051175833,0.9697133302688599,1.2865948677062988,0.27326738834381104,12.52211856842041,-0.7214639186859131,1.4324283599853516,0.3224838674068451,1.3675638437271118,-1.0747547149658203,1.702711820602417
80,277788,277790,0.01848486438393593,0.003160173539072275,0.9627859592437744,8.893440246582031,-7.045040130615234,12.124823570251465,-0.722963809967041,1.4339282512664795,0.33898305892944336,1.4510167837142944,-0.9932762384414673,1.805604338645935
81,277798,277800,-0.05027362331748009,-0.042925845831632614,1.0817619562149048,14.848134994506836,-12.83452033996582,11.743380546569824,-0.7109644412994385,1.4519274234771729,0.34498274326324463,1.6199758052825928,-0.8390768766403198,1.8848904371261597
82,277808,277810,-0.01622164621949196,-0.11030898988246918,1.070906400680542,16.70895004272461,-15.709423065185547,11.352855682373047,-0.7094644904136658,1.435428261756897,0.33748310804367065,1.668101191520691,-0.6879351735115051,2.0119898319244385
83,277818,277820,0.005858346354216337,0.029677143320441246,0.9769523739814758,17.672025680541992,-13.34082317352295,10.321264266967773,-0.7064646482467651,1.4294284582138062,0.3494825065135956,1.811313509941101,-0.4045265018939972,2.0960803031921387
84,277828,277830,-0.03985242918133736,0.0011798585765063763,0.9941267371177673,16.72756576538086,-8.585859298706055,9.839966773986816,-0.7079645991325378,1.421928882598877,0.32998350262641907,1.9617418050765991,-0.211124449968338,2.188080310821533
85,277838,277840,0.02569000981748104,-0.075648233294487,0.94707852602005,12.664885520935059,-1.980584740638733,9.37669849395752,-0.7079645991325378,1.4339282512664795,0.33898305892944336,2.0920207500457764,-0.12693020701408386,2.2962355613708496
86,277848,277850,-0.0029461511876434088,0.0012908398639410734,0.9926655888557434,6.290595531463623,5.27377462387085,8.770015716552734,-0.7079645991325378,1.4339282512664795,0.33898305892944336,1.9533389806747437,0.008892972953617573,2.394320249557495
87,277858,277860,-0.031677111983299255,0.0036065189633518457,1.0077286958694458,0.11378026008605957,11.377039909362793,7.830147743225098,-0.7079645991325378,1.4339282512664795,0.33898305892944336,1.841369390487671,-0.030398504808545113,2.5050339698791504
88,277868,277870,-0.00799267366528511,-0.0686686784029007,0.9526570439338684,-6.382715225219727,11.32415771484375,7.439242362976074,-0.7079645991325378,1.4339282512664795,0.33898305892944336,1.6780729293823242,-0.08953966945409775,2.5963134765625
89,277878,277880,-0.03360392898321152,0.005969827063381672,0.9824880957603455,-9.50334644317627,8.951543807983398,6.91770076751709,-0.7034648060798645,1.4174290895462036,0.33448326587677,1.6089353561401367,-0.17165455222129822,2.6643896102905273
90,277888,277890,-0.014799052849411964,0.01918935775756836,1.004616379737854,-7.798229217529297,5.971273899078369,5.894985198974609,-0.722963809967041,1.4279285669326782,0.34498274326324463,1.5136855840682983,-0.2561744451522827,2.7296531200408936
91,277898,277900,0.028924256563186646,-0.014696551486849785,0.9698261022567749,-1.8323367834091187,5.471795082092285,4.7162275314331055,-0.722963809967041,1.4159291982650757,0.33598318696022034,1.4380216598510742,-0.07460381090641022,2.7252237796783447
92,277908,277910,-0.01894940249621868,0.003329613944515586,1.0720670223236084,4.015961170196533,8.044000625610352,4.682185649871826,-0.7079645991325378,1.421928882598877,0.3329833447933197,1.4257498979568481,-0.10533469915390015,2.7726683616638184
93,277918,277920,-0.050871238112449646,-0.037682149559259415,0.9970744848251343,6.207428932189941,11.425352096557617,4.862740516662598,-0.7139642834663391,1.4309284687042236,0.33598318696022034,1.3221240043640137,-0.05708213523030281,2.820160388946533
94,277928,277930,-0.002832441357895732,-0.0531282052397728,0.9465976357460022,5.267343521118164,17.383909225463867,4.885541915893555,-0.7049647569656372,1.4309284687042236,0.3149842321872711,1.1062723398208618,0.016369033604860306,2.869981050491333
95,277938,277940,-0.02434351108968258,0.029734523966908455,0.9968564510345459,3.5804710388183594,18.50079917907715,4.711402416229248,-0.7184640765190125,1.4294284582138062,0.3404829800128937,0.9015343189239502,0.06578660756349564,2.9191908836364746
96,277948,277950,0.0013589360751211643,-0.026835286989808083,1.0241210460662842,-0.8428096175193787,14.971561431884766,3.9311487674713135,-0.7124643921852112,1.4294284582138062,0.32848358154296875,0.8961790204048157,0.06316570937633514,2.963127613067627
97,277958,277960,0.03624994307756424,-0.06262096762657166,0.9682366847991943,-6.822214603424072,5.757261276245117,1.913027286529541,-0.7169641256332397,1.421928882598877,0.3539822995662689,0.7167686223983765,0.11331887543201447,2.9833600521087646
98,277968,277970,0.032424625009298325,0.03302622586488724,0.9540952444076538,-12.976408958435059,-3.8679325580596924,-0.038811102509498596,-0.7139642834663391,1.4189289808273315,0.3329833447933197,0.787630558013916,0.010912331752479076,3.005793333053589
99,277978,277980,0.012249939143657684,0.08608440309762955,0.96712726354599,-20.150211334228516,-12.366087913513184,-2.212777853012085,-0.7199639678001404,1.421928882598877,0.341982901096344,0.9306256175041199,-0.24876147508621216,3.0209262371063232
100,277988,277990,0.041998688131570816,0.00013435356959234923,1.003316879272461,-26.855510711669922,-16.168415069580078,-3.210913896560669,-0.7154642343521118,1.4324283599853516,0.33448326587677,0.8646581172943115,-0.3015469014644623,2.9679434299468994
101,277998,278000,0.04431939497590065,-0.08969639986753464,1.061254620552063,-28.148826599121094,-12.961746215820312,-3.5605263710021973,-0.7154642343521118,1.4294284582138062,0.3524823784828186,1.021583914756775,-0.6029154658317566,2.932194709777832
102,278008,278010,0.08039955049753189,-0.062396090477705,0.9900553822517395,-23.304231643676758,-6.147523403167725,-3.365521192550659,-0.7064646482467651,1.4264286756515503,0.34648266434669495,1.1863802671432495,-0.8404495716094971,2.899315357208252
103,278018,278020,0.03821360319852829,0.02238336391746998,0.9797525405883789,-16.80791664123535,2.276777744293213,-3.5832619667053223,-0.7154642343521118,1.435428261756897,0.3434828221797943,1.3605822324752808,-1.1177197694778442,2.8801469802856445
104,278028,278030,0.004446832463145256,-0.08153919875621796,1.0991315841674805,-10.578174591064453,11.327898025512695,-3.107300043106079,-0.7154642343521118,1.4624269008636475,0.3404829800128937,1.0351288318634033,-1.1318377256393433,2.8176684379577637
105,278038,278040,0.018483377993106842,-0.01663861609995365,1.0347323417663574,-3.0938689708709717,18.272933959960938,-2.0608298778533936,-0.7214639186859131,1.4414279460906982,0.33448326587677,0.8699541091918945,-1.2054029703140259,2.7868685722351074
106,278048,278050,-0.013354701921343803,0.06626172363758087,0.9814789295196533,2.164985418319702,19.74502182006836,-0.7279458045959473,-0.722963809967041,1.436928153038025,0.33598318696022034,0.7750310897827148,-1.2262730598449707,2.769953727722168
107,278058,278060,-0.09579717367887497,-0.027604570612311363,1.036885380744934,5.764411926269531,16.464000701904297,0.8262989521026611,-0.7184640765190125,1.435428261756897,0.3434828221797943,0.6170803904533386,-1.0062562227249146,2.746713399887085
108,278068,278070,-0.13013918697834015,-0.07398122549057007,1.0282455682754517,4.478607654571533,12.429884910583496,1.7243578433990479,-0.7289635539054871,1.436928153038025,0.3329833447933197,0.4530622661113739,-0.9828329086303711,2.7525384426116943
109,278078,278080,-0.02799954079091549,0.00719817727804184,0.9120774865150452,0.4197111129760742,8.240867614746094,2.0031914710998535,-0.7319633960723877,1.445927619934082,0.3509824573993683,0.30006101727485657,-0.9609152674674988,2.7743043899536133
110,278088,278090,-0.030956028029322624,0.049770787358284,1.0176419019699097,-4.7233405113220215,5.877206325531006,2.3055522441864014,-0.7124643921852112,1.4324283599853516,0.3314834237098694,0.2514197528362274,-1.0348926782608032,2.79691743850708
111,278098,278100,0.01019428763538599,-0.012424247339367867,0.9941021800041199,-9.95630168914795,2.5570452213287354,2.2339065074920654,-0.7199639678001404,1.4339282512664795,0.32698363065719604,0.16629931330680847,-1.185431957244873,2.819927453994751
112,278108,278110,-0.01241300068795681,-0.06436015665531158,0.9960605502128601,-13.380884170532227,1.9343411922454834,1.3307180404663086,-0.7184640765190125,1.4384280443191528,0.3224838674068451,0.12480740994215012,-1.357480764389038,2.838294267654419
113,278118,278120,-0.020787695422768593,-0.025485454127192497,0.9644591212272644,-11.875353813171387,1.956003189086914,1.33218514919281,-0.7169641256332397,1.4429278373718262,0.32698363065719604,0.0997123271226883,-1.3839176893234253,2.8563928604125977
114,278128,278130,0.009869769215583801,-0.013184918090701103,0.9921621680259705,-5.955181121826172,4.893770694732666,0.8764514327049255,-0.7259637117385864,1.445927619934082,0.33598318696022034,0.1896285116672516,-1.5561418533325195,2.8607683181762695
115,278138,278140,0.01107014250010252,-0.07297293096780777,1.053447961807251,1.0198547840118408,9.554007530212402,0.7595935463905334,-0.7259637117385864,1.445927619934082,0.33898305892944336,0.058340758085250854,-1.4263688325881958,2.8732969760894775
116,278148,278150,-0.0004898071638308465,-0.15170423686504364,1.0185617208480835,7.791053771972656,13.495823860168457,0.20975695550441742,-0.7274636030197144,1.4324283599853516,0.32848358154296875,-0.11811752617359161,-1.3456428050994873,2.880505323410034
117,278158,278160,-0.04299340397119522,0.021983765065670013,0.9989599585533142,13.596880912780762,14.013346672058105,-0.5230793356895447,-0.7139642834663391,1.4249287843704224,0.3239837884902954,-0.18139009177684784,-1.2036164999008179,2.87713623046875
118,278168,278170,-0.03048897162079811,0.08387891948223114,0.9971100687980652,16.93572235107422,10.115930557250977,-0.3350065350532532,-0.7289635539054871,1.4249287843704224,0.3239837884902954,-0.23754340410232544,-1.1143717765808105,2.8629262447357178
119,278178,278180,-0.03991756588220596,0.05489352345466614,1.0274324417114258,17.00332260131836,6.742059707641602,-0.08052325248718262,-0.7319633960723877,1.421928882598877,0.3329833447933197,-0.411471426486969,-0.8709387183189392,2.8696556091308594
120,278188,278190,0.04245668649673462,-0.05537119880318642,1.033719778060913,15.389961242675781,2.8045830726623535,-0.28050658106803894,-0.722963809967041,1.4339282512664795,0.32698363065719604,-0.4158998429775238,-0.7699267864227295,2.857719659805298
121,278198,278200,0.037146732211112976,-0.11454467475414276,0.9863656163215637,11.24089241027832,-5.187620639801025,0.12729337811470032,-0.722963809967041,1.4309284687042236,0.3239837884902954,-0.5520894527435303,-0.7286603450775146,2.855739116668701
122,278208,278210,0.03267182037234306,-0.10420794039964676,0.9522194862365723,7.782609462738037,-10.656758308410645,0.3286592364311218,-0.7214639186859131,1.4324283599853516,0.33448326587677,-0.5538091063499451,-0.6558887958526611,2.862370729446411
123,278218,278220,-0.006518220994621515,0.014193359762430191,1.008588194847107,2.22792649269104,-15.631282806396484,1.1119978427886963,-0.7184640765190125,1.4384280443191528,0.33448326587677,-0.32214975357055664,-0.563355565071106,2.869326591491699
124,278228,278230,0.027666684240102768,-0.027653954923152924,0.9879945516586304,-1.4683600664138794,-17.12618064880371,2.059384822845459,-0.7319633960723877,1.4399279356002808,0.3209839463233948,-0.11818039417266846,-0.5028891563415527,2.890164852142334
125,278238,278240,0.04346297308802605,-0.0024807127192616463,1.0669386386871338,-2.462681531906128,-14.774474143981934,2.6620616912841797,-0.7334632873535156,1.4294284582138062,0.33448326587677,-0.027314847335219383,-0.41792887449264526,2.9331963062286377
126,278248,278250,0.06695766746997833,-0.09251637011766434,1.0672813653945923,-3.2450008392333984,-12.130602836608887,3.1964643001556396,-0.7289635539054871,1.4249287843704224,0.32998350262641907,0.11423180252313614,-0.5819961428642273,2.9362215995788574
127,278258,278260,-0.006132024805992842,-0.07934844493865967,1.05027437210083,-3.108701467514038,-9.952956199645996,4.606115818023682,-0.730463445186615,1.4414279460906982,0.32848358154296875,0.24492432177066803,-0.5240836143493652,2.98880934715271
128,278268,278270,-0.011302203871309757,-0.020391831174492836,0.9788249731063843,-0.07796017825603485,-7.562928199768066,5.707834720611572,-0.7169641256332397,1.4189289808273315,0.3329833447933197,0.4016816020011902,-0.5820729732513428,3.0322299003601074
129,278278,278280,0.007231852971017361,0.02782837115228176,1.0451737642288208,4.272194862365723,-5.8084564208984375,6.897225379943848,-0.7214639186859131,1.4324283599853516,0.33748310804367065,0.2717165946960449,-0.638386070728302,3.08758807182312
130,278288,278290,0.04075970873236656,-0.09622441977262497,1.0700255632400513,9.568121910095215,-4.528193473815918,8.341483116149902,-0.7259637117385864,1.421928882598877,0.3329833447933197,0.49690285325050354,-0.5648229122161865,3.154914140701294
131,278298,278300,-0.05039702728390694,-0.0982205793261528,1.0487518310546875,10.518863677978516,-4.473638534545898,9.891059875488281,-0.7184640765190125,1.4264286756515503,0.3404829800128937,0.23369072377681732,-0.4367581605911255,3.2541866302490234
132,278308,278310,-0.01943054236471653,-0.008564678020775318,0.9750722646713257,7.425060272216797,-1.9289969205856323,11.562932968139648,-0.7244637608528137,1.420428991317749,0.32848358154296875,0.3122842013835907,-0.36066028475761414,3.3555338382720947
133,278318,278320,-0.04969806596636772,0.039798762649297714,1.0098114013671875,3.737355947494507,0.024154484272003174,13.162213325500488,-0.7259637117385864,1.4339282512664795,0.341982901096344,0.21227994561195374,-0.2668045461177826,3.481830358505249
134,278328,278330,-0.07029052078723907,-0.04200528562068939,1.0133984088897705,-2.746403932571411,-0.2713465690612793,14.824447631835938,-0.7199639678001404,1.406929612159729,0.32698363065719604,0.24782107770442963,-0.4131471812725067,3.588691234588623
135,278338,278340,-0.047994304448366165,-0.016013873741030693,0.9745782613754272,-5.5303053855896,0.30403241515159607,15.787918090820312,-0.7289635539054871,1.4189289808273315,0.32998350262641907,0.20105963945388794,-0.2829338610172272,3.767392635345459
136,278348,278350,-0.05814147740602493,0.035762567073106766,0.9075782299041748,-7.779409885406494,0.1140652596950531,15.938755989074707,-0.722963809967041,1.4159291982650757,0.3329833447933197,0.18757209181785583,-0.3970852494239807,3.9221065044403076
137,278358,278360,-0.006707970984280109,-0.002214941894635558,0.9544254541397095,-9.672760009765625,-1.6938799619674683,16.043081283569336,-0.7259637117385864,1.4309284687042236,0.3209839463233948,0.22929634153842926,-0.4061663746833801,4.09511137008667
138,278368,278370,-0.005155662540346384,-0.05457872524857521,1.0094594955444336,-9.989951133728027,-3.0194220542907715,16.115312576293945,-0.7169641256332397,1.4309284687042236,0.33898305892944336,0.19515445828437805,-0.5903195738792419,4.242627143859863
139,278378,278380,0.010806849226355553,-0.0865907073020935,1.015421748161316,-7.746701717376709,-7.662773609161377,16.919729232788086,-0.7259637117385864,1.421928882598877,0.3329833447933197,0.30524951219558716,-0.7559794783592224,4.395992279052734
140,278388,278390,-0.02019539661705494,0.03598403558135033,0.9335350394248962,-4.399665355682373,-12.388042449951172,17.999324798583984,-0.7154642343521118,1.4174290895462036,0.3404829800128937,0.49320393800735474,-0.7069048285484314,4.588284969329834
141,278398,278400,-0.006324036978185177,0.003607704071328044,0.951518177986145,-5.734586238861084,-15.617132186889648,18.537952423095703,-0.7259637117385864,1.4279285669326782,0.3329833447933197,0.5287802219390869,-0.8087587356567383,4.766952991485596
142,278408,278410,-0.04624486342072487,0.0225161612033844,0.9922375679016113,-7.638217449188232,-16.019859313964844,18.703426361083984,-0.7169641256332397,1.436928153038025,0.32998350262641907,0.741909921169281,-0.8576834201812744,4.959191799163818
143,278418,278420,-0.062487322837114334,0.06491240859031677,0.8939692974090576,-9.178130149841309,-10.788019180297852,18.7567138671875,-0.7079645991325378,1.4309284687042236,0.32698363065719604,0.9206921458244324,-0.9700398445129395,5.1468586921691895
144,278428,278430,0.02521735429763794,-0.10873261094093323,1.0333318710327148,-11.033936500549316,-1.8663134574890137,18.511402130126953,-0.7109644412994385,1.4309284687042236,0.33598318696022034,0.8995243310928345,-1.1625282764434814,5.323024749755859
145,278438,278440,-0.03552190586924553,-0.0027953789103776217,0.9747612476348877,-11.302239418029785,2.9972774982452393,17.881546020507812,-0.7094644904136658,1.420428991317749,0.33448326587677,0.9323300719261169,-1.3522286415100098,5.499763488769531
146,278448,278450,-0.015682516619563103,-0.0006846768665127456,0.9655283689498901,-11.822948455810547,5.147670269012451,18.349390029907227,-0.7004649639129639,1.444427728652954,0.31948402523994446,0.8734180927276611,-1.465897560119629,5.680260181427002
147,278458,278460,0.003958222921937704,0.006492241285741329,0.975021481513977,-7.458749294281006,2.1158735752105713,19.140275955200195,-0.7139642834663391,1.4579271078109741,0.33598318696022034,1.0332225561141968,-1.5576766729354858,5.864530086517334
148,278468,278470,-0.007613928522914648,0.03176301717758179,0.9973891377449036,-2.5947654247283936,-4.4022908210754395,18.92604637145996,-0.7094644904136658,1.435428261756897,0.3434828221797943,0.9642165899276733,-1.4184902906417847,6.070165634155273
149,278478,278480,0.0036306220572441816,0.002732478082180023,0.975845456123352,-0.40260568261146545,-10.355941772460938,19.39192008972168,-0.7184640765190125,1.444427728652954,0.33748310804367065,0.870110034942627,-1.657338261604309,6.254694938659668
150,278488,278490,-0.004077600315213203,0.021603591740131378,0.9885068535804749,2.7682645320892334,-14.547780990600586,20.207990646362305,-0.7094644904136658,1.444427728652954,0.33748310804367065,0.9455081820487976,-1.6312156915664673,6.460115909576416
151,278498,278500,-0.01629294455051422,0.02427523024380207,0.9893941283226013,5.562773704528809,-17.466632843017578,20.397382736206055,-0.7139642834663391,1.4399279356002808,0.33898305892944336,1.011975884437561,-1.4912630319595337,6.678934097290039
152,278508,278510,-0.05934504419565201,0.03194444254040718,0.9075640439987183,6.11611270904541,-19.028596878051758,19.515281677246094,-0.7124643921852112,1.4414279460906982,0.33748310804367065,1.2484523057937622,-1.4417953491210938,6.882757663726807
153,278518,278520,-0.022033577784895897,0.06919387727975845,0.909091055393219,4.2222466468811035,-17.663360595703125,18.107118606567383,-0.7049647569656372,1.445927619934082,0.341982901096344,1.5644558668136597,-1.3556392192840576,7.07230806350708
154,278528,278530,0.026273736730217934,-0.07078389078378677,1.1146446466445923,0.1116880252957344,-13.18006420135498,16.809551239013672,-0.7094644904136658,1.444427728652954,0.33748310804367065,1.622178077697754,-1.317237377166748,7.2565693855285645
155,278538,278540,-0.03465856984257698,0.08501655608415604,0.884389340877533,-1.4381794929504395,-5.413021564483643,16.73883819580078,-0.7034648060798645,1.4414279460906982,0.33448326587677,1.7802934646606445,-1.2961896657943726,7.424726963043213
156,278548,278550,-0.054216790944337845,0.026035305112600327,1.0098568201065063,-2.9080042839050293,0.5740017890930176,16.476924896240234,-0.7109644412994385,1.4489275217056274,0.33598318696022034,1.8752684593200684,-1.572532296180725,7.596665859222412
157,278558,278560,-0.02206815592944622,-0.06632291525602341,0.9905985593795776,-1.5054620504379272,9.196249961853027,16.76532745361328,-0.7139642834663391,1.4639267921447754,0.33598318696022034,1.7617753744125366,-1.5070759057998657,7.762427806854248
158,278568,278570,-0.009057987481355667,0.023603271692991257,0.916217565536499,2.841008186340332,10.993997573852539,16.654983520507812,-0.7079645991325378,1.436928153038025,0.33898305892944336,1.731369137763977,-1.5882599353790283,7.926891803741455
159,278578,278580,-0.02738996408879757,0.08122941106557846,1.1186918020248413,5.715379238128662,10.882173538208008,16.068185806274414,-0.7049647569656372,1.4249287843704224,0.32698363065719604,1.6358195543289185,-1.5244017839431763,8.087675094604492
160,278588,278590,0.008284083567559719,0.03577037900686264,1.0783331394195557,11.76560115814209,11.593305587768555,14.144606590270996,-0.7109644412994385,1.4429278373718262,0.33598318696022034,1.4279460906982422,-1.5679200887680054,8.256464958190918
161,278598,278600,-7.452857244061306e-05,0.039654139429330826,0.9356759190559387,14.214580535888672,7.633260726928711,12.287725448608398,-0.7139642834663391,1.4429278373718262,0.33598318696022034,1.2487257719039917,-1.367592692375183,8.39245319366455
162,278608,278610,-0.037713274359703064,0.0443146713078022,1.0064167976379395,16.283111572265625,6.599277019500732,9.776531219482422,-0.6929653286933899,1.4429278373718262,0.3329833447933197,1.1955920457839966,-1.1552703380584717,8.49792766571045
163,278618,278620,-0.005556860473006964,0.004431237932294607,0.9921265840530396,14.556365013122559,1.494690179824829,7.125,-0.6929653286933899,1.4429278373718262,0.3329833447933197,1.1190167665481567,-0.8610174655914307,8.577779769897461
164,278628,278630,-0.028385452926158905,0.019393520429730415,1.01088547706604,10.643047332763672,-4.838557243347168,5.144752502441406,-0.7199639678001404,1.4339282512664795,0.3509824573993683,1.2203311920166016,-0.978265106678009,8.653061866760254
165,278638,278640,-0.015980424359440804,0.010002710856497288,1.0789165496826172,8.432463645935059,-6.14522123336792,3.0694892406463623,-0.7199639678001404,1.4339282512664795,0.3509824573993683,1.395330786705017,-1.0877196788787842,8.705100059509277
166,278648,278650,-0.013099146075546741,-0.012906823307275772,1.056150197982788,7.812534809112549,-4.7537946701049805,1.272071123123169,-0.7019649147987366,1.436928153038025,0.33898305892944336,1.4745936393737793,-0.8930867314338684,8.717979431152344
167,278658,278660,-0.029854167252779007,0.0387749969959259,1.0350760221481323,10.2896146774292,0.8922116160392761,-0.14461079239845276,-0.7139642834663391,1.4159291982650757,0.32998350262641907,1.4959391355514526,-0.9114463329315186,8.736461639404297
168,278668,278670,-0.02578634023666382,0.02822810783982277,1.0299023389816284,15.962613105773926,7.8985419273376465,-0.45068463683128357,-0.7019649147987366,1.4309284687042236,0.32998350262641907,1.4111496210098267,-0.641679584980011,8.725110054016113
169,278678,278680,-0.07641156762838364,-0.03482459858059883,1.0857957601547241,21.645732879638672,17.26247215270996,-0.7410061955451965,-0.7064646482467651,1.4324283599853516,0.33748310804367065,1.4348273277282715,-0.4496208131313324,8.703729629516602
170,278688,278690,-0.0606573261320591,0.0698305070400238,0.951269805431366,28.04189682006836,27.16863441467285,-0.019330719485878944,-0.7094644904136658,1.435428261756897,0.33748310804367065,1.0802682638168335,0.020988238975405693,8.686202049255371
171,278698,278700,-0.004417275078594685,0.03832780942320824,1.0088754892349243,29.450380325317383,29.823078155517578,0.9479782581329346,-0.7139642834663391,1.4159291982650757,0.3329833447933197,0.8828943967819214,-0.02926742285490036,8.718017578125
172,278708,278710,0.003077780595049262,0.009007911197841167,1.0020807981491089,27.301021575927734,26.984207153320312,0.9558025002479553,-0.7154642343521118,1.4144293069839478,0.3314834237098694,0.6565414071083069,0.3753400146961212,8.7139310836792
173,278718,278720,-0.0239853598177433,0.13680610060691833,0.8696340918540955,20.189498901367188,21.388612747192383,2.163938283920288,-0.7049647569656372,1.4159291982650757,0.32698363065719604,0.4108307659626007,0.5640636086463928,8.73686408996582
174,278728,278730,-0.033718790858983994,0.005114533007144928,1.0797024965286255,11.529719352722168,14.078618049621582,3.7251551151275635,-0.7094644904136658,1.420428991317749,0.32848358154296875,0.18854746222496033,0.7230303883552551,8.767727851867676
175,278738,278740,-0.0190531387925148,0.04081006720662117,0.8700210452079773,7.616832256317139,13.217958450317383,5.2099289894104,-0.7079645991325378,1.4189289808273315,0.3329833447933197,0.02690456435084343,0.48566025495529175,8.836584091186523
176,278748,278750,-0.00643651420250535,0.034963738173246384,0.9890274405479431,4.3917646408081055,9.020194053649902,5.9636406898498535,-0.722963809967041,1.4189289808273315,0.33598318696022034,0.032675888389348984,0.47485285997390747,8.899151802062988
177,278758,278760,-0.08227474987506866,0.18263238668441772,0.9097776412963867,5.972265720367432,5.802969455718994,6.777214050292969,-0.7169641256332397,1.406929612159729,0.3329833447933197,0.0627618357539177,0.6677557229995728,8.961142539978027
178,278768,278770,0.04396103322505951,0.037862591445446014,1.033417820930481,6.848652362823486,3.3780529499053955,6.692673683166504,-0.7214639186859131,1.4174290895462036,0.33448326587677,0.06406644731760025,0.822224497795105,9.031081199645996
179,278778,278780,-0.015421845018863678,0.022684331983327866,1.0177675485610962,9.883360862731934,4.5977067947387695,6.283532619476318,-0.7259637117385864,1.4039298295974731,0.33598318696022034,0.08007057756185532,0.8911183476448059,9.098980903625488
180,278788,278790,-0.01726480945944786,0.13007719814777374,0.9215624332427979,6.2885518074035645,8.783438682556152,5.318986415863037,-0.722963809967041,1.4189289808273315,0.32698363065719604,-0.08798268437385559,1.1131409406661987,9.15251350402832
181,278798,278800,0.03731563687324524,0.01732562854886055,1.1041104793548584,-0.4588993191719055,9.289355278015137,4.946516036987305,-0.7274636030197144,1.408429503440857,0.3254837095737457,-0.2646808624267578,0.8550379872322083,9.192030906677246
182,278808,278810,-0.029888354241847992,0.02354590594768524,0.95168536901474,-6.555185794830322,10.322561264038086,4.883090019226074,-0.7214639186859131,1.4234287738800049,0.3254837095737457,-0.41550904512405396,0.7823941111564636,9.233108520507812
183,278818,278820,0.025720816105604172,-0.005507556721568108,0.9250538945198059,-9.105778694152832,7.682875156402588,5.761585235595703,-0.7274636030197144,1.405429720878601,0.32848358154296875,-0.46310660243034363,0.5882453918457031,9.287757873535156
184,278828,278830,-0.004003697074949741,0.014777895994484425,1.0723987817764282,-8.986310958862305,4.27933406829834,6.7322678565979,-0.7274636030197144,1.4144293069839478,0.3404829800128937,-0.5888471007347107,0.37598803639411926,9.331071853637695
185,278838,278840,-0.016880100592970848,0.02367437817156315,0.9577045440673828,-6.05063009262085,0.05821939557790756,6.723251819610596,-0.7289635539054871,1.4159291982650757,0.31798410415649414,-0.5614196062088013,0.44786369800567627,9.419893264770508
186,278848,278850,0.047846656292676926,0.0802321583032608,0.9635269641876221,-2.5708322525024414,-7.063417434692383,6.588596343994141,-0.7244637608528137,1.4174290895462036,0.33448326587677,-0.40837574005126953,0.5190167427062988,9.52143669128418
187,278858,278860,-0.01721029356122017,0.06937617808580399,1.0322628021240234,5.545358180999756,-8.907788276672363,8.040274620056152,-0.7184640765190125,1.408429503440857,0.3224838674068451,-0.33021360635757446,0.6117597222328186,9.600046157836914
188,278868,278870,-0.07678878307342529,-0.054633915424346924,0.9407951831817627,12.099467277526855,-6.672824859619141,9.123820304870605,-0.7169641256332397,1.4309284687042236,0.33898305892944336,-0.24256989359855652,0.6126383543014526,9.672298431396484
189,278878,278880,-0.048224955797195435,0.011728432029485703,0.9606517553329468,8.198570251464844,-5.295058250427246,10.206738471984863,-0.7334632873535156,1.4174290895462036,0.3254837095737457,-0.26007965207099915,0.7146241664886475,9.753131866455078
190,278888,278890,-0.015637969598174095,0.03529451787471771,1.0103129148483276,5.308918476104736,-2.4180688858032227,8.863517761230469,-0.737963080406189,1.421928882598877,0.34498274326324463,-0.2375192493200302,0.8434303998947144,9.853540420532227
191,278898,278900,0.001383105874992907,0.017447391524910927,1.0032682418823242,-3.299398183822632,-1.7631163597106934,7.643651962280273,-0.7169641256332397,1.4099295139312744,0.33898305892944336,-0.24560651183128357,0.7341102957725525,9.914368629455566
192,278908,278910,-0.040736183524131775,0.04663438722491264,0.9214178919792175,-11.797077178955078,-3.3826000690460205,6.006606101989746,-0.7214639186859131,1.405429720878601,0.33448326587677,-0.25027528405189514,0.6995712518692017,9.985058784484863
193,278918,278920,-0.001441185362637043,0.018397975713014603,0.9836260080337524,-16.986648559570312,-5.160565376281738,4.159970760345459,-0.7319633960723877,1.421928882598877,0.32998350262641907,-0.21949928998947144,0.550576388835907,10.034439086914062
194,278928,278930,-0.01934295892715454,0.06012347713112831,1.0308722257614136,-14.754095077514648,-6.898509502410889,2.8079845905303955,-0.7244637608528137,1.420428991317749,0.33748310804367065,-0.08953767269849777,0.371314138174057,10.084014892578125
195,278938,278940,0.0013587924186140299,0.05624329671263695,1.0236330032348633,-9.965543746948242,-6.918497562408447,1.6775627136230469,-0.7199639678001404,1.4279285669326782,0.33598318696022034,-0.024045664817094803,0.16853000223636627,10.097710609436035
196,278948,278950,0.0013928632251918316,0.023907436057925224,1.035975456237793,-1.3946343660354614,-5.3524017333984375,1.0746965408325195,-0.722963809967041,1.4249287843704224,0.32698363065719604,0.03799103572964668,0.14448580145835876,10.119542121887207
197,278958,278960,-0.05915933847427368,0.05483952909708023,1.0768479108810425,9.587712287902832,-1.5048593282699585,2.0377871990203857,-0.7274636030197144,1.420428991317749,0.33748310804367065,0.06373189389705658,0.1873718500137329,10.133711814880371
198,278968,278970,-0.006032243836671114,0.025051718577742577,1.0397993326187134,17.74896812438965,3.5209102630615234,1.2898614406585693,-0.722963809967041,1.4189289808273315,0.32998350262641907,0.09370862692594528,0.2814176380634308,10.153356552124023
199,278978,278980,-0.015914281830191612,0.019310588017106056,1.0341315269470215,14.338406562805176,8.29594898223877,0.38414984941482544,-0.7319633960723877,1.4189289808273315,0.32998350262641907,-0.0367375910282135,0.49290090799331665,10.153618812561035
200,278988,278990,-0.03139925003051758,0.06803048402070999,1.0000625848770142,10.288800239562988,13.253201484680176,-0.6200317144393921,-0.7349632382392883,1.4309284687042236,0.3209839463233948,-0.25170403718948364,0.5723930597305298,10.125710487365723
201,278998,279000,0.031663212925195694,0.03483116626739502,1.0218981504440308,0.8236175775527954,19.691587448120117,-0.6158854961395264,-0.7244637608528137,1.4234287738800049,0.3314834237098694,-0.18877267837524414,0.4696083068847656,10.137858390808105
202,279008,279010,-0.008870155550539494,0.01927206665277481,1.0435487031936646,-4.5376996994018555,23.525806427001953,-0.7353907823562622,-0.7274636030197144,1.4234287738800049,0.3314834237098694,-0.23320388793945312,0.6711776256561279,10.19650650024414
203,279018,279020,0.03778154030442238,0.018991723656654358,1.0884342193603516,-6.6671223640441895,25.680667877197266,-3.0529091358184814,-0.7244637608528137,1.4144293069839478,0.3314834237098694,-0.5586109161376953,0.520462691783905,10.155097007751465
204,279028,279030,-0.00400580745190382,0.03407754749059677,1.0799169540405273,-8.885972023010254,23.14253044128418,-4.814407825469971,-0.7244637608528137,1.4264286756515503,0.3404829800128937,-1.0138194561004639,0.20452375710010529,10.0430269241333
205,279038,279040,-0.034063562750816345,0.06808687746524811,1.0789086818695068,-6.379645347595215,18.830839157104492,-6.17360258102417,-0.7319633960723877,1.4129292964935303,0.32998350262641907,-1.1153125762939453,-0.03445197269320488,9.985221862792969
206,279048,279050,0.0060620117001235485,0.017808830365538597,1.058640956878662,2.6070282459259033,12.107650756835938,-7.81968879699707,-0.7349632382392883,1.421928882598877,0.3329833447933197,-1.33841872215271,0.017679553478956223,9.923504829406738
207,279058,279060,0.012398979626595974,0.03573228418827057,1.0733288526535034,12.752426147460938,5.5794477462768555,-10.28320026397705,-0.730463445186615,1.4114294052124023,0.3254837095737457,-1.3156460523605347,0.3050563633441925,9.90367603302002
208,279068,279070,-0.016955623403191566,0.04691924527287483,1.0765615701675415,21.506288528442383,-2.572495937347412,-12.75003719329834,-0.7214639186859131,1.4024298191070557,0.3254837095737457,-1.449845790863037,0.5291372537612915,9.785565376281738
209,279078,279080,-0.014237092807888985,0.04297083988785744,1.0612540245056152,25.76217269897461,-7.5387396812438965,-14.927329063415527,-0.7349632382392883,1.391930341720581,0.3329833447933197,-1.3409258127212524,0.8490981459617615,9.682170867919922
210,279088,279090,0.006199789699167013,0.03882762789726257,1.0431041717529297,25.57996940612793,-12.312972068786621,-17.37266731262207,-0.736463189125061,1.405429720878601,0.32848358154296875,-1.2283176183700562,1.2097277641296387,9.549699783325195
211,279098,279100,0.009337030351161957,-0.12467511743307114,1.1644700765609741,17.775970458984375,-15.431516647338867,-20.44116973876953,-0.736463189125061,1.4144293069839478,0.3224838674068451,-1.1215052604675293,1.2251603603363037,9.305797576904297
212,279108,279110,0.007853004150092602,-0.00814863946288824,1.0553255081176758,6.4300079345703125,-17.28367042541504,-22.69170570373535,-0.722963809967041,1.3889305591583252,0.33598318696022034,-0.9737715721130371,1.239039421081543,9.056441307067871
213,279118,279120,0.00530650932341814,0.026186149567365646,1.0238547325134277,-3.280870199203491,-12.966788291931152,-25.575965881347656,-0.737963080406189,1.391930341720581,0.3209839463233948,-0.7731116414070129,1.3514792919158936,8.847489356994629
214,279128,279130,0.020956385880708694,-0.006366103887557983,1.000809669494629,-9.857507705688477,-5.704361915588379,-29.009843826293945,-0.737963080406189,1.391930341720581,0.31798410415649414,-0.7229156494140625,1.2430144548416138,8.556192398071289
215,279138,279140,-0.018973955884575844,0.016630152240395546,1.0104488134384155,-9.956809043884277,5.233061790466309,-31.749448776245117,-0.7184640765190125,1.3994300365447998,0.3254837095737457,-0.8811945915222168,1.0731967687606812,8.203767776489258
216,279148,279150,-0.04280717298388481,0.0559314526617527,1.0567920207977295,-4.197140693664551,16.121667861938477,-34.393272399902344,-0.722963809967041,1.3949302434921265,0.33598318696022034,-1.001998782157898,1.0255722999572754,7.883297920227051
217,279158,279160,0.02877097949385643,-0.05908343195915222,1.0341440439224243,5.630047798156738,23.191646575927734,-37.096282958984375,-0.737963080406189,1.4009299278259277,0.3149842321872711,-1.2697254419326782,1.1041992902755737,7.541093826293945
218,279168,279170,-0.038821496069431305,0.05233773961663246,0.9146510362625122,18.924055099487305,29.478246688842773,-39.24855422973633,-0.7349632382392883,1.4039298295974731,0.31798410415649414,-1.7084746360778809,1.1438190937042236,7.114987373352051
219,279178,279180,-0.019015949219465256,-0.026789071038365364,1.0631005764007568,24.175636291503906,28.464466094970703,-40.7213134765625,-0.730463445186615,1.4024298191070557,0.31948402523994446,-2.0302984714508057,1.1926438808441162,6.670908451080322
220,279188,279190,-0.0727815106511116,0.18839924037456512,0.969549834728241,32.299774169921875,26.731271743774414,-39.843345642089844,-0.7409629225730896,1.3979300260543823,0.3149842321872711,-2.224571466445923,1.308817982673645,6.249372959136963
221,279198,279200,0.0491349920630455,-0.018022645264863968,1.0607011318206787,31.714677810668945,17.00151824951172,-40.901763916015625,-0.737963080406189,1.3979300260543823,0.3209839463233948,-2.6080312728881836,1.8400336503982544,5.894742012023926
222,279208,279210,0.02054816484451294,-0.028254449367523193,1.0156285762786865,30.730226516723633,5.5966033935546875,-40.828880310058594,-0.7424628734588623,1.3874305486679077,0.3254837095737457,-2.6734230518341064,1.9968607425689697,5.4582366943359375
223,279218,279220,-0.07627130299806595,0.09008366614580154,0.8568302392959595,26.762470245361328,-5.982386112213135,-40.70415115356445,-0.7439627647399902,1.3859306573867798,0.31798410415649414,-2.74617862701416,2.2009050846099854,5.010976791381836
224,279228,279230,-0.03374697268009186,0.18146903812885284,0.9668615460395813,18.31681251525879,-13.402099609375,-40.84213638305664,-0.7454627156257629,1.3784310817718506,0.31948402523994446,-2.532118797302246,2.5876009464263916,4.693812370300293
225,279238,279240,0.0037112929858267307,0.01770968921482563,0.9942430853843689,8.506911277770996,-17.88364601135254,-42.07107925415039,-0.7499625086784363,1.3709313869476318,0.3329833447933197,-2.3706166744232178,2.7256457805633545,4.2831854820251465
226,279248,279250,0.05293887481093407,-0.08102621883153915,0.9567183256149292,-2.0793490409851074,-17.85595703125,-41.88145065307617,-0.7274636030197144,1.3844307661056519,0.3224838674068451,-2.29783296585083,2.7792394161224365,3.836707353591919
227,279258,279260,0.020568814128637314,-0.022823309525847435,0.9530104994773865,-10.659722328186035,-15.202605247497559,-40.86320877075195,-0.7424628734588623,1.3994300365447998,0.32848358154296875,-2.0161259174346924,2.660679817199707,3.4248082637786865
228,279268,279270,-0.013022965751588345,-0.0035564377903938293,0.9673040509223938,-14.407073974609375,-7.37966251373291,-40.672080993652344,-0.7424628734588623,1.3994300365447998,0.32848358154296875,-1.9809069633483887,2.4407622814178467,2.9524126052856445
229,279278,279280,-0.03685292601585388,0.01818237453699112,1.0230742692947388,-11.071796417236328,0.4399733245372772,-40.67799377441406,-0.7424628734588623,1.3994300365447998,0.32848358154296875,-1.9171056747436523,2.283006429672241,2.5479114055633545
230,279288,279290,-0.04995860531926155,-0.03384244441986084,1.0564793348312378,-6.059749603271484,6.61253023147583,-40.5091552734375,-0.7424628734588623,1.3994300365447998,0.32848358154296875,-2.2441647052764893,2.3092093467712402,2.1110153198242188
231,279298,279300,-0.003046598518267274,0.007960832677781582,1.0126852989196777,7.228143215179443,10.232795715332031,-39.87736511230469,-0.7439627647399902,1.4039298295974731,0.3239837884902954,-2.634397506713867,2.352930784225464,1.6467764377593994
232,279308,279310,-0.03412237390875816,0.013680888339877129,0.9912063479423523,15.430682182312012,6.03242826461792,-39.327144622802734,-0.7454627156257629,1.4144293069839478,0.32848358154296875,-2.72361159324646,2.484651803970337,1.2789363861083984
233,279318,279320,-0.023673338815569878,-0.013753333128988743,0.9793885350227356,22.12236976623535,0.4753049910068512,-38.783355712890625,-0.7484625577926636,1.4024298191070557,0.31948402523994446,-2.7397806644439697,2.8140180110931396,0.9812382459640503
234,279328,279330,-0.04683374986052513,0.05189608037471771,0.9291324615478516,21.611207962036133,-8.865296363830566,-38.080787658691406,-0.7469626665115356,1.4039298295974731,0.32698363065719604,-2.6370694637298584,2.8531694412231445,0.5435445308685303
235,279338,279340,-0.02614416554570198,0.02869192138314247,0.9727400541305542,12.056693077087402,-16.130826950073242,-37.013980865478516,-0.7499625086784363,1.406929612159729,0.3239837884902954,-2.474536180496216,3.1459906101226807,0.24531236290931702
236,279348,279350,-0.049971405416727066,0.09002646803855896,1.0117653608322144,3.6698195934295654,-22.776758193969727,-36.3438835144043,-0.7484625577926636,1.3964301347732544,0.31948402523994446,-2.336498975753784,3.083350896835327,-0.21131406724452972
237,279358,279360,-0.06702954322099686,0.10857322067022324,1.0085548162460327,-4.854115009307861,-27.564146041870117,-35.681793212890625,-0.736463189125061,1.408429503440857,0.3254837095737457,-2.0236988067626953,3.0998568534851074,-0.5450673699378967
238,279368,279370,-0.07877061516046524,0.09622575342655182,0.974865734577179,-13.48892879486084,-28.722980499267578,-34.690372467041016,-0.7439627647399902,1.406929612159729,0.32998350262641907,-1.5163261890411377,2.97599720954895,-0.8413626551628113
239,279378,279380,-0.09149115532636642,0.08383873850107193,1.027121901512146,-20.47228240966797,-27.32221221923828,-32.620121002197266,-0.7409629225730896,1.3949302434921265,0.3329833447933197,-1.4365109205245972,2.9402425289154053,-1.2088019847869873
240,279388,279390,-0.019946575164794922,0.015178956091403961,1.0010097026824951,-24.14238929748535,-21.491445541381836,-30.45235252380371,-0.7349632382392883,1.4099295139312744,0.32698363065719604,-1.5723223686218262,2.5839710235595703,-1.7437143325805664
241,279398,279400,-0.026935484260320663,0.02407727763056755,1.0662288665771484,-21.75364112854004,-17.37608528137207,-26.900074005126953,-0.7424628734588623,1.3994300365447998,0.3224838674068451,-1.2497916221618652,2.3468613624572754,-1.9891386032104492
242,279408,279410,-0.021489739418029785,0.027656638994812965,1.0609811544418335,-16.32379150390625,-16.20106315612793,-25.059057235717773,-0.7469626665115356,1.4189289808273315,0.32998350262641907,-0.9845809936523438,2.0256905555725098,-2.266876220703125
243,279418,279420,-0.008039153181016445,0.07067415118217468,1.0301986932754517,-7.56556510925293,-13.108003616333008,-22.28780746459961,-0.737963080406189,1.4009299278259277,0.33598318696022034,-0.8755642771720886,1.9801596403121948,-2.490746259689331
244,279428,279430,0.053784195333719254,0.05729563161730766,0.9937824010848999,1.4320005178451538,-9.517183303833008,-19.6525936126709,-0.7319633960723877,1.4099295139312744,0.3209839463233948,-0.6910378932952881,1.9217290878295898,-2.6839048862457275
245,279438,279440,0.04127292335033417,0.05916104465723038,1.043110966682434,7.249019145965576,-7.080456733703613,-17.86155891418457,-0.7274636030197144,1.408429503440857,0.33748310804367065,-0.8445451855659485,1.8519169092178345,-3.005309581756592
246,279448,279450,0.07883018255233765,0.08741042762994766,0.9666696190834045,10.201991081237793,-5.1434783935546875,-15.207988739013672,-0.7289635539054871,1.4039298295974731,0.33598318696022034,-0.6575413942337036,2.0000555515289307,-3.109191417694092
247,279458,279460,0.07171539962291718,0.1422533392906189,0.9634019732475281,9.21251106262207,-6.87543249130249,-13.182579040527344,-0.7244637608528137,1.3904304504394531,0.33748310804367065,-0.7584444284439087,2.1121318340301514,-3.309133529663086
248,279468,279470,0.010054701939225197,0.04101597145199776,0.9542262554168701,5.789605140686035,-6.990270614624023,-11.085290908813477,-0.7319633960723877,1.4039298295974731,0.3239837884902954,-0.5635108947753906,2.2327704429626465,-3.377321720123291
249,279478,279480,-0.0009601257625035942,0.10920168459415436,1.0380760431289673,-0.42191410064697266,-11.057735443115234,-10.059903144836426,-0.730463445186615,1.405429720878601,0.32848358154296875,-0.4884866178035736,2.2259647846221924,-3.5024309158325195
250,279488,279490,0.0439017191529274,0.09744762629270554,0.9272010922431946,-6.030672073364258,-14.599088668823242,-9.076497077941895,-0.7214639186859131,1.3994300365447998,0.3314834237098694,-0.20585794746875763,2.0981605052948,-3.5823469161987305
251,279498,279500,0.012910498306155205,0.024149376899003983,0.90240079164505,-13.131998062133789,-18.021488189697266,-8.155975341796875,-0.737963080406189,1.4009299278259277,0.32998350262641907,-0.16487818956375122,1.9664942026138306,-3.7278029918670654
252,279508,279510,0.02750975452363491,-0.02266007475554943,0.8796526789665222,-15.170858383178711,-19.83165740966797,-6.215453624725342,-0.7259637117385864,1.4039298295974731,0.33898305892944336,-0.1305050104856491,1.8881980180740356,-3.8436148166656494
253,279518,279520,0.015215243212878704,0.04507249966263771,0.9598430395126343,-14.265482902526855,-19.379709243774414,-4.394250392913818,-0.7244637608528137,1.405429720878601,0.33448326587677,0.20166030526161194,1.7044262886047363,-3.8703243732452393
254,279528,279530,0.03791338950395584,-0.03218615800142288,0.8870760202407837,-8.692978858947754,-19.889911651611328,-2.69073486328125,-0.7169641256332397,1.4039298295974731,0.3329833447933197,0.31980323791503906,1.580234169960022,-3.937788248062134
255,279538,279540,0.002153129782527685,0.03348073735833168,0.9579508304595947,-1.0024290084838867,-17.589536666870117,-1.6178181171417236,-0.7124643921852112,1.4114294052124023,0.3314834237098694,0.6397663950920105,1.5536739826202393,-3.9221351146698
256,279548,279550,0.0579206608235836,0.008746042847633362,0.9478200078010559,6.608648777008057,-15.458913803100586,-0.12523074448108673,-0.7259637117385864,1.4189289808273315,0.33598318696022034,0.6451826691627502,1.5854512453079224,-3.981748104095459
257,279558,279560,0.07556209713220596,0.019452640786767006,0.9239533543586731,14.048325538635254,-9.398594856262207,0.823961079120636,-0.722963809967041,1.4279285669326782,0.33598318696022034,0.9489220976829529,1.6561869382858276,-3.941653251647949
258,279568,279570,0.0053688762709498405,0.03926786035299301,0.9693031907081604,15.037614822387695,-5.551541328430176,-0.23257948458194733,-0.7199639678001404,1.4309284687042236,0.32998350262641907,0.8026660084724426,1.7493476867675781,-4.003827095031738
259,279578,279580,-0.005277118645608425,0.012430693954229355,0.9600911736488342,12.179473876953125,-1.410044550895691,-0.25671958923339844,-0.7199639678001404,1.4309284687042236,0.3239837884902954,0.7371888160705566,1.984621286392212,-4.027865409851074
260,279588,279590,0.046151302754879,0.026158638298511505,0.9176767468452454,7.709403038024902,-3.1320137977600098,-0.20705215632915497,-0.722963809967041,1.436928153038025,0.33898305892944336,1.00397789478302,1.8573957681655884,-3.9829602241516113
261,279598,279600,0.03012208454310894,0.00909715797752142,0.956763505935669,1.4882820844650269,-2.493112087249756,-1.4373997449874878,-0.7259637117385864,1.4309284687042236,0.32698363065719604,0.9200975894927979,1.934938907623291,-4.016855716705322
262,279608,279610,0.017091674730181694,0.06404080241918564,0.9398539662361145,-1.5368924140930176,-3.4236233234405518,-1.3164373636245728,-0.7259637117385864,1.4279285669326782,0.33898305892944336,1.0554382801055908,2.009213924407959,-4.008397579193115
263,279618,279620,-0.0037276470102369785,0.11269409209489822,0.9286245107650757,-3.4481165409088135,-3.8920178413391113,-1.8486173152923584,-0.7394630312919617,1.435428261756897,0.3404829800128937,1.1922684907913208,1.967098593711853,-4.001156806945801
264,279628,279630,-0.02382183074951172,0.13046325743198395,0.9574431777000427,-2.7879135608673096,-6.075427532196045,-2.059520959854126,-0.736463189125061,1.4294284582138062,0.33448326587677,1.2064727544784546,1.9084522724151611,-4.027421474456787
265,279638,279640,0.006759498734027147,0.042173586785793304,1.0083240270614624,-4.109336853027344,-7.1394243240356445,-2.8174610137939453,-0.730463445186615,1.4294284582138062,0.33748310804367065,1.3100879192352295,1.9109498262405396,-4.046232223510742
266,279648,279650,-0.03460507467389107,0.05928126722574234,1.0388834476470947,-3.1590609550476074,-7.619776725769043,-3.329747200012207,-0.7274636030197144,1.444427728652954,0.3404829800128937,1.4303271770477295,1.8412951231002808,-4.067307949066162
267,279658,279660,-0.023881826549768448,0.013345111161470413,1.0543479919433594,-4.695472717285156,-5.2334513664245605,-3.492682695388794,-0.730463445186615,1.4384280443191528,0.33448326587677,1.1795696020126343,1.8456445932388306,-4.173093795776367
268,279668,279670,0.01537326816469431,-0.062211986631155014,1.0588650703430176,-7.005198955535889,-2.564014434814453,-2.519207000732422,-0.7124643921852112,1.4294284582138062,0.33448326587677,1.3257085084915161,1.8746368885040283,-4.197676658630371
269,279678,279680,0.062474124133586884,-0.1081465631723404,1.042389154434204,-9.451640129089355,-1.7992922067642212,-1.3017832040786743,-0.7349632382392883,1.4429278373718262,0.33898305892944336,1.2953740358352661,1.7119301557540894,-4.216995716094971
270,279688,279690,0.08477136492729187,-0.12552376091480255,0.9904545545578003,-10.13186264038086,-1.4379470348358154,0.1665220409631729,-0.7199639678001404,1.4399279356002808,0.33898305892944336,1.2559839487075806,1.6701234579086304,-4.2460527420043945
271,279698,279700,0.07683481276035309,-0.08011721074581146,0.9614940881729126,-6.394372463226318,-2.5606882572174072,0.9792677164077759,-0.7199639678001404,1.4429278373718262,0.32998350262641907,1.2953656911849976,1.6443105936050415,-4.248841762542725
272,279708,279710,0.0035742386244237423,0.0034511336125433445,1.013878583908081,-3.6892943382263184,-5.315341949462891,0.7907172441482544,-0.7154642343521118,1.444427728652954,0.3404829800128937,1.3631399869918823,1.5219910144805908,-4.221004486083984
273,279718,279720,-0.04798755794763565,0.023243483155965805,0.9768223166465759,-1.964648962020874,-9.611007690429688,0.7902323603630066,-0.7169641256332397,1.4339282512664795,0.33898305892944336,1.4190659523010254,1.4494088888168335,-4.206601142883301
274,279728,279730,-0.06928620487451553,0.06081842631101608,0.9878280162811279,-4.080648899078369,-11.302297592163086,0.21562552452087402,-0.7334632873535156,1.4414279460906982,0.3434828221797943,1.5166674852371216,1.3757590055465698,-4.193035125732422
275,279738,279740,0.018626101315021515,0.00492478720843792,1.0720341205596924,-7.817903518676758,-6.885774612426758,-0.23405396938323975,-0.7169641256332397,1.436928153038025,0.34498274326324463,1.6786720752716064,1.2620699405670166,-4.170934200286865
276,279748,279750,0.03279975429177284,-0.030426738783717155,1.024720311164856,-7.899789810180664,-8.010462760925293,1.4911694526672363,-0.7214639186859131,1.4324283599853516,0.3434828221797943,1.6019880771636963,1.3887286186218262,-4.240869522094727
277,279758,279760,0.0361633263528347,-0.00031703439890407026,1.018288493156433,-7.822822093963623,-3.5314829349517822,3.3106839656829834,-0.7214639186859131,1.435428261756897,0.33748310804367065,1.7701382637023926,1.2876710891723633,-4.201632976531982
278,279768,279770,0.006214267108589411,0.01936410553753376,1.039551854133606,-9.90613842010498,0.4623042047023773,4.78821325302124,-0.7259637117385864,1.436928153038025,0.33898305892944336,1.7836586236953735,1.3098859786987305,-4.193587779998779
279,279778,279780,-0.00934541318565607,0.011082119308412075,1.0371328592300415,-14.00890827178955,3.498601198196411,6.258443355560303,-0.722963809967041,1.4339282512664795,0.341982901096344,1.7410485744476318,1.136445164680481,-4.125558853149414
280,279788,279790,0.062100850045681,0.0026099684182554483,1.018426775932312,-16.466442108154297,5.483008861541748,6.904984474182129,-0.7244637608528137,1.4414279460906982,0.33748310804367065,1.6527730226516724,0.9130885601043701,-4.042212963104248
281,279798,279800,0.05328695476055145,-0.01347440481185913,0.9962167143821716,-16.17420768737793,2.231393337249756,7.175887107849121,-0.7139642834663391,1.4489275217056274,0.33898305892944336,1.6438407897949219,0.5906342267990112,-3.921919107437134
282,279808,279810,0.014736838638782501,-0.01144379936158657,0.9748460650444031,-10.523755073547363,-2.686872959136963,7.5021653175354,-0.7214639186859131,1.4474276304244995,0.33448326587677,1.6281577348709106,0.6008529663085938,-3.898512125015259
283,279818,279820,-0.038178544491529465,0.02561183273792267,0.9700700044631958,-2.167567729949951,-7.109982967376709,8.738531112670898,-0.7244637608528137,1.4324283599853516,0.32848358154296875,1.6928508281707764,0.5759184956550598,-3.8349549770355225
284,279828,279830,-0.05850209295749664,0.0848628580570221,0.9759432077407837,4.069530487060547,-7.288214206695557,9.168074607849121,-0.7109644412994385,1.4339282512664795,0.32998350262641907,1.6652791500091553,0.745391845703125,-3.806044101715088
285,279838,279840,-0.032553285360336304,0.1231895163655281,0.9941303730010986,6.391880512237549,-4.852080821990967,8.926326751708984,-0.7184640765190125,1.4414279460906982,0.3434828221797943,1.6866190433502197,0.8441091775894165,-3.7315926551818848
286,279848,279850,-0.0030557713471353054,0.02596074901521206,1.0315964221954346,1.5145573616027832,0.27414533495903015,7.270638942718506,-0.7319633960723877,1.4279285669326782,0.3329833447933197,1.7050137519836426,0.8395349383354187,-3.632429838180542
287,279858,279860,-0.03587288036942482,0.03855898231267929,1.096682071685791,-7.1614580154418945,1.5790133476257324,6.157564640045166,-0.7184640765190125,1.4384280443191528,0.32848358154296875,1.6839680671691895,0.7447715997695923,-3.533881902694702
288,279868,279870,-0.010701928287744522,-0.012396442703902721,1.101095199584961,-13.906049728393555,2.815640449523926,4.6067070960998535,-0.7109644412994385,1.4429278373718262,0.32698363065719604,1.636551856994629,0.7380349040031433,-3.505884885787964
289,279878,279880,0.0059696282260119915,-0.06637480109930038,1.080136775970459,-18.705970764160156,1.872971773147583,3.576293706893921,-0.7169641256332397,1.4399279356002808,0.33898305892944336,1.6558581590652466,0.484973281621933,-3.4281210899353027
290,279888,279890,0.05175343155860901,-0.12463390827178955,1.0546643733978271,-20.34956932067871,-0.4560524821281433,2.6501574516296387,-0.7124643921852112,1.444427728652954,0.33448326587677,1.6286191940307617,0.24462591111660004,-3.378726005554199
291,279898,279900,0.09382816404104233,-0.12800927460193634,1.0399442911148071,-19.099424362182617,-4.56593656539917,2.51029634475708,-0.7169641256332397,1.4399279356002808,0.341982901096344,1.719240427017212,-0.005443141330033541,-3.3376288414001465
292,279908,279910,0.07947711646556854,-0.07937435060739517,1.0446832180023193,-15.571401596069336,-7.034209251403809,2.9754202365875244,-0.7154642343521118,1.4414279460906982,0.3314834237098694,1.7925902605056763,-0.007334657944738865,-3.3746886253356934
293,279918,279920,0.07766290009021759,-0.023883575573563576,1.0066022872924805,-10.922350883483887,-7.126692295074463,3.6167988777160645,-0.7184640765190125,1.420428991317749,0.3314834237098694,1.9516710042953491,-0.16181939840316772,-3.3428080081939697
294,279928,279930,0.08221135288476944,0.013774137012660503,0.9670544266700745,-3.708923816680908,-6.657358169555664,4.603297233581543,-0.7124643921852112,1.4294284582138062,0.33748310804367065,1.889613151550293,-0.16701191663742065,-3.325674533843994
295,279938,279940,0.047895461320877075,0.07711655646562576,1.0130224227905273,0.41717156767845154,-3.5004403591156006,5.5487799644470215,-0.7109644412994385,1.4429278373718262,0.32998350262641907,1.87993586063385,-0.066560760140419,-3.3150148391723633
296,279948,279950,0.031507667154073715,0.0809900164604187,1.0338330268859863,1.0556265115737915,1.1756325960159302,5.860913276672363,-0.7139642834663391,1.436928153038025,0.3329833447933197,1.9518331289291382,-0.1280594915151596,-3.236847400665283
297,279958,279960,0.027590174227952957,0.017187068238854408,1.0133023262023926,-5.001511096954346,6.217346668243408,5.118311405181885,-0.7049647569656372,1.436928153038025,0.33598318696022034,1.9350334405899048,-0.23207882046699524,-3.148439645767212
298,279968,279970,-0.004739139229059219,-0.019323032349348068,1.025903344154358,-11.438053131103516,9.811399459838867,3.7779183387756348,-0.7094644904136658,1.435428261756897,0.33448326587677,1.8431708812713623,-0.28835469484329224,-3.1050002574920654
299,279978,279980,-0.04057803750038147,-0.037491004914045334,1.0416145324707031,-20.403030395507812,9.658989906311035,3.17702317237854,-0.7154642343521118,1.4414279460906982,0.3314834237098694,1.7107298374176025,-0.4726482629776001,-3.0516319274902344
300,279988,279990,-0.030007923021912575,-0.0781116932630539,1.0155081748962402,-24.316709518432617,7.762350082397461,2.7819972038269043,-0.7064646482467651,1.444427728652954,0.33448326587677,1.5961014032363892,-0.8409990668296814,-2.9657084941864014
301,279998,280000,-0.016349265351891518,-0.07955127209424973,1.008896827697754,-20.556209564208984,3.408331871032715,2.340806245803833,-0.7124643921852112,1.444427728652954,0.33448326587677,1.4687074422836304,-0.9308832287788391,-2.9794650077819824
302,280008,280010,-0.0242433063685894,-0.003351749386638403,1.0287147760391235,-14.188979148864746,-1.004333734512329,1.8642940521240234,-0.7049647569656372,1.4429278373718262,0.32698363065719604,1.4694437980651855,-1.0940539836883545,-2.9721925258636475
303,280018,280020,-0.030097801238298416,0.05019669979810715,1.028634786605835,-6.3114094734191895,-6.69487190246582,0.6901153922080994,-0.7064646482467651,1.4474276304244995,0.3314834237098694,1.5559802055358887,-1.2029916048049927,-2.970583915710449
304,280028,280030,-0.028212886303663254,0.060533713549375534,1.031244158744812,-2.4818270206451416,-8.946610450744629,-0.3657727837562561,-0.7199639678001404,1.4429278373718262,0.33898305892944336,1.7092304229736328,-1.2757188081741333,-2.9752860069274902
305,280038,280040,0.007960622198879719,0.0009136633016169071,1.0110639333724976,-1.2393121719360352,-9.887063980102539,-0.842716634273529,-0.7169641256332397,1.4519274234771729,0.3329833447933197,1.6761045455932617,-1.1695265769958496,-2.9913222789764404
306,280048,280050,0.018550189211964607,0.005122888833284378,1.0164602994918823,-1.412329077720642,-6.003490447998047,-1.1245719194412231,-0.7094644904136658,1.4324283599853516,0.33448326587677,1.8368721008300781,-1.2632830142974854,-2.9928953647613525
307,280058,280060,0.003913947846740484,-0.04539307951927185,1.0371006727218628,-3.6326346397399902,1.6975795030593872,-2.554328680038452,-0.7094644904136658,1.4414279460906982,0.3224838674068451,1.9056737422943115,-1.2307989597320557,-3.0374855995178223
308,280068,280070,-0.013527010567486286,-0.0998694896697998,1.018013596534729,-4.853188991546631,7.710731506347656,-2.7002944946289062,-0.7049647569656372,1.436928153038025,0.33598318696022034,1.7833667993545532,-1.2320951223373413,-3.0525097846984863
309,280078,280080,-0.221299409866333,-0.1331041008234024,0.9784340262413025,-4.891572952270508,13.059943199157715,-3.3014776706695557,-0.7094644904136658,1.4474276304244995,0.3314834237098694,1.641664743423462,-1.379135012626648,-3.0342469215393066
310,280088,280090,-0.5174997448921204,-0.017232652753591537,0.9825049638748169,-6.6548590660095215,16.539226531982422,-4.154050827026367,-0.7109644412994385,1.445927619934082,0.33598318696022034,1.4266276359558105,-1.3814284801483154,-3.062486171722412
311,280098,280100,-0.13830000162124634,-0.01825578324496746,0.9420561194419861,-5.825436115264893,16.590059280395508,-4.410103797912598,-0.7274636030197144,1.444427728652954,0.32848358154296875,1.251430869102478,-1.3986105918884277,-3.1187164783477783
312,280108,280110,0.04786656051874161,-0.001873133471235633,0.9277418851852417,-6.407863616943359,15.544951438903809,-4.380193710327148,-0.7169641256332397,1.4579271078109741,0.3329833447933197,1.0801044702529907,-1.5687240362167358,-3.130831241607666
313,280118,280120,0.05555908754467964,0.02702694945037365,0.98525071144104,-9.311310768127441,12.777657508850098,-4.790866851806641,-0.7124643921852112,1.4474276304244995,0.3254837095737457,0.8700928688049316,-1.6095362901687622,-3.166778326034546
314,280128,280130,0.047653649002313614,0.03539080545306206,0.9620733857154846,-7.962888717651367,6.6498870849609375,-4.038283348083496,-0.722963809967041,1.4399279356002808,0.3329833447933197,0.7314820885658264,-1.739501953125,-3.192167043685913
315,280138,280140,0.051668159663677216,0.05843601003289223,0.9702290296554565,-6.840845584869385,1.0230599641799927,-4.354531288146973,-0.7244637608528137,1.459426999092102,0.3404829800128937,0.6844053268432617,-1.8488506078720093,-3.2286298274993896
316,280148,280150,0.06313074380159378,0.07367342710494995,1.0077180862426758,-3.881166696548462,-3.790285110473633,-4.420542240142822,-0.7154642343521118,1.4534273147583008,0.3224838674068451,0.7268586158752441,-1.9895588159561157,-3.2678778171539307
317,280158,280160,0.059314318001270294,0.056274887174367905,1.0160397291183472,-2.8241727352142334,-7.129818916320801,-3.9224696159362793,-0.7214639186859131,1.444427728652954,0.3404829800128937,0.8374822735786438,-1.8108593225479126,-3.3858790397644043
318,280168,280170,0.010354348458349705,0.028766430914402008,1.011220932006836,-0.9916526079177856,-8.351953506469727,-2.4036967754364014,-0.7124643921852112,1.4534273147583008,0.3434828221797943,0.9095197916030884,-1.7496845722198486,-3.435316562652588
319,280178,280180,0.042884454131126404,0.05279534310102463,1.002878189086914,0.7456126809120178,-5.925568580627441,-1.2990065813064575,-0.7169641256332397,1.445927619934082,0.3209839463233948,0.9781240224838257,-1.8027637004852295,-3.439077854156494
320,280188,280190,0.02125575952231884,0.02416905388236046,1.0002769231796265,-2.0954129695892334,-1.155112862586975,-1.0268906354904175,-0.7049647569656372,1.4489275217056274,0.33898305892944336,1.062360405921936,-1.85716712474823,-3.455599546432495
321,280198,280200,0.040340665727853775,0.08729558438062668,0.9988085031509399,-4.9460530281066895,3.7386717796325684,-0.06748055666685104,-0.7169641256332397,1.4549272060394287,0.33598318696022034,0.9941884279251099,-1.742110252380371,-3.4610586166381836
322,280208,280210,0.007008351851254702,0.0472257137298584,1.0135997533798218,-7.892894744873047,6.887689590454102,0.6571715474128723,-0.722963809967041,1.4549272060394287,0.32998350262641907,0.9230542182922363,-1.8241347074508667,-3.446906566619873
323,280218,280220,-0.004789148923009634,0.003562751691788435,1.001812219619751,-6.350111484527588,9.231959342956543,1.3635344505310059,-0.7154642343521118,1.4624269008636475,0.32848358154296875,0.884547770023346,-2.00177001953125,-3.439730644226074
324,280228,280230,0.03945193439722061,0.001321930787526071,0.9944480061531067,-4.89683723449707,10.504562377929688,2.2112932205200195,-0.7244637608528137,1.4654266834259033,0.32848358154296875,0.7337997555732727,-2.073859453201294,-3.401858329772949
325,280238,280240,0.01691853627562523,0.010144990868866444,1.010070562362671,0.8124624490737915,9.3429594039917,2.6124181747436523,-0.722963809967041,1.46092689037323,0.3329833447933197,0.5841965675354004,-2.0238661766052246,-3.3737807273864746
326,280248,280250,0.03936413303017616,-0.0800405740737915,0.988165557384491,3.702894449234009,7.848750591278076,3.4067065715789795,-0.7079645991325378,1.445927619934082,0.32698363065719604,0.5204480290412903,-2.034635305404663,-3.359142780303955
327,280258,280260,0.0643405020236969,-0.1294558346271515,0.9587972164154053,6.02246618270874,2.6653974056243896,4.245955467224121,-0.7199639678001404,1.445927619934082,0.32998350262641907,0.43774276971817017,-1.9965482950210571,-3.315523147583008
328,280268,280270,0.041530709713697433,-0.022383414208889008,0.9962788224220276,6.7775397300720215,-4.421332836151123,5.140220642089844,-0.7079645991325378,1.4399279356002808,0.3209839463233948,0.4702262580394745,-1.9260274171829224,-3.2843759059906006
329,280278,280280,0.039403464645147324,-0.07381615042686462,0.9769701957702637,5.1517767906188965,-9.367431640625,5.855257511138916,-0.7214639186859131,1.4414279460906982,0.33448326587677,0.51126629114151,-1.8663215637207031,-3.2237155437469482
330,280288,280290,-0.004929617512971163,-0.008976737968623638,1.0024316310882568,1.7815046310424805,-12.376591682434082,6.149336814880371,-0.7184640765190125,1.4534273147583008,0.3434828221797943,0.6262711882591248,-1.8360977172851562,-3.1679210662841797
331,280298,280300,-0.02208908461034298,0.0314791165292263,1.0264570713043213,1.3860324621200562,-12.844239234924316,6.35845422744751,-0.7214639186859131,1.444427728652954,0.33748310804367065,0.8476951122283936,-1.8409826755523682,-3.147383213043213
332,280308,280310,0.008377994410693645,0.024350594729185104,0.9871352314949036,2.3805675506591797,-10.967521667480469,7.147297382354736,-0.7154642343521118,1.444427728652954,0.3314834237098694,0.8431025743484497,-1.842665672302246,-3.0155794620513916
333,280318,280320,0.02625085972249508,0.0450117364525795,0.9910863041877747,3.2182631492614746,-3.753674030303955,7.0647196769714355,-0.7064646482467651,1.4624269008636475,0.33748310804367065,0.9908546209335327,-1.8231686353683472,-2.9734272956848145
334,280328,280330,0.019922824576497078,0.006442971061915159,0.9904254674911499,2.944631338119507,3.826171398162842,6.780855655670166,-0.7169641256332397,1.46092689037323,0.341982901096344,0.8648134469985962,-1.7941030263900757,-2.8381640911102295
335,280338,280340,0.01651238277554512,-0.007297117728739977,1.0005584955215454,5.898961067199707,8.746593475341797,6.587333679199219,-0.7109644412994385,1.4489275217056274,0.3329833447933197,0.7806863188743591,-1.8217135667800903,-2.7551157474517822
336,280348,280350,0.011788297444581985,0.030551370233297348,1.0326591730117798,10.1197509765625,10.347972869873047,6.177648067474365,-0.7079645991325378,1.4699264764785767,0.3329833447933197,0.6357581615447998,-1.7074638605117798,-2.6732165813446045
337,280358,280360,0.01843738555908203,0.005313817411661148,0.9937664270401001,13.841029167175293,8.916874885559082,5.919911861419678,-0.722963809967041,1.4639267921447754,0.33598318696022034,0.489860862493515,-1.589120626449585,-2.595702886581421
338,280368,280370,0.029995441436767578,-0.08667939901351929,1.0053739547729492,11.521924018859863,6.663664817810059,5.41970157623291,-0.7154642343521118,1.459426999092102,0.34648266434669495,0.3781420588493347,-1.3897645473480225,-2.530519962310791
339,280378,280380,0.0072004348039627075,-0.010574105195701122,1.0257259607315063,9.390372276306152,1.2582958936691284,5.458343982696533,-0.7169641256332397,1.4549272060394287,0.341982901096344,0.33265331387519836,-1.2319008111953735,-2.4800453186035156
340,280388,280390,0.0015139541355893016,0.0016215960495173931,0.998641848564148,5.974531650543213,-5.696866035461426,4.937475204467773,-0.7154642343521118,1.4564270973205566,0.3314834237098694,0.38922691345214844,-1.2609968185424805,-2.442840814590454
341,280398,280400,-0.0029837300535291433,-0.02548511140048504,0.9775800108909607,0.817820131778717,-10.826494216918945,3.9671823978424072,-0.7094644904136658,1.444427728652954,0.3254837095737457,0.54176265001297,-1.2730355262756348,-2.427410364151001
342,280408,280410,-0.018848029896616936,-0.002081896411255002,1.0047554969787598,-0.5771573185920715,-13.812286376953125,3.790538787841797,-0.7079645991325378,1.4489275217056274,0.33898305892944336,0.7570313811302185,-1.2668064832687378,-2.425391435623169
343,280418,280420,0.024447951465845108,-0.0025620737578719854,1.0039089918136597,-1.229006052017212,-12.85682201385498,4.125861644744873,-0.7034648060798645,1.4534273147583008,0.33448326587677,0.9205161929130554,-1.287391185760498,-2.3930118083953857
344,280428,280430,-0.01981060393154621,-0.040216587483882904,1.0489941835403442,-0.245925173163414,-8.50652027130127,4.555506706237793,-0.7169641256332397,1.4549272060394287,0.33598318696022034,1.100581407546997,-1.294508695602417,-2.3738057613372803
345,280438,280440,-0.06668288260698318,-0.03278105705976486,1.0415809154510498,4.472824573516846,-2.567770481109619,5.966644763946533,-0.7214639186859131,1.4564270973205566,0.3434828221797943,1.1194939613342285,-1.2540507316589355,-2.3048255443573
346,280448,280450,-0.05718277767300606,0.032280512154102325,0.9971442818641663,7.550954818725586,5.35755729675293,6.329667091369629,-0.7184640765190125,1.4564270973205566,0.33448326587677,1.0877301692962646,-1.1595807075500488,-2.2375152111053467
347,280458,280460,-0.04951496794819832,0.0941271111369133,1.0348975658416748,8.98702335357666,12.115869522094727,5.9311323165893555,-0.7124643921852112,1.4504274129867554,0.33748310804367065,0.8110468983650208,-1.0214893817901611,-2.104414701461792
348,280468,280470,-0.038402099162340164,0.06570711731910706,1.071249008178711,7.814836025238037,13.019654273986816,5.165654182434082,-0.7169641256332397,1.436928153038025,0.3239837884902954,0.7549830675125122,-1.0791155099868774,-2.069814682006836
349,280478,280480,-0.009464061819016933,-0.01656881347298622,1.0764923095703125,7.8764262199401855,7.998802185058594,5.164897441864014,-0.7154642343521118,1.4474276304244995,0.33748310804367065,0.6496514081954956,-0.8517578840255737,-2.025031089782715
350,280488,280490,-0.012233790941536427,-0.04811590909957886,1.0516706705093384,8.672618865966797,0.6035448908805847,6.217380046844482,-0.730463445186615,1.4414279460906982,0.32848358154296875,0.566738486289978,-0.7740615010261536,-1.961687684059143
351,280498,280500,-0.03957081586122513,-0.0010603301925584674,1.0134243965148926,9.511923789978027,-5.728804111480713,6.484958171844482,-0.7109644412994385,1.436928153038025,0.3329833447933197,0.5993695855140686,-0.6162858009338379,-1.905031681060791
352,280508,280510,-0.020685726776719093,0.049783751368522644,0.9751603603363037,6.840595722198486,-7.666935443878174,6.6146769523620605,-0.7079645991325378,1.445927619934082,0.3239837884902954,0.7004262208938599,-0.6192179322242737,-1.8507335186004639
353,280518,280520,-0.03354870527982712,0.13851813971996307,1.0365796089172363,1.9976774454116821,-9.094865798950195,6.488646984100342,-0.7184640765190125,1.435428261756897,0.3254837095737457,0.7613279223442078,-0.5323824286460876,-1.7788386344909668
354,280528,280530,-5.5876858823467046e-05,0.01872275210916996,0.9962689876556396,-1.5609214305877686,-8.481868743896484,5.499964237213135,-0.7169641256332397,1.4429278373718262,0.32998350262641907,0.762185275554657,-0.518710196018219,-1.6930642127990723
355,280538,280540,-0.008820977061986923,-0.015932345762848854,1.0634909868240356,-4.7602996826171875,-6.816394329071045,4.682376861572266,-0.7049647569656372,1.4339282512664795,0.34798258543014526,0.9031526446342468,-0.5551472306251526,-1.6527303457260132
356,280548,280550,-0.02087629958987236,-0.02966466173529625,1.0119037628173828,-1.124857783317566,-5.989252090454102,5.586164951324463,-0.7139642834663391,1.445927619934082,0.341982901096344,0.9453467130661011,-0.5885512828826904,-1.5932377576828003
357,280558,280560,0.012175827287137508,0.028763001784682274,0.9299590587615967,0.9889830350875854,-3.7610175609588623,6.372051239013672,-0.7004649639129639,1.4294284582138062,0.33448326587677,1.0245378017425537,-0.5888928771018982,-1.5414414405822754
358,280568,280570,0.04377182573080063,0.11647394299507141,0.9572407603263855,1.6673200130462646,1.0185227394104004,6.42910099029541,-0.7169641256332397,1.4309284687042236,0.33898305892944336,1.053385853767395,-0.5638990998268127,-1.4802305698394775
359,280578,280580,0.060881901532411575,0.06332219392061234,0.9866091012954712,-1.0778368711471558,4.394767761230469,4.965360164642334,-0.7139642834663391,1.421928882598877,0.3209839463233948,1.1532126665115356,-0.5496273636817932,-1.4454516172409058
360,280588,280590,0.07955598831176758,-0.030587509274482727,1.0207024812698364,-0.500267505645752,5.5424675941467285,4.921627044677734,-0.7184640765190125,1.4144293069839478,0.3434828221797943,0.8647090792655945,-0.5531719326972961,-1.3504270315170288
361,280598,280600,0.08344624191522598,-0.07867663353681564,0.9981353878974915,2.7418580055236816,6.477823734283447,5.118569374084473,-0.7079645991325378,1.4399279356002808,0.32698363065719604,0.7774419784545898,-0.5337952375411987,-1.2967073917388916
362,280608,280610,0.09494045376777649,-0.025670768693089485,0.963213324546814,6.10058069229126,5.183088779449463,5.333398818969727,-0.7124643921852112,1.4324283599853516,0.3404829800128937,0.763602077960968,-0.46744418144226074,-1.2550430297851562
363,280618,280620,0.08211006969213486,0.03903624415397644,0.9967790246009827,8.37816333770752,6.902379035949707,4.76560640335083,-0.7064646482467651,1.435428261756897,0.33748310804367065,0.7537807822227478,-0.3488273322582245,-1.2121881246566772
364,280628,280630,0.0758432000875473,-0.031513601541519165,1.0693128108978271,7.669186115264893,7.432300567626953,3.747354030609131,-0.7214639186859131,1.435428261756897,0.33748310804367065,0.6619545221328735,-0.3473135530948639,-1.1606251001358032
365,280638,280640,0.015669936314225197,-0.09547224640846252,1.0788625478744507,3.8888680934906006,6.458706378936768,2.9436800479888916,-0.7199639678001404,1.4339282512664795,0.33898305892944336,0.7071970105171204,-0.36650437116622925,-1.1356191635131836
366,280648,280650,0.012466713786125183,-0.15036191046237946,1.0125863552093506,2.5816946029663086,2.699507713317871,3.1600170135498047,-0.7169641256332397,1.436928153038025,0.3209839463233948,0.6277123689651489,-0.2856350839138031,-1.099130392074585
367,280658,280660,-0.02570614032447338,-0.040382225066423416,1.0180314779281616,3.261941909790039,0.6289544701576233,3.213374376296997,-0.730463445186615,1.4384280443191528,0.3404829800128937,0.5848464369773865,-0.007403217721730471,-1.0657751560211182
368,280668,280670,-0.02744993194937706,0.011111716739833355,0.9956561326980591,1.347065806388855,0.6697341799736023,2.7916157245635986,-0.7214639186859131,1.4534273147583008,0.32848358154296875,0.361863911151886,-0.4637809097766876,-1.0111796855926514
369,280678,280680,-0.014949353411793709,0.08054504543542862,1.001642107963562,-1.8472821712493896,-1.4352245330810547,2.775041341781616,-0.7169641256332397,1.4429278373718262,0.341982901096344,0.37610235810279846,-0.4273811876773834,-0.9817430377006531
370,280688,280690,-0.02928851917386055,0.06074829772114754,1.0518611669540405,-1.5757611989974976,-4.885943412780762,2.603161573410034,-0.7124643921852112,1.4474276304244995,0.3254837095737457,0.4351453483104706,-0.42828238010406494,-0.9536933898925781
371,280698,280700,-0.008399919606745243,-0.05310960114002228,0.9923460483551025,1.0425913333892822,-9.686985969543457,3.1336185932159424,-0.7124643921852112,1.4474276304244995,0.3254837095737457,0.5540453791618347,-0.39585843682289124,-0.926010012626648
372,280708,280710,0.012846621684730053,0.006255561485886574,0.9551908373832703,3.241088628768921,-10.859414100646973,3.8310654163360596,-0.7124643921852112,1.4474276304244995,0.3254837095737457,0.7164803743362427,-0.4158170819282532,-0.8966484069824219
373,280718,280720,0.019944166764616966,0.08983749896287918,0.9757376909255981,7.635246276855469,-8.68342113494873,4.051339149475098,-0.7124643921852112,1.4474276304244995,0.3254837095737457,0.8090581893920898,-0.322944313287735,-0.8572915196418762
374,280728,280730,0.05027670040726662,0.040934834629297256,0.9579879641532898,9.644372940063477,-5.506804466247559,4.104698657989502,-0.7034648060798645,1.4414279460906982,0.33448326587677,0.9296037554740906,-0.23224902153015137,-0.8190739750862122
375,280738,280740,0.01972385309636593,0.010008991695940495,1.0006673336029053,7.732137203216553,-0.09825226664543152,3.29378342628479,-0.7019649147987366,1.4429278373718262,0.33598318696022034,0.7586966156959534,-0.12981370091438293,-0.771049439907074
376,280748,280750,0.04355800896883011,-0.038080666214227676,0.9988453984260559,6.651127338409424,4.163934707641602,4.029829978942871,-0.7079645991325378,1.4339282512664795,0.32698363065719604,0.807144820690155,-0.06361261755228043,-0.7394323348999023
377,280758,280760,0.12060904502868652,-0.0024899111595004797,0.9553679823875427,6.068105220794678,5.701109409332275,3.8361310958862305,-0.7064646482467651,1.4294284582138062,0.3254837095737457,0.9488150477409363,-0.011404785327613354,-0.7068316340446472
378,280768,280770,0.10055249184370041,0.02922322414815426,1.0551379919052124,2.377267837524414,7.0880560874938965,2.2118427753448486,-0.7094644904136658,1.4324283599853516,0.3404829800128937,0.8566993474960327,0.09905309230089188,-0.6721001267433167
379,280778,280780,0.08526775240898132,-0.06446206569671631,1.1237430572509766,-2.0139048099517822,7.433967113494873,1.102951169013977,-0.7124643921852112,1.435428261756897,0.3314834237098694,0.7522347569465637,0.1552291065454483,-0.6518779397010803
380,280788,280790,0.04959215968847275,-0.1308794617652893,1.0811939239501953,-2.878453493118286,4.956889629364014,1.7267035245895386,-0.7049647569656372,1.4399279356002808,0.33598318696022034,0.6513214707374573,0.07628684490919113,-0.6368077397346497
381,280798,280800,-0.008721712045371532,-0.028514442965388298,1.0333497524261475,-3.3940529823303223,2.0138421058654785,2.4528048038482666,-0.7109644412994385,1.4429278373718262,0.3329833447933197,0.5895652174949646,0.04201677441596985,-0.6156394481658936
382,280808,280810,-0.024861419573426247,0.023202961310744286,1.0192989110946655,-2.3761675357818604,0.8093276023864746,1.5118967294692993,-0.7064646482467651,1.4474276304244995,0.34648266434669495,0.5627842545509338,0.01603337936103344,-0.5929588675498962
383,280818,280820,-0.04536549746990204,0.028108997270464897,1.073743224143982,-3.3471665382385254,-1.6110156774520874,0.18278400599956512,-0.7154642343521118,1.4294284582138062,0.3314834237098694,0.7001898288726807,0.008474227041006088,-0.5744057297706604
384,280828,280830,-0.06236688792705536,-0.0700802281498909,1.0483191013336182,-1.9501498937606812,-5.431852340698242,0.0847097858786583,-0.7124643921852112,1.4324283599853516,0.3224838674068451,0.7341986298561096,-0.004292395431548357,-0.5684359669685364
385,280838,280840,-0.0532069206237793,0.0017980090342462063,0.9309515953063965,2.477766275405884,-7.505338191986084,0.8061866164207458,-0.7064646482467651,1.420428991317749,0.3494825065135956,0.8731856346130371,0.022823631763458252,-0.5614522695541382
386,280848,280850,0.012225043028593063,0.09664349257946014,0.9304980635643005,3.019524097442627,-4.22794246673584,0.24581076204776764,-0.6959651708602905,1.4249287843704224,0.32998350262641907,0.9484197497367859,0.07706523686647415,-0.556068480014801
387,280858,280860,0.03848995268344879,0.017333542928099632,0.9879329204559326,1.2690117359161377,-1.213658094406128,-1.193188190460205,-0.6989650130271912,1.4309284687042236,0.3239837884902954,0.9881629943847656,0.13235105574131012,-0.5569697022438049
388,280868,280870,0.03456296771764755,-0.07598302513360977,0.9906237125396729,-0.49500882625579834,1.543475866317749,-1.6089725494384766,-0.7004649639129639,1.4324283599853516,0.33748310804367065,0.9659523963928223,0.1545206606388092,-0.571193516254425
389,280878,280880,0.058324843645095825,-0.04481535777449608,0.945449709892273,1.6295477151870728,6.483397483825684,-1.2668840885162354,-0.7079645991325378,1.4339282512664795,0.3209839463233948,0.8816229104995728,0.1728547215461731,-0.5917315483093262
390,280888,280890,0.0853576809167862,0.05070442333817482,0.9574418067932129,1.1935087442398071,11.638075828552246,-1.6219316720962524,-0.7109644412994385,1.4309284687042236,0.34498274326324463,0.7155869007110596,0.18082062900066376,-0.6164615750312805
391,280898,280900,0.0724157989025116,0.0160597562789917,1.0321693420410156,-0.7757260203361511,16.665800094604492,-3.9229583740234375,-0.7124643921852112,1.4294284582138062,0.32848358154296875,0.4943154454231262,0.19240377843379974,-0.6498217582702637
392,280908,280910,0.07401597499847412,-0.1005764901638031,1.0662533044815063,0.5632293820381165,17.222553253173828,-5.054914951324463,-0.7139642834663391,1.4399279356002808,0.32998350262641907,0.648625373840332,0.21906909346580505,-0.664583683013916
393,280918,280920,0.048780277371406555,-0.1253586858510971,1.0585979223251343,6.156824111938477,14.205177307128906,-4.378394603729248,-0.7139642834663391,1.421928882598877,0.32998350262641907,0.504721999168396,0.28770536184310913,-0.7080106139183044
394,280928,280930,0.014479359611868858,-0.04620984569191933,1.0059230327606201,11.513215065002441,14.34197998046875,-4.0558013916015625,-0.7244637608528137,1.420428991317749,0.3254837095737457,0.44598066806793213,0.3063731789588928,-0.7413681745529175
395,280938,280940,-0.0290830060839653,0.01947926916182041,1.0438532829284668,11.828716278076172,14.48289680480957,-3.6559700965881348,-0.7289635539054871,1.421928882598877,0.3209839463233948,0.31129682064056396,0.5084309577941895,-0.7795222401618958
396,280948,280950,-0.032847803086042404,0.023149674758315086,1.03824782371521,6.986532211303711,14.221965789794922,-3.134812831878662,-0.7109644412994385,1.4159291982650757,0.33598318696022034,0.17416544258594513,0.5961902737617493,-0.8127666115760803
397,280958,280960,-0.017939243465662003,5.320959826349281e-05,1.0072888135910034,-0.36184173822402954,11.686674118041992,-2.6017074584960938,-0.7109644412994385,1.436928153038025,0.34498274326324463,-0.024274151772260666,0.5374683141708374,-0.8494547605514526
398,280968,280970,-0.004945735912770033,-0.03130035474896431,1.0502876043319702,-10.16007137298584,8.561519622802734,-2.5145108699798584,-0.7274636030197144,1.435428261756897,0.3254837095737457,-0.2281271070241928,0.5558966398239136,-0.8811200857162476
399,280978,280980,0.010119508020579815,-0.03043023683130741,1.0161577463150024,-13.923067092895508,1.6691595315933228,-1.4080016613006592,-0.7094644904136658,1.4144293069839478,0.3314834237098694,-0.20566876232624054,0.42792946100234985,-0.8904258608818054
400,280988,280990,-0.04303375259041786,0.01652129366993904,1.0149669647216797,-15.358654975891113,-4.465542316436768,-0.6631703972816467,-0.7124643921852112,1.420428991317749,0.3314834237098694,-0.1696726232767105,0.1941993534564972,-0.9030267596244812
401,280998,281000,-0.04723368585109711,0.006877245381474495,1.0249766111373901,-10.991872787475586,-4.668334484100342,-1.0040603876113892,-0.7064646482467651,1.420428991317749,0.3314834237098694,-0.08185847103595734,0.060896389186382294,-0.9062155485153198
402,281008,281010,-0.04111070930957794,0.033159200102090836,1.0439420938491821,-5.513666152954102,-4.014524936676025,-0.8596016764640808,-0.7184640765190125,1.420428991317749,0.32848358154296875,-0.05451640114188194,0.07384182512760162,-0.9118319153785706
403,281018,281020,-0.017622925341129303,0.01629011519253254,1.0146782398223877,-0.9706360697746277,-1.570185899734497,0.21956439316272736,-0.7154642343521118,1.4234287738800049,0.3314834237098694,0.1564137041568756,0.15890419483184814,-0.8836580514907837
404,281028,281030,0.04134353622794151,-0.04456222802400589,1.011244773864746,0.32555559277534485,4.047515869140625,0.47829580307006836,-0.7289635539054871,1.4399279356002808,0.33898305892944336,-0.04252404347062111,0.16418908536434174,-0.9072978496551514
405,281038,281040,0.025638097897171974,-0.0016950882272794843,1.0078694820404053,2.4592669010162354,5.926236152648926,2.08730149269104,-0.7184640765190125,1.4264286756515503,0.3254837095737457,-0.02258283831179142,0.18849118053913116,-0.8864001035690308
406,281048,281050,0.010017462074756622,0.009861813858151436,0.9892945885658264,1.2976008653640747,6.7502851486206055,2.809706449508667,-0.7244637608528137,1.4114294052124023,0.32848358154296875,-0.04240420088171959,0.2133413851261139,-0.8567007780075073
407,281058,281060,0.010215120390057564,0.008764687925577164,0.9872188568115234,-3.059103012084961,6.8330183029174805,3.172147035598755,-0.7124643921852112,1.4264286756515503,0.3134843111038208,-0.13574539124965668,0.1904732882976532,-0.8330034613609314
408,281068,281070,0.008220693096518517,0.012439603917300701,0.9865912199020386,-8.200261116027832,7.097978591918945,3.104240894317627,-0.7199639678001404,1.4159291982650757,0.30898454785346985,-0.30057966709136963,0.0994258001446724,-0.8186689019203186
409,281078,281080,0.023877769708633423,0.03805812448263168,1.0087565183639526,-11.96437931060791,6.340053081512451,3.0423145294189453,-0.7079645991325378,1.4249287843704224,0.3239837884902954,-0.18150316178798676,-0.07048159092664719,-0.7712425589561462
410,281088,281090,0.036039743572473526,0.0047570886090397835,0.9805089235305786,-13.227781295776367,2.5268476009368896,3.3416178226470947,-0.7199639678001404,1.4309284687042236,0.32998350262641907,-0.24689361453056335,-0.19910643994808197,-0.7423055171966553
411,281098,281100,0.021988702937960625,0.02067345380783081,1.0022538900375366,-12.140092849731445,1.6779189109802246,3.521512269973755,-0.7274636030197144,1.420428991317749,0.33448326587677,-0.26285502314567566,-0.4083218276500702,-0.716477632522583
412,281108,281110,-0.052450865507125854,0.10938592255115509,0.9782477021217346,-7.453888893127441,1.5136659145355225,3.902662992477417,-0.7049647569656372,1.4309284687042236,0.32698363065719604,-0.3674534559249878,-0.5022825598716736,-0.6884803175926208
413,281118,281120,-0.02191486582159996,0.14027279615402222,0.9663177728652954,-6.211294651031494,7.467034339904785,2.5109188556671143,-0.7259637117385864,1.4309284687042236,0.32698363065719604,-0.34966784715652466,-0.478670209646225,-0.635287344455719
414,281128,281130,0.005907927639782429,0.018167315050959587,1.0166168212890625,-8.037529945373535,9.000421524047852,0.6688634157180786,-0.7259637117385864,1.4339282512664795,0.33598318696022034,-0.45210781693458557,-0.5735439658164978,-0.6224556565284729
415,281138,281140,-0.003417425788938999,0.007724113296717405,1.0271706581115723,-7.65683650970459,8.049944877624512,0.6477215886116028,-0.7259637117385864,1.4279285669326782,0.31798410415649414,-0.42083975672721863,-0.6142573356628418,-0.6004625558853149
416,281148,281150,0.010017328895628452,0.004002848174422979,0.9834168553352356,-8.444597244262695,9.260649681091309,-0.28397929668426514,-0.7184640765190125,1.4264286756515503,0.32848358154296875,-0.6141786575317383,-0.7424264550209045,-0.6141015291213989
417,281158,281160,0.03384276479482651,0.015028453432023525,1.04983651638031,-9.337181091308594,12.639212608337402,-1.1448529958724976,-0.7259637117385864,1.436928153038025,0.3209839463233948,-0.5426613092422485,-0.7426127791404724,-0.5936750769615173
418,281168,281170,0.0022293950896710157,-0.06559496372938156,1.0279440879821777,-10.085527420043945,11.443329811096191,-1.5976405143737793,-0.737963080406189,1.436928153038025,0.3239837884902954,-0.5755009651184082,-0.8847700357437134,-0.6071411371231079
419,281178,281180,-0.003810788970440626,0.006237959023565054,1.0229562520980835,-3.187077760696411,11.251285552978516,1.2729252576828003,-0.722963809967041,1.4339282512664795,0.32998350262641907,-0.757371723651886,-0.983296811580658,-0.619669497013092
420,281188,281190,0.026814883574843407,-0.05077667534351349,1.0155067443847656,-0.49466776847839355,12.013936996459961,2.762234926223755,-0.7259637117385864,1.4489275217056274,0.34498274326324463,-1.0138359069824219,-0.9301563501358032,-0.5932316780090332
421,281198,281200,0.051848407834768295,-0.06647920608520508,1.0111639499664307,5.2896342277526855,11.73482894897461,4.55001974105835,-0.7409629225730896,1.445927619934082,0.32698363065719604,-1.1744898557662964,-0.8833691477775574,-0.5531669855117798
422,281208,281210,-0.006280034314841032,-0.016369538381695747,0.9734225273132324,8.496831893920898,5.445085048675537,6.029681205749512,-0.7289635539054871,1.436928153038025,0.3239837884902954,-1.1440788507461548,-0.9092676043510437,-0.5215008854866028
423,281218,281220,0.0016321218572556973,0.014475585892796516,0.9739620089530945,9.80286979675293,-0.012684585526585579,7.4682817459106445,-0.730463445186615,1.4414279460906982,0.33748310804367065,-1.2557294368743896,-0.7456438541412354,-0.4384649693965912
424,281228,281230,-0.017734108492732048,0.06023864820599556,0.9703616499900818,12.102246284484863,-0.4896736741065979,8.165040016174316,-0.7319633960723877,1.4489275217056274,0.33598318696022034,-1.172717571258545,-0.7784151434898376,-0.3956533670425415
425,281238,281240,-0.018098078668117523,0.04000019282102585,0.985621988773346,6.8000383377075195,-1.070109248161316,8.827247619628906,-0.7274636030197144,1.4384280443191528,0.3224838674068451,-1.2850791215896606,-0.6717841029167175,-0.3063015043735504
426,281248,281250,-0.032376255840063095,-0.028438739478588104,1.0030397176742554,3.571584463119507,-2.349667549133301,8.487545013427734,-0.7259637117385864,1.4429278373718262,0.32998350262641907,-1.160601258277893,-0.543662428855896,-0.2032654583454132
427,281258,281260,0.0039046602323651314,0.08981090784072876,0.8840073943138123,6.436437129974365,-0.5382254123687744,9.713315963745117,-0.7319633960723877,1.4399279356002808,0.33898305892944336,-1.054305076599121,-0.4575110673904419,-0.10847313702106476
428,281268,281270,0.04479021579027176,0.0445878803730011,0.9101204872131348,4.4409613609313965,2.5489020347595215,8.339042663574219,-0.722963809967041,1.4429278373718262,0.3239837884902954,-1.1018048524856567,-0.37609997391700745,-0.005312416236847639
429,281278,281280,0.013011508621275425,-0.10672013461589813,1.0711678266525269,1.9245039224624634,0.23681753873825073,7.427733898162842,-0.7199639678001404,1.4309284687042236,0.33598318696022034,-1.1492373943328857,-0.28933069109916687,0.09196735173463821
430,281288,281290,0.0657728835940361,-0.031233089044690132,0.984496533870697,9.401731491088867,-2.223843812942505,8.532949447631836,-0.7319633960723877,1.445927619934082,0.3329833447933197,-1.0161452293395996,-0.47608858346939087,0.09985150396823883
431,281298,281300,0.0488971546292305,0.03881803900003433,0.9819700121879578,10.848349571228027,-4.991781234741211,8.163534164428711,-0.737963080406189,1.4399279356002808,0.3329833447933197,-0.8640881776809692,-0.28817376494407654,0.20568892359733582
432,281308,281310,-0.04291599616408348,-0.043309565633535385,1.0698611736297607,10.647503852844238,-3.2436423301696777,7.807013988494873,-0.730463445186615,1.435428261756897,0.3254837095737457,-0.7908527851104736,-0.12924620509147644,0.2991254925727844
433,281318,281320,-0.012150825001299381,0.06687328219413757,0.9226935505867004,22.761018753051758,-0.18458524346351624,9.732404708862305,-0.7319633960723877,1.4579271078109741,0.34498274326324463,-0.9082577228546143,-0.06431577354669571,0.36336901783943176
434,281328,281330,-0.057357534766197205,0.06810817122459412,1.0480033159255981,20.752445220947266,3.1781868934631348,9.770953178405762,-0.7319633960723877,1.4399279356002808,0.341982901096344,-0.9867614507675171,0.31510448455810547,0.5091006755828857
435,281338,281340,-0.0625089779496193,-0.004109778441488743,0.9763102531433105,25.701793670654297,4.050687789916992,11.031783103942871,-0.7169641256332397,1.4339282512664795,0.33598318696022034,-0.9737045764923096,0.2983520030975342,0.5357925891876221
436,281348,281350,-0.2561187744140625,0.15832248330116272,0.8881627917289734,27.986839294433594,11.30440902709961,12.333285331726074,-0.7349632382392883,1.4339282512664795,0.3329833447933197,-1.1592782735824585,0.6860802173614502,0.6856499910354614
437,281358,281360,-0.18881253898143768,0.07455427944660187,0.9733838438987732,18.47820281982422,17.241073608398438,11.797490119934082,-0.7334632873535156,1.4324283599853516,0.3224838674068451,-1.2199440002441406,0.8815001845359802,0.7935914993286133
438,281368,281370,0.0014676363207399845,0.01852937787771225,0.9214677214622498,11.06306266784668,14.51694107055664,12.491646766662598,-0.7289635539054871,1.436928153038025,0.32698363065719604,-1.3869400024414062,1.024393916130066,0.9078459739685059
439,281378,281380,0.07242831587791443,0.04880019277334213,0.9046075344085693,5.228989601135254,9.721796035766602,13.051891326904297,-0.7394630312919617,1.4414279460906982,0.3224838674068451,-1.4706250429153442,1.0993502140045166,1.0336964130401611
440,281388,281390,0.05433398857712746,-0.07259413599967957,1.0759998559951782,-9.3137788772583,2.0878238677978516,12.389507293701172,-0.7499625086784363,1.4339282512664795,0.3329833447933197,-1.5900967121124268,1.118053674697876,1.1651216745376587
441,281398,281400,0.023115357384085655,-0.05553659051656723,1.0345646142959595,-11.695586204528809,-9.984480857849121,13.467267036437988,-0.7469626665115356,1.436928153038025,0.32998350262641907,-1.570473313331604,0.9157671928405762,1.2584753036499023
442,281408,281410,-0.016840729862451553,0.010712928138673306,0.9895234107971191,-15.854179382324219,-18.192604064941406,12.22925853729248,-0.7349632382392883,1.4339282512664795,0.3329833447933197,-1.3116525411605835,0.7009177803993225,1.3731417655944824
443,281418,281420,-0.03550567105412483,-0.03782111406326294,1.1429117918014526,-18.020362854003906,-26.255897521972656,12.029743194580078,-0.7349632382392883,1.4519274234771729,0.341982901096344,-1.0133602619171143,0.4669346511363983,1.4797923564910889
444,281428,281430,-0.08753832429647446,0.1147397980093956,0.9338381290435791,3.130016326904297,-25.569719314575195,14.680880546569824,-0.7409629225730896,1.436928153038025,0.33598318696022034,-0.858814537525177,0.4789685308933258,1.63520085811615
445,281438,281440,-0.06830555200576782,0.03496331349015236,1.1157368421554565,8.848686218261719,-22.755342483520508,15.572632789611816,-0.7319633960723877,1.4399279356002808,0.341982901096344,-0.5130215287208557,0.6137288212776184,1.819945216178894
446,281448,281450,-0.03803398832678795,0.1414814591407776,0.9848763346672058,27.324657440185547,-10.732970237731934,18.106332778930664,-0.7244637608528137,1.4474276304244995,0.3434828221797943,-0.39713162183761597,0.7686232328414917,1.9708023071289062
447,281458,281460,0.04983674734830856,-0.057763732969760895,1.1052472591400146,20.828344345092773,-5.2254414558410645,17.89008903503418,-0.722963809967041,1.4399279356002808,0.32698363065719604,-0.2783648371696472,1.1387962102890015,2.186156988143921
448,281468,281470,0.0358414500951767,0.011501654982566833,0.9068983197212219,22.216445922851562,3.8779211044311523,18.74816131591797,-0.7289635539054871,1.436928153038025,0.32998350262641907,-0.27877259254455566,1.0102825164794922,2.266775369644165
449,281478,281480,0.026220854371786118,-0.08006760478019714,1.0900591611862183,3.565596103668213,2.8795387744903564,16.706920623779297,-0.7349632382392883,1.436928153038025,0.341982901096344,-0.3061943054199219,1.292293667793274,2.480861186981201
450,281488,281490,0.00929275806993246,0.030671387910842896,0.9565733075141907,-0.8907255530357361,3.289464235305786,16.370601654052734,-0.7289635539054871,1.4279285669326782,0.33598318696022034,-0.1746533364057541,1.1995222568511963,2.644573926925659
451,281498,281500,0.023224705830216408,-0.09736624360084534,1.1574907302856445,-16.954187393188477,-0.5812330842018127,13.340551376342773,-0.7349632382392883,1.4279285669326782,0.33898305892944336,-0.23812492191791534,1.1863658428192139,2.8034768104553223
452,281508,281510,-0.03951094299554825,0.011390729807317257,0.9934871196746826,-14.946779251098633,-1.4480129480361938,13.721567153930664,-0.7259637117385864,1.4339282512664795,0.32998350262641907,-0.25119009613990784,1.1548445224761963,2.964484214782715
453,281518,281520,-0.01736675575375557,-0.010139202699065208,1.1523007154464722,-19.134002685546875,-8.536478996276855,12.450959205627441,-0.7124643921852112,1.4264286756515503,0.33448326587677,-0.2485109269618988,0.8932664394378662,3.0727438926696777
454,281528,281530,-0.0773589164018631,0.1117505356669426,0.9601506590843201,-7.067845821380615,-1.831436038017273,12.765289306640625,-0.7184640765190125,1.408429503440857,0.32848358154296875,-0.27804458141326904,0.8880166411399841,3.2072396278381348
455,281538,281540,-0.03846869245171547,0.013548594899475574,1.1074084043502808,-5.983494281768799,-1.2282872200012207,11.820303916931152,-0.7214639186859131,1.4264286756515503,0.3314834237098694,-0.281054824590683,0.9013718962669373,3.3398499488830566
456,281548,281550,0.03486546874046326,-0.017585942521691322,1.0338817834854126,7.969082832336426,4.677579402923584,11.395366668701172,-0.7289635539054871,1.4249287843704224,0.32998350262641907,-0.29930010437965393,0.905550479888916,3.455274820327759
457,281558,281560,-0.007215254940092564,-0.09787344932556152,1.0854675769805908,1.4429932832717896,0.9090550541877747,9.942788124084473,-0.7289635539054871,1.4309284687042236,0.33898305892944336,-0.3234589993953705,1.012042760848999,3.5764148235321045
458,281568,281570,-0.08659421652555466,0.0478653758764267,0.9721724987030029,2.146660327911377,6.859989643096924,7.31428861618042,-0.7199639678001404,1.4249287843704224,0.3329833447933197,-0.3584851622581482,0.8812852501869202,3.646740674972534
459,281578,281580,-0.06134876608848572,0.054381754249334335,1.0714532136917114,-12.754254341125488,4.034769535064697,4.476098537445068,-0.7289635539054871,1.4189289808273315,0.32698363065719604,-0.4802676737308502,0.9835463166236877,3.7140731811523438
460,281588,281590,0.027494821697473526,0.048093464225530624,0.9870429039001465,-7.181791305541992,3.462491035461426,2.929932117462158,-0.7109644412994385,1.4189289808273315,0.3209839463233948,-0.3240315914154053,0.7927786707878113,3.7828731536865234
461,281598,281600,-0.022992147132754326,-0.08269885927438736,1.0947761535644531,-14.972620964050293,-8.311525344848633,-0.06436488777399063,-0.7124643921852112,1.4234287738800049,0.32848358154296875,-0.3545246720314026,0.6377200484275818,3.789287567138672
462,281608,281610,-0.09976780414581299,0.07485627382993698,0.9499732851982117,-6.074708938598633,-11.193524360656738,-1.1329039335250854,-0.7274636030197144,1.4234287738800049,0.3254837095737457,-0.30890655517578125,0.584295928478241,3.7839860916137695
463,281618,281620,-0.04726329445838928,0.08009738475084305,1.077075719833374,-10.41030502319336,-12.685484886169434,-2.890605926513672,-0.722963809967041,1.406929612159729,0.32998350262641907,-0.1387682408094406,0.40443453192710876,3.7625725269317627
464,281628,281630,0.04786936566233635,0.024257633835077286,0.9481305480003357,3.4659502506256104,-4.266740322113037,-3.509054183959961,-0.7049647569656372,1.4159291982650757,0.3329833447933197,-0.062382835894823074,0.39347878098487854,3.7270560264587402
465,281638,281640,0.012168241664767265,-0.10147534310817719,1.0745477676391602,5.103343963623047,-0.07763262093067169,-5.206333637237549,-0.7199639678001404,1.4129292964935303,0.3239837884902954,-0.06807316094636917,0.48252972960472107,3.684739589691162
466,281648,281650,-0.10236073285341263,0.054045289754867554,0.9990971684455872,15.307853698730469,10.865425109863281,-3.9502673149108887,-0.7064646482467651,1.4114294052124023,0.33448326587677,0.08102068305015564,0.5609183311462402,3.675605058670044
467,281658,281660,-0.037734225392341614,0.037781454622745514,0.926880419254303,11.2749662399292,17.234399795532227,-5.145164489746094,-0.7184640765190125,1.4114294052124023,0.3134843111038208,-0.0507248193025589,0.7759813070297241,3.6387510299682617
468,281668,281670,-0.03811643272638321,-0.016048124060034752,0.975498378276825,6.6665425300598145,19.278932571411133,-6.007359504699707,-0.7214639186859131,1.405429720878601,0.3434828221797943,-0.11382398754358292,0.9220801591873169,3.6108360290527344
469,281678,281680,-0.0664142444729805,-0.014125977642834187,1.0704096555709839,1.0610215663909912,20.616546630859375,-6.805382251739502,-0.7274636030197144,1.4024298191070557,0.33748310804367065,-0.49276408553123474,0.9846094846725464,3.5206196308135986
470,281688,281690,-0.013397661037743092,-0.027788791805505753,1.044224500656128,-3.161015510559082,17.99773597717285,-6.697082042694092,-0.7334632873535156,1.4144293069839478,0.3224838674068451,-0.5065240263938904,0.9317410588264465,3.4856932163238525
471,281698,281700,-0.04316028952598572,0.004676444455981255,1.0138874053955078,-6.898728370666504,11.012567520141602,-6.159163951873779,-0.7214639186859131,1.4144293069839478,0.33748310804367065,-0.59881591796875,0.9099093079566956,3.436457395553589
472,281708,281710,-0.04244088754057884,0.04545459523797035,0.9970042109489441,-9.103083610534668,4.16936731338501,-6.409717559814453,-0.7124643921852112,1.4024298191070557,0.3164841830730438,-0.783915102481842,0.7618438601493835,3.3535046577453613
473,281718,281720,-0.018062150105834007,0.0010279506677761674,0.9442655444145203,-8.716666221618652,0.9872336387634277,-6.89693021774292,-0.7184640765190125,1.408429503440857,0.3254837095737457,-0.7252185344696045,0.6405724287033081,3.3049678802490234
474,281728,281730,-0.0547049418091774,0.021154198795557022,1.0287480354309082,-3.708650827407837,-0.5293497443199158,-6.732336521148682,-0.722963809967041,1.4099295139312744,0.32998350262641907,-0.713305652141571,0.5340269804000854,3.236604690551758
475,281738,281740,-0.03437718003988266,-0.018253937363624573,0.9814023971557617,-2.0218429565429688,0.8176767826080322,-7.366281509399414,-0.7274636030197144,1.4174290895462036,0.3254837095737457,-0.624408483505249,0.6310141086578369,3.1929566860198975
476,281748,281750,-0.04221481829881668,0.04530245438218117,0.9561871886253357,-0.9273619055747986,3.098210096359253,-8.416060447692871,-0.7259637117385864,1.421928882598877,0.3209839463233948,-0.6440445780754089,0.6529987454414368,3.1166884899139404
