,timestamp_start,timestamp_end,acc.x,acc.y,acc.z,gyro.x,gyro.y,gyro.z,mag.x,mag.y,mag.z,stabilizer.pitch,stabilizer.roll,stabilizer.yaw
0,274655,274657,0.05449743941426277,0.11105976998806,0.9249016642570496,-29.401826858520508,32.32295227050781,4.337592124938965,-0.29848507046699524,0.07349632680416107,0.46047696471214294,0.8743035197257996,0.4309168756008148,0.5199458003044128
1,274665,274667,0.03920045122504234,0.11492617428302765,1.023780107498169,-39.481781005859375,20.51078224182129,5.614914894104004,-0.3119843900203705,0.09599519520998001,0.4469776451587677,0.5685026049613953,0.016496868804097176,0.5275044441223145
2,274675,274677,-0.07623996585607529,0.04695885255932808,0.9723510146141052,-42.20770263671875,1.1080877780914307,4.894671440124512,-0.3134843111038208,0.06149692460894585,0.4664766788482666,0.3962964117527008,-0.30180060863494873,0.6220282316207886
3,274685,274687,-0.032422810792922974,0.00024507701164111495,0.9892046451568604,-33.328155517578125,-13.162227630615234,4.638779163360596,-0.3134843111038208,0.06149692460894585,0.4664766788482666,0.5497250556945801,-0.7561413049697876,0.7476632595062256
4,274695,274697,0.000947913562413305,0.044600170105695724,0.9887543320655823,-18.3521728515625,-26.058095932006836,6.242029190063477,-0.3134843111038208,0.08849557489156723,0.45147740840911865,0.6395862102508545,-0.7967708706855774,0.8727295994758606
5,274715,274707,-0.1300564855337143,0.04917560890316963,0.9197729825973511,-8.286178588867188,-21.019365310668945,11.356051445007324,-0.30898454785346985,0.07499624788761139,0.455977201461792,1.2352005243301392,-1.0948512554168701,1.052628993988037
6,274725,274717,-0.11585628241300583,0.1506916731595993,0.914002537727356,-21.731836318969727,-9.338212966918945,8.639204978942871,-0.2864856719970703,0.0764961764216423,0.44247788190841675,1.4392507076263428,-1.3180005550384521,1.124677300453186
7,274735,274727,0.012071456760168076,0.13732381165027618,0.9170181751251221,-37.4881477355957,2.1303722858428955,4.007101058959961,-0.3059847056865692,0.08699564635753632,0.4349782466888428,1.599698781967163,-1.3990381956100464,1.2509291172027588
8,274745,274737,-0.04961249604821205,0.14467158913612366,0.9952336549758911,-46.53205108642578,19.790245056152344,0.816913366317749,-0.3164841830730438,0.09149542450904846,0.4454777240753174,1.485050082206726,-1.837846040725708,1.2541741132736206
9,274755,274757,0.023418959230184555,0.044238656759262085,1.0414823293685913,-48.885189056396484,34.06380844116211,-0.579379677772522,-0.31798410415649414,0.08399579674005508,0.455977201461792,1.322379231452942,-2.006040334701538,1.3031469583511353
10,274765,274767,-0.07931111752986908,-0.005463740322738886,1.053054690361023,-42.246002197265625,44.27102279663086,0.7402549982070923,-0.3059847056865692,0.11099445074796677,0.4469776451587677,0.817193329334259,-2.5930726528167725,1.2287893295288086
11,274775,274777,-0.10869058966636658,0.07815872877836227,0.9472439885139465,-37.39682388305664,42.85149383544922,1.1379361152648926,-0.3119843900203705,0.10199490189552307,0.44997748732566833,0.46446719765663147,-3.160555839538574,1.2035441398620605
12,274785,274787,-0.06315497308969498,0.03921503573656082,0.991151750087738,-30.649311065673828,30.249038696289062,1.3615598678588867,-0.30898454785346985,0.10799460113048553,0.44997748732566833,0.029475733637809753,-3.2863409519195557,1.2262413501739502
13,274795,274797,0.034078583121299744,-0.11793456971645355,1.024731159210205,-14.409400939941406,9.052117347717285,-0.8182017803192139,-0.31798410415649414,0.10199490189552307,0.44997748732566833,-0.258726567029953,-3.867635488510132,1.1879204511642456
14,274805,274807,-0.09374205023050308,-0.01743999682366848,0.8951363563537598,0.879584550857544,-11.933810234069824,-2.233525276184082,-0.3209839463233948,0.1049947515130043,0.44397780299186707,-0.3081079125404358,-3.802872896194458,1.225160837173462
15,274815,274817,-0.1286877691745758,-0.02128935046494007,0.9673078060150146,14.655559539794922,-25.179622650146484,-4.254980087280273,-0.3209839463233948,0.11099445074796677,0.44397780299186707,-0.18200212717056274,-4.1084065437316895,1.1656274795532227
16,274825,274837,-0.13180023431777954,-0.013051862828433514,0.937749445438385,26.198781967163086,-31.59065818786621,-5.958773612976074,-0.31798410415649414,0.10199490189552307,0.44997748732566833,-0.021061796694993973,-3.369723081588745,1.2566795349121094
17,274835,274847,-0.12371806800365448,-0.006967779248952866,0.8690821528434753,31.715316772460938,-24.377450942993164,-8.985502243041992,-0.30898454785346985,0.10799460113048553,0.44997748732566833,0.20300699770450592,-3.1895320415496826,1.2080211639404297
18,274845,274857,-0.09605096280574799,0.018373889848589897,0.9078048467636108,22.493854522705078,-10.588207244873047,-12.151865005493164,-0.3119843900203705,0.1049947515130043,0.455977201461792,0.5156116485595703,-2.907457113265991,1.1377315521240234
19,274855,274867,-0.06019572541117668,0.04224603250622749,0.9119523763656616,-1.5846641063690186,11.427590370178223,-16.196306228637695,-0.32848358154296875,0.10949452221393585,0.4634768068790436,0.38025620579719543,-2.8030176162719727,1.0217753648757935
20,274865,274887,0.008190774358808994,0.13417966663837433,0.9079532623291016,-23.938779830932617,31.870405197143555,-17.710716247558594,-0.3224838674068451,0.12449377030134201,0.46047696471214294,0.36552369594573975,-2.6805429458618164,0.8805726170539856
21,274875,274897,0.019576722756028175,0.0762612447142601,0.9944881796836853,-41.59749221801758,38.461307525634766,-18.839298248291016,-0.3224838674068451,0.12749361991882324,0.4544772803783417,0.05568638816475868,-3.050285577774048,0.6663113832473755
22,274885,274907,-0.06729500740766525,-0.03934577479958534,0.89447021484375,-44.38516616821289,34.20612335205078,-18.967788696289062,-0.3254837095737457,0.12449377030134201,0.4664766788482666,-0.4613696038722992,-3.2146177291870117,0.51070237159729
23,274895,274917,-0.14142277836799622,0.0456710159778595,0.8548471331596375,-36.777488708496094,20.49195098876953,-19.968313217163086,-0.3119843900203705,0.1319933980703354,0.44997748732566833,-0.807762622833252,-3.819628953933716,0.2723327875137329
24,274905,274927,-0.03858726844191551,0.08423161506652832,0.9113685488700867,-21.961225509643555,5.595521926879883,-20.509387969970703,-0.3239837884902954,0.13499325513839722,0.45297732949256897,-1.0098798274993896,-4.271559238433838,0.04604366421699524
25,274915,274937,-0.0057051293551921844,0.05114872753620148,0.9448163509368896,-3.8846001625061035,-7.303140163421631,-20.785654067993164,-0.32848358154296875,0.11849407106637955,0.44247788190841675,-1.0447629690170288,-4.334414958953857,-0.12753689289093018
26,274925,274947,-0.044052526354789734,0.016458958387374878,0.900816798210144,14.970720291137695,-16.95522117614746,-20.064363479614258,-0.3134843111038208,0.10949452221393585,0.4574771225452423,-0.9642001390457153,-4.389420032501221,-0.32409459352493286
27,274935,274957,-0.06750813871622086,0.000672000227496028,0.8862226605415344,24.564743041992188,-27.61644744873047,-20.034225463867188,-0.3149842321872711,0.09599519520998001,0.4649767279624939,-0.8622839450836182,-4.315959930419922,-0.516289234161377
28,274945,274967,-0.04696618393063545,0.01918620802462101,0.904821515083313,26.832509994506836,-32.840576171875,-20.955656051635742,-0.3059847056865692,0.11099445074796677,0.45297732949256897,-0.5346858501434326,-4.037497520446777,-0.6960213780403137
29,274955,274977,-0.12841951847076416,0.06730306893587112,0.7589526772499084,25.687410354614258,-31.93427276611328,-22.329153060913086,-0.3164841830730438,0.10649467259645462,0.45147740840911865,-0.4048358201980591,-3.7243781089782715,-0.8282542824745178
30,274965,274987,-0.05258164554834366,0.030025193467736244,0.8690695762634277,26.88565444946289,-21.27988052368164,-22.603343963623047,-0.3164841830730438,0.10049497336149216,0.4634768068790436,-0.1091071367263794,-3.467088222503662,-1.0167893171310425
31,274975,274997,-0.014072139747440815,0.01959008350968361,0.8830586075782776,25.881803512573242,-9.136842727661133,-23.94198226928711,-0.3164841830730438,0.10049497336149216,0.4544772803783417,0.17151059210300446,-3.203099012374878,-1.2297661304473877
32,274985,275007,-0.07838793098926544,-0.03275701403617859,0.9381522536277771,18.18595314025879,1.0766137838363647,-24.52785301208496,-0.31048446893692017,0.11249437183141708,0.46947652101516724,0.11610711365938187,-3.114149808883667,-1.4564554691314697
33,274995,275017,-0.093385249376297,0.017501136288046837,1.020209789276123,9.987849235534668,5.983577728271484,-25.094350814819336,-0.2954852283000946,0.11849407106637955,0.4394780099391937,-0.005101180635392666,-2.9088926315307617,-1.6683313846588135
34,275005,275027,-0.10630353540182114,0.013531506061553955,1.0131800174713135,2.7650842666625977,3.5928499698638916,-26.91259765625,-0.30898454785346985,0.11099445074796677,0.455977201461792,-0.02649953030049801,-2.8349609375,-1.9342166185379028
35,275015,275047,0.010350985452532768,-0.012893577106297016,1.000976800918579,4.765611171722412,-6.6187825202941895,-29.75181770324707,-0.3014849126338959,0.10349482297897339,0.4574771225452423,-0.25232040882110596,-2.7514870166778564,-2.1508796215057373
36,275025,275057,0.01241359207779169,-0.01631634682416916,0.9274677038192749,19.606340408325195,-21.268524169921875,-30.569873809814453,-0.28948551416397095,0.08849557489156723,0.44247788190841675,-0.021596664562821388,-2.527097702026367,-2.438405990600586
37,275035,275067,-0.09914088249206543,0.10794983804225922,0.8845237493515015,29.16078758239746,-31.11503028869629,-28.245046615600586,-0.29998499155044556,0.08699564635753632,0.44397780299186707,0.3300802409648895,-2.4667842388153076,-2.782325029373169
38,275045,275077,-0.17950990796089172,-0.0343133844435215,1.002057433128357,26.071470260620117,-38.255332946777344,-27.12042236328125,-0.28498575091362,0.08699564635753632,0.44997748732566833,0.3410571813583374,-2.1384117603302,-2.997769832611084
39,275055,275087,0.006197390146553516,0.0765787661075592,0.963676929473877,21.1364688873291,-42.58585739135742,-25.8360538482666,-0.2924853563308716,0.09749512374401093,0.448477566242218,0.8305796384811401,-1.7925904989242554,-3.264519214630127
40,275065,275097,0.009196748025715351,0.02609076537191868,0.9137340188026428,15.131704330444336,-41.46623229980469,-23.360639572143555,-0.2939853072166443,0.09299534559249878,0.46197688579559326,1.073805570602417,-1.7195607423782349,-3.5047144889831543
41,275075,275107,-0.03481658175587654,-0.04872937873005867,0.9807495474815369,5.066413402557373,-28.57369041442871,-19.2224178314209,-0.28198590874671936,0.1049947515130043,0.44097793102264404,1.5502040386199951,-1.5522656440734863,-3.739114761352539
42,275085,275117,0.060484856367111206,0.06699873507022858,0.9537531137466431,-8.26667594909668,-6.013180732727051,-13.680170059204102,-0.29848507046699524,0.10049497336149216,0.448477566242218,1.6426811218261719,-1.5486292839050293,-3.907230854034424
43,275095,275127,0.015475443564355373,0.04634489119052887,0.9620269536972046,-24.359634399414062,14.710406303405762,-12.0064697265625,-0.2834858298301697,0.10649467259645462,0.45147740840911865,1.5398733615875244,-1.693280577659607,-4.034210681915283
44,275105,275147,-0.013673795387148857,0.12316499650478363,0.9441570043563843,-28.19441795349121,23.873689651489258,-10.312580108642578,-0.2834858298301697,0.09749512374401093,0.448477566242218,1.4427305459976196,-1.9634532928466797,-4.163100242614746
45,275115,275157,-0.05877818539738655,0.05207518860697746,0.9946100115776062,-20.3662166595459,16.879676818847656,-10.10721492767334,-0.28048595786094666,0.09149542450904846,0.44247788190841675,1.1837092638015747,-2.1743528842926025,-4.270198345184326
46,275125,275167,-0.02984023280441761,-0.08415646106004715,0.973330557346344,-6.377169609069824,-0.58036869764328,-10.735991477966309,-0.27298635244369507,0.07199639827013016,0.44097793102264404,0.8756885528564453,-2.249730348587036,-4.359683990478516
47,275135,275177,0.01725027523934841,0.1361214965581894,0.9841599464416504,15.681197166442871,-24.897968292236328,-9.765364646911621,-0.2639867961406708,0.07499624788761139,0.455977201461792,1.0968694686889648,-2.2782390117645264,-4.483463764190674
48,275145,275187,-0.0654565691947937,-0.015582212246954441,1.0438973903656006,31.22556495666504,-44.17738723754883,-9.041569709777832,-0.25198739767074585,0.0659966990351677,0.4469776451587677,1.0259103775024414,-1.9909881353378296,-4.54334831237793
49,275155,275197,-0.06020364165306091,-0.056008122861385345,0.9490684270858765,42.39409637451172,-58.168785095214844,-7.752744197845459,-0.26248687505722046,0.06749662756919861,0.4454777240753174,1.6184180974960327,-1.5517445802688599,-4.629471778869629
50,275165,275207,-0.10724025219678879,-0.09473983198404312,1.0845261812210083,46.45172882080078,-54.675540924072266,-5.556853771209717,-0.25198739767074585,0.06299684941768646,0.44997748732566833,2.396744728088379,-1.1126986742019653,-4.7129082679748535
51,275175,275217,-0.08673965930938721,0.19153663516044617,0.9612670540809631,38.16096115112305,-47.41961669921875,-3.186760902404785,-0.2474876195192337,0.05549722537398338,0.4364781677722931,2.4657599925994873,-0.6631995439529419,-4.727878093719482
52,275185,275227,-0.03293927386403084,0.07211340963840485,1.0130881071090698,23.307538986206055,-33.03681945800781,-1.391432285308838,-0.23398829996585846,0.056997150182724,0.455977201461792,3.260601282119751,-0.17651288211345673,-4.777502536773682
53,275195,275237,-0.06135610118508339,0.0912272110581398,0.947242021560669,9.614651679992676,-26.056190490722656,0.4299895167350769,-0.2549872398376465,0.06899654865264893,0.44997748732566833,3.139312744140625,0.08771109580993652,-4.779290199279785
54,275205,275247,-0.04656217247247696,0.03506285697221756,1.0553536415100098,-1.6619497537612915,-21.017127990722656,1.9701660871505737,-0.23998799920082092,0.05999699980020523,0.4589770436286926,3.571730375289917,0.06417915225028992,-4.770678997039795
55,275215,275257,-0.020657457411289215,0.008636419661343098,1.085750699043274,-14.652178764343262,-18.96711540222168,6.01839017868042,-0.25198739767074585,0.05999699980020523,0.4469776451587677,3.781187057495117,0.0757918506860733,-4.754934787750244
56,275225,275267,-0.13436904549598694,-0.049312394112348557,1.076572299003601,-27.344751358032227,-14.4844970703125,7.6314592361450195,-0.24298784136772156,0.050997450947761536,0.4589770436286926,3.936863660812378,-0.1364356428384781,-4.695549011230469
57,275235,275277,-0.03381446748971939,0.002337970770895481,1.0961543321609497,-31.148921966552734,-15.38735294342041,9.368579864501953,-0.24898754060268402,0.05399730056524277,0.45297732949256897,3.708299398422241,-0.34084272384643555,-4.6486897468566895
58,275255,275287,-0.03605649247765541,0.04013276845216751,1.134007215499878,-24.64715576171875,-14.3056640625,11.1879243850708,-0.23098844289779663,0.05399730056524277,0.4469776451587677,4.08553409576416,-0.7026333212852478,-4.5087456703186035
59,275265,275297,-0.008248847909271717,0.009522913955152035,1.0730822086334229,-13.006044387817383,-10.793097496032715,12.1180419921875,-0.2294885218143463,0.05249737575650215,0.4394780099391937,4.321371555328369,-1.0609604120254517,-4.370646953582764
60,275275,275307,-0.03951597586274147,0.05158822238445282,1.1555901765823364,-3.2469327449798584,-6.02959680557251,12.492316246032715,-0.2189890444278717,0.056997150182724,0.44397780299186707,4.346664905548096,-1.1704092025756836,-4.273234844207764
61,275285,275317,-0.06888937205076218,0.10662643611431122,1.0661894083023071,4.15405797958374,1.831238865852356,13.990599632263184,-0.23398829996585846,0.06899654865264893,0.4349782466888428,4.202310085296631,-1.2713004350662231,-4.155450820922852
62,275295,275327,-0.02472653053700924,0.05705670267343521,1.1106414794921875,11.127507209777832,13.309154510498047,16.99993896484375,-0.23998799920082092,0.05399730056524277,0.45297732949256897,4.211877346038818,-1.2449560165405273,-4.022160530090332
63,275305,275337,0.0008409927831962705,0.01968042552471161,1.1241528987884521,14.431120872497559,16.400632858276367,19.364213943481445,-0.23248836398124695,0.06449677050113678,0.448477566242218,4.155482769012451,-1.1291708946228027,-3.870081901550293
64,275315,275347,0.05918380990624428,0.06518552452325821,1.0650726556777954,18.58566665649414,17.200040817260742,21.849178314208984,-0.24298784136772156,0.07199639827013016,0.4349782466888428,4.024852752685547,-0.8060453534126282,-3.745651960372925
65,275325,275357,0.06923814862966537,0.07880072295665741,1.0337297916412354,6.80587100982666,13.833340644836426,22.300922393798828,-0.2564871609210968,0.07349632680416107,0.45147740840911865,3.620497465133667,-0.6625077128410339,-3.5493123531341553
66,275335,275367,-0.1047431156039238,-0.0010528956772759557,1.0551940202713013,-9.19807243347168,15.071459770202637,22.43398666381836,-0.2579870820045471,0.08099594712257385,0.4589770436286926,3.520968437194824,-0.6900290250778198,-3.287001609802246
67,275345,275377,-0.11922570317983627,-0.1035531610250473,1.0695159435272217,-23.532758712768555,9.760516166687012,21.878833770751953,-0.2564871609210968,0.0764961764216423,0.45147740840911865,3.439113140106201,-0.8116850256919861,-3.0415890216827393
68,275355,275387,-0.09271909296512604,-0.09927213937044144,1.121018409729004,-34.211952209472656,-2.8625009059906006,19.035964965820312,-0.2549872398376465,0.08099594712257385,0.44097793102264404,3.3185205459594727,-1.2131555080413818,-2.7586426734924316
69,275365,275397,-0.0090874545276165,-0.04068548604846001,1.1087415218353271,-38.004249572753906,-14.785082817077637,15.986385345458984,-0.23998799920082092,0.08699564635753632,0.44397780299186707,3.032748222351074,-1.4712797403335571,-2.612942934036255
70,275375,275407,0.046868424862623215,0.024686036631464958,1.1786168813705444,-30.948930740356445,-22.900859832763672,14.40103530883789,-0.24898754060268402,0.07499624788761139,0.44397780299186707,3.3571367263793945,-1.8190876245498657,-2.435586452484131
71,275385,275417,0.08353544771671295,-0.03277331218123436,1.0758453607559204,-18.67326545715332,-26.32257652282715,13.018155097961426,-0.25348731875419617,0.0764961764216423,0.4574771225452423,3.4925386905670166,-1.9141203165054321,-2.368589401245117
72,275395,275427,0.053155481815338135,-0.054286133497953415,1.0266022682189941,-5.87400484085083,-24.32361602783203,11.621180534362793,-0.25048747658729553,0.09149542450904846,0.4574771225452423,3.874558210372925,-2.2545559406280518,-2.17895245552063
73,275405,275437,-0.0024090337101370096,-0.0581434927880764,0.9939087629318237,8.031137466430664,-13.848647117614746,10.061033248901367,-0.24448777735233307,0.10049497336149216,0.4574771225452423,3.8297197818756104,-2.2986371517181396,-2.0900444984436035
74,275415,275447,-0.069964699447155,-0.05711964890360832,1.0150309801101685,17.907384872436523,-3.9087870121002197,9.321396827697754,-0.2564871609210968,0.08249587565660477,0.4574771225452423,3.865523099899292,-2.205847978591919,-2.004594087600708
75,275425,275457,-0.0706879049539566,-0.013541550375521183,1.0139697790145874,25.99679183959961,7.3371052742004395,8.842777252197266,-0.25048747658729553,0.085495725274086,0.4454777240753174,4.021627426147461,-1.9453935623168945,-1.941375970840454
76,275435,275477,-0.012212634086608887,-0.030063804239034653,1.0751514434814453,26.87334632873535,17.077619552612305,9.2787504196167,-0.26998651027679443,0.08999549597501755,0.4469776451587677,3.9294989109039307,-1.8033373355865479,-1.8214521408081055
77,275445,275487,0.03027043119072914,0.023296302184462547,1.0716255903244019,19.461040496826172,22.00676155090332,9.730620384216309,-0.27148643136024475,0.09749512374401093,0.45147740840911865,3.6876044273376465,-1.4564329385757446,-1.7638853788375854
78,275455,275497,0.09718839824199677,0.05079547315835953,1.0742881298065186,4.285189628601074,18.108135223388672,8.440813064575195,-0.2474876195192337,0.085495725274086,0.44247788190841675,3.4016616344451904,-1.3348791599273682,-1.6435893774032593
79,275465,275507,0.007461081258952618,0.042478520423173904,1.0473179817199707,-12.303987503051758,13.040725708007812,8.576167106628418,-0.27148643136024475,0.07949602603912354,0.46047696471214294,3.243445873260498,-1.3724029064178467,-1.5215928554534912
80,275475,275517,0.031190520152449608,0.01726548559963703,1.1320133209228516,-25.39229965209961,6.062911510467529,8.606270790100098,-0.2579870820045471,0.08699564635753632,0.45297732949256897,3.1000008583068848,-1.4381508827209473,-1.4478317499160767
81,275485,275527,0.0015822573332116008,0.013979309238493443,1.054787039756775,-27.984146118164062,0.2824414074420929,7.874631881713867,-0.26098695397377014,0.08699564635753632,0.4379780888557434,3.1214137077331543,-1.6016788482666016,-1.3835922479629517
82,275495,275537,-0.02074391208589077,0.016530493274331093,1.0221996307373047,-21.598098754882812,-4.352542400360107,7.171067237854004,-0.24298784136772156,0.07799609750509262,0.45297732949256897,2.748380184173584,-2.0582833290100098,-1.2623498439788818
83,275505,275577,0.056607283651828766,0.2722668945789337,1.054795742034912,-7.485439777374268,-4.058626651763916,6.461872100830078,-0.26098695397377014,0.08999549597501755,0.455977201461792,2.722088098526001,-2.2180776596069336,-1.2134867906570435
84,275515,275587,0.04269813001155853,0.2485755980014801,1.048956274986267,5.970334529876709,-5.249657154083252,5.738126277923584,-0.2639867961406708,0.09299534559249878,0.455977201461792,2.8499600887298584,-2.235337257385254,-1.1700702905654907
85,275535,275597,0.019847439602017403,0.1888430416584015,1.0561212301254272,30.014854431152344,-4.882333278656006,5.921365737915039,-0.26998651027679443,0.09299534559249878,0.44997748732566833,2.9618027210235596,-1.979496717453003,-1.0635032653808594
86,275575,275607,0.02803857810795307,0.13192874193191528,1.0241034030914307,-6.98578405380249,9.846287727355957,0.4988442659378052,-0.2759861946105957,0.08699564635753632,0.455977201461792,2.5000438690185547,-1.1131657361984253,-0.9097039103507996
87,275585,275627,0.0044318498112261295,0.057438284158706665,0.9941575527191162,-13.198290824890137,2.1191751956939697,0.2753870189189911,-0.26248687505722046,0.085495725274086,0.4454777240753174,2.343031167984009,-1.1977715492248535,-0.8929666876792908
88,275595,275637,-0.004197089001536369,0.015190406702458858,1.0043251514434814,-13.789419174194336,-5.118964195251465,0.538854718208313,-0.27298635244369507,0.08999549597501755,0.4469776451587677,2.3005011081695557,-1.4216084480285645,-0.8641173839569092
89,275605,275647,-0.00503420177847147,0.018534265458583832,1.0234217643737793,-13.296662330627441,-8.722326278686523,-0.18260832130908966,-0.2564871609210968,0.08249587565660477,0.45147740840911865,2.4887542724609375,-1.5130236148834229,-0.862617015838623
90,275615,275657,-0.009821310639381409,0.004773660562932491,0.9969680905342102,-8.885196685791016,-9.21623706817627,-0.48911523818969727,-0.26848655939102173,0.0944952741265297,0.46047696471214294,2.5759212970733643,-1.6483057737350464,-0.8579711318016052
91,275625,275667,0.05409667640924454,0.04047203063964844,0.9861807823181152,-3.766414165496826,-10.33714485168457,-1.4405087232589722,-0.26998651027679443,0.08699564635753632,0.4469776451587677,2.35076642036438,-1.6578447818756104,-0.8846996426582336
92,275635,275677,0.033758558332920074,0.053685467690229416,0.9538733959197998,3.0982587337493896,-4.746429443359375,-2.441904306411743,-0.26998651027679443,0.07799609750509262,0.46197688579559326,2.603316068649292,-1.7118817567825317,-0.8902908563613892
93,275645,275687,-0.007602874655276537,-0.008310317061841488,0.9502638578414917,9.582321166992188,-5.184556484222412,-3.1539599895477295,-0.2594870328903198,0.07949602603912354,0.45147740840911865,2.4492409229278564,-1.7235214710235596,-0.9058250784873962
94,275655,275697,-0.0965576022863388,-0.026814911514520645,0.9350962042808533,14.506474494934082,-12.766744613647461,-3.8009040355682373,-0.2639867961406708,0.09599519520998001,0.4469776451587677,2.6797046661376953,-1.5675957202911377,-0.9467701315879822
95,275665,275707,-0.12737952172756195,0.0076808021403849125,1.046663522720337,15.110651016235352,-16.702468872070312,-4.106886386871338,-0.25198739767074585,0.09299534559249878,0.45297732949256897,2.910480499267578,-1.3563343286514282,-0.9908480048179626
96,275675,275717,-0.06853234022855759,-0.09817655384540558,1.0106215476989746,14.072371482849121,-21.37924575805664,-4.393815994262695,-0.25198739767074585,0.09299534559249878,0.45297732949256897,2.742934226989746,-1.2037006616592407,-1.0310111045837402
97,275685,275727,0.008658022619783878,-0.11985108256340027,0.9773577451705933,9.55797004699707,-18.69124984741211,-4.25903844833374,-0.25198739767074585,0.09299534559249878,0.45297732949256897,3.0455269813537598,-1.0740268230438232,-1.065862774848938
98,275695,275747,0.06402185559272766,-0.020742742344737053,0.9792224168777466,5.978661060333252,-9.144951820373535,-3.838005542755127,-0.25198739767074585,0.09299534559249878,0.45297732949256897,3.181978464126587,-0.9358423948287964,-1.111598253250122
99,275705,275757,0.05378881096839905,0.006124961189925671,1.0169389247894287,2.5086822509765625,0.08830526471138,-3.587404251098633,-0.27298635244369507,0.1049947515130043,0.45297732949256897,3.3862433433532715,-0.871676504611969,-1.149166464805603
100,275715,275767,0.1229274719953537,0.05457519367337227,0.9784101247787476,4.072923183441162,12.588685035705566,-3.1676714420318604,-0.26098695397377014,0.08399579674005508,0.4469776451587677,3.269965648651123,-0.8987551927566528,-1.1790874004364014
101,275725,275777,0.07914815098047256,0.13322307169437408,1.0523006916046143,2.8438515663146973,27.272829055786133,-1.9485632181167603,-0.26248687505722046,0.07949602603912354,0.4544772803783417,3.0847108364105225,-0.8506659269332886,-1.2173629999160767
102,275735,275787,0.10927300155162811,0.029229549691081047,0.9480835795402527,0.759370744228363,32.818077087402344,-1.3259974718093872,-0.25348731875419617,0.0764961764216423,0.448477566242218,2.724822759628296,-0.8251265287399292,-1.247861385345459
103,275745,275797,0.06410670280456543,-0.05526270717382431,0.8993658423423767,0.5816391706466675,24.60332489013672,0.20201706886291504,-0.26998651027679443,0.07499624788761139,0.45297732949256897,2.3410332202911377,-0.8210209012031555,-1.2678112983703613
104,275755,275807,0.03382478654384613,-0.0991157814860344,0.9084321856498718,4.626031398773193,10.382540702819824,2.0773990154266357,-0.26848655939102173,0.09149542450904846,0.4394780099391937,2.0956807136535645,-0.797888994216919,-1.2723568677902222
105,275775,275817,-0.03915448114275932,-0.043710093945264816,0.9050101637840271,6.285807132720947,-20.713964462280273,5.469351291656494,-0.2669866383075714,0.10199490189552307,0.44997748732566833,2.3315861225128174,-0.6738537549972534,-1.2050186395645142
106,275785,275827,-0.008777020499110222,0.01348742377012968,0.9153975248336792,0.40561896562576294,-22.271869659423828,6.482099533081055,-0.2564871609210968,0.0764961764216423,0.448477566242218,2.1081058979034424,-0.5942673683166504,-1.1794238090515137
107,275795,275837,0.0026929141022264957,-0.013209395110607147,0.973251461982727,-7.180850028991699,-11.290371894836426,6.97870397567749,-0.26098695397377014,0.08999549597501755,0.44397780299186707,2.165320634841919,-0.6034467816352844,-1.1207236051559448
108,275805,275847,0.016864590346813202,-0.1500549614429474,0.9496508240699768,-16.956829071044922,3.694222927093506,8.177313804626465,-0.25348731875419617,0.07949602603912354,0.4454777240753174,2.3229339122772217,-0.7510879635810852,-1.039634346961975
109,275815,275857,0.06738878041505814,-0.17059287428855896,0.9845701456069946,-21.75269889831543,12.478065490722656,8.853445053100586,-0.2669866383075714,0.07499624788761139,0.44097793102264404,2.3293516635894775,-0.8257081508636475,-0.96917325258255
110,275825,275867,0.10155526548624039,-0.11637720465660095,1.0407273769378662,-20.4394474029541,12.74021053314209,9.021536827087402,-0.25348731875419617,0.058497074991464615,0.4454777240753174,2.2343413829803467,-1.1063838005065918,-0.8814358115196228
111,275835,275877,0.13624048233032227,-0.1012955754995346,1.080330491065979,-11.441376686096191,5.173701763153076,8.353422164916992,-0.25198739767074585,0.0659966990351677,0.44997748732566833,2.1508376598358154,-1.2547980546951294,-0.7984427213668823
112,275845,275897,0.05790551379323006,-0.22402144968509674,1.0012232065200806,-0.9623669981956482,-0.29719606041908264,7.956477642059326,-0.25198739767074585,0.08099594712257385,0.4469776451587677,2.1582207679748535,-1.2581299543380737,-0.7204428315162659
113,275855,275917,-0.004477895330637693,-0.11113481223583221,0.9514612555503845,8.920772552490234,-7.962580680847168,7.019914150238037,-0.2744862735271454,0.08849557489156723,0.4454777240753174,2.2819418907165527,-1.2364726066589355,-0.634703516960144
114,275865,275927,0.03154853358864784,-0.04724099859595299,1.0002723932266235,16.13164710998535,-12.613419532775879,6.219902515411377,-0.2654867172241211,0.07949602603912354,0.4454777240753174,2.2302048206329346,-1.2082808017730713,-0.5659322738647461
115,275875,275937,0.009267093613743782,-0.06635584682226181,1.0763946771621704,16.365114212036133,-12.278053283691406,6.090369701385498,-0.2579870820045471,0.09599519520998001,0.4589770436286926,2.0946922302246094,-1.1670767068862915,-0.5067582726478577
116,275885,275947,-0.022388475015759468,-0.10596376657485962,1.0180286169052124,11.060260772705078,-10.415700912475586,5.262563705444336,-0.2579870820045471,0.08699564635753632,0.4589770436286926,2.2386767864227295,-1.1362690925598145,-0.4304368197917938
117,275895,275957,-0.0339113287627697,-0.013311033137142658,1.0236891508102417,4.928555011749268,-7.115997791290283,4.233765125274658,-0.2594870328903198,0.09149542450904846,0.4544772803783417,2.4005329608917236,-0.9671443700790405,-0.37228596210479736
118,275905,275967,0.006700623314827681,0.009006454609334469,1.0158112049102783,1.312487244606018,-3.072385549545288,2.721118450164795,-0.2549872398376465,0.06899654865264893,0.45297732949256897,2.4997384548187256,-0.8892602324485779,-0.328917920589447
119,275915,275977,-0.011355284601449966,0.027809666469693184,1.0328145027160645,-0.07644365727901459,0.4850822687149048,0.07798794656991959,-0.2579870820045471,0.0659966990351677,0.44397780299186707,2.6066675186157227,-0.7965763807296753,-0.30375391244888306
120,275925,275987,-0.007597201969474554,0.02835632674396038,1.043042778968811,0.6470715999603271,1.939010500907898,-1.6425799131393433,-0.2579870820045471,0.0659966990351677,0.44997748732566833,2.588224172592163,-0.8534315228462219,-0.2976706624031067
121,275935,275997,-0.013580886647105217,0.016713200137019157,1.045705795288086,3.731109142303467,2.3825337886810303,-2.642216682434082,-0.2579870820045471,0.08099594712257385,0.4589770436286926,2.6070635318756104,-0.8078428506851196,-0.3112635612487793
122,275945,276007,-0.018164504319429398,-0.010003067553043365,1.0084871053695679,8.66772747039795,3.6344337463378906,-4.086390495300293,-0.2549872398376465,0.06899654865264893,0.455977201461792,2.536815881729126,-0.713705837726593,-0.343293160200119
123,275965,276017,0.027576517313718796,0.09424736350774765,0.997579038143158,17.131959915161133,3.663555860519409,-8.217245101928711,-0.2639867961406708,0.08699564635753632,0.44997748732566833,2.3901796340942383,-0.5211584568023682,-0.44472888112068176
124,275975,276027,-0.04220841825008392,0.07022169232368469,1.0648859739303589,23.824953079223633,1.5609644651412964,-9.147210121154785,-0.2594870328903198,0.08849557489156723,0.448477566242218,2.054196834564209,-0.4747885763645172,-0.5362823605537415
125,275985,276047,-0.04600182920694351,-0.23420006036758423,0.911640465259552,24.88189125061035,-1.24152672290802,-9.654009819030762,-0.26998651027679443,0.08099594712257385,0.4469776451587677,2.046926975250244,-0.07166939973831177,-0.6332265138626099
126,275995,276057,-0.031986430287361145,-0.12277286499738693,0.9884552955627441,24.00920867919922,-4.268730163574219,-9.998485565185547,-0.2669866383075714,0.07199639827013016,0.45297732949256897,2.084834337234497,0.12608221173286438,-0.7218838930130005
127,276005,276067,-0.06052902340888977,0.015094224363565445,0.9773335456848145,19.60820960998535,-7.046701431274414,-10.655386924743652,-0.26248687505722046,0.0944952741265297,0.4544772803783417,2.1666674613952637,0.3708905279636383,-0.8146253824234009
128,276025,276077,-0.13959378004074097,0.22288337349891663,0.9630925059318542,4.751001834869385,-11.413336753845215,-11.623744010925293,-0.25348731875419617,0.058497074991464615,0.4454777240753174,2.3392176628112793,0.5864049792289734,-1.0260661840438843
129,276035,276087,-0.07120098173618317,0.2781403958797455,1.0081721544265747,0.6547942161560059,-12.308323860168457,-10.061083793640137,-0.2639867961406708,0.08399579674005508,0.4589770436286926,2.4182372093200684,0.6185360550880432,-1.142878770828247
130,276045,276097,-0.0885395035147667,0.0748993307352066,1.048337697982788,-6.865734100341797,-6.1615095138549805,-9.135825157165527,-0.26098695397377014,0.07499624788761139,0.44397780299186707,2.6222567558288574,0.6256327033042908,-1.2370738983154297
131,276055,276107,0.0012907678028568625,-0.16214372217655182,0.9919672012329102,-5.421170711517334,-2.0710344314575195,-6.399022102355957,-0.2594870328903198,0.07349632680416107,0.4454777240753174,2.675845146179199,0.6247535943984985,-1.3376975059509277
132,276065,276117,0.01814153976738453,-0.24058401584625244,0.8862917423248291,1.7779242992401123,-0.6977591514587402,-2.2339274883270264,-0.2669866383075714,0.07499624788761139,0.4469776451587677,2.743018388748169,0.6519798040390015,-1.4091064929962158
133,276085,276127,-0.045497432351112366,-0.028456121683120728,0.9851235151290894,13.771743774414062,5.875918865203857,3.1189980506896973,-0.2744862735271454,0.06149692460894585,0.4364781677722931,2.9034650325775146,0.838466465473175,-1.4245073795318604
134,276095,276137,-0.041455745697021484,0.024760721251368523,0.9816213846206665,21.961868286132812,10.887799263000488,6.3392510414123535,-0.2579870820045471,0.05999699980020523,0.44097793102264404,2.526350736618042,1.0357279777526855,-1.45830500125885
135,276105,276147,-0.048350341618061066,0.0027540642768144608,0.9530383944511414,18.98219108581543,14.258877754211426,8.612467765808105,-0.2639867961406708,0.08099594712257385,0.44997748732566833,2.5903704166412354,1.2237294912338257,-1.3675520420074463
136,276115,276157,0.02851991541683674,0.012222404591739178,0.9032888412475586,7.146585464477539,14.26915454864502,10.350410461425781,-0.26848655939102173,0.0764961764216423,0.4634768068790436,2.390836000442505,1.4708553552627563,-1.2993297576904297
137,276125,276177,-0.01290037576109171,-0.05012636259198189,0.9523546695709229,-8.794894218444824,16.217388153076172,12.431034088134766,-0.2654867172241211,0.06149692460894585,0.4544772803783417,2.2330780029296875,1.5065432786941528,-1.1929422616958618
138,276135,276187,-0.07796499133110046,-0.04899972677230835,0.9537176489830017,-22.78959846496582,16.346773147583008,14.865655899047852,-0.2564871609210968,0.0764961764216423,0.4364781677722931,1.9998526573181152,1.304675817489624,-1.080125331878662
139,276145,276207,0.05555187165737152,-0.0015971021493896842,0.9737119078636169,-31.83357810974121,11.21916675567627,18.47610092163086,-0.25348731875419617,0.06749662756919861,0.46047696471214294,1.660772442817688,1.048797369003296,-0.9733549356460571
140,276155,276217,-0.02242368273437023,-0.0701683908700943,0.9806835651397705,-36.58890151977539,3.55013108253479,22.89275360107422,-0.2474876195192337,0.06749662756919861,0.4574771225452423,1.7577592134475708,0.8743362426757812,-0.7499180436134338
141,276165,276227,0.020216139033436775,-0.024395158514380455,0.9578220248222351,-37.88252258300781,-7.008974075317383,24.511327743530273,-0.23098844289779663,0.05999699980020523,0.4469776451587677,1.6951169967651367,0.5452242493629456,-0.5380986332893372
142,276175,276237,-0.07964115589857101,0.14356158673763275,0.9155517816543579,-35.12471389770508,-14.96342658996582,26.815956115722656,-0.23548822104930878,0.05549722537398338,0.45147740840911865,1.8511093854904175,0.0672052726149559,-0.2677317261695862
143,276185,276247,-0.03544924780726433,0.1593276709318161,0.872947096824646,-31.98562240600586,-15.93677806854248,28.832744598388672,-0.23998799920082092,0.056997150182724,0.45297732949256897,2.094682216644287,-0.08459492772817612,0.016265781596302986
144,276195,276257,0.13260319828987122,0.06277699023485184,1.127567172050476,-25.32008934020996,-14.229655265808105,31.175012588500977,-0.25348731875419617,0.06149692460894585,0.4394780099391937,2.203286647796631,-0.45786550641059875,0.2906416356563568
145,276205,276267,0.1346987932920456,-0.04762205854058266,0.9986658096313477,-19.799518585205078,-4.2468037605285645,32.94248962402344,-0.25048747658729553,0.06149692460894585,0.4364781677722931,2.2975940704345703,-0.7365178465843201,0.5884220004081726
146,276215,276277,-0.017495740205049515,0.03890761360526085,1.0263526439666748,-14.504420280456543,3.988342761993408,33.47787094116211,-0.2369881421327591,0.05999699980020523,0.4379780888557434,1.891282081604004,-0.9237817525863647,0.8181303143501282
147,276225,276287,-0.041526880115270615,0.06521935015916824,0.9560984969139099,-15.006318092346191,16.241025924682617,33.25459289550781,-0.25048747658729553,0.05549722537398338,0.4364781677722931,1.7650642395019531,-1.0658953189849854,1.133695363998413
148,276235,276297,-0.06106528639793396,0.1355176568031311,1.0233473777770996,-17.101137161254883,17.41010284423828,32.133079528808594,-0.2474876195192337,0.06149692460894585,0.43347832560539246,1.6146923303604126,-1.2807382345199585,1.460226058959961
149,276245,276307,0.09741932898759842,0.00012970065290573984,1.0607099533081055,-20.461017608642578,13.491305351257324,30.371387481689453,-0.24148792028427124,0.07349632680416107,0.4544772803783417,1.5354437828063965,-1.5253850221633911,1.7913429737091064
150,276255,276317,0.09843247383832932,-0.11416613310575485,0.9623774886131287,-17.584245681762695,4.054017066955566,27.471887588500977,-0.24148792028427124,0.07049647718667984,0.4364781677722931,1.4019399881362915,-1.5629043579101562,2.0929670333862305
151,276265,276327,-0.009549411945044994,0.011993632651865482,1.0279624462127686,-7.374746322631836,-9.495412826538086,25.561187744140625,-0.2459876984357834,0.056997150182724,0.44097793102264404,1.4093642234802246,-1.8167721033096313,2.3794543743133545
152,276275,276337,-0.04493106156587601,0.06275541335344315,1.0418705940246582,3.445643663406372,-10.10400390625,21.213171005249023,-0.2549872398376465,0.0659966990351677,0.4469776451587677,1.5452009439468384,-1.8383474349975586,2.6457972526550293
153,276285,276347,0.008433925919234753,0.03955965116620064,1.0428967475891113,12.797085762023926,-8.971041679382324,16.76392364501953,-0.2474876195192337,0.058497074991464615,0.44247788190841675,1.7034841775894165,-1.77176833152771,2.8745322227478027
154,276295,276357,0.022479789331555367,0.09482401609420776,1.0347821712493896,20.698076248168945,4.320486545562744,13.330780029296875,-0.2579870820045471,0.0659966990351677,0.43197840452194214,1.7139824628829956,-1.76870596408844,3.0468153953552246
155,276315,276367,0.07961437106132507,-0.0129023976624012,1.0197778940200806,14.816020965576172,18.545873641967773,5.31463098526001,-0.2579870820045471,0.06299684941768646,0.455977201461792,1.5226712226867676,-1.2439244985580444,3.279020071029663
156,276325,276377,0.14750398695468903,-0.11132781952619553,1.0521972179412842,3.465564250946045,23.093791961669922,1.5910853147506714,-0.25198739767074585,0.05999699980020523,0.44097793102264404,1.1794646978378296,-1.149003028869629,3.3244192600250244
157,276335,276397,0.1262948364019394,-0.10823041945695877,1.1142321825027466,-9.388908386230469,25.098772048950195,-1.5352762937545776,-0.24148792028427124,0.05549722537398338,0.4364781677722931,1.006974697113037,-1.0139189958572388,3.349255323410034
158,276345,276407,0.10205802321434021,-0.14696243405342102,1.0925153493881226,-14.286055564880371,16.633474349975586,-3.726452589035034,-0.2474876195192337,0.0764961764216423,0.4364781677722931,0.9363870024681091,-1.177768349647522,3.3355727195739746
159,276355,276417,0.08285531401634216,-0.1721746027469635,1.0651823282241821,-10.392812728881836,8.470818519592285,-5.182651042938232,-0.23998799920082092,0.0659966990351677,0.44397780299186707,0.8282099962234497,-1.245294213294983,3.3054614067077637
160,276365,276427,0.07996535301208496,-0.16893094778060913,1.0452138185501099,-1.7420965433120728,-0.3475838601589203,-8.009431838989258,-0.26098695397377014,0.07799609750509262,0.4469776451587677,0.7320811152458191,-1.3837635517120361,3.252007246017456
161,276375,276437,0.077828049659729,-0.12500716745853424,1.1086432933807373,3.5790395736694336,-3.98268461227417,-9.4622220993042,-0.2654867172241211,0.06749662756919861,0.4364781677722931,0.7578980922698975,-1.397705078125,3.1803245544433594
162,276385,276447,0.09950513392686844,-0.06468772888183594,1.179581642150879,6.013797283172607,0.3663005232810974,-10.168506622314453,-0.2549872398376465,0.06299684941768646,0.44997748732566833,0.7939448356628418,-1.4032530784606934,3.0868067741394043
163,276395,276457,0.09792795777320862,-0.02170505002140999,1.1705354452133179,5.700472831726074,11.318368911743164,-10.87352466583252,-0.2474876195192337,0.09149542450904846,0.448477566242218,0.655123770236969,-1.3105794191360474,2.9902615547180176
164,276405,276467,0.05708017945289612,0.008516528643667698,1.150433897972107,6.050553321838379,21.674829483032227,-11.6839017868042,-0.2594870328903198,0.06749662756919861,0.448477566242218,0.5752418637275696,-1.2822673320770264,2.8770015239715576
165,276415,276487,0.05812321603298187,0.011905317194759846,1.1282286643981934,7.333156108856201,26.191123962402344,-11.969515800476074,-0.2594870328903198,0.07049647718667984,0.45147740840911865,0.21538963913917542,-1.2420923709869385,2.7594261169433594
166,276425,276497,0.0810321718454361,0.0074281999841332436,1.0685696601867676,4.922513961791992,24.44743537902832,-11.662824630737305,-0.2564871609210968,0.07049647718667984,0.448477566242218,0.09462756663560867,-1.1278578042984009,2.6374948024749756
167,276435,276507,0.06422670930624008,0.04799463227391243,0.9637467265129089,3.41062068939209,18.25237274169922,-12.340944290161133,-0.2669866383075714,0.07199639827013016,0.44097793102264404,-0.2076294720172882,-1.0436028242111206,2.5196945667266846
168,276445,276517,0.028704609721899033,0.14696407318115234,0.9840311408042908,4.986398220062256,9.463568687438965,-13.01486587524414,-0.2654867172241211,0.06749662756919861,0.4574771225452423,-0.465515673160553,-0.9723079800605774,2.401535987854004
169,276455,276527,-0.05121801793575287,0.16193975508213043,1.016022801399231,6.095318794250488,0.635025680065155,-13.176177978515625,-0.2594870328903198,0.07949602603912354,0.4574771225452423,-0.5766298174858093,-0.95603346824646,2.265761613845825
170,276465,276537,-0.13149644434452057,0.0766313225030899,0.9815956354141235,6.63678503036499,-10.446599006652832,-13.272235870361328,-0.2654867172241211,0.07949602603912354,0.45147740840911865,-0.5242357850074768,-0.9898850917816162,2.115649938583374
171,276475,276547,-0.22176918387413025,-0.01050444133579731,0.9605720043182373,6.513132572174072,-17.837188720703125,-13.743316650390625,-0.277486115694046,0.085495725274086,0.46047696471214294,-0.38394245505332947,-0.86788409948349,1.9977580308914185
172,276485,276557,-0.12222711741924286,-0.06913229823112488,1.0649043321609497,7.233389854431152,-18.947378158569336,-13.868976593017578,-0.26248687505722046,0.06749662756919861,0.43347832560539246,-0.08615509420633316,-0.8134021759033203,1.8609647750854492
173,276495,276577,0.031079977750778198,-0.12040938436985016,1.0159025192260742,7.383023738861084,-15.634791374206543,-14.793709754943848,-0.2564871609210968,0.06749662756919861,0.4364781677722931,-0.06962910294532776,-0.8894871473312378,1.6976443529129028
174,276505,276587,0.00783631857484579,-0.012413999065756798,1.0243494510650635,8.536369323730469,-5.890034198760986,-14.69385051727295,-0.2669866383075714,0.06299684941768646,0.44997748732566833,-0.12726475298404694,-0.7315433025360107,1.5800873041152954
175,276515,276597,-0.00015765066200401634,0.05150902643799782,1.0583131313323975,9.046664237976074,0.08037640154361725,-15.407278060913086,-0.26248687505722046,0.06749662756919861,0.45147740840911865,-0.019419796764850616,-0.6380355954170227,1.4362738132476807
176,276525,276617,-0.03279683366417885,-0.045460086315870285,0.9234522581100464,13.96692943572998,5.960152626037598,-15.039424896240234,-0.27298635244369507,0.0659966990351677,0.455977201461792,-0.0309734046459198,-0.5742007493972778,1.2790156602859497
177,276535,276627,-0.05733437463641167,0.042016878724098206,0.9531142115592957,17.009592056274414,6.495539665222168,-14.715822219848633,-0.25048747658729553,0.06749662756919861,0.45147740840911865,-0.02715505100786686,-0.38329166173934937,1.1422111988067627
178,276545,276637,-0.017764953896403313,0.055413369089365005,1.0156148672103882,19.905370712280273,3.780442237854004,-14.335598945617676,-0.2639867961406708,0.07499624788761139,0.455977201461792,-0.0996910035610199,-0.28230127692222595,0.980297327041626
179,276555,276647,-0.04375522956252098,0.060372401028871536,1.0352896451950073,17.955883026123047,1.7185232639312744,-14.099787712097168,-0.26848655939102173,0.06749662756919861,0.4454777240753174,0.014873700216412544,-0.1564461886882782,0.8208686709403992
180,276565,276657,-0.08689139783382416,0.006865983828902245,1.0761371850967407,12.114666938781738,0.4909285008907318,-13.368946075439453,-0.24448777735233307,0.05249737575650215,0.44247788190841675,-0.14021094143390656,0.06317081302404404,0.6901838183403015
181,276575,276667,-0.07868289202451706,-0.06293222308158875,1.0805126428604126,5.713222980499268,-0.3977693021297455,-12.156718254089355,-0.24898754060268402,0.06299684941768646,0.4289785325527191,-0.12785941362380981,0.11645909398794174,0.5377218127250671
182,276585,276677,0.0033717621117830276,-0.027347726747393608,1.0699721574783325,0.9562773108482361,-0.1049221009016037,-10.661657333374023,-0.25198739767074585,0.06899654865264893,0.44997748732566833,-0.183339923620224,0.2231675684452057,0.4263226389884949
183,276595,276687,0.0068450490944087505,-0.0011727563105523586,1.0331695079803467,-1.2587578296661377,-2.621202230453491,-9.124285697937012,-0.25348731875419617,0.07049647718667984,0.45147740840911865,-0.28779658675193787,0.1935673952102661,0.3041019141674042
184,276605,276697,-0.013945863582193851,0.008444175124168396,1.0561232566833496,-0.19996286928653717,-5.168954372406006,-8.434321403503418,-0.2549872398376465,0.06899654865264893,0.45297732949256897,-0.21114610135555267,0.22049057483673096,0.22351118922233582
185,276615,276707,-0.01284710131585598,0.021319858729839325,1.0939867496490479,4.347480773925781,-8.074410438537598,-7.053529262542725,-0.25048747658729553,0.06749662756919861,0.4454777240753174,-0.16183903813362122,0.2710534632205963,0.1544821560382843
186,276625,276717,-0.05992145091295242,-0.012875430285930634,1.0838360786437988,7.881793975830078,-11.812200546264648,-6.451124668121338,-0.2459876984357834,0.0659966990351677,0.4469776451587677,-0.05754783749580383,0.30899280309677124,0.08298841863870621
187,276635,276727,-0.06264548003673553,-0.07072589546442032,1.0649290084838867,6.97697639465332,-16.00411033630371,-6.385187149047852,-0.2549872398376465,0.047997597604990005,0.44397780299186707,0.17609146237373352,0.4559643566608429,0.042477574199438095
188,276645,276737,0.06276773661375046,0.03544735535979271,1.070425033569336,2.683164119720459,-17.81683349609375,-8.022421836853027,-0.24448777735233307,0.040497973561286926,0.44247788190841675,0.448792964220047,0.43372201919555664,-0.03925170376896858
189,276655,276747,0.05349057540297508,0.04873150587081909,1.009790301322937,-0.7273691296577454,-14.986598014831543,-9.345198631286621,-0.27148643136024475,0.06149692460894585,0.4454777240753174,0.7217754125595093,0.49887213110923767,-0.10184086114168167
190,276665,276757,-0.07743062824010849,-0.11030557006597519,1.067695140838623,-4.974620819091797,-7.330566883087158,-10.616983413696289,-0.2564871609210968,0.04949752241373062,0.43347832560539246,0.36404210329055786,0.4316334128379822,-0.2512229084968567
191,276675,276767,-0.07955921441316605,-0.09588541835546494,1.0705894231796265,-6.2186665534973145,-0.7290410399436951,-13.176521301269531,-0.2579870820045471,0.050997450947761536,0.455977201461792,0.507597804069519,0.3782826364040375,-0.35363373160362244
192,276685,276777,-0.06945923715829849,0.11741184443235397,1.0309972763061523,0.9540138244628906,6.868006706237793,-15.573821067810059,-0.2549872398376465,0.05999699980020523,0.45297732949256897,0.4452569782733917,0.27721887826919556,-0.49579378962516785
193,276705,276787,-0.14003048837184906,0.18321536481380463,1.0521206855773926,32.91854476928711,-1.92525315284729,-16.674352645874023,-0.2594870328903198,0.06449677050113678,0.4394780099391937,0.23835045099258423,0.5075070261955261,-0.791097104549408
194,276715,276797,-0.10831599682569504,0.14151763916015625,1.1280694007873535,47.709407806396484,-10.160655975341797,-14.344132423400879,-0.25348731875419617,0.06449677050113678,0.44247788190841675,0.1954309344291687,0.9592470526695251,-0.9250382781028748
195,276725,276807,-0.049985285848379135,0.11017630994319916,1.138872504234314,52.023677825927734,-12.38404655456543,-8.60061264038086,-0.2459876984357834,0.06899654865264893,0.455977201461792,0.32759398221969604,1.1841840744018555,-1.1155747175216675
196,276735,276817,-0.02004234679043293,0.13053065538406372,1.1407474279403687,43.81974792480469,-13.125476837158203,-3.527456283569336,-0.23548822104930878,0.06749662756919861,0.44247788190841675,0.5670637488365173,1.8785556554794312,-1.1684739589691162
197,276745,276837,0.031754374504089355,0.0058797793462872505,1.1258710622787476,27.93840789794922,-13.808168411254883,1.382146954536438,-0.24298784136772156,0.07199639827013016,0.4589770436286926,0.7967548370361328,2.3954596519470215,-1.1939364671707153
198,276755,276847,-0.006838756147772074,0.00873646605759859,1.0148407220840454,6.942274570465088,-8.818963050842285,4.8323259353637695,-0.25198739767074585,0.08099594712257385,0.4379780888557434,0.6500552892684937,2.4230589866638184,-1.2915319204330444
199,276765,276857,-0.023398207500576973,0.03697904571890831,0.9774858355522156,-14.915059089660645,-2.2493398189544678,7.096633434295654,-0.24898754060268402,0.09899504482746124,0.44997748732566833,0.8100905418395996,2.5432841777801514,-1.2416529655456543
200,276775,276867,-0.05087606608867645,0.03378292918205261,0.9378290772438049,-34.298736572265625,-0.19305957853794098,8.618857383728027,-0.2579870820045471,0.10199490189552307,0.4589770436286926,0.8821607828140259,2.462160587310791,-1.1665849685668945
201,276785,276877,-0.028092140331864357,0.03814878687262535,0.9025248289108276,-50.124267578125,-8.747247695922852,7.793494701385498,-0.2654867172241211,0.08249587565660477,0.4574771225452423,0.9698153138160706,2.0815961360931396,-1.0790965557098389
202,276795,276887,0.06090918555855751,-0.024422483518719673,0.8461595177650452,-52.49090576171875,-17.803762435913086,7.416428089141846,-0.2579870820045471,0.08699564635753632,0.44397780299186707,1.0998172760009766,1.649480938911438,-0.983588695526123
203,276805,276897,0.15880724787712097,-0.11049531400203705,0.8762408494949341,-46.02641296386719,-27.54923439025879,9.040362358093262,-0.2669866383075714,0.09299534559249878,0.44397780299186707,1.371463656425476,1.1897432804107666,-0.8758953809738159
204,276815,276907,0.10923102498054504,-0.11103726923465729,0.8978767991065979,-32.0457649230957,-38.91432571411133,10.929248809814453,-0.2639867961406708,0.08699564635753632,0.45297732949256897,1.247607946395874,0.7154823541641235,-0.8897362947463989
205,276825,276917,-0.004779218230396509,0.06824737787246704,0.9494348764419556,-18.452552795410156,-43.89754104614258,12.155040740966797,-0.27148643136024475,0.06449677050113678,0.4544772803783417,1.7181284427642822,0.45003148913383484,-0.7544330358505249
206,276845,276927,-0.11761478334665298,0.2213105410337448,0.922276496887207,14.408514022827148,-6.8999104499816895,13.175228118896484,-0.26848655939102173,0.09149542450904846,0.448477566242218,2.499483108520508,0.22722387313842773,-0.5126910209655762
207,276865,276937,-0.048972807824611664,0.1806737631559372,0.982633113861084,13.178123474121094,37.80052185058594,13.184782028198242,-0.26848655939102173,0.07349632680416107,0.4454777240753174,2.270951509475708,0.44755905866622925,-0.3047597408294678
208,276875,276947,0.06970531493425369,0.010534888133406639,1.03420090675354,9.697093963623047,45.795528411865234,14.558958053588867,-0.2459876984357834,0.05999699980020523,0.4469776451587677,1.7447493076324463,0.6345484256744385,-0.20639434456825256
209,276895,276967,-0.006161805242300034,0.04885784164071083,0.9540446996688843,-5.353723049163818,34.01027297973633,17.305696487426758,-0.2639867961406708,0.09599519520998001,0.44097793102264404,0.8532318472862244,0.6198294162750244,0.10930319130420685
210,276905,276977,-0.01220679096877575,0.03615051880478859,0.9622175097465515,-20.032787322998047,19.5021915435791,17.873329162597656,-0.24898754060268402,0.0659966990351677,0.4469776451587677,0.6083819270133972,0.65852290391922,0.306681364774704
211,276915,276987,-0.020341407507658005,0.026271793991327286,0.9590594172477722,-30.136898040771484,6.522524356842041,17.62852668762207,-0.24148792028427124,0.08249587565660477,0.4544772803783417,0.4545295834541321,0.2858508825302124,0.49293509125709534
212,276925,276997,-0.012189947068691254,0.021592549979686737,0.9550450444221497,-33.10707092285156,-10.20178508758545,16.447139739990234,-0.24148792028427124,0.07949602603912354,0.4364781677722931,0.46702590584754944,0.2828691601753235,0.6875587105751038
213,276935,277007,0.00786423496901989,-0.02747957408428192,0.9365686178207397,-27.182167053222656,-28.20134735107422,14.48117733001709,-0.25048747658729553,0.07349632680416107,0.44247788190841675,0.744095504283905,-0.22656768560409546,0.8796077966690063
214,276945,277017,0.010695578530430794,-0.022899439558386803,0.9228255152702332,-16.691211700439453,-37.465396881103516,13.862040519714355,-0.2594870328903198,0.0764961764216423,0.43347832560539246,0.7413183450698853,-0.27410614490509033,0.9899164438247681
215,276955,277027,-0.01422507781535387,-0.008604349568486214,0.9640021324157715,-3.8179752826690674,-34.07318115234375,13.816405296325684,-0.25198739767074585,0.06899654865264893,0.4469776451587677,1.1830662488937378,-0.5123987197875977,1.1389871835708618
216,276965,277037,-0.030093062669038773,-0.046736907213926315,0.9822168946266174,9.007813453674316,-25.105239868164062,13.921441078186035,-0.2459876984357834,0.0659966990351677,0.44397780299186707,1.626986026763916,-0.6352999806404114,1.2883172035217285
217,276975,277047,-0.018906405195593834,-0.022941572591662407,0.9627298712730408,20.637880325317383,-8.651680946350098,13.65082836151123,-0.25348731875419617,0.06449677050113678,0.4454777240753174,1.747991681098938,-0.5430751442909241,1.4112495183944702
218,276985,277057,-0.012265508994460106,0.017241021618247032,0.9656593799591064,27.64730453491211,9.28838062286377,12.138495445251465,-0.2474876195192337,0.058497074991464615,0.448477566242218,1.8382558822631836,-0.41690003871917725,1.5465912818908691
219,276995,277067,-0.002368372865021229,0.011963524855673313,0.9926005005836487,29.201692581176758,23.89595603942871,10.528883934020996,-0.24148792028427124,0.05549722537398338,0.4454777240753174,1.7272096872329712,-0.05798853561282158,1.6624627113342285
220,277005,277077,-0.028339039534330368,0.031312473118305206,1.0153580904006958,24.14725112915039,32.63168716430664,9.095501899719238,-0.24148792028427124,0.06449677050113678,0.4544772803783417,1.4734700918197632,0.15241362154483795,1.7688549757003784
221,277015,277087,0.006919762585312128,0.012803593650460243,1.0006539821624756,7.282464981079102,31.274206161499023,7.753928184509277,-0.25348731875419617,0.06149692460894585,0.4454777240753174,1.046919822692871,0.4470483958721161,1.8541864156723022
222,277025,277097,0.02269987389445305,-0.0036049180198460817,1.0349050760269165,-6.621388912200928,23.568470001220703,7.564958095550537,-0.23548822104930878,0.06149692460894585,0.4454777240753174,0.8027253746986389,0.4350517988204956,1.9457579851150513
223,277035,277107,-0.0013558227801695466,0.008494771085679531,0.9764294624328613,-19.554828643798828,11.191396713256836,7.096434116363525,-0.24298784136772156,0.05399730056524277,0.44997748732566833,0.5684518814086914,0.4072975516319275,2.0230672359466553
224,277045,277117,0.027967670932412148,0.02055993303656578,0.9986841678619385,-25.5313663482666,-3.1616578102111816,6.3726043701171875,-0.23398829996585846,0.05399730056524277,0.4469776451587677,0.4635610282421112,0.06848084926605225,2.097893238067627
225,277055,277127,0.008930540643632412,0.021063251420855522,1.0105329751968384,-25.853002548217773,-14.545271873474121,6.7121429443359375,-0.25348731875419617,0.05549722537398338,0.44247788190841675,0.551154613494873,-0.12754733860492706,2.1683509349823
226,277065,277137,0.006633804179728031,0.035666465759277344,1.037024736404419,-20.452951431274414,-16.71419906616211,7.1209611892700195,-0.24298784136772156,0.05399730056524277,0.44997748732566833,0.6346995830535889,-0.44952380657196045,2.231161117553711
227,277075,277147,-0.026971515268087387,0.028637615963816643,1.0170985460281372,-9.922472953796387,-12.865022659301758,6.8601555824279785,-0.2594870328903198,0.06749662756919861,0.43347832560539246,0.8204985857009888,-0.44774219393730164,2.3062026500701904
228,277085,277157,0.02283117175102234,-0.011922494508326054,1.0297434329986572,0.4812435805797577,-6.889366149902344,5.715646743774414,-0.2369881421327591,0.05399730056524277,0.4379780888557434,1.006480097770691,-0.5794828534126282,2.3807661533355713
229,277095,277167,0.03273849934339523,-0.00900982040911913,1.0581228733062744,7.976517677307129,5.8223700523376465,4.453531742095947,-0.24298784136772156,0.04199789837002754,0.44397780299186707,0.9852125644683838,-0.5623419880867004,2.436732053756714
230,277105,277187,-0.010067956522107124,-0.07652772963047028,1.1120120286941528,9.931458473205566,13.328076362609863,3.5706276893615723,-0.23098844289779663,0.03299834951758385,0.4289785325527191,0.8694445490837097,-0.5172327756881714,2.4813590049743652
231,277115,277197,-0.017628788948059082,-0.04553871601819992,1.1268975734710693,5.057385444641113,13.9349946975708,3.201580047607422,-0.24148792028427124,0.05549722537398338,0.4454777240753174,0.7388614416122437,-0.5393905639648438,2.5156092643737793
232,277125,277207,-0.008109863847494125,0.005055275745689869,1.092134952545166,-1.9293348789215088,11.769322395324707,2.1932554244995117,-0.24448777735233307,0.04649767279624939,0.4364781677722931,0.5355578064918518,-0.48097842931747437,2.54587721824646
233,277135,277217,0.0051252879202365875,0.061182212084531784,1.1434072256088257,-9.028319358825684,6.575105667114258,1.7120682001113892,-0.22648866474628448,0.05249737575650215,0.4394780099391937,0.388849139213562,-0.5361424088478088,2.5681846141815186
234,277145,277227,0.03447749838232994,0.05316624045372009,1.1256994009017944,-13.647686004638672,0.10539279878139496,0.9658808708190918,-0.23398829996585846,0.056997150182724,0.4349782466888428,0.32684341073036194,-0.4805922508239746,2.5880141258239746
235,277155,277237,0.03443227708339691,0.036906078457832336,1.0760126113891602,-11.315434455871582,-7.469910144805908,0.46842753887176514,-0.23248836398124695,0.05549722537398338,0.45147740840911865,0.5109375715255737,-0.6835563778877258,2.596144437789917
236,277165,277247,0.02940491959452629,0.10142529010772705,1.1054737567901611,-6.581608295440674,-13.227524757385254,-0.21665632724761963,-0.24148792028427124,0.04649767279624939,0.448477566242218,0.6475418210029602,-0.7024041414260864,2.6061153411865234
237,277175,277257,-0.003919905051589012,0.1661415696144104,1.1390283107757568,0.00964178517460823,-13.922410011291504,-1.9295986890792847,-0.2369881421327591,0.04199789837002754,0.4379780888557434,0.844517171382904,-0.7841125726699829,2.606719732284546
238,277185,277267,-0.07736507058143616,0.1860353648662567,1.1816918849945068,4.667646408081055,-9.32788372039795,-3.855210304260254,-0.23398829996585846,0.044997747987508774,0.45297732949256897,0.9564499258995056,-0.7704500555992126,2.5947265625
239,277195,277277,-0.058295052498579025,0.10501516610383987,1.1711525917053223,8.397710800170898,1.0216586589813232,-4.9779839515686035,-0.2384880781173706,0.04649767279624939,0.43047845363616943,1.0445363521575928,-0.6806403994560242,2.564894199371338
240,277205,277287,-0.01700306311249733,0.0262882262468338,1.1493916511535645,8.391958236694336,9.452157020568848,-6.473444938659668,-0.2459876984357834,0.050997450947761536,0.4379780888557434,1.1375951766967773,-0.6233471632003784,2.516491651535034
241,277215,277297,0.04418153315782547,0.005227849818766117,1.0859612226486206,7.437623500823975,15.415033340454102,-8.068436622619629,-0.2564871609210968,0.06149692460894585,0.44247788190841675,0.9477133750915527,-0.48842331767082214,2.4624998569488525
242,277225,277307,0.04320182278752327,0.05070273205637932,1.0050883293151855,6.500295162200928,16.456388473510742,-9.22437572479248,-0.2459876984357834,0.05999699980020523,0.44097793102264404,0.7581332325935364,-0.5187399387359619,2.382607936859131
243,277235,277317,-0.012203807011246681,0.10182270407676697,0.9925481081008911,6.497459411621094,12.48265266418457,-9.92356014251709,-0.24898754060268402,0.056997150182724,0.4469776451587677,0.49375951290130615,-0.4813438951969147,2.2949717044830322
244,277245,277327,-0.0429849810898304,0.11272381991147995,1.0093443393707275,6.929745197296143,5.8953728675842285,-10.25302505493164,-0.25198739767074585,0.06299684941768646,0.44997748732566833,0.3118356764316559,-0.43981078267097473,2.197429895401001
245,277255,277337,-0.046603452414274216,0.06837495416402817,1.0348074436187744,9.68211841583252,-2.155670166015625,-9.756031036376953,-0.24898754060268402,0.056997150182724,0.44097793102264404,0.319486528635025,-0.29992061853408813,2.096215009689331
246,277265,277347,-0.04595351964235306,-0.042999617755413055,1.0424158573150635,11.631525039672852,-8.140369415283203,-8.10728645324707,-0.2369881421327591,0.0659966990351677,0.44397780299186707,0.4386948347091675,-0.12836392223834991,1.998030662536621
247,277275,277357,-0.08329344540834427,0.002213467610999942,1.1350572109222412,12.4078950881958,-9.478888511657715,-5.761387348175049,-0.24448777735233307,0.06149692460894585,0.448477566242218,0.4852779805660248,-0.0775216817855835,1.9117792844772339
248,277285,277367,-0.10585519671440125,-0.031896866858005524,1.0785870552062988,3.052865743637085,-4.698527812957764,-1.9613784551620483,-0.24298784136772156,0.05399730056524277,0.4379780888557434,0.5965610146522522,0.07680625468492508,1.8493174314498901
249,277295,277377,-0.12252003699541092,-0.009654276072978973,1.1093705892562866,-7.556642055511475,-0.5808364152908325,0.8350398540496826,-0.2474876195192337,0.06749662756919861,0.43347832560539246,0.5702341198921204,0.08676663041114807,1.8215703964233398
250,277305,277387,-0.05777421593666077,0.0035731124226003885,1.0093220472335815,-12.640738487243652,-4.577439308166504,3.5976665019989014,-0.2474876195192337,0.06749662756919861,0.4634768068790436,0.5868690013885498,-0.04880836606025696,1.817785382270813
251,277315,277397,-0.05886678025126457,0.01129046268761158,1.0702952146530151,-17.08109474182129,-15.426775932312012,6.625621318817139,-0.2384880781173706,0.06749662756919861,0.4454777240753174,0.762128472328186,-0.19647735357284546,1.8416966199874878
252,277325,277407,-0.031753744930028915,-0.01667172461748123,1.0636277198791504,-22.960521697998047,-19.843273162841797,8.681172370910645,-0.24448777735233307,0.04649767279624939,0.44247788190841675,0.9159939289093018,-0.4856054484844208,1.8959991931915283
253,277335,277417,-0.08317317068576813,0.0014885806012898684,1.1207047700881958,-21.837461471557617,-15.176701545715332,10.785177230834961,-0.23998799920082092,0.047997597604990005,0.4289785325527191,1.0969899892807007,-0.6747744679450989,1.977734088897705
254,277355,277427,-0.09289920330047607,0.006675789598375559,1.1339811086654663,3.6919753551483154,-7.621445178985596,10.904596328735352,-0.2459876984357834,0.04199789837002754,0.4349782466888428,1.3614788055419922,-0.9701182842254639,2.1932482719421387
255,277365,277437,-0.0504792146384716,-0.009533996693789959,1.08414626121521,12.164287567138672,-3.627336263656616,8.377778053283691,-0.25348731875419617,0.040497973561286926,0.44247788190841675,1.45517897605896,-0.9645558595657349,2.306159019470215
256,277375,277457,-0.044807177037000656,0.008416851982474327,1.0661275386810303,16.903194427490234,6.154795169830322,5.243776798248291,-0.27148643136024475,0.06149692460894585,0.4394780099391937,1.4438800811767578,-0.8765906691551208,2.4042463302612305
257,277385,277477,-0.09906800836324692,0.00996527262032032,1.1023242473602295,17.623079299926758,17.86640739440918,0.9000439643859863,-0.24298784136772156,0.056997150182724,0.44997748732566833,1.4134600162506104,-0.5925494432449341,2.460937261581421
258,277395,277487,-0.07294018566608429,0.019443094730377197,1.0951054096221924,22.429187774658203,23.292627334594727,-2.8565938472747803,-0.2369881421327591,0.056997150182724,0.45297732949256897,1.2099875211715698,-0.4033357799053192,2.478294849395752
259,277405,277497,-0.10209155827760696,-0.00642614159733057,1.0783003568649292,36.161582946777344,27.348800659179688,-5.335755348205566,-0.24898754060268402,0.08699564635753632,0.45297732949256897,0.8482663035392761,-0.10080046206712723,2.4626171588897705
260,277415,277507,-0.03905520215630531,-0.006716173607856035,1.0914796590805054,46.355857849121094,27.77150535583496,-6.924253463745117,-0.2594870328903198,0.08249587565660477,0.4634768068790436,0.5960418581962585,0.23957177996635437,2.4150900840759277
261,277425,277517,-0.08708896487951279,0.004366676323115826,1.103489637374878,39.60739517211914,25.777523040771484,-4.122737407684326,-0.2369881421327591,0.07499624788761139,0.44997748732566833,0.2769968509674072,0.5275031924247742,2.3526089191436768
262,277435,277527,-0.08447209745645523,-0.04533226042985916,1.015196681022644,20.004384994506836,16.507301330566406,1.4645414352416992,-0.25198739767074585,0.056997150182724,0.44097793102264404,0.03077768161892891,0.8801685571670532,2.306257963180542
263,277445,277537,-0.09539774060249329,-0.019299987703561783,1.0318050384521484,-15.226588249206543,-1.6205216646194458,4.7468061447143555,-0.25348731875419617,0.0764961764216423,0.448477566242218,-0.03551260381937027,1.0426965951919556,2.3077595233917236
264,277455,277547,-0.054936449974775314,0.0035985957365483046,1.0229299068450928,-43.599647521972656,-28.59552574157715,2.896972417831421,-0.2669866383075714,0.07799609750509262,0.44097793102264404,0.1649760603904724,0.8465901613235474,2.3472306728363037
265,277465,277557,-0.05464386194944382,0.057231467217206955,0.9835923314094543,-50.307926177978516,-56.792694091796875,-2.8055009841918945,-0.28498575091362,0.09899504482746124,0.44097793102264404,0.5697230100631714,0.5246934294700623,2.3828840255737305
266,277485,277567,-0.06453045457601547,0.04013857617974281,0.9389766454696655,-28.730464935302734,-39.07279586791992,-14.761134147644043,-0.2834858298301697,0.09149542450904846,0.4454777240753174,1.6766278743743896,-0.3380599915981293,2.2906014919281006
267,277495,277577,-0.039445165544748306,-0.015349335968494415,0.9451358318328857,-15.51846694946289,-9.931775093078613,-17.790054321289062,-0.28198590874671936,0.08099594712257385,0.4349782466888428,2.187994956970215,-0.5861849188804626,2.1574089527130127
268,277505,277587,-0.06234024465084076,-0.047929856926202774,0.9522885084152222,11.85095500946045,12.434035301208496,-19.790700912475586,-0.2759861946105957,0.09599519520998001,0.45297732949256897,2.4701361656188965,-0.6742784380912781,1.9882901906967163
269,277515,277597,-0.08414865285158157,-0.034451715648174286,0.9945376515388489,44.648658752441406,29.34510040283203,-20.831884384155273,-0.27148643136024475,0.07949602603912354,0.4454777240753174,2.1262495517730713,-0.4583217203617096,1.7867355346679688
270,277525,277617,-0.14827583730220795,0.11726754903793335,1.060014009475708,60.63132095336914,54.88698196411133,-19.701244354248047,-0.2744862735271454,0.085495725274086,0.46047696471214294,1.5985878705978394,0.1650107204914093,1.5689889192581177
271,277535,277627,-0.02865634672343731,0.044247835874557495,1.0764458179473877,37.567710876464844,70.91651916503906,-20.47132110595703,-0.28198590874671936,0.08399579674005508,0.4589770436286926,1.3720647096633911,0.5478327870368958,1.3826823234558105
272,277545,277637,0.02711188793182373,-0.10658460855484009,0.9616364240646362,5.458515167236328,63.29388427734375,-20.64898681640625,-0.277486115694046,0.085495725274086,0.45147740840911865,0.5692183971405029,0.9478762149810791,1.1947437524795532
273,277555,277647,-0.03780786693096161,-0.031328920274972916,0.9398778676986694,-13.636531829833984,39.46067810058594,-20.048582077026367,-0.2924853563308716,0.09749512374401093,0.4454777240753174,0.22099833190441132,0.9815614223480225,1.0119234323501587
274,277565,277657,-0.04143250733613968,-0.034886427223682404,0.9208663105964661,-18.33344268798828,11.390288352966309,-17.479217529296875,-0.2954852283000946,0.07949602603912354,0.4364781677722931,-0.4010467231273651,0.840042233467102,0.8156054615974426
275,277575,277667,-0.00608301954343915,-0.03251386433839798,0.9291717410087585,-11.180227279663086,-5.410782337188721,-16.00140953063965,-0.28498575091362,0.08099594712257385,0.455977201461792,-0.2900972068309784,0.7251046299934387,0.6498932242393494
276,277585,277677,0.05393458157777786,-0.03192167356610298,0.9100732207298279,0.9715035557746887,-5.18823766708374,-13.182955741882324,-0.28498575091362,0.07499624788761139,0.46197688579559326,-0.3279505670070648,0.731757640838623,0.4856942892074585
277,277595,277687,-0.018213672563433647,-0.011464475654065609,0.876968264579773,9.136096954345703,4.764739990234375,-8.264660835266113,-0.26998651027679443,0.08699564635753632,0.44997748732566833,-0.25139787793159485,0.7584570050239563,0.3477122187614441
278,277605,277697,0.03321186825633049,0.11125611513853073,0.9444493651390076,7.259431838989258,11.334051132202148,-3.425302505493164,-0.28048595786094666,0.085495725274086,0.44247788190841675,-0.2973845303058624,0.8685087561607361,0.2553379535675049
279,277615,277707,0.13739867508411407,0.10841529071331024,0.9492113590240479,0.9696643948554993,17.768030166625977,0.22410938143730164,-0.277486115694046,0.07049647718667984,0.448477566242218,-0.25312432646751404,0.9342529773712158,0.22347408533096313
280,277625,277717,0.03026031330227852,0.09391418844461441,1.022599220275879,-4.844393253326416,19.87253189086914,3.8673512935638428,-0.26998651027679443,0.07199639827013016,0.44097793102264404,-0.5017125010490417,1.0340971946716309,0.2166595160961151
281,277635,277727,-0.057426877319812775,0.07573630660772324,0.9550889730453491,-5.1252899169921875,18.90058708190918,5.951227188110352,-0.26998651027679443,0.07199639827013016,0.44097793102264404,-0.6304879784584045,0.9943757057189941,0.2559739053249359
282,277645,277737,-0.05346491187810898,0.03825270012021065,0.9450226426124573,-6.410182476043701,18.49250602722168,6.6922478675842285,-0.277486115694046,0.09749512374401093,0.4394780099391937,-0.890692412853241,1.00822913646698,0.31639572978019714
283,277655,277747,-0.02857416681945324,0.05948144197463989,0.9801991581916809,-12.159865379333496,12.926383972167969,5.012537002563477,-0.2744862735271454,0.08249587565660477,0.45147740840911865,-1.1766990423202515,0.9101161360740662,0.3693995773792267
284,277665,277757,-0.02573569118976593,0.05854751542210579,1.0365604162216187,-13.204654693603516,11.486346244812012,3.230856418609619,-0.277486115694046,0.07949602603912354,0.448477566242218,-0.9363527297973633,0.8170332312583923,0.46509850025177
285,277675,277767,-0.037772081792354584,0.1800338178873062,1.0438642501831055,-7.569838047027588,8.582019805908203,2.7801806926727295,-0.28048595786094666,0.08249587565660477,0.44247788190841675,-1.0278995037078857,0.7272188067436218,0.5129915475845337
286,277685,277777,-0.029904138296842575,0.07999955117702484,0.9748609066009521,-7.8070526123046875,2.5689101219177246,2.686077356338501,-0.27898603677749634,0.09299534559249878,0.4379780888557434,-1.0538674592971802,0.8240337371826172,0.5828205943107605
287,277695,277787,0.04937887564301491,0.065193772315979,0.9759142398834229,-20.483869552612305,-4.990314960479736,-0.09435345977544785,-0.2759861946105957,0.08099594712257385,0.44397780299186707,-1.1291241645812988,0.7101685404777527,0.5996301770210266
288,277715,277797,0.05105052515864372,0.005981450900435448,1.0698672533035278,-36.77005386352539,-14.476532936096191,-3.3995299339294434,-0.28498575091362,0.08699564635753632,0.4469776451587677,-1.116919994354248,0.1551705151796341,0.5659172534942627
289,277725,277807,-0.03277228772640228,0.06265643984079361,1.0423098802566528,-38.4465217590332,1.9712615013122559,-5.164990425109863,-0.2744862735271454,0.06749662756919861,0.4454777240753174,-1.0554242134094238,-0.058514054864645004,0.5576192736625671
290,277735,277817,-0.08918807655572891,0.047404684126377106,1.0224908590316772,-44.466365814208984,15.828408241271973,-5.753565788269043,-0.2924853563308716,0.085495725274086,0.45147740840911865,-1.004915714263916,-0.4888322949409485,0.5033556818962097
291,277745,277827,-0.07054067403078079,0.05199906602501869,1.0212315320968628,-54.47727966308594,24.777231216430664,-5.676994800567627,-0.27298635244369507,0.0659966990351677,0.44097793102264404,-1.0867637395858765,-0.8178913593292236,0.47001320123672485
292,277755,277837,-0.01600399799644947,0.058474358171224594,1.0415221452713013,-53.96076583862305,30.03821563720703,-6.447328567504883,-0.29098543524742126,0.08099594712257385,0.43197840452194214,-1.392035961151123,-1.4613542556762695,0.37516337633132935
293,277765,277867,0.008318712003529072,0.09634347259998322,0.873409628868103,-42.44414138793945,32.993038177490234,-7.755228519439697,-0.2759861946105957,0.08399579674005508,0.4289785325527191,-1.6305102109909058,-1.9213680028915405,0.33182984590530396
294,277775,277877,-0.007393230218440294,0.14872252941131592,0.9604755640029907,-18.408309936523438,33.21118927001953,-7.71006965637207,-0.28498575091362,0.10199490189552307,0.4349782466888428,-2.20086407661438,-2.380160331726074,0.23834912478923798
295,277785,277897,-0.031858038157224655,0.11357860267162323,1.0530363321304321,8.20562744140625,32.36712646484375,-8.310946464538574,-0.2834858298301697,0.08849557489156723,0.43347832560539246,-2.617825984954834,-2.6073203086853027,0.15887650847434998
296,277795,277907,-0.05223892256617546,0.0807868018746376,1.0228650569915771,28.327890396118164,29.0347843170166,-8.521257400512695,-0.28798559308052063,0.08699564635753632,0.43197840452194214,-2.7146759033203125,-2.507859706878662,0.08464782685041428
297,277805,277927,-0.06751751899719238,0.1464640349149704,0.9144281148910522,34.169288635253906,18.60396385192871,-8.510849952697754,-0.28798559308052063,0.07499624788761139,0.42297884821891785,-2.939643144607544,-2.212371349334717,0.006444732192903757
298,277815,277937,-0.06897618621587753,0.10601328313350677,0.9531757235527039,31.615957260131836,5.0723724365234375,-6.581264972686768,-0.28948551416397095,0.07049647718667984,0.43347832560539246,-3.1426138877868652,-2.024162769317627,-0.13979215919971466
299,277825,277947,-0.06872280687093735,0.02174791321158409,0.9649639129638672,24.583858489990234,-5.0233154296875,-2.969959020614624,-0.2864856719970703,0.08249587565660477,0.4394780099391937,-3.2257585525512695,-1.5909138917922974,-0.180360347032547
300,277835,277957,-0.0196522269397974,0.050915829837322235,1.0260227918624878,12.620985984802246,-11.88766098022461,-0.604653000831604,-0.28198590874671936,0.07499624788761139,0.4259786903858185,-3.1374502182006836,-1.3683409690856934,-0.2525874972343445
301,277845,277967,-0.021838223561644554,0.0381704606115818,1.0997778177261353,-5.930484771728516,-15.182289123535156,-0.053801048547029495,-0.27298635244369507,0.05999699980020523,0.43197840452194214,-3.0295348167419434,-1.3560385704040527,-0.3299677073955536
302,277855,277977,0.02470339462161064,0.061887845396995544,1.0589274168014526,-24.487577438354492,-11.962075233459473,-1.238634705543518,-0.28048595786094666,0.07349632680416107,0.4274786114692688,-2.8256540298461914,-1.4683021306991577,-0.38490208983421326
303,277875,277987,0.0043057710863649845,0.048542410135269165,1.0016560554504395,-40.12837600708008,5.7790303230285645,-3.209712266921997,-0.28048595786094666,0.0764961764216423,0.4454777240753174,-2.398376226425171,-1.97892165184021,-0.4305790662765503
304,277885,277997,-0.06184044107794762,0.155232235789299,0.9972407221794128,-34.47915267944336,14.558070182800293,-4.349736213684082,-0.28798559308052063,0.07499624788761139,0.4349782466888428,-2.527456045150757,-2.4930293560028076,-0.4925802946090698
305,277895,278007,-0.0828007310628891,0.10419037938117981,1.0331839323043823,-18.486740112304688,21.3181095123291,-4.600200176239014,-0.28198590874671936,0.08099594712257385,0.4349782466888428,-2.772007465362549,-2.7961618900299072,-0.485271692276001
306,277905,278027,-0.026691054925322533,0.0544622540473938,1.0641156435012817,4.828862190246582,21.2364559173584,-4.463473320007324,-0.28498575091362,0.08099594712257385,0.44097793102264404,-2.805049180984497,-3.0453102588653564,-0.5700824856758118
307,277915,278037,-0.04107037931680679,0.03687828779220581,1.0690010786056519,24.693727493286133,15.520378112792969,-4.0284857749938965,-0.28198590874671936,0.07799609750509262,0.44997748732566833,-3.1244049072265625,-2.931565761566162,-0.5411091446876526
308,277925,278047,-0.013318179175257683,0.0068796370178461075,1.1407039165496826,40.78584289550781,6.641315937042236,-3.18577241897583,-0.27148643136024475,0.07949602603912354,0.44247788190841675,-3.193592071533203,-2.786421298980713,-0.6394762396812439
309,277935,278057,0.015868142247200012,-0.04575010761618614,1.076695442199707,43.76511764526367,-4.216727256774902,-1.393779993057251,-0.2834858298301697,0.07049647718667984,0.4364781677722931,-3.319051742553711,-2.2239456176757812,-0.5755584239959717
310,277945,278067,-0.0018202478531748056,-0.038572072982788086,1.0158191919326782,32.71552658081055,-9.902932167053223,-0.9193262457847595,-0.28198590874671936,0.08099594712257385,0.45297732949256897,-3.0151727199554443,-2.0336716175079346,-0.7869784832000732
311,277955,278077,0.0012523597106337547,0.031847234815359116,1.0223653316497803,13.59253215789795,-10.902819633483887,0.04374590516090393,-0.28498575091362,0.08999549597501755,0.4289785325527191,-2.933828115463257,-1.7325572967529297,-0.8203986287117004
312,277965,278097,0.008589296601712704,0.03647155687212944,1.0294792652130127,-4.641869068145752,-13.500635147094727,0.29083511233329773,-0.2834858298301697,0.08249587565660477,0.43347832560539246,-2.8147408962249756,-1.583910346031189,-0.8375910520553589
313,277975,278107,-0.004108434077352285,0.031845223158597946,1.0219095945358276,-15.947198867797852,-14.013530731201172,-0.10982116311788559,-0.29848507046699524,0.07349632680416107,0.4394780099391937,-2.6709132194519043,-1.6894457340240479,-0.8839059472084045
314,278005,278117,-0.026696760207414627,0.14249323308467865,0.9759402871131897,-8.054912567138672,-8.298468589782715,0.5203079581260681,-0.2954852283000946,0.05249737575650215,0.4454777240753174,-2.340099573135376,-2.3683855533599854,-0.9175851941108704
315,278015,278127,-0.046161264181137085,0.2003384232521057,0.9914638996124268,14.422786712646484,-5.102184772491455,1.8797308206558228,-0.27298635244369507,0.06299684941768646,0.44397780299186707,-2.268084764480591,-2.5122156143188477,-0.9201540946960449
316,278025,278137,-0.003771950490772724,0.051460590213537216,1.0199097394943237,28.398252487182617,-1.3722715377807617,1.5122368335723877,-0.2744862735271454,0.06149692460894585,0.4574771225452423,-2.1710448265075684,-2.421499490737915,-0.9111887216567993
317,278035,278147,0.018306085839867592,0.15887418389320374,1.031351923942566,37.25815200805664,3.5306217670440674,1.9246981143951416,-0.26998651027679443,0.07799609750509262,0.44097793102264404,-2.214205265045166,-1.9762381315231323,-0.7891517281532288
318,278045,278167,-0.08940614014863968,0.03927956894040108,0.9607124924659729,41.08134460449219,8.904925346374512,2.063669443130493,-0.28498575091362,0.08399579674005508,0.4379780888557434,-2.3251523971557617,-1.6928168535232544,-0.7760249376296997
319,278055,278177,-0.031405385583639145,0.010541889816522598,0.9786109924316406,38.98024368286133,17.269466400146484,3.679334878921509,-0.28048595786094666,0.07049647718667984,0.44247788190841675,-2.4662301540374756,-1.3588896989822388,-0.7697544097900391
320,278065,278187,-0.04843318834900856,0.0390402190387249,0.9351869225502014,33.22384262084961,20.62009048461914,5.2445502281188965,-0.28048595786094666,0.07049647718667984,0.44247788190841675,-2.7076163291931152,-0.9896963834762573,-0.729094922542572
321,278075,278197,-0.05660703778266907,0.11457736045122147,0.9558740854263306,22.972492218017578,17.33943748474121,5.761141777038574,-0.28948551416397095,0.07949602603912354,0.43047845363616943,-2.7666544914245605,-0.732693612575531,-0.7588676810264587
322,278085,278207,-0.029859865084290504,0.1716914176940918,1.0143935680389404,12.932933807373047,7.4840497970581055,6.313613414764404,-0.2834858298301697,0.06149692460894585,0.448477566242218,-3.0346291065216064,-0.480802983045578,-0.6886956691741943
323,278105,278217,0.014354673214256763,0.19088611006736755,1.0379489660263062,4.107789516448975,-19.773351669311523,5.983094215393066,-0.27148643136024475,0.06449677050113678,0.4454777240753174,-3.0589215755462646,-0.48441699147224426,-0.6836304664611816
324,278115,278227,-0.0013140783412382007,0.20288603007793427,1.0634645223617554,2.963824510574341,-28.102069854736328,5.796627998352051,-0.27298635244369507,0.05399730056524277,0.44097793102264404,-2.943434953689575,-0.48613664507865906,-0.6367884874343872
325,278125,278237,-0.036870017647743225,0.1828954666852951,1.1217353343963623,2.9962072372436523,-29.67742156982422,4.775876522064209,-0.28048595786094666,0.07349632680416107,0.4274786114692688,-2.5763514041900635,-0.3606637120246887,-0.5548899173736572
326,278135,278247,-0.06962808966636658,0.06956896930932999,1.0998637676239014,7.127235412597656,-25.244184494018555,3.1991662979125977,-0.2759861946105957,0.047997597604990005,0.43197840452194214,-2.3447318077087402,-0.22292180359363556,-0.44712138175964355
327,278145,278257,-0.07668793946504593,-0.027758486568927765,1.1077324151992798,11.39544677734375,-16.451967239379883,2.12870717048645,-0.27148643136024475,0.04649767279624939,0.4394780099391937,-2.0398783683776855,-0.38553062081336975,-0.5081918239593506
328,278155,278267,-0.02869514934718609,0.017071262001991272,1.0594987869262695,13.918869972229004,-3.6183338165283203,2.3249049186706543,-0.2654867172241211,0.05549722537398338,0.4454777240753174,-1.9756685495376587,-0.11415658891201019,-0.4030042290687561
329,278165,278287,0.10860182344913483,0.029684634879231453,1.0500504970550537,10.032474517822266,2.2865095138549805,1.2005523443222046,-0.2639867961406708,0.05399730056524277,0.44397780299186707,-2.0596938133239746,-0.05310003086924553,-0.39588111639022827
330,278175,278297,0.06887386739253998,0.051724523305892944,1.0087988376617432,7.9276556968688965,4.110625267028809,0.6825253963470459,-0.26848655939102173,0.06749662756919861,0.4394780099391937,-2.21743106842041,0.04575153440237045,-0.3734157979488373
331,278185,278307,-0.00635518366470933,0.033020321279764175,1.0428377389907837,8.193809509277344,-0.7587883472442627,-0.21086955070495605,-0.2654867172241211,0.058497074991464615,0.4394780099391937,-2.1513593196868896,0.182952418923378,-0.35423415899276733
332,278195,278317,-0.07089231163263321,0.008595398627221584,1.0164730548858643,12.799296379089355,-10.067682266235352,-0.9354038238525391,-0.25348731875419617,0.058497074991464615,0.4454777240753174,-2.144037961959839,0.340778648853302,-0.328467458486557
333,278205,278327,-0.029740065336227417,0.004595042206346989,1.0427935123443604,18.652990341186523,-20.62665367126465,-1.7031952142715454,-0.2564871609210968,0.06449677050113678,0.448477566242218,-2.1304986476898193,0.3477049469947815,-0.37037280201911926
334,278215,278337,-0.07837650179862976,-0.003364932257682085,1.0092990398406982,19.86701202392578,-27.742576599121094,-1.707206130027771,-0.27298635244369507,0.050997450947761536,0.44097793102264404,-1.680412769317627,0.570108950138092,-0.3759917616844177
335,278225,278347,-0.026525860652327538,-0.032483022660017014,1.0469441413879395,19.30592918395996,-30.265552520751953,-1.8384743928909302,-0.2654867172241211,0.06749662756919861,0.45147740840911865,-1.4208266735076904,0.7467944622039795,-0.40422323346138
336,278235,278357,0.010245953686535358,0.02652830071747303,1.0405066013336182,15.34807014465332,-29.322708129882812,-2.356952428817749,-0.2579870820045471,0.03899804875254631,0.4349782466888428,-1.1267902851104736,0.9029951691627502,-0.4383414387702942
337,278255,278367,0.048021428287029266,-0.0826030969619751,1.0632802248001099,2.0371978282928467,-13.022235870361328,-2.3441178798675537,-0.2549872398376465,0.05999699980020523,0.455977201461792,-0.5709356665611267,1.1964513063430786,-0.4925338327884674
338,278265,278377,0.07956763356924057,-0.02312374860048294,0.9683935642242432,-0.45472201704978943,-5.888176918029785,-1.8703818321228027,-0.2654867172241211,0.058497074991464615,0.45147740840911865,-0.48757195472717285,1.0938059091567993,-0.5574846267700195
339,278275,278387,0.009394196793437004,0.06548412889242172,1.0414365530014038,-0.3730693757534027,0.576971173286438,-1.359362244606018,-0.2549872398376465,0.050997450947761536,0.44397780299186707,-0.37372708320617676,1.094649076461792,-0.5749301910400391
340,278285,278397,-0.03739774972200394,0.0708206444978714,0.9772716164588928,2.2916886806488037,0.8303043842315674,-0.7561864256858826,-0.26098695397377014,0.07199639827013016,0.4589770436286926,-0.6881758570671082,1.1747522354125977,-0.6069183349609375
341,278295,278407,-0.04225862771272659,0.05864250659942627,1.0807746648788452,6.947897911071777,-2.7330687046051025,-0.5169951915740967,-0.2594870328903198,0.058497074991464615,0.44247788190841675,-0.6273465156555176,1.29802405834198,-0.5905709266662598
342,278305,278417,0.0025705727748572826,0.03669843450188637,1.0552129745483398,10.815286636352539,-12.185428619384766,-1.3915315866470337,-0.2654867172241211,0.07349632680416107,0.4634768068790436,-0.76390141248703,1.478662133216858,-0.5988426208496094
343,278315,278437,-0.04388819634914398,0.02073429338634014,1.0240800380706787,12.684974670410156,-21.69515037536621,-2.9281680583953857,-0.2564871609210968,0.06149692460894585,0.4454777240753174,-0.6139925718307495,1.4211190938949585,-0.6232184171676636
344,278325,278447,-0.029790133237838745,0.029628770425915718,1.018203616142273,8.519746780395508,-30.72197723388672,-4.666971683502197,-0.2564871609210968,0.06449677050113678,0.4544772803783417,-0.17372600734233856,1.5117065906524658,-0.6148597598075867
345,278335,278457,-0.01262690033763647,0.07372315227985382,1.0184236764907837,0.007305705454200506,-39.30422592163086,-6.8454766273498535,-0.27148643136024475,0.07349632680416107,0.4544772803783417,-0.22815386950969696,1.524094820022583,-0.7324448227882385
346,278345,278467,-0.027591681107878685,0.03819061815738678,0.9995380640029907,-11.31134033203125,-40.64440155029297,-6.873610019683838,-0.26098695397377014,0.07499624788761139,0.44997748732566833,0.18232743442058563,1.5412720441818237,-0.7979463338851929
347,278355,278477,-0.02910030633211136,-0.05955887958407402,0.9580076336860657,-21.661865234375,-35.2427864074707,-5.008742809295654,-0.2654867172241211,0.058497074991464615,0.43347832560539246,0.7356681823730469,1.3876385688781738,-0.8529391288757324
348,278365,278487,-0.09383898228406906,0.07023939490318298,0.9885233044624329,-28.181718826293945,-28.302141189575195,-3.446906328201294,-0.27148643136024475,0.06449677050113678,0.4454777240753174,0.9040287137031555,1.147483468055725,-0.9537957310676575
349,278375,278497,-0.09390557557344437,0.19542358815670013,1.1062283515930176,-28.229692459106445,-22.626953125,-4.103816986083984,-0.2639867961406708,0.05399730056524277,0.4469776451587677,1.1295983791351318,0.767712414264679,-1.0078946352005005
350,278385,278507,-0.026636790484189987,0.07671274989843369,1.0569126605987549,-22.24304962158203,-22.72808265686035,-6.193882465362549,-0.2639867961406708,0.06299684941768646,0.455977201461792,1.3032844066619873,0.47649359703063965,-1.064103603363037
351,278395,278517,0.031086191534996033,0.11785321682691574,1.0095688104629517,-5.018259525299072,-19.263036727905273,-7.3408613204956055,-0.2564871609210968,0.06149692460894585,0.4574771225452423,1.6510361433029175,0.40228763222694397,-1.1101045608520508
352,278405,278527,0.013539562001824379,0.03171197324991226,1.0149959325790405,21.242599487304688,-8.23782730102539,-7.120281219482422,-0.25348731875419617,0.07349632680416107,0.4394780099391937,1.7608174085617065,0.4171066880226135,-1.2134877443313599
353,278415,278537,-0.026723943650722504,0.04417874291539192,0.9675582051277161,40.399600982666016,4.930912494659424,-5.872324466705322,-0.2759861946105957,0.07499624788761139,0.45297732949256897,1.9175927639007568,0.7169296741485596,-1.302400827407837
354,278425,278547,-0.08383103460073471,0.05448382347822189,0.9547913670539856,48.649085998535156,15.394493103027344,-4.766054153442383,-0.2639867961406708,0.08399579674005508,0.4469776451587677,1.9381920099258423,1.0752254724502563,-1.353332757949829
355,278435,278557,-0.13670013844966888,0.07359872758388519,0.9163243174552917,44.66653823852539,22.863487243652344,-3.367006778717041,-0.26848655939102173,0.085495725274086,0.448477566242218,1.653239369392395,1.5191818475723267,-1.4260601997375488
356,278445,278567,-0.08776026964187622,0.1369212120771408,0.9248971343040466,27.530088424682617,24.617456436157227,-2.837109088897705,-0.2564871609210968,0.07949602603912354,0.4664766788482666,1.5536953210830688,1.9900628328323364,-1.433344841003418
357,278455,278577,-0.02866511419415474,0.06820723414421082,0.9538587927818298,13.13374137878418,21.57082748413086,-0.9809420704841614,-0.2594870328903198,0.09149542450904846,0.4544772803783417,1.2200621366500854,2.373058557510376,-1.4861583709716797
358,278465,278587,0.000947164255194366,0.057596106082201004,0.9045101404190063,-1.28819739818573,10.073393821716309,2.761910915374756,-0.2654867172241211,0.07949602603912354,0.4574771225452423,1.2520413398742676,2.4951064586639404,-1.4166876077651978
359,278475,278597,0.0706971064209938,0.11367586255073547,0.907691240310669,-13.299264907836914,-4.989817142486572,5.554689407348633,-0.2654867172241211,0.085495725274086,0.448477566242218,1.115721583366394,2.471123218536377,-1.3828065395355225
360,278495,278607,0.09319092333316803,0.07243061810731888,0.9818528294563293,-35.05070877075195,-23.580236434936523,4.161185264587402,-0.27298635244369507,0.08999549597501755,0.44397780299186707,1.1802306175231934,1.9121173620224,-1.24973464012146
361,278515,278627,0.03292418271303177,0.011259648017585278,0.97718745470047,-25.088899612426758,-23.445240020751953,3.8801651000976562,-0.2669866383075714,0.07499624788761139,0.45297732949256897,1.729454517364502,1.3511617183685303,-1.1974631547927856
362,278525,278637,-0.05650871619582176,0.0004910760326310992,0.9079663753509521,-12.52741527557373,-15.434791564941406,3.4435110092163086,-0.2579870820045471,0.0659966990351677,0.455977201461792,1.7001724243164062,1.1555051803588867,-1.2744081020355225
363,278535,278647,-0.07133575528860092,-0.06780324131250381,0.8946260809898376,-2.588925838470459,-2.4550693035125732,3.2059507369995117,-0.26248687505722046,0.058497074991464615,0.4544772803783417,1.8767176866531372,0.9998198747634888,-1.2419320344924927
364,278545,278657,-0.06391093879938126,-0.08718828856945038,0.8502203822135925,2.482994556427002,10.108893394470215,2.020613431930542,-0.25348731875419617,0.07349632680416107,0.43347832560539246,1.9294555187225342,1.055989384651184,-1.246330738067627
365,278555,278677,-0.0071936422027647495,0.022035442292690277,0.917311429977417,1.467936396598816,20.132204055786133,1.5269020795822144,-0.28048595786094666,0.06749662756919861,0.448477566242218,1.8000766038894653,1.0929129123687744,-1.2488839626312256
366,278565,278687,0.018498769029974937,0.07223998010158539,0.9290853142738342,1.107373833656311,25.9110164642334,0.9413748979568481,-0.26248687505722046,0.07349632680416107,0.448477566242218,1.5831196308135986,1.128126859664917,-1.2471047639846802
367,278575,278697,0.00025236961664631963,0.00018551319953985512,0.9047955870628357,-4.657779216766357,25.25600814819336,0.8159153461456299,-0.27148643136024475,0.07949602603912354,0.45147740840911865,1.2956961393356323,1.1204397678375244,-1.2349735498428345
368,278585,278707,0.022959155961871147,-0.012465554289519787,0.8782499432563782,-9.781335830688477,22.968833923339844,1.013503909111023,-0.2594870328903198,0.07049647718667984,0.44247788190841675,1.087974190711975,1.0410064458847046,-1.1923493146896362
369,278595,278717,0.06876183301210403,0.050416894257068634,0.9307620525360107,-18.079721450805664,16.10092544555664,-0.4742799401283264,-0.2579870820045471,0.056997150182724,0.44097793102264404,0.8596433997154236,0.9255963563919067,-1.1655163764953613
370,278605,278727,0.00784351397305727,0.06225491315126419,1.0120710134506226,-20.259870529174805,6.179222583770752,-2.6124324798583984,-0.26248687505722046,0.04949752241373062,0.4454777240753174,0.6761294007301331,0.7146441340446472,-1.1468448638916016
371,278615,278737,-0.007035276852548122,0.031273335218429565,0.9881568551063538,-18.334774017333984,-0.5090200304985046,-4.045907020568848,-0.26248687505722046,0.05249737575650215,0.4394780099391937,0.6391618251800537,0.47938117384910583,-1.1446613073349
372,278625,278747,-0.04409445822238922,0.13883879780769348,0.98724365234375,-5.2269792556762695,-4.641414165496826,-5.1414055824279785,-0.24448777735233307,0.058497074991464615,0.4394780099391937,0.6353232860565186,0.4143334627151489,-1.2217624187469482
373,278635,278757,-0.010562325827777386,0.1280868798494339,0.9589576125144958,9.370955467224121,-5.761919021606445,-5.345320701599121,-0.26098695397377014,0.05999699980020523,0.45297732949256897,0.7508320808410645,0.40271469950675964,-1.2748935222625732
374,278645,278767,-0.04703908786177635,0.03767558932304382,1.0014817714691162,18.435550689697266,0.8259479999542236,-6.552113056182861,-0.2564871609210968,0.06749662756919861,0.448477566242218,0.7715342044830322,0.5172291994094849,-1.350329041481018
375,278655,278777,-0.05626353248953819,0.0059656607918441296,1.008042573928833,16.448848724365234,10.950591087341309,-7.753641128540039,-0.2549872398376465,0.056997150182724,0.4469776451587677,0.7433046102523804,0.6490303874015808,-1.4064620733261108
376,278665,278787,-0.02553790621459484,0.03180127590894699,1.0017889738082886,6.625726699829102,19.82349967956543,-7.622655868530273,-0.24898754060268402,0.06299684941768646,0.455977201461792,0.42013663053512573,0.8609500527381897,-1.5341463088989258
377,278675,278797,-0.010822398588061333,0.047600653022527695,1.0074272155761719,-5.068838119506836,19.900665283203125,-6.146062850952148,-0.2594870328903198,0.04949752241373062,0.45147740840911865,0.22830238938331604,0.9065454602241516,-1.5966342687606812
378,278685,278807,-0.05094822868704796,0.13145782053470612,0.9881719350814819,-16.078950881958008,7.962867259979248,-4.2366251945495605,-0.26998651027679443,0.0659966990351677,0.44097793102264404,0.16970722377300262,0.764133632183075,-1.6028575897216797
379,278695,278817,-0.040413420647382736,0.07763928174972534,1.0304824113845825,-16.839065551757812,-10.034213066101074,-2.256415605545044,-0.26998651027679443,0.0659966990351677,0.44097793102264404,0.08569902181625366,0.5891702771186829,-1.6325854063034058
380,278705,278827,0.013101606629788876,0.030149661004543304,1.0216007232666016,-10.553860664367676,-30.997465133666992,-0.7341015338897705,-0.26998651027679443,0.0659966990351677,0.44097793102264404,0.3171658217906952,0.5017796754837036,-1.6493946313858032
381,278715,278837,-0.038286324590444565,0.10969091951847076,0.9818198084831238,-4.842768669128418,-39.3693962097168,2.088467597961426,-0.26998651027679443,0.0659966990351677,0.44097793102264404,0.5703290104866028,0.3482201397418976,-1.6546106338500977
382,278725,278847,-0.03179290145635605,0.1310204714536667,1.039829969406128,0.7907654643058777,-31.323688507080078,6.989719390869141,-0.2384880781173706,0.05549722537398338,0.4544772803783417,0.9766038656234741,0.42756640911102295,-1.6747034788131714
383,278735,278857,0.00405818410217762,0.05055875703692436,1.0532227754592896,2.8878180980682373,-10.514995574951172,11.989982604980469,-0.23998799920082092,0.056997150182724,0.45297732949256897,1.4202710390090942,0.4308774769306183,-1.6080855131149292
384,278745,278867,-0.006539602298289537,0.047843437641859055,1.0846693515777588,-3.2326176166534424,9.05546760559082,14.727425575256348,-0.25048747658729553,0.06149692460894585,0.4394780099391937,1.5434985160827637,0.43331417441368103,-1.4999854564666748
385,278755,278877,-0.017974205315113068,0.07753869146108627,1.103624701499939,-18.761018753051758,15.477165222167969,16.68082046508789,-0.2594870328903198,0.08249587565660477,0.43347832560539246,1.4213573932647705,0.29339325428009033,-1.3397696018218994
386,278765,278887,-0.03153898939490318,0.12735667824745178,1.1250834465026855,-29.966583251953125,13.38878345489502,16.957775115966797,-0.2549872398376465,0.0659966990351677,0.45297732949256897,1.2126895189285278,0.23760730028152466,-1.2080106735229492
387,278785,278897,-0.019221143797039986,0.06043100729584694,1.095787763595581,-23.69997787475586,-7.163513660430908,16.001510620117188,-0.26098695397377014,0.056997150182724,0.4589770436286926,0.9054733514785767,-0.4358257055282593,-0.863370418548584
388,278795,278907,-0.018029915168881416,0.03388524428009987,1.0834654569625854,-17.01078224182129,-20.716064453125,14.722439765930176,-0.2594870328903198,0.04949752241373062,0.4454777240753174,0.8186940550804138,-0.806839644908905,-0.6818554401397705
389,278805,278917,-0.04494208097457886,0.12661027908325195,1.0957508087158203,-7.473169803619385,-28.2960262298584,13.413606643676758,-0.2594870328903198,0.05249737575650215,0.4574771225452423,1.2143133878707886,-0.9030969738960266,-0.5407200455665588
390,278815,278927,-0.045109305530786514,0.0938013345003128,1.0779151916503906,4.2974677085876465,-26.717893600463867,12.183517456054688,-0.25198739767074585,0.050997450947761536,0.455977201461792,1.5348379611968994,-0.98215651512146,-0.40322113037109375
391,278825,278937,-0.06645480543375015,-0.03924721106886864,1.0646189451217651,14.759934425354004,-13.933713912963867,10.313250541687012,-0.24898754060268402,0.07199639827013016,0.44997748732566833,1.850148320198059,-0.8842456340789795,-0.2955734431743622
392,278835,278947,-0.09275823831558228,-0.12455887347459793,1.0810035467147827,23.859086990356445,9.648812294006348,7.031781196594238,-0.24448777735233307,0.05249737575650215,0.4364781677722931,1.9881792068481445,-0.6934715509414673,-0.204756960272789
393,278845,278957,-0.00569687457755208,-0.1414971798658371,1.1163960695266724,26.378948211669922,30.69430923461914,5.076488494873047,-0.26848655939102173,0.07049647718667984,0.448477566242218,1.7730257511138916,-0.46430808305740356,-0.13044516742229462
394,278855,278967,0.10220569372177124,-0.0762995257973671,1.1058779954910278,19.95319175720215,41.06730270385742,3.608157157897949,-0.26248687505722046,0.0764961764216423,0.45147740840911865,1.278355598449707,-0.22945064306259155,-0.06507715582847595
395,278865,278977,0.13664323091506958,0.0074488879181444645,1.1214797496795654,9.28982162475586,37.344112396240234,2.044696092605591,-0.2549872398376465,0.07799609750509262,0.4469776451587677,0.7597582936286926,-0.029582554474473,-0.019053682684898376
396,278875,278987,0.14721141755580902,0.05666157603263855,1.1387665271759033,1.0620261430740356,23.081802368164062,1.5463346242904663,-0.2549872398376465,0.0659966990351677,0.4589770436286926,0.3336726725101471,0.022265248000621796,0.023704905062913895
397,278885,278997,0.1533767133951187,0.03995029628276825,1.1406841278076172,-3.2888553142547607,2.1084444522857666,1.5420677661895752,-0.2669866383075714,0.06899654865264893,0.4379780888557434,0.22145971655845642,0.03338101878762245,0.0390448272228241
398,278895,279007,0.17097294330596924,0.009041570127010345,1.120320439338684,-7.340821743011475,-20.768672943115234,1.3450517654418945,-0.2639867961406708,0.07199639827013016,0.44997748732566833,0.09615868330001831,-0.03944583609700203,0.06775146722793579
399,278905,279017,0.033869653940200806,0.01752549409866333,1.0305668115615845,-6.692707061767578,-34.301937103271484,0.5792198181152344,-0.27298635244369507,0.06899654865264893,0.4649767279624939,0.3678382635116577,-0.14994452893733978,0.08514831960201263
400,278915,279027,0.0644918903708458,0.008621507324278355,1.0668890476226807,-4.040520191192627,-37.73967742919922,-0.5338313579559326,-0.2639867961406708,0.0659966990351677,0.45297732949256897,0.6714616417884827,-0.23976679146289825,0.09782791137695312
401,278925,279037,0.11723678559064865,-0.057412561029195786,1.112420916557312,0.10573340952396393,-31.147268295288086,-1.0144191980361938,-0.25048747658729553,0.06749662756919861,0.4454777240753174,1.1378899812698364,-0.28282850980758667,0.09192739427089691
402,278935,279047,0.09240666776895523,-0.11233336478471756,0.9960317611694336,4.502124786376953,-18.917495727539062,-1.474938154220581,-0.2579870820045471,0.08099594712257385,0.44997748732566833,1.4864009618759155,-0.263149619102478,0.07756826281547546
403,278945,279057,-0.008913795463740826,-0.0034728581085801125,0.9807471036911011,7.509380340576172,-1.709953784942627,-1.671892762184143,-0.2594870328903198,0.08849557489156723,0.4574771225452423,1.5451879501342773,-0.17780594527721405,0.0628991648554802
404,278955,279067,-0.02116188034415245,-0.011741862632334232,0.9995254278182983,8.952932357788086,16.990312576293945,-1.8936101198196411,-0.2549872398376465,0.09299534559249878,0.44997748732566833,1.531237006187439,-0.12086106836795807,0.05375004559755325
405,278965,279077,0.007623064797371626,0.0063907369039952755,1.0440785884857178,7.486223220825195,26.666915893554688,-1.6744614839553833,-0.26098695397377014,0.1049947515130043,0.4589770436286926,1.2668968439102173,0.014908308163285255,0.03275907412171364
406,278975,279087,-0.01769765466451645,0.02489360235631466,0.9627475738525391,2.7480413913726807,28.31171417236328,-1.663777470588684,-0.277486115694046,0.10949452221393585,0.4664766788482666,1.1011638641357422,0.04077307507395744,0.022856559604406357
407,278985,279097,0.007271877024322748,0.06657597422599792,0.9987988471984863,-0.6841326951980591,20.792747497558594,-1.1945120096206665,-0.2564871609210968,0.10649467259645462,0.4634768068790436,0.8073317408561707,0.1489703208208084,-0.006454875692725182
408,278995,279107,-0.04223093390464783,0.024596698582172394,0.9031655788421631,-3.425637722015381,3.7106616497039795,-0.4402458071708679,-0.26998651027679443,0.10199490189552307,0.46197688579559326,0.54212486743927,0.12867674231529236,-0.009996877983212471
409,279005,279117,0.0062728989869356155,-0.016840044409036636,0.9074463844299316,-5.558377742767334,-16.35986328125,1.2579995393753052,-0.277486115694046,0.07949602603912354,0.45147740840911865,0.5614897608757019,0.07397101819515228,-0.01076007541269064
410,279015,279127,-0.008365742862224579,0.017269575968384743,0.9324697852134705,-5.458992958068848,-34.55855178833008,3.4669110774993896,-0.26848655939102173,0.08849557489156723,0.4634768068790436,0.8149988055229187,-0.0012861210852861404,0.001237730379216373
411,279025,279137,-0.029975436627864838,0.030742572620511055,0.9464722871780396,-6.587666988372803,-38.21167755126953,5.278582572937012,-0.26848655939102173,0.07349632680416107,0.46047696471214294,1.1217467784881592,-0.09119557589292526,0.04090072959661484
412,279035,279147,-0.0018474218668416142,0.04098303243517876,0.9582458138465881,-7.744429111480713,-34.74027633666992,6.963951110839844,-0.26248687505722046,0.06149692460894585,0.448477566242218,1.817404866218567,-0.05150135979056358,0.06121081858873367
413,279045,279157,-0.02526559680700302,0.021108027547597885,0.9440482258796692,-9.352121353149414,-23.409109115600586,8.034591674804688,-0.2639867961406708,0.05999699980020523,0.4469776451587677,1.704005479812622,-0.24939218163490295,0.17866049706935883
414,279055,279167,0.05533556267619133,0.05238891765475273,0.9686136841773987,-11.803252220153809,-9.180316925048828,8.37849235534668,-0.2369881421327591,0.06299684941768646,0.44097793102264404,1.9337931871414185,-0.4053664207458496,0.27132776379585266
415,279065,279177,0.042383164167404175,0.14789754152297974,0.9574213027954102,-15.841720581054688,6.957207679748535,8.434206008911133,-0.24148792028427124,0.06449677050113678,0.448477566242218,2.0635733604431152,-0.5349417924880981,0.35752272605895996
416,279075,279187,-0.00941385142505169,0.2169588953256607,0.9739131331443787,-14.642497062683105,22.755281448364258,9.291424751281738,-0.25198739767074585,0.08099594712257385,0.45297732949256897,1.9977712631225586,-0.6289706826210022,0.4288613200187683
417,279085,279197,-0.018980100750923157,0.234739750623703,1.0571271181106567,-7.696454048156738,34.29249954223633,9.218003273010254,-0.24148792028427124,0.07049647718667984,0.46047696471214294,1.7728257179260254,-0.8264233469963074,0.5283571481704712
418,279095,279207,0.020948536694049835,0.2612334191799164,1.0265296697616577,-1.3453150987625122,32.573211669921875,8.772438049316406,-0.24298784136772156,0.07799609750509262,0.4469776451587677,1.2920340299606323,-0.7842615842819214,0.5956531763076782
419,279105,279217,0.14194364845752716,0.27429577708244324,1.003343105316162,3.3269450664520264,24.415382385253906,8.271202087402344,-0.25048747658729553,0.058497074991464615,0.448477566242218,1.1103112697601318,-0.7839276790618896,0.6630693674087524
420,279115,279227,0.04228190705180168,0.2177339792251587,0.9789959788322449,6.388947010040283,8.23115348815918,4.221859931945801,-0.24148792028427124,0.04649767279624939,0.43347832560539246,0.860907793045044,-0.7929113507270813,0.7441821098327637
421,279125,279237,-0.06682045012712479,0.06130272150039673,0.9861826300621033,9.46304988861084,-25.48051643371582,-1.6927189826965332,-0.2474876195192337,0.05549722537398338,0.4364781677722931,0.9190531373023987,-0.668672502040863,0.7599933743476868
422,279135,279247,-0.10248380154371262,-0.049150675535202026,1.01972234249115,10.249224662780762,-44.15122604370117,-6.24275016784668,-0.2564871609210968,0.040497973561286926,0.4454777240753174,1.029747724533081,-0.6472036242485046,0.7803284525871277
423,279145,279257,0.0838615670800209,-0.028970925137400627,0.9416275024414062,9.632271766662598,-42.34288024902344,-11.47598934173584,-0.2579870820045471,0.047997597604990005,0.44397780299186707,1.6402674913406372,-0.47024157643318176,0.6989007592201233
424,279155,279267,0.03116879239678383,0.030169572681188583,0.9905230402946472,2.9064595699310303,-29.41578483581543,-16.612995147705078,-0.2384880781173706,0.03449827432632446,0.448477566242218,1.9887384176254272,-0.3399569094181061,0.6048608422279358
425,279165,279277,-0.0931248590350151,0.010685247369110584,0.990298867225647,-0.8030439615249634,-7.0996479988098145,-20.86663055419922,-0.2459876984357834,0.050997450947761536,0.44397780299186707,2.3249707221984863,-0.35639867186546326,0.4673163890838623
426,279175,279287,-0.12984265387058258,-0.07150065898895264,1.0210678577423096,3.5119333267211914,25.654787063598633,-22.719623565673828,-0.22498874366283417,0.050997450947761536,0.4469776451587677,2.3180370330810547,-0.39307931065559387,0.295809268951416
427,279185,279297,-0.05408623069524765,-0.0625801831483841,1.0571163892745972,9.584147453308105,49.015342712402344,-24.118410110473633,-0.2294885218143463,0.03149842470884323,0.448477566242218,1.9201068878173828,-0.3017992079257965,0.07578351348638535
428,279195,279307,0.024175375699996948,-0.1387070119380951,1.039687991142273,21.76715850830078,56.139244079589844,-23.691469192504883,-0.23998799920082092,0.047997597604990005,0.45297732949256897,1.4192326068878174,-0.07739076763391495,-0.18787653744220734
429,279205,279317,0.0478970929980278,-0.06532514095306396,0.950030505657196,42.93285369873047,40.99739456176758,-20.185827255249023,-0.22648866474628448,0.06149692460894585,0.4544772803783417,0.9624671936035156,0.14446252584457397,-0.4416677951812744
430,279215,279327,-0.008645891211926937,0.03942088410258293,1.0414080619812012,59.375823974609375,13.685635566711426,-15.288939476013184,-0.23098844289779663,0.056997150182724,0.44097793102264404,0.430798202753067,0.45595282316207886,-0.6276336908340454
431,279225,279337,-0.11957857012748718,-0.0005432565230876207,1.023604154586792,57.808231353759766,-12.200260162353516,-10.809435844421387,-0.2189890444278717,0.047997597604990005,0.44397780299186707,0.38822484016418457,0.9761149883270264,-0.7942250370979309
432,279235,279347,-0.022600285708904266,0.027301883324980736,1.1001801490783691,34.17716979980469,-26.30375862121582,-5.51924991607666,-0.22348882257938385,0.04349782317876816,0.43347832560539246,0.5362815260887146,1.6174073219299316,-0.9260167479515076
433,279245,279357,0.07002729922533035,0.11266258358955383,1.0447216033935547,-5.310742378234863,-29.015031814575195,-0.973506510257721,-0.2459876984357834,0.050997450947761536,0.4469776451587677,0.863452136516571,1.9487041234970093,-0.9924604892730713
434,279255,279367,0.014798357151448727,0.06617464125156403,1.0331782102584839,-45.50370788574219,-30.506071090698242,0.4975461959838867,-0.24148792028427124,0.04649767279624939,0.43347832560539246,1.1286320686340332,1.8041632175445557,-0.9865319728851318
435,279265,279377,-0.07831542938947678,0.010352490469813347,1.03982412815094,-70.14215087890625,-32.80170822143555,-0.9689773917198181,-0.2564871609210968,0.04349782317876816,0.4364781677722931,1.442298173904419,1.5155051946640015,-1.0049750804901123
436,279275,279387,-0.028574293479323387,-0.12132585793733597,1.0355656147003174,-74.3275146484375,-36.898887634277344,-1.5319101810455322,-0.23998799920082092,0.03599819913506508,0.4349782466888428,1.7938276529312134,0.8929300308227539,-1.024583339691162
437,279285,279397,0.02467215247452259,-0.13969463109970093,1.108419418334961,-63.91272735595703,-37.501251220703125,-2.4506897926330566,-0.23548822104930878,0.03149842470884323,0.43347832560539246,2.3097872734069824,0.30678874254226685,-1.05898916721344
438,279295,279417,0.027689531445503235,0.13362689316272736,1.0020601749420166,-41.619815826416016,-27.899681091308594,-3.7886335849761963,-0.23998799920082092,0.029998499900102615,0.4199790060520172,2.6256487369537354,-0.442902147769928,-1.0697802305221558
439,279305,279437,-0.04957796633243561,0.05305266007781029,1.0911405086517334,-9.648002624511719,-10.021790504455566,-4.501411437988281,-0.22498874366283417,0.047997597604990005,0.44097793102264404,2.911159038543701,-0.8594598770141602,-1.1127090454101562
440,279315,279447,0.01480818260461092,-0.020797543227672577,1.123533010482788,21.37175941467285,12.92263126373291,-4.459810256958008,-0.23398829996585846,0.047997597604990005,0.4349782466888428,2.948355197906494,-0.8962621688842773,-1.1857801675796509
441,279325,279457,-0.005468136630952358,-0.02110816352069378,1.0955935716629028,48.19189453125,45.97996139526367,-5.384772300720215,-0.23098844289779663,0.050997450947761536,0.4469776451587677,2.7566356658935547,-0.5848962664604187,-1.2717455625534058
442,279335,279467,-0.00026054863701574504,0.0029118196107447147,1.0890772342681885,56.69573974609375,63.42685317993164,-5.322612285614014,-0.23248836398124695,0.05549722537398338,0.44247788190841675,2.351330280303955,-0.16014674305915833,-1.3240832090377808
443,279345,279477,-0.022195100784301758,0.035512227565050125,1.1458908319473267,51.665584564208984,74.76207733154297,-6.5934882164001465,-0.227988600730896,0.05399730056524277,0.4349782466888428,1.5264244079589844,0.4156641364097595,-1.3794560432434082
444,279355,279487,-0.030580606311559677,0.027449794113636017,1.1243112087249756,40.552249908447266,73.1249008178711,-5.239354610443115,-0.2294885218143463,0.05249737575650215,0.4454777240753174,0.8201711773872375,0.7492736577987671,-1.3896145820617676
445,279365,279497,0.0013884202344343066,0.007538751233369112,1.1001864671707153,15.907532691955566,55.407814025878906,-3.7858238220214844,-0.2369881421327591,0.044997747987508774,0.43197840452194214,-0.0010921721113845706,1.2681987285614014,-1.456477403640747
446,279375,279507,0.009354708716273308,0.02652873657643795,1.0580555200576782,-3.0571842193603516,27.980039596557617,-1.8241101503372192,-0.2474876195192337,0.037498123943805695,0.43347832560539246,-0.6438373923301697,1.3007285594940186,-1.4525339603424072
447,279385,279517,-0.08322247862815857,0.004127641674131155,1.0594332218170166,-21.99530792236328,-2.6876840591430664,-0.5403289794921875,-0.25048747658729553,0.04349782317876816,0.4544772803783417,-0.6768131256103516,1.225413203239441,-1.446619987487793
448,279395,279527,-0.05485103651881218,-0.08196091651916504,1.1981303691864014,-32.3331298828125,-28.976646423339844,1.2865657806396484,-0.23098844289779663,0.03899804875254631,0.44397780299186707,-0.6789563298225403,1.1060725450515747,-1.4562841653823853
449,279405,279537,0.0014691200340166688,-0.04856804758310318,1.156368374824524,-37.920814514160156,-44.962364196777344,2.495149850845337,-0.23548822104930878,0.04649767279624939,0.43047845363616943,-0.24396590888500214,0.7572075128555298,-1.4347202777862549
450,279415,279547,-0.048630695790052414,0.02588506229221821,1.1343679428100586,-38.592559814453125,-45.586978912353516,3.454967737197876,-0.24148792028427124,0.040497973561286926,0.4454777240753174,0.16717173159122467,0.4807424247264862,-1.4239680767059326
451,279425,279557,-0.04810897260904312,-0.09806105494499207,1.142661452293396,-35.26972579956055,-33.675662994384766,2.868927240371704,-0.2459876984357834,0.05399730056524277,0.4379780888557434,0.609865665435791,0.05779443681240082,-1.393973708152771
452,279435,279567,0.009640827775001526,-0.16017533838748932,1.099655032157898,-24.326642990112305,-7.11765193939209,3.290416717529297,-0.24898754060268402,0.0659966990351677,0.44397780299186707,0.9950626492500305,-0.1923188418149948,-1.3669488430023193
453,279445,279577,0.01628577522933483,-0.07283791899681091,1.0273756980895996,-12.622762680053711,16.535457611083984,3.974813938140869,-0.24298784136772156,0.056997150182724,0.4379780888557434,0.9983676075935364,-0.505134642124176,-1.340273380279541
454,279455,279587,-0.04228552430868149,-0.002260433044284582,1.0438815355300903,3.704129695892334,35.65654373168945,2.9558775424957275,-0.2579870820045471,0.05399730056524277,0.4469776451587677,0.6431642770767212,-0.670659065246582,-1.3159903287887573
455,279465,279597,-0.15651381015777588,-0.008120791055262089,1.1018435955047607,16.412084579467773,40.61125564575195,1.5540566444396973,-0.2639867961406708,0.050997450947761536,0.44997748732566833,0.3487134873867035,-0.5954498052597046,-1.2910816669464111
456,279475,279607,-0.02773541398346424,-0.024459190666675568,1.0569274425506592,28.811145782470703,33.817718505859375,1.535317063331604,-0.26098695397377014,0.056997150182724,0.4469776451587677,-0.21450717747211456,-0.3751915395259857,-1.2797553539276123
457,279485,279617,-0.10691569000482559,0.0324995294213295,1.0897467136383057,31.951501846313477,17.94814682006836,2.7003917694091797,-0.2549872398376465,0.05399730056524277,0.4379780888557434,-0.13415715098381042,-0.0849464014172554,-1.2655062675476074
458,279495,279627,-0.06579495221376419,0.027215057983994484,1.063873291015625,22.379589080810547,1.2102086544036865,4.146259784698486,-0.2564871609210968,0.05249737575650215,0.45147740840911865,-0.34044286608695984,0.210012286901474,-1.241740345954895
459,279505,279637,-0.048867542296648026,0.11096323281526566,1.0760223865509033,10.144986152648926,-13.894428253173828,5.781253337860107,-0.2459876984357834,0.03899804875254631,0.4289785325527191,-0.35549798607826233,0.36539238691329956,-1.2069202661514282
460,279515,279647,-0.0522448793053627,0.0915408730506897,1.0687072277069092,-6.629093647003174,-24.225128173828125,3.706141233444214,-0.2474876195192337,0.05549722537398338,0.4544772803783417,-0.148196280002594,0.5150217413902283,-1.1569979190826416
461,279525,279657,-0.030106034129858017,0.06529800593852997,1.0322109460830688,-18.856443405151367,-27.62994956970215,1.9821974039077759,-0.2594870328903198,0.05549722537398338,0.4574771225452423,-0.15762154757976532,0.41160959005355835,-1.1264759302139282
462,279535,279667,-0.02588198147714138,0.009726697579026222,0.9780056476593018,-12.465154647827148,-19.935049057006836,3.0323586463928223,-0.23998799920082092,0.07799609750509262,0.44997748732566833,0.22482815384864807,0.20323126018047333,-1.1090425252914429
463,279545,279677,-0.07493370771408081,-0.0034343290608376265,0.9302873015403748,3.5605361461639404,-1.7398550510406494,6.607707500457764,-0.24148792028427124,0.05249737575650215,0.44247788190841675,0.4457657039165497,0.18817317485809326,-1.0783854722976685
464,279555,279687,-0.1305086612701416,0.05663888901472092,0.8559125065803528,16.074338912963867,20.982275009155273,12.206456184387207,-0.25198739767074585,0.06899654865264893,0.4469776451587677,0.3658175468444824,0.17847099900245667,-1.023917317390442
465,279565,279697,-0.06658588349819183,0.09544281661510468,0.9923067092895508,24.277484893798828,38.60512924194336,18.49880027770996,-0.25198739767074585,0.07799609750509262,0.44397780299186707,0.1646193414926529,0.43675270676612854,-0.904626727104187
466,279575,279707,0.06354700028896332,0.008877409622073174,1.0190757513046265,22.374134063720703,41.34294891357422,22.649227142333984,-0.2474876195192337,0.08249587565660477,0.4454777240753174,-0.11510369181632996,0.7036334276199341,-0.7281526327133179
467,279585,279717,0.07873222231864929,0.02007066272199154,1.1044108867645264,8.717845916748047,31.42896842956543,26.067081451416016,-0.2594870328903198,0.07349632680416107,0.46047696471214294,-0.6951833963394165,0.8913528919219971,-0.5169385075569153
468,279595,279727,0.04100954532623291,0.0239744670689106,1.06219482421875,-12.634943008422852,12.696610450744629,28.323040008544922,-0.2594870328903198,0.0764961764216423,0.45147740840911865,-1.0160636901855469,0.9065377712249756,-0.2725484371185303
469,279605,279737,-0.00829995796084404,0.22611944377422333,1.140939712524414,-35.288368225097656,-8.650177955627441,29.951650619506836,-0.2564871609210968,0.0764961764216423,0.4364781677722931,-1.1767983436584473,0.6568338871002197,-0.013840548694133759
470,279615,279747,0.057647716253995895,0.13543842732906342,1.1396039724349976,-49.1628303527832,-32.645469665527344,30.350433349609375,-0.26848655939102173,0.085495725274086,0.448477566242218,-0.9741394519805908,0.3945203423500061,0.29530268907546997
471,279625,279757,-0.07184253633022308,0.1842092126607895,0.981060802936554,-50.54787063598633,-50.14240646362305,33.05289840698242,-0.28198590874671936,0.07799609750509262,0.44097793102264404,-0.5032897591590881,-0.12128639966249466,0.5988332033157349
472,279635,279767,-0.049673937261104584,0.0937783494591713,0.9634243249893188,-41.84138488769531,-57.32215118408203,35.108638763427734,-0.26248687505722046,0.07049647718667984,0.448477566242218,-0.21798235177993774,-0.49810516834259033,0.9406752586364746
