,gyro.x,gyro.y,gyro.z,stabilizer.pitch,stabilizer.roll,stabilizer.yaw,label
0,0.012156737968325615,0.08852394670248032,0.007039093878120184,-0.2980620861053467,-1.025304913520813,-2.0131075382232666,2
1,-0.07718966156244278,0.10055417567491531,-0.008423960767686367,-0.5670230984687805,-1.127918004989624,-2.022935390472412,2
2,-0.016432758420705795,0.0036299435887485743,-0.029779819771647453,-0.5288006067276001,-1.0239852666854858,-2.0180227756500244,2
3,-0.06791824847459793,0.0025780245196074247,-0.16167287528514862,-0.24873103201389313,-0.9436416029930115,-2.015089750289917,2
4,-0.09951388835906982,-0.08119761198759079,-0.028960876166820526,-0.5430365800857544,-1.0102405548095703,-2.0135762691497803,2
5,0.009059058502316475,0.04969538748264313,-0.11090288311243057,-0.31302982568740845,-0.931306779384613,-2.0122005939483643,2
6,-0.003329033264890313,-0.06459769606590271,-0.027028605341911316,-0.3357417583465576,-1.197412371635437,-2.013178825378418,2
7,-0.17137262225151062,0.03236370161175728,-0.016182105988264084,-0.3525450527667999,-1.1349824666976929,-2.011103391647339,2
8,-0.17538504302501678,-0.05751659348607063,-0.04491917043924332,-0.3659861087799072,-1.0903679132461548,-2.008976936340332,2
9,-0.12908276915550232,-0.06060997024178505,0.008637386374175549,-0.503468930721283,-0.8642144799232483,-2.0022571086883545,2
10,-0.11844700574874878,0.04835214838385582,-0.14416885375976562,-0.02735697664320469,-0.8903615474700928,-2.0134503841400146,2
11,-0.08962845802307129,0.05808306485414505,-0.052818894386291504,-0.7766264081001282,-0.7577968239784241,-2.019836187362671,2
12,0.0002467466692905873,-0.01765686273574829,0.019110223278403282,-0.5406293869018555,-1.0340222120285034,-2.0010108947753906,2
13,-0.10609611123800278,0.011224858462810516,-0.012850718572735786,-0.7176058888435364,-0.8838557600975037,-2.000922441482544,2
14,-0.022670989856123924,-0.032284148037433624,0.001658065477386117,-0.4832662343978882,-1.0778168439865112,-2.0031447410583496,2
15,-0.1215391457080841,0.06215929239988327,0.050088927149772644,-0.4918503165245056,-0.5463051199913025,-1.9859322309494019,2
16,-0.11794724315404892,-0.10712458938360214,-0.0782296359539032,-0.6853703260421753,-0.9574828743934631,-2.005993127822876,2
17,-0.11688083410263062,-0.02890259586274624,0.011196519248187542,-0.44989123940467834,-1.0771193504333496,-2.004011631011963,2
18,-0.16102205216884613,0.10926447808742523,-0.12756793200969696,-0.46495282649993896,-0.7857275009155273,-1.9876216650009155,2
19,-0.01725112646818161,0.0008338474435731769,-0.056504879146814346,-0.6057725548744202,-0.8888807892799377,-1.9954795837402344,2
20,0.0002842373796738684,0.11568974703550339,0.021653255447745323,-0.644184947013855,-0.9640616178512573,-1.9995125532150269,2
21,-0.03439163416624069,0.10644245892763138,0.0983695238828659,-0.6073604822158813,-0.9542142748832703,-1.995762825012207,2
22,-0.15737111866474152,0.013419890776276588,-0.062486566603183746,-0.5801721811294556,-0.8166208863258362,-1.981851577758789,2
23,-0.016541579738259315,0.009419732727110386,-0.015292896889150143,-0.5591604113578796,-0.8471195101737976,-1.982149362564087,2
24,-0.040761929005384445,-0.007626350037753582,-0.1423777937889099,-0.3512742817401886,-1.1240670680999756,-1.9937348365783691,2
25,-0.04880731552839279,0.02962658740580082,-0.007195699028670788,-0.39333420991897583,-1.1321378946304321,-1.9937278032302856,2
26,-0.006236949935555458,0.03273226320743561,0.03278610110282898,-0.42353555560112,-1.0731242895126343,-1.989371657371521,2
27,-0.08776813745498657,0.05475237965583801,0.06009296700358391,-0.4450940191745758,-0.4496461749076843,-1.9721434116363525,2
28,-0.10176396369934082,-0.05590541288256645,-0.049669500440359116,-0.4582885801792145,-1.150068759918213,-1.985487461090088,2
29,-0.059413813054561615,0.017183711752295494,-0.0667339339852333,-0.4683433175086975,-0.7634472846984863,-1.9765625,2
30,-0.09258601814508438,-0.05230867490172386,-0.03874870762228966,-0.6691700220108032,-0.8676207661628723,-1.9839681386947632,2
31,-0.05654051527380943,0.10406909883022308,-0.13625527918338776,-0.3648063540458679,-0.878811776638031,-1.972165584564209,2
32,-0.058455515652894974,0.004804529715329409,0.08308759331703186,-0.4018493592739105,-1.141615629196167,-1.9785101413726807,2
33,0.08734417706727982,0.0458928719162941,-0.0029380545020103455,-0.6827294230461121,-0.8850313425064087,-1.973334789276123,2
34,-0.08850176632404327,0.1722235083580017,-0.09641294926404953,-0.6294424533843994,-0.9547476172447205,-1.974108099937439,2
35,-0.02124662697315216,0.13916006684303284,0.009651691652834415,-0.5903388261795044,-0.8769403696060181,-1.9680521488189697,2
36,-0.061834536492824554,0.08572730422019958,0.11021052300930023,-0.30005943775177,-0.8850470185279846,-1.9610246419906616,2
37,-0.08746268600225449,0.1628732979297638,-0.013029215857386589,-0.5499961376190186,-0.8924643397331238,-1.9648433923721313,2
38,-0.036614347249269485,0.08322703838348389,-0.07808782905340195,-0.4672393500804901,-0.8972129821777344,-1.9610400199890137,2
39,-0.11611595004796982,0.18889299035072327,-0.039555300027132034,-0.20191353559494019,-0.5625002980232239,-1.9437586069107056,2
40,-0.14612919092178345,0.08657249808311462,-0.07899561524391174,-0.6846420764923096,-0.7906476855278015,-1.9721499681472778,2
41,-0.07248985022306442,-0.005015679635107517,-0.1348744034767151,-0.09106124937534332,-1.0231839418411255,-1.9354101419448853,2
42,-0.019578875973820686,0.020329894497990608,-0.06751544773578644,-0.19738616049289703,-0.9228248596191406,-1.9420894384384155,2
43,-0.12041190266609192,0.006075671408325434,-0.11138502508401871,-0.8080800175666809,-0.9166938066482544,-1.963247537612915,2
44,-0.031076136976480484,-0.030494794249534607,-0.06565115600824356,-0.5176053047180176,-0.9136124849319458,-1.9530184268951416,2
45,-0.12635646760463715,0.07495580613613129,0.028840873390436172,-0.10727813094854355,-0.8442773818969727,-1.9391043186187744,2
46,-0.009502525441348553,0.03219369798898697,-0.0702383890748024,-0.3427385985851288,-0.5969614386558533,-1.9518260955810547,2
47,-0.017928261309862137,-0.010321912355720997,-0.10858310759067535,-0.510542631149292,-1.2773325443267822,-1.9421669244766235,2
48,-0.10624384880065918,-0.014796605333685875,-0.003548080800101161,-0.5674238204956055,-1.1743974685668945,-1.9428606033325195,2
49,-0.1379670351743698,-0.08206602931022644,-0.0744158998131752,-0.539980947971344,-0.5722734928131104,-1.936543345451355,2
50,-0.1393568515777588,0.11873210966587067,-0.08233452588319778,-0.5205110311508179,-1.1368091106414795,-1.9449412822723389,2
51,0.006870341952890158,-0.05108317732810974,0.025797974318265915,-0.5062806606292725,-1.146254301071167,-1.9440486431121826,2
52,-0.09977144747972488,-0.06565356254577637,-0.018407050520181656,-0.7001715302467346,-0.7401467561721802,-1.9279587268829346,2
53,0.0017288087401539087,0.078835129737854,-0.04474567249417305,-0.6349902749061584,-0.8554275035858154,-1.9312785863876343,2
54,-0.062561996281147,-0.011158077977597713,-0.017690526321530342,-0.5164175033569336,-1.150916337966919,-1.9444546699523926,2
55,-0.13472580909729004,0.0036477399989962578,-0.04744734242558479,-0.3559277057647705,-1.086722731590271,-1.9399044513702393,2
56,0.0009101348114199936,0.04252362623810768,-0.14650693535804749,-0.3794104754924774,-1.0399073362350464,-1.9366564750671387,2
57,-0.19042199850082397,0.08107234537601471,-0.10974139720201492,-0.39735037088394165,-1.0026655197143555,-1.9351929426193237,2
58,-0.07522536814212799,0.027169344946742058,-0.0583471916615963,-0.6896476149559021,-0.7685962915420532,-1.927390456199646,2
59,-0.04857466369867325,0.08995536714792252,-0.06961694359779358,-0.3411027193069458,-0.8098016381263733,-1.9246660470962524,2
60,-0.15427441895008087,0.0007563013350591063,-0.04495598003268242,-0.36452585458755493,-0.8385093808174133,-1.9241013526916504,2
61,-0.14068745076656342,0.02079104259610176,-0.05929642915725708,-0.5885694026947021,-0.8604806661605835,-1.9300282001495361,2
62,-0.052305106073617935,-0.0746748149394989,-0.14830803871154785,-0.611122190952301,-0.8763313889503479,-1.9297436475753784,2
63,-0.09515086561441422,0.0595746785402298,-0.009543990716338158,-0.20930680632591248,-0.4698604941368103,-1.9028692245483398,2
64,-0.1432197391986847,0.010017086751759052,-0.09453274309635162,-0.2642988860607147,-1.1466189622879028,-1.9003729820251465,2
65,-0.10579809546470642,0.04244412109255791,-0.05321258306503296,-0.30380067229270935,-0.5921803712844849,-1.91530442237854,2
66,-0.1273903250694275,0.058320797979831696,-0.11737724393606186,-0.40505024790763855,-0.9617929458618164,-1.9080783128738403,2
67,-0.11873398721218109,0.0403183214366436,-0.017768720164895058,-0.4089774787425995,-0.9503076672554016,-1.907702922821045,2
68,-0.15568478405475616,-0.056855231523513794,-0.08385193347930908,-0.4124079942703247,-1.156193733215332,-1.9009004831314087,2
69,-0.07416216284036636,-0.021585285663604736,0.008328964002430439,0.0,0.0,0.0,2
70,-0.07042601704597473,0.1650719940662384,-0.08815085887908936,-0.22475606203079224,-0.21721333265304565,-0.0010494793532416224,2
71,-0.09733805805444717,0.22694748640060425,0.03331555053591728,0.6373531818389893,-2.3440349102020264,0.012684912420809269,2
72,-0.05194985121488571,0.05417090654373169,0.11802421510219574,0.2656414210796356,-0.327360600233078,0.0005850524757988751,2
73,-0.10055742412805557,0.0383773110806942,-0.029055025428533554,0.12931659817695618,0.1278195083141327,0.0011647397186607122,2
74,-0.0459769144654274,0.014601679518818855,-0.08065694570541382,1.6802278757095337,-0.5962734818458557,0.006421050522476435,2
75,-0.08405642211437225,0.015732131898403168,-0.07249310612678528,0.878229558467865,4.6195855140686035,-0.07907925546169281,2
76,-0.17549841105937958,0.06657306849956512,0.005391702987253666,0.46534156799316406,-0.7971535325050354,-0.006486706435680389,2
77,0.01048855297267437,-0.0077237035147845745,-0.06127501651644707,-1.385813593864441,1.645236849784851,-0.013342366553843021,2
78,0.005258535034954548,0.0258001908659935,0.006666436325758696,-1.4321725368499756,1.4182881116867065,-0.012105190195143223,2
79,0.027117881923913956,0.042411450296640396,-0.010999348014593124,-0.48761844635009766,1.1798551082611084,-0.01613014191389084,2
80,-0.20768462121486664,0.06281989067792892,-0.010635221377015114,-2.277364730834961,0.5728940367698669,-0.03942662850022316,2
81,-0.08458791673183441,0.012632652185857296,-0.08742328733205795,-0.3681255877017975,0.8690948486328125,-0.016241446137428284,2
82,-0.11008789390325546,-0.022497858852148056,0.0105960164219141,-0.8978027105331421,-0.37696027755737305,-0.0533679760992527,2
83,-0.04041029512882233,0.01745823211967945,-0.056294869631528854,-1.8919206857681274,0.4501097500324249,-0.03185596317052841,2
84,-0.09677089005708694,0.016866901889443398,-0.06950965523719788,0.25693655014038086,1.872170329093933,0.01062991563230753,2
85,-0.16436685621738434,0.03440473973751068,-0.09910698235034943,0.48974359035491943,0.7649697661399841,-0.006978647317737341,2
86,-0.07779067009687424,-0.06336376070976257,-0.007476224098354578,-0.6922333836555481,-0.7826535105705261,-0.04303211718797684,2
87,-0.15442396700382233,0.04899771884083748,-0.057638056576251984,-0.9739183187484741,-0.08020665496587753,-0.031034760177135468,2
88,-0.11236944794654846,0.03775811195373535,-0.009378152899444103,-0.9345217943191528,-0.5648620128631592,-0.04398326575756073,2
89,-0.15117378532886505,0.07099959999322891,-0.03197416290640831,-0.8914138674736023,0.41639623045921326,-0.016313014551997185,2
90,-0.07105016708374023,-0.014156338758766651,0.02329949289560318,-1.6729862689971924,0.2334875762462616,-0.013971101492643356,2
91,-0.05008294805884361,0.10974924266338348,-0.07931011915206909,-0.8176901936531067,-0.10275867581367493,-0.03622318431735039,2
92,-0.15273582935333252,-0.02497021295130253,0.028289945796132088,-1.163291573524475,-0.15382203459739685,-0.035059720277786255,2
93,-0.05395438149571419,-0.002168166683986783,0.021533044055104256,-1.2110482454299927,-0.5630996823310852,-0.05306750908493996,2
94,-0.10607890039682388,0.07192066311836243,-0.21153585612773895,0.3382038176059723,0.19780322909355164,-0.05471993237733841,2
95,-0.11330342292785645,0.07436433434486389,-0.016232900321483612,-1.2758358716964722,0.04774375259876251,-0.02706766687333584,2
96,-0.12596185505390167,0.08858063071966171,0.002671839203685522,-0.46079596877098083,-1.0439385175704956,-0.07583291828632355,2
97,-0.05483222380280495,-9.208758274326101e-05,-0.12170884758234024,-1.1378657817840576,-0.09117801487445831,-0.029968684539198875,2
98,-0.12248626351356506,-0.00612277165055275,-0.08378222584724426,-1.0022051334381104,-0.4808395206928253,-0.048804182559251785,2
99,-0.11278268694877625,0.05645807459950447,0.01940034329891205,-0.3203604519367218,-0.32511410117149353,-0.06551247835159302,2
100,-0.006223329808562994,-0.06804980337619781,-0.07510548084974289,-0.8194103837013245,-0.21972402930259705,-0.045994341373443604,2
101,-0.0015879285056144,0.04446492716670036,-0.10834795236587524,-0.7618246078491211,-0.5541590452194214,-0.057453032582998276,2
102,-0.018514741212129593,-0.029332872480154037,0.05797921121120453,-0.3278672397136688,-0.40154406428337097,-0.07011013478040695,2
103,-0.09191280603408813,-0.0370316356420517,-0.04270200803875923,-0.39903947710990906,-0.9407515525817871,-0.07474739104509354,2
104,-0.07949268072843552,0.0054245260544121265,0.013670778833329678,-0.9483444094657898,-0.573412299156189,-0.046044882386922836,2
105,-0.14168283343315125,0.12420682609081268,0.0192912295460701,-0.8506971597671509,-0.4327121376991272,-0.04777243733406067,2
106,0.03431526944041252,0.016251787543296814,-0.03921102359890938,-0.5460755825042725,-0.691863477230072,-0.06731017678976059,2
107,0.05711729824542999,0.007439873181283474,0.024382496252655983,-0.6691341996192932,-0.0789189264178276,-0.05074821412563324,2
108,-0.17281761765480042,-0.0188397616147995,0.007162680383771658,-0.7559868097305298,-0.4220949113368988,-0.05280553176999092,2
109,-0.016147496178746223,0.007490020710974932,0.017369141802191734,-0.3803116977214813,-0.3530105948448181,-0.06609883904457092,2
110,-0.07222971320152283,-0.0006181828211992979,-0.02887772209942341,-0.42744505405426025,-0.9442331790924072,-0.06969907879829407,2
111,-0.15112726390361786,-0.0031137506011873484,-0.07446067035198212,0.06590955704450607,-0.4317256808280945,-0.0917060598731041,2
112,-0.1403554528951645,-0.012569323182106018,-0.07536691427230835,-0.8194669485092163,-0.47567856311798096,-0.051863379776477814,2
113,-0.02765965647995472,0.064954474568367,-0.0828443318605423,-0.7418693900108337,-0.9120894074440002,-0.05657349154353142,2
114,-0.1645730882883072,0.028986884281039238,-0.12590092420578003,-0.784538745880127,-0.6325439214706421,-0.05332241579890251,2
115,-0.002029592404142022,-0.007206084672361612,-0.06860469281673431,0.06157130375504494,-0.5288365483283997,-0.09710118919610977,2
116,-0.03140250965952873,0.05878624692559242,0.013722389005124569,-0.8519891500473022,-0.5521059036254883,-0.05136789754033089,2
117,-0.13055188953876495,0.07291799783706665,-0.004687207285314798,-0.7676481604576111,-0.4746004045009613,-0.05505562946200371,2
118,-0.060359302908182144,0.10120604932308197,-0.0024770121090114117,0.05046353116631508,-0.5146176815032959,-0.09242818504571915,2
119,-0.09641105681657791,0.07770372927188873,-0.025439811870455742,-0.8273325562477112,-0.5428972840309143,-0.05417991802096367,2
120,-0.10969860106706619,0.04877559840679169,-0.11169207096099854,-0.46765100955963135,-0.9321411848068237,-0.07081316411495209,2
121,-0.1078781932592392,-0.06670770049095154,-0.08994497358798981,-0.4714745283126831,-0.5894840359687805,-0.07134760916233063,2
122,0.05322381481528282,0.06745629757642746,0.04277234151959419,-0.4728054106235504,-0.7802055478096008,-0.0712033361196518,2
123,-0.20432430505752563,0.13624456524848938,-0.14365343749523163,-0.3885076344013214,-0.7448370456695557,-0.07616963982582092,2
124,-0.006878324784338474,0.07676715403795242,0.018562380224466324,-0.4132148027420044,-0.549787700176239,-0.0767841786146164,2
125,-0.02367439679801464,-0.1465959995985031,-0.1128351241350174,-0.09027325361967087,-0.5750454068183899,-0.09288252145051956,2
126,-0.05818302929401398,0.02471861056983471,0.08448457717895508,-0.8431907296180725,-0.43173688650131226,-0.05990453064441681,2
127,-0.044756919145584106,-0.04423100873827934,0.032118793576955795,-0.7366445064544678,-0.5759713649749756,-0.06384771317243576,2
128,-0.13192510604858398,0.0012496368726715446,-0.037633251398801804,-0.6558962464332581,-0.762869119644165,-0.06818098574876785,2
129,-0.13017511367797852,-0.005842151585966349,-0.09917054325342178,-0.5954557061195374,-0.7426009774208069,-0.07087311893701553,2
130,-0.04884655028581619,0.013697292655706406,0.073866106569767,-0.24316899478435516,-0.8824345469474792,-0.08846071362495422,2
131,-0.061601199209690094,0.03888039290904999,-0.032533884048461914,-0.5239278078079224,-0.6045112013816833,-0.07393894344568253,2
132,-0.006776952184736729,-0.03668501228094101,-0.08715507388114929,-0.27679184079170227,-0.5566233992576599,-0.08632729202508926,2
133,-0.1291268914937973,-0.014923757873475552,-0.08408980071544647,-0.6135216355323792,-0.66986083984375,-0.07126318663358688,2
134,-0.04811203107237816,-0.0896213948726654,-0.03542277589440346,-0.5634250640869141,-0.680346667766571,-0.07393985986709595,2
135,-0.20876458287239075,0.011052725836634636,-0.02160700224339962,-0.5260606408119202,-0.5453511476516724,-0.07591459900140762,2
136,-0.13212285935878754,-0.01562367845326662,-0.05197073891758919,-0.35764092206954956,-0.6656498908996582,-0.08246123790740967,2
137,-0.03148302063345909,-0.03933849185705185,0.09129295498132706,-0.30631881952285767,-0.894997775554657,-0.0829692855477333,2
138,-0.24508623778820038,-0.008218811824917793,-0.08631103485822678,-0.5541447997093201,-0.7043380737304688,-0.07297318428754807,2
139,-0.1040642112493515,0.007153280079364777,0.06855293363332748,-0.37835240364074707,-0.2874842882156372,-0.0836828425526619,2
140,-0.03257809579372406,0.07232499867677689,-0.007720325607806444,-0.5358338952064514,-0.6929834485054016,-0.07519340515136719,2
141,-0.07937788963317871,-0.02812616154551506,0.06108441948890686,0.05872752517461777,-0.7749485373497009,-0.09335517138242722,2
142,-0.1616092473268509,-0.019227297976613045,-0.08938445150852203,-0.28755757212638855,-0.7648172974586487,-0.08090812712907791,2
143,-0.12962573766708374,-0.027545256540179253,0.01979307271540165,-0.11470963060855865,-0.7600071430206299,-0.08796712756156921,2
144,-0.13634227216243744,0.08370115607976913,-0.051363904029130936,-0.49089744687080383,-1.044823408126831,-0.06417899578809738,2
145,-0.17453035712242126,-0.06266672164201736,0.011953647248446941,-0.4774602949619293,-0.7499654293060303,-0.0716886892914772,2
146,-0.07299789041280746,0.13188384473323822,-0.0019040803890675306,-0.7545179128646851,-0.750938355922699,-0.058616988360881805,2
147,-0.1948796659708023,-0.05064428225159645,-0.062222495675086975,-0.6679239869117737,-0.6093881130218506,-0.06308939307928085,2
148,-0.07106734812259674,0.013398430310189724,-0.14036090672016144,-0.3906990587711334,-1.0102590322494507,-0.07654765248298645,2
149,0.038758523762226105,0.01716098003089428,0.034831345081329346,-0.40418094396591187,-0.5858702659606934,-0.07607224583625793,2
150,0.032351333647966385,0.054009243845939636,-0.11559588462114334,-0.3433973491191864,-0.9896470904350281,-0.0771481990814209,2
151,-0.1639944612979889,-0.027623411267995834,-0.0711943730711937,-0.3695569932460785,-0.9251486659049988,-0.0771486684679985,2
152,0.025993572548031807,-0.0041651055216789246,0.02383076772093773,-0.3875746726989746,-0.8783222436904907,-0.0766817182302475,2
153,-0.09823030978441238,0.00628475658595562,-0.047311753034591675,-0.6948602795600891,-0.6232638359069824,-0.06291961669921875,2
154,0.007472772151231766,0.020733823999762535,-0.032118819653987885,-0.33199286460876465,-0.8077526688575745,-0.07944469898939133,2
155,-0.061271507292985916,0.048367202281951904,-0.029802002012729645,-0.3596406579017639,-0.5695939660072327,-0.07980510592460632,2
156,-0.08707945793867111,0.1257169097661972,-0.10986139625310898,-0.3807046115398407,-0.6202142834663391,-0.07906171679496765,2
157,-0.059788674116134644,-0.07257907092571259,-0.0692991241812706,-0.5459643602371216,-0.8839781880378723,-0.07294949144124985,2
158,0.0132497139275074,-0.04722091555595398,-0.08945835381746292,-0.36547645926475525,-0.3286907970905304,-0.08136674761772156,2
159,-0.10746657848358154,0.08039659261703491,-0.005033994559198618,-0.3835836946964264,-0.5936836004257202,-0.08061490207910538,2
160,-0.0044403900392353535,0.01934564672410488,-0.028035465627908707,-0.6225625872612,-0.7944453358650208,-0.07555176317691803,2
161,-0.19300398230552673,0.09364475309848785,-0.05723543092608452,-0.6469390988349915,-0.7916033267974854,-0.07547636330127716,2
162,-0.042719483375549316,0.0013169802259653807,-0.023427097126841545,-0.21830780804157257,-0.4936726987361908,-0.08455590903759003,2
163,0.025871602818369865,-0.07142405211925507,-0.050250548869371414,-0.6451839208602905,-1.0174102783203125,-0.07625710964202881,2
164,-0.13597357273101807,0.08555985987186432,-0.03408832103013992,-0.2901895046234131,-0.8092764616012573,-0.08593311160802841,2
165,-0.16988030076026917,0.04185276851058006,-0.07908517122268677,-0.40108293294906616,-0.7328366637229919,-0.08338834345340729,2
166,0.00954445917159319,-0.017137760296463966,-0.05322134122252464,-0.6301184296607971,-0.8254269361495972,-0.07729311287403107,2
167,-0.07056651264429092,-0.00534774549305439,-0.03488735109567642,-0.5741033554077148,-0.8193164467811584,-0.07921893894672394,2
168,-0.11525187641382217,0.06928503513336182,-0.06515055149793625,-0.2397918999195099,-0.8162110447883606,-0.09036391973495483,2
169,-0.10834626853466034,0.007677330169826746,-0.0598183311522007,-0.5803900957107544,-0.8883979916572571,-0.07997144758701324,2
170,-0.0049323588609695435,0.009120373986661434,0.0032684451434761286,-0.3186112344264984,-1.0866636037826538,-0.08989924192428589,2
171,-0.12627270817756653,-0.013056453317403793,-0.06724930554628372,-0.4911476671695709,-0.8673456907272339,-0.08338311314582825,2
172,-0.04140352085232735,0.05284209921956062,0.018601221963763237,-0.25528866052627563,-0.417953759431839,-0.09473320096731186,2
173,-0.10884669423103333,-0.037501946091651917,0.028542812913656235,-0.5154027938842773,-0.812301754951477,-0.08401300013065338,2
174,0.012573344632983208,0.01942802406847477,-0.1453932374715805,-0.4899523854255676,-0.7433464527130127,-0.08530298620462418,2
175,-0.06909432262182236,0.12699058651924133,0.02616397850215435,-0.4002133011817932,-0.8357301950454712,-0.08860225975513458,2
176,-0.03449403494596481,0.09634377807378769,-0.031055618077516556,-0.550312340259552,-0.905182957649231,-0.08447806537151337,2
177,-0.001959705725312233,-0.05025988817214966,-0.08532185852527618,-0.22896847128868103,-0.5241425037384033,-0.09455981105566025,2
178,-0.02465425804257393,0.010599742643535137,-0.1432926505804062,-0.20621715486049652,-0.8900931477546692,-0.09221120923757553,2
179,-0.14105306565761566,0.06653173267841339,-0.004454159643501043,-0.04893234372138977,-0.8748630881309509,-0.09717049449682236,2
180,-0.12472696602344513,-0.060561761260032654,-0.018303800374269485,-0.36202242970466614,-1.1505130529403687,-0.08193015307188034,2
181,-0.15180009603500366,0.14956501126289368,-0.03825553134083748,-0.37491467595100403,-0.49760422110557556,-0.09599389135837555,2
182,-0.05945434421300888,-0.06918501108884811,0.052110690623521805,-0.45974454283714294,-0.8004807233810425,-0.08792221546173096,2
183,-0.14965495467185974,-0.03801506385207176,-0.07784121483564377,-0.7352566719055176,-0.8812904953956604,-0.08068381994962692,2
184,-0.07497361302375793,0.025134917348623276,-0.0959133505821228,-0.6509543657302856,-0.8709691166877747,-0.08314234763383865,2
185,-0.1808425486087799,0.046012409031391144,-0.12661924958229065,-0.30597013235092163,-1.075443983078003,-0.09495779871940613,2
186,0.026008695363998413,-0.033262163400650024,-0.012941614724695683,-0.05013652890920639,-0.8722333312034607,-0.10485953837633133,2
187,-0.06451992690563202,0.05920733883976936,-0.020886486396193504,-0.5683668255805969,-0.8613752126693726,-0.0869421511888504,2
188,-0.1628239005804062,-0.04539960250258446,0.011652198620140553,-0.45831987261772156,-0.9957302212715149,-0.09012249112129211,2
189,-0.19621169567108154,0.01862747222185135,-0.1236170157790184,-0.44536200165748596,-1.0248430967330933,-0.09034515172243118,2
190,-0.0722438395023346,0.08885768800973892,-0.06594645977020264,-0.2250458300113678,-0.9755502939224243,-0.10020766407251358,2
191,-0.06598208844661713,0.10927898436784744,-0.046869080513715744,-0.41691508889198303,-0.37473759055137634,-0.09819482266902924,2
192,0.015043514780700207,-0.010920228436589241,-0.03646194934844971,-0.6962608098983765,-0.7728670835494995,-0.09066637605428696,2
193,-0.09390365332365036,0.09006001055240631,-0.09352938085794449,-0.41265612840652466,-0.9943927526473999,-0.09690134972333908,2
194,-0.12102494388818741,0.0023658000864088535,-0.11053623259067535,-0.4132005572319031,-0.6711046695709229,-0.09618766605854034,2
195,-0.01946513168513775,-0.012399251572787762,0.004531564190983772,-0.3422435522079468,-1.0640628337860107,-0.09875646233558655,2
196,-0.011962603777647018,0.05166599154472351,0.012790028005838394,-0.35990986227989197,-0.7917582392692566,-0.09850560128688812,2
197,-0.15072008967399597,0.045798689126968384,-0.05197419598698616,-0.23087918758392334,-0.730218231678009,-0.10188349336385727,2
198,-0.09892333298921585,-0.07311081886291504,-0.12027828395366669,-0.6379945278167725,-0.7589254975318909,-0.0945405513048172,2
199,-0.15173639357089996,0.08724746853113174,0.009098575450479984,-0.4360674321651459,-0.9985219240188599,-0.09868286550045013,2
200,-0.04472494125366211,0.06962238997220993,0.07183901220560074,-0.4308953583240509,-0.3749406933784485,-0.09793391078710556,2
201,0.01992272585630417,0.05340240150690079,0.013547246344387531,-0.5752777457237244,-0.8633109927177429,-0.09818757325410843,2
202,-0.010137181729078293,0.0470755361020565,-0.005887584760785103,-0.020689871162176132,-0.857257068157196,-0.10124122351408005,2
203,-0.15496446192264557,0.12526477873325348,0.0021660500206053257,-0.6298624873161316,-0.7791775465011597,-0.09598613530397415,2
204,-0.13689030706882477,-0.02989554964005947,-0.11357975751161575,-0.06758496910333633,-0.8688835501670837,-0.10180236399173737,2
205,-0.0035315887071192265,0.04295226186513901,-0.08094936609268188,-0.44130828976631165,-1.0801889896392822,-0.09542207419872284,2
206,-0.06099642813205719,0.05010979622602463,-0.0011263651540502906,-0.43247896432876587,-1.0202316045761108,-0.09688545763492584,2
207,-0.06005723029375076,-0.02155587077140808,0.0367400199174881,-0.6361533999443054,-0.9064130187034607,-0.09212618321180344,2
208,0.002019978826865554,0.10002733767032623,-0.0017476128414273262,-0.644267737865448,-0.6803184151649475,-0.09014517068862915,2
209,-0.18288204073905945,0.029471509158611298,-0.0398089699447155,-0.023056427016854286,-0.7965517044067383,-0.10357008874416351,2
210,-0.06801720708608627,0.03958927094936371,0.10920262336730957,-0.6690593361854553,-0.8093385696411133,-0.09417777508497238,2
211,-0.18631964921951294,-0.16981545090675354,-0.29417186975479126,-0.31885990500450134,-1.0215948820114136,-0.09916958957910538,2
212,0.2454872876405716,0.6246911287307739,1.1125290393829346,-0.3308733105659485,-0.6962661147117615,-0.10311414301395416,2
213,0.3681323528289795,0.8275169134140015,0.5213654041290283,-0.33908843994140625,-0.7231550216674805,-0.10714270919561386,2
214,0.4772574007511139,0.5295793414115906,-0.4124213457107544,-0.35672444105148315,-1.003192663192749,-0.09569504112005234,2
215,-0.26690277457237244,-0.03270275890827179,-0.5322657823562622,-0.6411687731742859,-0.7954279780387878,-0.08675336837768555,2
216,0.28067100048065186,-0.5706433653831482,-0.9312056303024292,-0.5654006004333496,-0.6440342664718628,-0.0866180956363678,2
217,0.08899296820163727,-0.16495628654956818,0.02075188234448433,-0.2947123050689697,-0.6686416268348694,-0.0890224426984787,2
218,-0.16240547597408295,0.7516869902610779,0.7754298448562622,0.049738604575395584,-0.6782605051994324,-0.09583315998315811,2
219,0.4010874032974243,-0.07480309903621674,-0.7570923566818237,-0.05153966695070267,-0.6950811743736267,-0.09325473755598068,2
220,2.513043165206909,-2.7498350143432617,-0.7577095031738281,-0.6694595217704773,-0.6974629759788513,-0.10253053158521652,2
221,-0.0013457490131258965,-0.8471242189407349,-1.8075621128082275,-0.5749002695083618,-0.695818305015564,-0.11852111667394638,2
222,1.0394303798675537,2.9890830516815186,2.234827995300293,-0.4912121295928955,-0.6659411787986755,-0.11906784027814865,2
223,-0.6719365119934082,4.825900554656982,2.025451183319092,-0.3300205171108246,-0.41986966133117676,-0.09668542444705963,2
224,6.259086608886719,-7.150956630706787,4.597817420959473,-0.5057485103607178,-0.66709965467453,-0.07361871004104614,2
225,-6.163792610168457,1.2371505498886108,7.725521087646484,-0.2731955051422119,-0.45760098099708557,-0.012968696653842926,2
226,3.1052873134613037,-6.416440963745117,12.124871253967285,-0.43220046162605286,-0.6068573594093323,0.07989026606082916,2
227,-9.940686225891113,16.26772117614746,13.03748607635498,-0.3153338134288788,-0.7466604113578796,0.20708072185516357,2
228,3.9158716201782227,-5.999020099639893,10.13984489440918,-0.663802981376648,-0.831789493560791,0.32478371262550354,2
229,-0.971268355846405,-30.553943634033203,6.80342960357666,-0.8027285933494568,-1.1274490356445312,0.4089090824127197,2
230,17.73311996459961,-15.64196491241455,5.860914707183838,-0.5385249853134155,-1.281389832496643,0.4782995581626892,2
231,-1.857310175895691,-10.826220512390137,4.145165920257568,-1.1220992803573608,-1.2317588329315186,0.548259973526001,2
232,0.05828191712498665,-35.2832145690918,0.4500780999660492,-1.1573538780212402,-1.9252163171768188,0.5434163808822632,2
233,-19.521541595458984,-24.60419464111328,1.5495728254318237,-0.5075705051422119,-1.9088248014450073,0.5397281646728516,2
234,-7.376208782196045,-23.470518112182617,3.6736419200897217,-0.9094586372375488,-2.7445600032806396,0.576317548751831,2
235,-3.927349328994751,-38.57353973388672,5.738512992858887,-0.43366679549217224,-2.8757259845733643,0.6014626622200012,2
236,10.609299659729004,-46.60504150390625,5.17390251159668,-0.41866761445999146,-3.6267619132995605,0.7102183103561401,2
237,35.6368408203125,-47.92271041870117,4.878224849700928,0.36390748620033264,-3.212280035018921,0.7041999697685242,2
238,61.58060073852539,-51.50664520263672,4.940860748291016,0.9363910555839539,-3.0304532051086426,0.7599480152130127,2
239,79.60474395751953,-55.27983474731445,4.453271389007568,1.6347227096557617,-3.1142678260803223,0.8070505857467651,2
240,80.9305191040039,-52.27735900878906,5.715943813323975,1.0053458213806152,-2.722792148590088,1.3641865253448486,2
241,74.68805694580078,-40.96792984008789,4.155786991119385,1.2509541511535645,-1.1187463998794556,1.306464672088623,2
242,71.3137435913086,-41.03424835205078,4.136913299560547,1.335070252418518,-0.06602606177330017,1.429266095161438,2
243,69.80188751220703,-42.41600799560547,2.368095874786377,2.4118218421936035,1.3137935400009155,1.1443209648132324,2
244,61.9045295715332,-46.222442626953125,1.7177445888519287,3.2095870971679688,3.347130537033081,0.8060192465782166,2
245,47.535335540771484,-31.389554977416992,2.926795482635498,4.846752643585205,5.075209140777588,0.5333620309829712,2
246,14.337370872497559,-15.89212703704834,5.354780673980713,3.4015450477600098,6.344335079193115,-0.2717292010784149,2
247,-21.313608169555664,-4.364709377288818,8.314420700073242,4.433072566986084,5.9441633224487305,0.4267990291118622,2
248,-52.9850959777832,12.566868782043457,4.520188808441162,5.546121120452881,5.737226486206055,1.0908392667770386,2
249,-79.291259765625,26.082599639892578,1.534403920173645,4.095712661743164,5.006505966186523,0.32659801840782166,2
250,-91.32749938964844,26.25920867919922,3.796299695968628,4.079019069671631,3.6284661293029785,0.9238747954368591,2
251,-90.6551284790039,39.84852600097656,2.7387454509735107,3.791154384613037,2.567031145095825,1.0908738374710083,2
252,-81.4007339477539,46.607337951660156,4.444032192230225,3.581976890563965,1.2134259939193726,1.5973156690597534,2
253,-56.66183090209961,52.16141128540039,8.238879203796387,2.5617191791534424,0.2703786790370941,1.416468858718872,2
254,-23.19378662109375,50.708988189697266,14.15273666381836,3.437647819519043,-0.21712715923786163,2.3035762310028076,2
255,7.2632927894592285,39.742069244384766,13.114947319030762,3.3255655765533447,0.0004762737371493131,2.360537052154541,2
256,33.828338623046875,31.882768630981445,15.944055557250977,3.685284376144409,0.3716702163219452,2.6051723957061768,2
257,42.217559814453125,26.81041145324707,17.791690826416016,3.4431052207946777,1.085205078125,2.588315010070801,2
258,33.17082977294922,21.5692195892334,17.490520477294922,3.2578978538513184,1.3933513164520264,2.8333678245544434,2
259,18.24878692626953,20.006927490234375,16.929031372070312,2.9962692260742188,1.898438572883606,2.8723936080932617,2
260,0.17598630487918854,17.7661190032959,17.166107177734375,2.9612269401550293,1.8076636791229248,3.192378044128418,2
261,-23.69800567626953,19.425199508666992,17.541833877563477,2.733227014541626,1.859562635421753,3.294055938720703,2
262,-45.35684585571289,15.839573860168457,14.729362487792969,2.5863888263702393,1.540475845336914,3.4823925495147705,2
263,-56.81411361694336,14.543659210205078,11.93327522277832,2.341095209121704,0.7712289094924927,3.7110679149627686,2
264,-53.685794830322266,22.81087303161621,10.402416229248047,2.2018322944641113,0.22762107849121094,3.8241727352142334,2
265,-40.56975555419922,36.586700439453125,10.431549072265625,1.8807541131973267,-0.29540643095970154,3.924410581588745,2
266,-24.03997039794922,58.802764892578125,13.167835235595703,1.050095796585083,-0.5145464539527893,3.9246878623962402,2
267,-6.9214935302734375,74.50041961669922,17.307418823242188,0.42608946561813354,-0.9074976444244385,4.119344711303711,2
268,13.787836074829102,75.41860961914062,20.09198760986328,0.0035345973446965218,-1.080463171005249,4.345058441162109,2
269,28.21868133544922,64.26939392089844,20.14600372314453,-1.115746259689331,-1.024753212928772,4.551020622253418,2
270,34.154685974121094,43.839263916015625,18.54538917541504,-1.3115534782409668,-0.801399827003479,4.719245910644531,2
271,38.06413650512695,23.926319122314453,13.930325508117676,-2.0337889194488525,-0.40011921525001526,4.927346229553223,2
272,32.76156997680664,1.574791431427002,5.4769134521484375,-2.1459121704101562,-0.09311345219612122,5.013728141784668,2
273,23.531034469604492,-18.081295013427734,-2.3318986892700195,-2.270172357559204,0.3895462453365326,5.10099458694458,2
274,2.0132880210876465,-31.042604446411133,-6.326539039611816,-2.125669479370117,0.26816004514694214,4.975736618041992,2
275,-26.855052947998047,-35.5390739440918,-10.543036460876465,-1.856232762336731,0.0382973849773407,4.846105575561523,2
276,-44.59211349487305,-27.463411331176758,-15.051547050476074,-1.4843355417251587,-0.37714099884033203,4.692384719848633,2
277,-47.82471466064453,-20.243696212768555,-19.664052963256836,-1.093432068824768,-0.654414713382721,4.601106643676758,2
278,-40.11635971069336,-10.569819450378418,-21.391098022460938,-1.3328461647033691,-1.2564703226089478,4.358026504516602,2
279,-20.50863265991211,-4.315064907073975,-23.80898094177246,-1.0738027095794678,-1.5425246953964233,4.151611804962158,2
280,2.3710739612579346,0.3606567680835724,-29.4670467376709,-1.7566696405410767,-1.3012062311172485,4.084173679351807,2
281,15.570361137390137,-5.198698997497559,-35.42122268676758,-1.7533994913101196,-0.598915159702301,3.997058153152466,2
282,17.576202392578125,-17.517932891845703,-36.26539611816406,-1.524214744567871,-0.4701189696788788,3.6077442169189453,2
283,9.584044456481934,-19.65955924987793,-31.579574584960938,-1.1626770496368408,-0.9859236478805542,3.002396821975708,2
284,7.136834621429443,-1.6766297817230225,-24.007474899291992,-0.9582828283309937,-1.0809392929077148,2.6483123302459717,2
285,12.617624282836914,9.354513168334961,-15.74830436706543,-0.8263576626777649,-1.5237610340118408,2.2402632236480713,2
286,19.37435531616211,13.022675514221191,-7.4695143699646,-1.0815224647521973,-1.3225337266921997,2.1512303352355957,2
287,24.88880729675293,17.966764450073242,-3.762237787246704,-1.026373267173767,-1.3430020809173584,1.982391595840454,2
288,29.132524490356445,26.69319725036621,1.0723838806152344,-1.321877360343933,-0.970579206943512,2.0026581287384033,2
289,41.33562469482422,27.067440032958984,5.3237175941467285,-1.501752257347107,-0.8320848941802979,1.9577970504760742,2
290,56.2640380859375,15.691191673278809,7.849800109863281,-1.9266600608825684,-0.3795873820781708,2.0495083332061768,2
291,61.02878189086914,0.45655304193496704,7.453169345855713,-1.9437466859817505,0.02583818882703781,2.0605356693267822,2
292,62.24147033691406,-14.525382995605469,3.6658763885498047,-1.9351632595062256,0.6517787575721741,2.1318860054016113,2
293,53.82722473144531,-25.822412490844727,-0.8469229936599731,-1.674067497253418,1.0030629634857178,2.0636677742004395,2
294,42.07518005371094,-32.17566680908203,-5.564800262451172,-1.2658988237380981,1.8292534351348877,2.131564140319824,2
295,30.570520401000977,-31.95861053466797,-12.227560043334961,-1.082789659500122,1.766355037689209,1.9033147096633911,2
296,7.30929708480835,-17.704477310180664,-14.986154556274414,-0.9140090346336365,2.0369954109191895,1.7621169090270996,2
297,-16.40187644958496,-10.334073066711426,-15.868383407592773,-0.9407462477684021,1.684949278831482,1.4936999082565308,2
298,-27.686203002929688,-13.593244552612305,-18.857629776000977,-0.8472915887832642,1.6494693756103516,1.3632786273956299,2
299,-18.87873649597168,-16.5816593170166,-22.779218673706055,-0.5623019337654114,1.2887284755706787,1.1673760414123535,2
300,-5.677646636962891,-23.233177185058594,-27.573118209838867,-0.3773902952671051,1.3285002708435059,0.9548947811126709,2
301,11.865084648132324,-23.518178939819336,-30.648113250732422,-0.17110681533813477,1.273532509803772,0.6451055407524109,2
302,22.110027313232422,-21.513225555419922,-32.714393615722656,0.09462084621191025,1.740343689918518,0.3704410493373871,2
303,18.524578094482422,-20.66147804260254,-33.87936782836914,0.3139837384223938,1.851671814918518,0.02575070969760418,2
304,14.72374439239502,-8.5523099899292,-35.10696792602539,0.3846765160560608,2.260237216949463,-0.3281591236591339,2
305,14.305197715759277,-3.2410595417022705,-34.526309967041016,0.39818519353866577,2.3416588306427,-0.6952739357948303,2
306,14.10940933227539,-1.8370004892349243,-31.293088912963867,0.41579169034957886,2.56467342376709,-1.0365930795669556,2
307,13.831341743469238,8.350083351135254,-27.52965545654297,0.41430336236953735,3.1738810539245605,-1.3327423334121704,2
308,13.09107780456543,14.333456993103027,-23.27491569519043,0.05727202817797661,2.650641441345215,-1.6606667041778564,2
309,5.475480079650879,13.846590042114258,-20.340707778930664,-0.10329212993383408,3.098759174346924,-1.888304352760315,2
310,3.1338143348693848,13.021574020385742,-17.839313507080078,-0.25076934695243835,2.658464193344116,-2.0682995319366455,2
311,-6.225244045257568,-4.186633586883545,-12.397902488708496,-0.2741808295249939,2.926630735397339,-2.221900463104248,2
312,-16.39451026916504,-11.634608268737793,-5.485664367675781,-0.0919814333319664,3.11088490486145,-2.2817490100860596,2
313,-23.31946563720703,-14.466426849365234,-0.9648013710975647,0.15662765502929688,3.045290231704712,-2.2813150882720947,2
314,-26.866092681884766,-19.21133804321289,1.4997291564941406,0.4399903118610382,3.443568229675293,-2.241039514541626,2
315,-24.245397567749023,-19.73236656188965,2.775329828262329,0.6696133613586426,3.0294981002807617,-2.214968681335449,2
316,-22.494155883789062,-18.852741241455078,1.8994446992874146,0.893740713596344,2.113492012023926,-2.166139841079712,2
317,-15.679652214050293,-15.54279613494873,0.6370064616203308,1.147010326385498,1.9250037670135498,-2.1248695850372314,2
318,-5.339468002319336,-12.511199951171875,0.3067612648010254,1.8023797273635864,1.437406301498413,-1.8936967849731445,2
319,2.5783700942993164,-6.274840354919434,-0.30852001905441284,2.180833578109741,1.9308561086654663,-1.8837758302688599,2
320,12.39095401763916,13.024901390075684,1.0786675214767456,1.307873249053955,2.7039666175842285,-2.293199062347412,2
321,18.313810348510742,28.56316566467285,3.8924379348754883,-0.38776761293411255,2.5973803997039795,-2.6715214252471924,2
322,10.455223083496094,31.929454803466797,6.439333438873291,-0.577420711517334,2.4362878799438477,-2.536186933517456,2
323,-7.335433483123779,29.554841995239258,8.058830261230469,-0.7377547025680542,2.465285062789917,-2.4097328186035156,2
324,-20.408960342407227,29.674781799316406,10.599519729614258,-0.9569478631019592,2.148245334625244,-2.2788658142089844,2
325,-20.951297760009766,25.763608932495117,11.903850555419922,-1.1841803789138794,1.7102127075195312,-2.1375198364257812,2
326,-9.539968490600586,10.489713668823242,10.583589553833008,-0.8669021129608154,1.930188775062561,-1.8703880310058594,2
327,1.1089963912963867,-6.275927543640137,1.9412964582443237,-0.735354483127594,1.84233820438385,-1.7458359003067017,2
328,6.595179080963135,-20.522735595703125,-7.906585216522217,-0.5167580246925354,1.621362566947937,-1.7545057535171509,2
329,-1.8881102800369263,-29.237817764282227,-14.227532386779785,-0.08726146817207336,1.668175458908081,-1.8231772184371948,2
330,-9.587441444396973,-26.078248977661133,-19.38445281982422,0.09906219691038132,1.4721349477767944,-2.020252227783203,2
331,-13.086332321166992,-15.32126235961914,-23.159408569335938,0.3378533720970154,1.3554803133010864,-2.232426166534424,2
332,-18.00883674621582,-10.83333969116211,-24.95946502685547,0.4962540864944458,0.5815163254737854,-2.495100975036621,2
333,-14.490970611572266,-11.764078140258789,-24.730911254882812,0.46937504410743713,0.365091472864151,-2.766691207885742,2
334,-5.172259330749512,-20.053800582885742,-21.32741928100586,0.5850317478179932,0.2563161253929138,-3.0072708129882812,2
335,7.259257793426514,-25.70091438293457,-18.170331954956055,0.9262734055519104,0.3155449330806732,-3.2057697772979736,2
336,15.73283576965332,-26.226112365722656,-13.608528137207031,1.2323132753372192,0.4143019914627075,-3.3753488063812256,2
337,19.926713943481445,-16.214059829711914,-9.938945770263672,1.5593335628509521,0.20180359482765198,-3.474069595336914,2
338,22.410064697265625,0.13144813477993011,-8.017374992370605,1.58420729637146,0.47450587153434753,-3.572701930999756,2
339,19.98424530029297,11.26308822631836,-5.696045875549316,1.4319393634796143,0.8954275846481323,-3.6621832847595215,2
340,13.787613868713379,16.0024471282959,-2.859577178955078,1.2206343412399292,1.0616463422775269,-3.7031376361846924,2
341,12.32610034942627,16.52336883544922,1.4697400331497192,1.106627345085144,0.9918401837348938,-3.685194969177246,2
342,13.952634811401367,16.031389236450195,4.259719371795654,0.9791228175163269,1.1847913265228271,-3.669105291366577,2
343,9.158203125,15.314106941223145,5.057790279388428,0.7089374661445618,1.4158649444580078,-3.6318938732147217,2
344,5.116830348968506,16.689266204833984,3.088231325149536,0.5968939065933228,1.4102227687835693,-3.568603515625,2
345,7.050693988800049,12.768206596374512,-0.024472439661622047,0.5373920798301697,1.2904131412506104,-3.5195822715759277,2
346,6.906905174255371,6.078597068786621,1.0278953313827515,0.4122700095176697,1.3007081747055054,-3.504981756210327,2
347,3.237844705581665,0.2958788275718689,2.3170175552368164,0.3993356227874756,1.5090928077697754,-3.5094428062438965,2
348,-3.323885202407837,3.0519490242004395,4.1576762199401855,0.43298009037971497,1.6140766143798828,-3.4912915229797363,2
349,-10.856107711791992,4.981590270996094,7.35220193862915,0.40246495604515076,1.58061945438385,-3.4398388862609863,2
350,-20.05819320678711,-2.708458185195923,10.750849723815918,0.3221276104450226,1.3368399143218994,-3.34484601020813,2
351,-16.843183517456055,-14.062385559082031,10.498942375183105,0.3738372325897217,0.9327460527420044,-3.2204957008361816,2
352,-0.21522018313407898,-2.954453706741333,9.736242294311523,0.5923236012458801,0.8974988460540771,-3.123736619949341,2
353,9.04626178741455,12.094325065612793,10.59890079498291,0.5261109471321106,0.8947672247886658,-3.02017879486084,2
354,12.990845680236816,24.06214141845703,9.823999404907227,0.20926545560359955,1.0659652948379517,-2.920532464981079,2
355,16.678272247314453,21.564184188842773,8.980088233947754,0.017317429184913635,1.1457059383392334,-2.8163938522338867,2
356,20.026607513427734,16.025211334228516,6.315509796142578,-0.18229934573173523,1.566835641860962,-2.7422330379486084,2
357,23.66747283935547,19.89277458190918,2.572214126586914,-0.323192298412323,1.320163607597351,-2.6707968711853027,2
358,16.172786712646484,22.619857788085938,-1.5825231075286865,-0.6801466941833496,1.5826501846313477,-2.656914472579956,2
359,-3.442011833190918,18.011072158813477,-2.0249152183532715,-0.7785614132881165,1.7740495204925537,-2.664992094039917,2
360,-19.455738067626953,6.251797199249268,-2.8911619186401367,-0.9731318950653076,1.6155093908309937,-2.686980724334717,2
361,-7.845025539398193,-7.837733745574951,-4.817652702331543,-1.0266659259796143,1.4642932415008545,-2.7231333255767822,2
362,-3.4288744926452637,-12.653732299804688,-4.430271148681641,-0.793398380279541,1.490730881690979,-2.7580769062042236,2
363,0.7624219059944153,-19.49637794494629,-2.7870986461639404,-0.6563611626625061,1.420597791671753,-2.8067963123321533,2
364,-0.0978555902838707,-34.8654899597168,0.4867601990699768,-0.2891322076320648,1.3504165410995483,-2.8302981853485107,2
365,-5.2803754806518555,-47.7913818359375,1.8898619413375854,-0.25002625584602356,1.3708405494689941,-2.844604015350342,2
366,4.255032539367676,-42.72335433959961,3.8810932636260986,0.4092154800891876,1.142144799232483,-2.840233564376831,2
367,18.806514739990234,-23.87162208557129,4.89935827255249,0.6042818427085876,1.3478527069091797,-2.801896572113037,2
368,29.117311477661133,-6.694374084472656,3.3204729557037354,0.7822371125221252,1.8238582611083984,-2.7402758598327637,2
369,28.050155639648438,14.211030960083008,1.8289647102355957,0.8214631080627441,1.6965258121490479,-2.7368624210357666,2
370,8.291891098022461,43.45720291137695,0.9202457666397095,0.5491819977760315,1.9074277877807617,-2.7155468463897705,2
371,-16.692659378051758,58.309326171875,1.0025017261505127,-0.0932738333940506,1.9153127670288086,-2.6986725330352783,2
372,-35.077091217041016,57.72891616821289,3.6341915130615234,-0.613021194934845,1.6680715084075928,-2.65621018409729,2
373,-44.02162551879883,41.187957763671875,7.3005242347717285,-1.2713229656219482,1.1567543745040894,-2.6060357093811035,2
374,-38.54126739501953,14.491463661193848,7.900248050689697,-1.448891282081604,0.5702983736991882,-2.5204172134399414,2
375,-21.450428009033203,-10.440499305725098,8.958001136779785,-1.32799232006073,0.2363792508840561,-2.4243764877319336,2
376,-1.3760558366775513,-25.85749626159668,8.165275573730469,-1.0990945100784302,0.3230365812778473,-2.312898635864258,2
377,17.213788986206055,-40.665260314941406,8.79311466217041,-0.6225343346595764,0.4972156584262848,-2.215271472930908,2
378,30.365659713745117,-43.66960525512695,11.141971588134766,-0.1604948490858078,0.3657015562057495,-2.163963794708252,2
379,34.26728057861328,-29.50438117980957,12.073588371276855,0.259449303150177,1.0212219953536987,-2.013772487640381,2
380,33.79441833496094,-9.961610794067383,11.350403785705566,0.4656447470188141,1.2320514917373657,-1.9098206758499146,2
381,40.362117767333984,6.7625346183776855,10.201181411743164,0.46501317620277405,1.5501512289047241,-1.805664300918579,2
382,39.8746223449707,19.266380310058594,11.320693016052246,0.26720038056373596,1.9104722738265991,-1.6960111856460571,2
383,24.866443634033203,26.10088348388672,10.071466445922852,-0.0922539159655571,2.3182156085968018,-1.5702100992202759,2
384,13.385271072387695,28.21251106262207,9.101170539855957,-0.23542390763759613,2.0764458179473877,-1.4860084056854248,2
385,-6.9505510330200195,24.959692001342773,9.598261833190918,-0.4730152189731598,2.4135751724243164,-1.3688066005706787,2
386,-26.857460021972656,10.154092788696289,10.694972038269043,-0.7557229399681091,2.103785514831543,-1.2744097709655762,2
387,-35.977359771728516,-12.087247848510742,13.420761108398438,-0.7513565421104431,1.820928931236267,-1.151475191116333,2
388,-37.059783935546875,-31.370025634765625,15.166511535644531,-0.4749690890312195,1.3292442560195923,-1.0173102617263794,2
389,-27.315458297729492,-45.15443801879883,16.42789077758789,-0.045739006251096725,0.8885495066642761,-0.8705604672431946,2
390,-7.285954475402832,-49.14993667602539,17.62467384338379,0.43892621994018555,0.6453747749328613,-0.7064041495323181,2
391,21.787458419799805,-32.6509895324707,15.20008373260498,1.0191259384155273,0.7920531630516052,-0.5279524326324463,2
392,40.07513427734375,-2.735424280166626,14.789407730102539,1.191695213317871,1.3588194847106934,-0.37881916761398315,2
393,38.30629348754883,23.656024932861328,16.628074645996094,1.1008524894714355,1.6868129968643188,-0.22375451028347015,2
394,21.019710540771484,38.16190719604492,18.198360443115234,0.6728915572166443,1.7665034532546997,-0.04286571964621544,2
395,2.514037847518921,38.09076690673828,18.929603576660156,0.26032790541648865,1.988166093826294,0.15227095782756805,2
396,-12.155716896057129,27.49603843688965,18.957950592041016,-0.09654045104980469,2.0526440143585205,0.34971240162849426,2
397,-20.96868133544922,8.51881217956543,18.589252471923828,-0.3057912588119507,1.8874355554580688,0.5458244681358337,2
398,-11.515109062194824,-4.731343746185303,18.74984359741211,-0.22427915036678314,1.6456787586212158,0.7419130206108093,2
399,5.203592777252197,-9.009576797485352,18.140363693237305,0.08476060628890991,1.4319603443145752,0.945516049861908,2
400,14.19805908203125,-11.347626686096191,18.272624969482422,0.2143699675798416,1.3836898803710938,1.1299059391021729,2
401,13.450109481811523,-12.400091171264648,14.679159164428711,0.38258230686187744,1.6531778573989868,1.2981489896774292,2
402,10.261917114257812,-11.142019271850586,10.551746368408203,0.4836253523826599,1.8813793659210205,1.423076868057251,2
403,11.537419319152832,0.2930770814418793,8.765474319458008,0.5227535963058472,2.1350209712982178,1.5104551315307617,2
404,11.404468536376953,13.53371524810791,9.437603950500488,0.3570477366447449,2.1695709228515625,1.5964714288711548,2
405,11.742393493652344,24.06081199645996,11.163796424865723,0.07283686846494675,2.1343352794647217,1.6970164775848389,2
406,7.541572093963623,24.578630447387695,11.754046440124512,-0.262369304895401,2.2490956783294678,1.8141365051269531,2
407,-7.063613414764404,26.80533790588379,10.833573341369629,-0.5451924204826355,2.028503179550171,1.9446725845336914,2
408,-11.206480026245117,16.431055068969727,10.173309326171875,-0.8210186958312988,1.964221477508545,2.053694009780884,2
409,-4.2274861335754395,-3.772824764251709,11.872089385986328,-0.8704400062561035,1.9660779237747192,2.1690328121185303,2
410,2.4723289012908936,-13.498169898986816,11.462632179260254,-0.7588407397270203,2.0038259029388428,2.2905054092407227,2
411,9.546513557434082,-19.59016227722168,10.19349193572998,-0.4937135875225067,2.0778684616088867,2.4043490886688232,2
412,11.185978889465332,-16.061038970947266,7.723851680755615,-0.2464579939842224,2.298283338546753,2.5010244846343994,2
413,-4.2986063957214355,-3.327134370803833,4.681542873382568,-0.1266581416130066,2.397624969482422,2.5632097721099854,2
414,-24.30609893798828,13.545469284057617,1.287387490272522,-0.2544207274913788,2.1947648525238037,2.585994243621826,2
415,-31.854900360107422,25.50499153137207,-0.7601083517074585,-0.6355460286140442,1.8415992259979248,2.5725817680358887,2
416,-21.005308151245117,29.393285751342773,-2.720599412918091,-0.92946457862854,1.4106626510620117,2.5566673278808594,2
417,-7.9267168045043945,34.317378997802734,-2.100836753845215,-1.2678533792495728,1.1739662885665894,2.529543161392212,2
418,8.068414688110352,39.68049621582031,-1.9657416343688965,-1.8339940309524536,1.0320205688476562,2.487311840057373,2
419,22.979543685913086,41.851539611816406,-4.577824115753174,-2.4687864780426025,1.376008152961731,2.4682888984680176,2
420,34.44060516357422,28.084821701049805,-2.9432101249694824,-3.0475776195526123,1.922130823135376,2.4585139751434326,2
421,43.3114128112793,8.42359447479248,0.6221941113471985,-3.1382510662078857,1.5462313890457153,2.3282086849212646,2
422,50.809391021728516,-18.352092742919922,5.522064685821533,-3.003349781036377,2.3684301376342773,2.434401273727417,2
423,65.23506927490234,-24.89286231994629,8.055784225463867,-2.534177541732788,2.8236024379730225,2.4833600521087646,2
424,71.5752944946289,-17.5590763092041,7.783385753631592,-2.262758493423462,3.7171833515167236,2.6037440299987793,2
425,52.54743576049805,-12.142520904541016,7.681061267852783,-2.0948548316955566,4.519161701202393,2.7051122188568115,2
426,13.274658203125,-10.70943546295166,5.848201274871826,-1.9003205299377441,4.7296462059021,2.7214226722717285,2
427,-34.42613983154297,-2.3124265670776367,4.333798408508301,-1.783362627029419,4.392005920410156,2.684351682662964,2
428,-74.34371948242188,6.690086364746094,2.8929190635681152,-1.7417265176773071,3.894533157348633,2.7305660247802734,2
429,-98.93307495117188,9.07373332977295,2.2391762733459473,-1.7484724521636963,3.025529384613037,2.763597011566162,2
430,-103.76143646240234,13.734762191772461,1.8254611492156982,-1.9438670873641968,1.6631368398666382,2.675022602081299,2
431,-84.32357788085938,18.235336303710938,0.5847238898277283,-2.13565993309021,0.9668354392051697,2.7661216259002686,2
432,-45.782554626464844,22.557050704956055,-2.188305377960205,-2.337653875350952,0.13052663207054138,2.7316415309906006,2
433,5.756925106048584,15.139698028564453,-3.3712947368621826,-2.4880893230438232,0.3784251809120178,2.873584032058716,2
434,54.59390640258789,-7.424847602844238,-4.229211330413818,-2.4440624713897705,0.6906391978263855,2.885814905166626,2
435,86.23715209960938,-23.346412658691406,-0.4856320321559906,-2.2918524742126465,1.0656914710998535,2.7754435539245605,2
436,95.45722198486328,-25.586610794067383,3.922994613647461,-1.9245895147323608,2.4820499420166016,2.946009397506714,2
437,89.20855712890625,-19.541393280029297,5.9221320152282715,-1.5409197807312012,3.6477596759796143,3.052762985229492,2
438,69.33025360107422,-4.423024654388428,7.090668678283691,-1.5050493478775024,4.205827713012695,3.003432273864746,2
439,36.321495056152344,10.996068954467773,5.564423084259033,-1.5102070569992065,5.060028076171875,3.1390879154205322,2
440,-0.5027949213981628,26.39069366455078,3.617936849594116,-1.7824007272720337,4.880734443664551,3.057929039001465,2
441,-37.07503128051758,40.765010833740234,3.6283018589019775,-2.2127034664154053,4.71230411529541,3.0771563053131104,2
442,-71.764892578125,46.31183624267578,2.024853229522705,-2.624521493911743,3.9953813552856445,3.0731449127197266,2
443,-103.82594299316406,39.29648208618164,2.2674665451049805,-3.2355291843414307,2.8966426849365234,3.0122299194335938,2
444,-112.15733337402344,17.80805206298828,2.3527274131774902,-3.4676625728607178,1.976826786994934,3.1196987628936768,2
445,-86.49173736572266,-5.550641059875488,2.054403066635132,-3.3834564685821533,0.5660250782966614,3.0730643272399902,2
446,-43.81187438964844,-18.57132911682129,1.5466049909591675,-3.1394150257110596,0.2508881986141205,3.260788917541504,2
447,-11.74608325958252,-32.7686653137207,-0.300462543964386,-2.8527021408081055,0.013385346159338951,3.3011271953582764,2
448,-1.8010691404342651,-47.31724548339844,-1.1159569025039673,-2.3755674362182617,0.015886137261986732,3.3338727951049805,2
449,-5.345370769500732,-46.98995590209961,-0.049759749323129654,-1.651106834411621,-0.06049623712897301,3.340465545654297,2
450,-13.125011444091797,-32.0197868347168,-1.1734908819198608,-1.4812901020050049,0.06278344243764877,3.381347179412842,2
451,-1.9715291261672974,-7.000969886779785,-2.847325563430786,-1.1536073684692383,-0.18088288605213165,3.3283159732818604,2
452,13.04226016998291,14.79512882232666,-4.551168918609619,-1.1640400886535645,0.2130759209394455,3.404954671859741,2
453,26.697446823120117,30.037349700927734,-8.319968223571777,-1.5632381439208984,0.28340891003608704,3.3095815181732178,2
454,31.08064079284668,44.5612907409668,-9.292196273803711,-2.0611071586608887,0.6293445229530334,3.2465970516204834,2
455,32.190208435058594,43.63544845581055,-11.420504570007324,-2.5638554096221924,0.9432833194732666,3.1522676944732666,2
456,29.77250862121582,25.464420318603516,-12.728743553161621,-2.8818204402923584,1.169306993484497,3.0123815536499023,2
457,25.56171417236328,8.943751335144043,-12.807539939880371,-3.0274009704589844,1.5948784351348877,2.9251480102539062,2
458,13.35218334197998,-6.681516647338867,-12.894397735595703,-2.9935214519500732,1.886741042137146,2.811413288116455,2
459,-9.662137031555176,-27.932937622070312,-10.769187927246094,-2.7403290271759033,1.916663408279419,2.665491819381714,2
460,-38.93364715576172,-38.297576904296875,-8.152213096618652,-2.476745843887329,1.6557703018188477,2.544022560119629,2
461,-63.027069091796875,-38.58970260620117,-8.7509183883667,-1.7280871868133545,1.0732988119125366,2.4028398990631104,2
462,-77.84443664550781,-42.40022659301758,-8.614608764648438,-1.6544996500015259,0.758628249168396,2.4283788204193115,2
463,-88.16289520263672,-43.03570556640625,-7.603886127471924,-1.038704752922058,-0.2789810001850128,2.274859666824341,2
464,-74.08360290527344,-38.06499481201172,-4.385523319244385,-0.5453770160675049,-0.9840689301490784,2.2489519119262695,2
465,-34.59861755371094,-17.672494888305664,-0.048581045120954514,-0.07946246862411499,-1.6597208976745605,2.2013885974884033,2
466,6.880029678344727,5.95412015914917,2.693746566772461,0.02739807590842247,-1.7179384231567383,2.240769863128662,2
467,32.80352783203125,23.7083797454834,4.908383369445801,-0.09859535098075867,-1.455270528793335,2.2872018814086914,2
468,39.703094482421875,32.096954345703125,6.474430084228516,-0.5520336627960205,-0.9438552260398865,2.387314558029175,2
469,34.88111114501953,27.096019744873047,6.517937660217285,-0.9870856404304504,-0.4851591885089874,2.480740785598755,2
470,15.517997741699219,24.629549026489258,8.023950576782227,-1.149786114692688,-0.11160410195589066,2.5407018661499023,2
471,-11.038046836853027,15.512834548950195,8.723987579345703,-1.425010085105896,-0.1136385053396225,2.630200147628784,2
472,-30.411935806274414,2.773953914642334,9.44079875946045,-1.4707233905792236,-0.5389290452003479,2.6776089668273926,2
473,-41.73934555053711,-10.19202995300293,8.78384017944336,-1.3234587907791138,-1.1493597030639648,2.7238309383392334,2
474,-35.39268493652344,-14.01850700378418,6.331839561462402,-1.0290745496749878,-1.910247802734375,2.7350947856903076,2
475,-16.444856643676758,-14.77973747253418,4.349617004394531,-0.9304724335670471,-1.4161813259124756,2.8680830001831055,2
476,-3.9678094387054443,-22.613895416259766,3.384899616241455,-0.5697314143180847,-1.7017699480056763,2.846713066101074,2
477,-7.877232074737549,-33.76991271972656,1.8946534395217896,-0.28858962655067444,-1.5814257860183716,2.8884775638580322,2
478,-12.290596961975098,-39.667091369628906,-1.7578225135803223,0.30556800961494446,-1.697077751159668,2.82952880859375,2
479,-9.391180038452148,-32.33192443847656,-4.983791828155518,0.33005818724632263,-1.8518143892288208,2.9325923919677734,2
480,-7.427593231201172,-15.947461128234863,-9.544300079345703,0.7219157218933105,-2.0269572734832764,2.8327605724334717,2
481,-1.8055132627487183,-4.35330057144165,-11.752811431884766,0.6868000030517578,-1.9872374534606934,2.785792350769043,2
482,-1.9782112836837769,7.679096221923828,-13.62790584564209,0.7170388102531433,-2.0209925174713135,2.6541314125061035,2
483,1.321094036102295,23.602807998657227,-14.087212562561035,0.5937779545783997,-1.9841457605361938,2.5060245990753174,2
484,12.800036430358887,38.84646224975586,-15.079967498779297,0.19664707779884338,-1.9139670133590698,2.3961639404296875,2
485,18.165483474731445,45.41337203979492,-17.353614807128906,-0.42127859592437744,-1.7501720190048218,2.306565761566162,2
486,16.762191772460938,37.63764572143555,-19.62550926208496,-0.8344845175743103,-1.6848838329315186,2.113590955734253,2
487,17.836833953857422,16.25204849243164,-20.16824722290039,-1.3418470621109009,-1.1881680488586426,1.9573701620101929,2
488,15.683802604675293,-4.337229251861572,-20.578161239624023,-1.0216693878173828,-1.000401496887207,1.5627613067626953,2
489,9.010684967041016,-26.065242767333984,-19.718767166137695,-1.047890067100525,-0.9489299654960632,1.4373470544815063,2
490,1.782562494277954,-46.23259353637695,-20.722257614135742,-0.5472549796104431,-0.9243378639221191,1.1739071607589722,2
491,-5.3621039390563965,-53.62656784057617,-19.1558837890625,0.6650400757789612,-1.226834774017334,0.7090376019477844,2
492,-12.09583854675293,-42.53387451171875,-15.228355407714844,1.3215874433517456,-1.40590500831604,0.4940853416919708,2
493,-11.922914505004883,-32.974266052246094,-12.012330055236816,0.8708844780921936,-0.5701064467430115,0.5873626470565796,2
494,-10.95472526550293,-10.82532787322998,-11.2936372756958,1.3913867473602295,-0.8752371668815613,0.3940470516681671,2
495,-9.463251113891602,9.65595817565918,-8.894329071044922,1.3800978660583496,-0.9308047890663147,0.3009624183177948,2
496,-9.801417350769043,27.127851486206055,-6.846554756164551,1.2587132453918457,-1.0505930185317993,0.20345990359783173,2
497,-9.503303527832031,38.0367546081543,-4.535138130187988,0.8151525259017944,-0.9666482210159302,0.1431734561920166,2
498,-2.868844747543335,42.94722366333008,-1.259359359741211,0.2273765355348587,-1.065566897392273,0.17747648060321808,2
499,2.9975109100341797,43.23712158203125,0.7916914224624634,-0.12475147843360901,-1.0556318759918213,0.12799221277236938,2
500,7.108683109283447,38.211605072021484,3.9950249195098877,-0.7477611899375916,-0.952782928943634,0.1981431543827057,2
501,6.0654473304748535,28.8280029296875,7.0746235847473145,-1.104233980178833,-0.8835611343383789,0.24150995910167694,2
502,0.10580078512430191,10.875795364379883,10.26358699798584,-1.2626550197601318,-0.8511274456977844,0.29659897089004517,2
503,-12.150606155395508,-11.413596153259277,14.63711166381836,-1.0905232429504395,-1.0203889608383179,0.3713228106498718,2
504,-23.840606689453125,-25.97641372680664,16.589859008789062,-0.9570780992507935,-1.1008068323135376,0.5284267663955688,2
505,-30.710214614868164,-32.96243667602539,16.34878158569336,-0.5474351048469543,-1.5725663900375366,0.6926196813583374,2
506,-27.193668365478516,-34.82342529296875,16.06221580505371,-0.061100248247385025,-1.5253206491470337,0.7671433687210083,2
507,-21.412431716918945,-29.806516647338867,17.53521156311035,0.3125709593296051,-1.9744267463684082,0.9571852087974548,2
508,-21.75037956237793,-24.29226303100586,16.784923553466797,0.3861922025680542,-2.0751218795776367,1.1849366426467896,2
509,-20.68488311767578,-12.857404708862305,14.99048900604248,0.4798453152179718,-2.3198728561401367,1.3883755207061768,2
510,-18.791481018066406,-1.5795592069625854,12.016511917114258,0.549721896648407,-2.3946728706359863,1.518425464630127,2
511,-17.2229061126709,10.038399696350098,9.259860038757324,0.4471484124660492,-2.735165596008301,1.6795779466629028,2
512,-14.704644203186035,16.71748161315918,6.998006820678711,0.33827143907546997,-2.7429428100585938,1.7268548011779785,2
513,-11.436799049377441,16.879209518432617,6.841797828674316,0.16192038357257843,-2.7810909748077393,1.779808759689331,2
514,-11.564496994018555,20.838537216186523,5.307602405548096,-0.03979082778096199,-2.7870020866394043,1.8243399858474731,2
515,-10.982876777648926,25.05242156982422,4.666460990905762,-0.3176933526992798,-3.0111191272735596,1.9006987810134888,2
516,-8.255941390991211,24.357580184936523,4.357576847076416,-0.436164915561676,-3.0643820762634277,1.8713524341583252,2
517,-3.646078586578369,17.066431045532227,4.709831237792969,-0.6628216505050659,-3.1376211643218994,1.9074140787124634,2
518,0.800229549407959,8.345025062561035,3.196519136428833,-0.9027535319328308,-2.8533904552459717,1.9389983415603638,2
519,4.051061153411865,0.5214328169822693,1.183432936668396,-0.989568829536438,-2.9437692165374756,1.985374093055725,2
520,4.188619613647461,-10.812938690185547,0.672464907169342,-0.9265032410621643,-2.695369243621826,1.9605528116226196,2
521,2.979149341583252,-26.128067016601562,2.2343344688415527,-0.6684392690658569,-2.7522294521331787,1.9437165260314941,2
522,3.182473659515381,-38.58181381225586,4.983853816986084,-0.18449077010154724,-2.734595775604248,1.9081515073776245,2
523,0.7428810596466064,-48.58491897583008,6.8072662353515625,0.4271303713321686,-2.7940351963043213,1.913979411125183,2
524,1.2782437801361084,-42.173648834228516,8.225817680358887,1.235139012336731,-2.880605936050415,1.8703094720840454,2
525,-1.2638790607452393,-25.992218017578125,8.521161079406738,0.9264692068099976,-2.606192111968994,2.2324888706207275,2
526,0.917048990726471,-2.5425074100494385,8.601876258850098,0.8748806715011597,-2.578986883163452,2.417909860610962,2
527,2.416966438293457,1.5307203531265259,9.396625518798828,0.9766983985900879,-2.656729221343994,2.475053310394287,2
528,1.1277438402175903,-2.2635302543640137,11.136116981506348,1.0596306324005127,-2.4946911334991455,2.518268346786499,2
529,-4.081216812133789,-3.034301280975342,11.05608081817627,1.022662878036499,-2.599405527114868,2.6707186698913574,2
530,-10.797390937805176,-1.8109358549118042,10.28493881225586,1.1256035566329956,-2.7822067737579346,2.7655818462371826,2
531,-18.71717071533203,7.451609134674072,9.592403411865234,1.1006919145584106,-2.9981155395507812,2.8873143196105957,2
532,-22.072481155395508,21.49139404296875,8.205148696899414,0.904981791973114,-2.818486452102661,2.9286181926727295,2
533,-14.916985511779785,31.977113723754883,7.600494861602783,0.6442354917526245,-3.1874983310699463,3.0303845405578613,2
534,-2.343669891357422,38.41401672363281,5.7653656005859375,0.22735102474689484,-3.1659274101257324,3.084200382232666,2
535,5.649636268615723,39.29277801513672,2.2188503742218018,-0.2796686887741089,-3.242171287536621,3.168372631072998,2
536,12.625268936157227,30.63298988342285,-0.24732539057731628,-0.7503209710121155,-3.1863903999328613,3.2041523456573486,2
537,21.845340728759766,16.582326889038086,-1.5990673303604126,-0.6830467581748962,-3.003673553466797,3.0386455059051514,2
538,33.2053337097168,-2.1733670234680176,-0.021528596058487892,-0.8114601969718933,-2.650038003921509,3.0178847312927246,2
539,35.56770706176758,-10.419602394104004,2.2639734745025635,-0.9543156623840332,-2.218334436416626,3.1001980304718018,2
540,29.777734756469727,-12.016402244567871,1.9457036256790161,-0.7560246586799622,-1.7971900701522827,3.0824403762817383,2
541,18.878128051757812,-2.813107967376709,2.5733377933502197,-0.5837438702583313,-1.6449284553527832,3.088350772857666,2
542,-1.279707670211792,14.569047927856445,2.475463390350342,-0.5406898856163025,-1.4798784255981445,3.0837242603302,2
543,-27.667570114135742,24.206811904907227,-0.7390300035476685,-0.9067473411560059,-1.6808373928070068,3.1705362796783447,2
544,-38.64313888549805,27.707157135009766,-3.839114189147949,-1.2219789028167725,-2.2659664154052734,3.1818954944610596,2
545,-43.3049430847168,25.995908737182617,-3.741701126098633,-1.5036280155181885,-2.7502715587615967,3.1365113258361816,2
546,-40.688262939453125,14.630999565124512,-3.311905860900879,-1.7796630859375,-3.198641061782837,3.106278419494629,2
547,-22.15953254699707,4.3187055587768555,-3.7929463386535645,-1.851149559020996,-3.4605000019073486,3.056328058242798,2
548,5.2136945724487305,-7.738740921020508,-4.568697929382324,-1.8287506103515625,-3.7259554862976074,3.00728440284729,2
549,32.680809020996094,-28.945781707763672,-6.018143653869629,-1.4868890047073364,-3.3614816665649414,2.9154417514801025,2
550,52.460086822509766,-47.61814498901367,-4.314986705780029,-0.8873805403709412,-2.653860092163086,2.8169784545898438,2
551,68.22804260253906,-47.908302307128906,-1.3213481903076172,-0.2183389812707901,-1.9662585258483887,2.7516696453094482,2
552,77.02960205078125,-25.251745223999023,2.724835157394409,0.16676151752471924,-0.8791483640670776,2.787776470184326,2
553,67.26898193359375,7.384469509124756,5.630239963531494,-0.09466145932674408,-0.5760362148284912,2.940758228302002,2
554,40.598941802978516,33.449562072753906,5.675993919372559,-0.17610523104667664,0.3422852158546448,2.9837398529052734,2
555,2.939406394958496,41.04217529296875,7.151083469390869,-0.627483069896698,0.4221057593822479,3.0619287490844727,2
556,-39.361629486083984,34.78106689453125,10.660959243774414,-1.217470645904541,0.24603325128555298,3.1840157508850098,2
557,-65.58132934570312,12.661741256713867,14.644661903381348,-1.3383781909942627,-0.3404231071472168,3.2601358890533447,2
558,-74.47174835205078,-21.16050910949707,18.904319763183594,-1.3331209421157837,-1.4437499046325684,3.391824960708618,2
559,-62.18817138671875,-51.63143539428711,21.897401809692383,-1.0005826950073242,-1.968841791152954,3.6019415855407715,2
560,-44.809906005859375,-63.51927185058594,23.388946533203125,-0.2148265540599823,-2.793145179748535,3.8093299865722656,2
561,-27.179534912109375,-56.65658950805664,23.37851905822754,0.7435715794563293,-3.385460376739502,4.034876823425293,2
562,-5.25045919418335,-36.57976531982422,21.172771453857422,1.5815473794937134,-3.7305986881256104,4.258363723754883,2
563,16.022228240966797,-3.8579957485198975,14.235573768615723,0.9338845610618591,-3.3883838653564453,4.5927910804748535,2
564,37.41653823852539,28.337053298950195,4.867884159088135,0.7966896295547485,-3.0107595920562744,4.716725826263428,2
565,59.32221603393555,62.522830963134766,-4.518604755401611,0.22120803594589233,-2.4644718170166016,4.7361674308776855,2
566,74.04314422607422,83.31515502929688,-11.802937507629395,-0.789226233959198,-1.522536277770996,4.683248043060303,2
567,81.39954376220703,85.84346771240234,-14.646906852722168,-1.491235375404358,-0.9893941283226013,4.512431621551514,2
568,81.84173583984375,68.00366973876953,-15.356196403503418,-2.593319892883301,0.019875090569257736,4.406015872955322,2
569,71.88215637207031,26.96192169189453,-13.813440322875977,-2.9326584339141846,1.2706860303878784,4.234683513641357,2
570,45.2189826965332,-20.094938278198242,-8.019186019897461,-2.8382246494293213,1.558968424797058,4.073657989501953,2
571,7.109365463256836,-57.76781463623047,-1.9954631328582764,-2.1576626300811768,1.7168234586715698,3.9625296592712402,2
572,-22.165796279907227,-78.60820770263672,2.420501232147217,-1.257881760597229,1.5860158205032349,3.9201927185058594,2
573,-43.24468994140625,-82.25511932373047,4.745926380157471,-0.2862212061882019,1.0976895093917847,3.9175264835357666,2
574,-58.666831970214844,-72.1563949584961,7.278717041015625,0.29274576902389526,0.37205755710601807,3.934931993484497,2
575,-63.041656494140625,-48.89641571044922,5.68258810043335,1.1739052534103394,-0.23811128735542297,4.02101469039917,2
576,-57.272605895996094,-14.425662994384766,2.7351255416870117,1.2719615697860718,-0.7899244427680969,4.046835899353027,2
577,-40.37944412231445,20.874404907226562,2.2244625091552734,1.1669350862503052,-1.331486701965332,4.059694766998291,2
578,-18.490259170532227,44.146827697753906,2.3979949951171875,0.7674019932746887,-1.7832664251327515,4.059145450592041,2
579,5.2810893058776855,49.520145416259766,2.0220015048980713,0.0752156600356102,-1.689008355140686,4.042721748352051,2
580,28.24812889099121,43.995269775390625,2.56636118888855,-0.3170204162597656,-1.226233720779419,4.0551042556762695,2
581,45.412139892578125,25.727876663208008,4.524016857147217,-0.7135742902755737,-0.6208056211471558,4.07392692565918,2
582,43.09050369262695,6.659555912017822,7.575779438018799,-0.861964762210846,-0.2402103990316391,4.134213447570801,2
583,34.21332931518555,-10.302027702331543,11.591089248657227,-0.7796785235404968,0.3560086190700531,4.2288384437561035,2
584,20.634429931640625,-19.116243362426758,14.517334938049316,-0.6049847602844238,0.4747445583343506,4.358889579772949,2
585,10.504393577575684,-15.50644302368164,16.874040603637695,-0.2691602408885956,0.5228697061538696,4.5287909507751465,2
586,0.7932062149047852,-10.060303688049316,18.41019058227539,-0.10528451949357986,0.5019277334213257,4.704773902893066,2
587,-12.98226547241211,-8.532453536987305,19.279193878173828,-0.08332545310258865,0.4568878710269928,4.881885051727295,2
588,-29.59804344177246,-3.427001476287842,17.39729881286621,0.061848632991313934,0.23127560317516327,5.081833839416504,2
589,-41.93526077270508,0.8729073405265808,13.740596771240234,0.18645070493221283,-0.33130592107772827,5.2627739906311035,2
590,-40.94428253173828,2.5392684936523438,11.466142654418945,0.15963663160800934,-0.715899646282196,5.389840126037598,2
591,-35.81325912475586,8.517707824707031,9.057408332824707,0.23590853810310364,-1.3488303422927856,5.524743556976318,2
592,-23.374778747558594,24.4963321685791,9.53368854522705,0.0988895520567894,-1.4878156185150146,5.602755069732666,2
593,5.322068214416504,47.95280075073242,8.49334716796875,-0.5087324976921082,-1.7043511867523193,5.643488883972168,2
594,33.06651306152344,65.0848388671875,5.215144157409668,-1.1814230680465698,-1.4201163053512573,5.680339813232422,2
595,54.351192474365234,68.80787658691406,1.7165712118148804,-2.2796709537506104,-0.9373806715011597,5.648792743682861,2
596,60.973541259765625,59.71784591674805,0.3583422601222992,-2.8960487842559814,-0.3230482339859009,5.6594648361206055,2
597,54.67315673828125,41.31583023071289,0.5921262502670288,-3.5986082553863525,0.6943395137786865,5.666759014129639,2
598,43.4354133605957,21.790136337280273,-1.8873767852783203,-3.9500937461853027,1.0986568927764893,5.661387920379639,2
599,29.32917022705078,-2.452029228210449,-3.830411195755005,-3.894986391067505,1.4085525274276733,5.646209239959717,2
600,12.311345100402832,-16.886964797973633,-5.437233924865723,-3.6539711952209473,2.088285207748413,5.6910271644592285,2
601,-5.481841564178467,-34.52732467651367,-6.533561706542969,-3.4437785148620605,1.4840065240859985,5.4873948097229,2
602,-18.893205642700195,-59.832847595214844,-5.406745433807373,-2.8837149143218994,1.3080236911773682,5.4230852127075195,2
603,-26.42022132873535,-84.4309310913086,-4.263317108154297,-1.777963399887085,0.890224814414978,5.401031494140625,2
604,-40.423728942871094,-108.6786117553711,-3.825782299041748,-0.9445984363555908,0.5556648373603821,5.318214416503906,2
605,-53.96400451660156,-118.46990966796875,-3.0921828746795654,0.1893203854560852,0.12671755254268646,5.279932498931885,2
606,-44.675048828125,-97.7319107055664,-1.3484703302383423,1.8492554426193237,-0.5833184719085693,5.359299182891846,2
607,-9.076789855957031,-57.84194564819336,-4.317675590515137,2.300586462020874,-0.7123231887817383,5.284530162811279,2
608,26.923439025878906,-6.230528354644775,-9.71216869354248,2.929891586303711,-0.40264075994491577,5.318909645080566,2
609,59.93979263305664,41.972991943359375,-16.10053253173828,2.050916910171509,0.11223439872264862,5.0371880531311035,2
610,81.07428741455078,91.22911834716797,-18.84996223449707,1.1688984632492065,0.9048948884010315,4.819499492645264,2
611,86.6872329711914,110.48881530761719,-17.13028335571289,-0.04101956635713577,1.5716917514801025,4.615640163421631,2
612,81.8661880493164,100.43482208251953,-14.677791595458984,-1.4066429138183594,2.635638475418091,4.437582969665527,2
613,57.638763427734375,65.9686279296875,-12.018838882446289,-1.9122745990753174,3.1457440853118896,4.428657531738281,2
614,10.604411125183105,16.371549606323242,-7.674302101135254,-2.441493511199951,3.568638563156128,4.333157062530518,2
615,-36.99797821044922,-39.17860794067383,-2.3472137451171875,-2.2148725986480713,3.3756237030029297,4.3090362548828125,2
616,-69.94100189208984,-86.71691131591797,0.10080045461654663,-1.345274567604065,2.5735185146331787,4.336856365203857,2
617,-85.73213195800781,-121.85598754882812,2.7102434635162354,-0.4160992205142975,1.686107873916626,4.260132789611816,2
618,-84.80564880371094,-138.43991088867188,6.037758827209473,1.2784031629562378,0.7256454825401306,4.421284198760986,2
619,-67.67424011230469,-135.97914123535156,8.732340812683105,2.527369499206543,0.019342564046382904,4.431986331939697,2
620,-46.93383026123047,-114.54597473144531,10.215229034423828,3.9837327003479004,-0.895653247833252,4.613826274871826,2
621,-21.684370040893555,-78.4674072265625,10.408226013183594,4.621121406555176,-0.9765800833702087,4.581052303314209,2
622,4.612203121185303,-39.55063247680664,8.141242980957031,5.4714202880859375,-1.0898703336715698,4.771800994873047,2
623,32.15973663330078,9.241556167602539,4.936427116394043,5.157572269439697,-0.8188009858131409,4.659974098205566,2
624,45.80533981323242,55.8880729675293,1.7772514820098877,4.79434061050415,-0.37999746203422546,4.667306900024414,2
625,42.50627899169922,88.68888092041016,-1.1015775203704834,3.8847756385803223,0.2580636143684387,4.559474468231201,2
626,28.906251907348633,100.64030456542969,-2.1530184745788574,2.6113626956939697,0.8106908798217773,4.40518856048584,2
627,12.13504695892334,94.15970611572266,-2.4054176807403564,1.566490888595581,0.8266162276268005,4.4680938720703125,2
628,-1.1942393779754639,75.66584777832031,-4.04055118560791,0.7826606631278992,0.9528510570526123,4.441915988922119,2
629,-6.450608253479004,43.05850601196289,-4.510143756866455,0.10501515120267868,0.8934776186943054,4.3994059562683105,2
630,-8.057393074035645,7.796130657196045,-4.363811492919922,-0.07205290347337723,0.7830950021743774,4.396848201751709,2
631,-2.708691358566284,-21.229001998901367,-4.699739933013916,0.15713441371917725,0.6727501749992371,4.403932571411133,2
632,8.616203308105469,-37.7153205871582,-4.925426483154297,0.6346473693847656,0.7760977745056152,4.364577770233154,2
633,12.285394668579102,-41.65365219116211,-4.534663677215576,0.9342724680900574,0.9488400220870972,4.262248992919922,2
634,6.303569793701172,-35.7725944519043,-3.0121676921844482,1.5954244136810303,1.0614114999771118,4.278162479400635,2
635,-14.357253074645996,-18.050743103027344,-3.3061959743499756,1.762337565422058,1.1168193817138672,4.193125247955322,2
636,-34.0875358581543,-7.52860689163208,-5.1183319091796875,1.7411432266235352,0.8068599700927734,4.139720439910889,2
637,-41.91023635864258,-6.668785572052002,-8.036486625671387,1.9159682989120483,0.337993323802948,4.132882118225098,2
638,-49.928558349609375,-11.403129577636719,-12.313546180725098,2.0389134883880615,-0.18585385382175446,4.064392566680908,2
639,-54.924930572509766,-17.843372344970703,-17.631038665771484,2.332829236984253,-1.0222010612487793,4.067458629608154,2
640,-42.04912567138672,-18.333009719848633,-23.46802520751953,2.1183114051818848,-1.0504591464996338,3.603459119796753,2
641,-5.340974807739258,-4.2505035400390625,-28.034610748291016,2.4169232845306396,-1.3921725749969482,3.4210317134857178,2
642,24.534147262573242,11.769092559814453,-32.29789352416992,2.3800673484802246,-1.1328719854354858,3.052912712097168,2
643,42.3946418762207,31.530668258666992,-32.56179428100586,2.2036657333374023,-0.6089773774147034,2.6562631130218506,2
644,51.26353454589844,48.48513412475586,-31.288068771362305,1.777344822883606,-0.06773152947425842,2.309342861175537,2
645,44.399349212646484,50.999732971191406,-28.22042465209961,1.0593702793121338,0.47707390785217285,1.9805383682250977,2
646,19.708139419555664,42.491817474365234,-24.780412673950195,0.57817143201828,0.7730923891067505,1.7371277809143066,2
647,-11.80783748626709,22.854389190673828,-22.40497589111328,0.24065564572811127,0.7587059736251831,1.5305583477020264,2
648,-39.520843505859375,-0.3363250195980072,-19.46116828918457,0.25576111674308777,0.4488258361816406,1.3545124530792236,2
649,-52.54020690917969,-22.93901824951172,-15.936222076416016,0.5081222653388977,-0.31764641404151917,1.2798278331756592,2
650,-48.56621551513672,-39.679378509521484,-13.513651847839355,0.8111860156059265,-1.017704963684082,1.1905088424682617,2
651,-41.09354782104492,-52.455989837646484,-13.024683952331543,1.5826187133789062,-1.621366262435913,1.138419270515442,2
652,-24.366230010986328,-52.4693717956543,-11.910938262939453,2.482741355895996,-1.9520164728164673,1.0591044425964355,2
653,-6.7191081047058105,-39.43278884887695,-8.371323585510254,3.322744846343994,-1.8433247804641724,0.9101093411445618,2
654,4.348526954650879,-23.5604190826416,-6.063777446746826,3.9629621505737305,-1.9329054355621338,0.8856145739555359,2
655,18.566307067871094,-5.501265525817871,-0.4043145775794983,4.723547458648682,-1.595779538154602,0.7759735584259033,2
656,17.473649978637695,19.817054748535156,5.299600601196289,4.083139419555664,-1.6367645263671875,0.8963536620140076,2
657,14.477567672729492,59.22931671142578,9.267589569091797,3.5052053928375244,-1.3225243091583252,0.9107322692871094,2
658,5.694426536560059,98.0374526977539,7.434892654418945,2.849046230316162,-0.8846490979194641,0.8288797736167908,2
659,-6.822089195251465,120.76792907714844,7.904300212860107,1.2682628631591797,-0.7894042730331421,0.884605348110199,2
660,-15.012721061706543,124.65164184570312,7.114098072052002,-0.8405789136886597,-0.960663378238678,1.0359593629837036,2
661,-17.422786712646484,112.55850982666016,6.749906539916992,-3.632162094116211,-1.9323378801345825,1.4973444938659668,2
662,-12.203206062316895,91.08598327636719,6.916546821594238,-4.87692403793335,-2.1983907222747803,1.573467493057251,2
663,-5.3172783851623535,55.089168548583984,8.469697952270508,-5.586025714874268,-2.2803215980529785,1.6119904518127441,2
664,13.181806564331055,-0.6058412790298462,11.131969451904297,-5.810218334197998,-2.193603277206421,1.6810914278030396,2
665,43.11869430541992,-64.80802917480469,14.391875267028809,-5.209954738616943,-1.8872305154800415,1.7704581022262573,2
666,71.13723754882812,-110.6278076171875,19.325435638427734,-3.652012348175049,-1.2298338413238525,1.8527363538742065,2
667,94.68360900878906,-133.4756622314453,25.33413314819336,-2.012543201446533,-0.42141762375831604,2.0166473388671875,2
668,102.40131378173828,-139.19876098632812,30.147783279418945,-0.41520678997039795,0.9266314506530762,2.3218796253204346,2
669,91.09352111816406,-126.54708099365234,33.84031677246094,0.8000455498695374,1.7349549531936646,2.5976686477661133,2
670,63.506187438964844,-88.16650390625,36.65760040283203,2.4397876262664795,2.7226247787475586,2.869832754135132,2
671,20.312856674194336,-25.253618240356445,38.57231140136719,2.7053067684173584,2.8179311752319336,3.2030386924743652,2
672,-19.53244972229004,36.78910827636719,38.76597595214844,2.5914101600646973,2.8757400512695312,3.608067750930786,2
673,-44.77363586425781,79.09873962402344,43.53056716918945,1.9254244565963745,2.266045570373535,4.017010688781738,2
674,-43.97643280029297,94.6064682006836,47.142295837402344,0.7129405736923218,1.6242549419403076,4.48124361038208,2
675,-30.483596801757812,88.6316146850586,44.43748092651367,-0.3152787685394287,1.185334324836731,4.957113265991211,2
676,-30.03885269165039,84.03436279296875,39.01518249511719,-1.3168840408325195,0.8039810657501221,5.374647617340088,2
677,-43.21897888183594,64.17650604248047,36.10179138183594,-2.3034491539001465,0.39096471667289734,5.7314910888671875,2
678,-42.72574234008789,34.108558654785156,36.26174545288086,-3.048107385635376,0.0607675276696682,6.0782294273376465,2
679,-17.620779037475586,5.841777324676514,33.58354949951172,-2.662808895111084,-0.06903573125600815,6.542670249938965,2
680,22.579570770263672,-17.844205856323242,31.023420333862305,-2.4754881858825684,0.13938288390636444,6.926548957824707,2
681,67.42658233642578,-28.78350830078125,28.055158615112305,-2.0186171531677246,0.2618805766105652,7.207992076873779,2
682,101.78794860839844,-18.890769958496094,24.944074630737305,-1.6667873859405518,1.6638885736465454,7.599181175231934,2
683,105.95449829101562,-13.077469825744629,20.51473045349121,-1.4857597351074219,2.5491278171539307,7.795154571533203,2
684,88.50347137451172,-25.48277473449707,12.513952255249023,-1.2280175685882568,3.9402480125427246,8.057198524475098,2
685,51.916725158691406,-49.929176330566406,7.503724575042725,-0.8250068426132202,4.410363674163818,8.072481155395508,2
686,-1.450600028038025,-70.18492889404297,1.2576823234558105,0.15540020167827606,4.585537433624268,8.12059211730957,2
687,-50.478946685791016,-66.97215270996094,-7.371891498565674,0.6796920895576477,4.244234561920166,7.9831342697143555,2
688,-80.51669311523438,-52.272647857666016,-15.281793594360352,1.5434335470199585,3.27362322807312,7.846292018890381,2
689,-89.83129119873047,-29.197093963623047,-22.184139251708984,1.9108515977859497,2.3406002521514893,7.6136884689331055,2
690,-80.43707275390625,-3.5885770320892334,-25.356672286987305,2.244197368621826,1.22162926197052,7.397914886474609,2
691,-56.92937088012695,21.3681697845459,-27.802566528320312,1.607001543045044,1.0619417428970337,6.973449230194092,2
692,-33.09264373779297,42.293582916259766,-29.837608337402344,0.9749557971954346,0.2848665118217468,6.559325218200684,2
693,-10.743143081665039,65.00177764892578,-34.25178146362305,0.23772573471069336,0.009450139477849007,6.168605327606201,2
694,1.0816519260406494,59.738121032714844,-39.93333053588867,-0.30940526723861694,0.05911405757069588,5.833624839782715,2
695,2.6607697010040283,43.5275764465332,-44.659828186035156,-1.0727813243865967,0.057295430451631546,5.339564323425293,2
696,3.8495655059814453,21.66224479675293,-47.1092529296875,-1.421584963798523,0.13523240387439728,4.87691593170166,2
697,9.537643432617188,-4.8785481452941895,-47.467376708984375,-1.4518550634384155,0.2655651867389679,4.425939083099365,2
698,12.869390487670898,-27.04341697692871,-45.687713623046875,-1.1144182682037354,0.460147887468338,4.004800319671631,2
699,6.136936664581299,-29.395597457885742,-42.37790298461914,-0.6034702658653259,0.674343466758728,3.619257688522339,2
700,-1.2713603973388672,-14.479375839233398,-39.70465087890625,-0.3662332594394684,0.7479609251022339,3.208418130874634,2
701,-8.981184005737305,-6.768270492553711,-37.31712341308594,-0.15050193667411804,0.37976694107055664,2.81280517578125,2
702,-7.554145812988281,-11.12926197052002,-33.869449615478516,0.03402594104409218,0.10113681107759476,2.4547278881073,2
703,2.0388429164886475,-7.472606182098389,-29.911134719848633,0.34003064036369324,0.07926297187805176,2.168562412261963,2
704,15.855292320251465,8.032247543334961,-28.538280487060547,1.2019202709197998,-0.16502094268798828,1.9945553541183472,2
705,40.442501068115234,7.902658939361572,-26.541967391967773,1.0942548513412476,1.1331230401992798,1.7708247900009155,2
706,54.994781494140625,0.8240764141082764,-24.374895095825195,1.0828932523727417,1.9421364068984985,1.530268669128418,2
707,48.62370300292969,5.585353851318359,-24.98355484008789,1.1815283298492432,2.764413595199585,1.306654691696167,2
708,30.487485885620117,11.302775382995605,-24.307268142700195,1.0819799900054932,2.8907127380371094,1.0586791038513184,2
709,6.964820384979248,25.12535858154297,-25.126855850219727,0.6687697172164917,3.1520464420318604,0.782806396484375,2
710,-18.96417808532715,35.703025817871094,-26.705110549926758,0.04271215572953224,3.2252395153045654,0.4817477762699127,2
711,-44.98422622680664,40.037010192871094,-28.599706649780273,0.48695921897888184,1.2670660018920898,0.45125094056129456,2
712,-53.41188430786133,35.402488708496094,-31.223085403442383,-0.17633295059204102,0.7983981370925903,0.09292860329151154,2
713,-37.89799499511719,21.142004013061523,-32.048858642578125,-0.5993062257766724,0.036800939589738846,-0.24358291923999786,2
714,-8.493703842163086,5.401463508605957,-32.896907806396484,-0.7491728067398071,-0.34320375323295593,-0.569516658782959,2
715,20.961978912353516,-14.083585739135742,-35.28204345703125,-0.6766003966331482,-0.11386506259441376,-0.9036017656326294,2
716,45.722110748291016,-26.256885528564453,-35.99502182006836,-0.5412635803222656,0.4206334054470062,-1.2734426259994507,2
717,65.4405288696289,-26.460548400878906,-36.592960357666016,-0.27417004108428955,1.3184528350830078,-1.6357163190841675,2
718,74.31048583984375,-12.29633617401123,-36.44794464111328,0.05868495628237724,1.9311044216156006,-1.9911097288131714,2
719,67.8493881225586,10.0012788772583,-36.90823745727539,0.8780970573425293,4.3377275466918945,-2.215639352798462,2
720,46.072689056396484,35.4720573425293,-38.700740814208984,0.500074028968811,5.213515758514404,-2.597062587738037,2
721,9.278152465820312,56.29221725463867,-40.34244918823242,-0.07007619738578796,5.581013202667236,-2.965036392211914,2
722,-36.42158508300781,69.46040344238281,-41.66719436645508,-0.9819974899291992,5.270206928253174,-3.381826639175415,2
723,-72.4598159790039,76.3941421508789,-43.70006561279297,-2.162846088409424,4.3102850914001465,-3.8788416385650635,2
724,-91.65939331054688,72.65010070800781,-44.36628723144531,-3.302712917327881,2.8539228439331055,-4.426228046417236,2
725,-93.01797485351562,60.4501953125,-44.26329803466797,-4.111447811126709,1.9775035381317139,-4.877397060394287,2
726,-82.29700469970703,32.074222564697266,-40.24453353881836,-4.613375663757324,0.5180481672286987,-5.377586364746094,2
727,-54.07756423950195,-8.15038013458252,-37.7181396484375,-4.680506229400635,-0.3102903664112091,-5.761749744415283,2
728,-23.816686630249023,-42.383026123046875,-33.19227600097656,-4.2474799156188965,-0.6073018312454224,-6.014830589294434,2
729,-2.8505215644836426,-67.26324462890625,-27.645795822143555,-3.683933734893799,-0.6049445867538452,-6.261462211608887,2
730,14.083571434020996,-85.85722351074219,-21.303131103515625,-2.7191381454467773,-0.5956058502197266,-6.455814361572266,2
731,29.330053329467773,-89.13822937011719,-14.683709144592285,-2.063944101333618,-0.4376031458377838,-6.709025859832764,2
732,36.53309631347656,-78.72683715820312,-8.429774284362793,-0.8818818926811218,-0.004281693138182163,-6.714591979980469,2
733,36.9786491394043,-55.052215576171875,-4.037993907928467,-0.44740045070648193,0.14180593192577362,-6.9140472412109375,2
734,30.41486167907715,-20.430831909179688,0.3754848837852478,0.20623528957366943,0.5674959421157837,-6.8698344230651855,2
735,18.177692413330078,9.780738830566406,2.3765339851379395,-0.18224561214447021,0.6298446655273438,-6.975547790527344,2
736,8.416166305541992,27.921199798583984,4.977758884429932,-0.5190510749816895,0.797426700592041,-6.938304901123047,2
737,0.8141346573829651,28.84546661376953,6.0378737449646,-0.885368287563324,0.8786078691482544,-6.8729939460754395,2
738,-9.992080688476562,16.37624740600586,5.630787372589111,-1.2530646324157715,0.761461615562439,-6.842573642730713,2
739,-21.0289363861084,-3.019340753555298,5.564880847930908,-1.2958868741989136,0.5328957438468933,-6.807394981384277,2
740,-28.777177810668945,-22.739927291870117,7.100446701049805,-1.0661039352416992,0.12895621359348297,-6.783780574798584,2
741,-25.153535842895508,-35.736328125,7.966558933258057,-0.9033698439598083,-0.322172075510025,-6.763379096984863,2
742,-14.14622974395752,-31.692646026611328,10.945913314819336,-0.46998342871665955,-0.49748262763023376,-6.657542705535889,2
743,2.1801576614379883,-21.578296661376953,12.694040298461914,-0.24221229553222656,-0.6166492700576782,-6.5485453605651855,2
744,24.93357276916504,-13.839529037475586,12.635520935058594,-0.07528579235076904,-0.12998275458812714,-6.329909324645996,2
745,38.964935302734375,-5.584312438964844,11.93295669555664,0.15512272715568542,0.16152942180633545,-6.217230319976807,2
746,49.9190559387207,3.5976381301879883,10.949006080627441,-0.04079258069396019,0.5256739854812622,-6.108919143676758,2
747,48.9008903503418,9.28076171875,12.678468704223633,-0.13349802792072296,0.9945536255836487,-5.995693683624268,2
748,38.319923400878906,2.536742687225342,12.047587394714355,-0.24128828942775726,1.7697641849517822,-5.81278133392334,2
749,18.168447494506836,-13.929619789123535,14.004128456115723,-0.17957739531993866,2.0682404041290283,-5.6868672370910645,2
750,-6.3475565910339355,-34.23701095581055,16.911466598510742,0.1680925041437149,1.630928635597229,-5.613149166107178,2
751,-30.806596755981445,-51.95182800292969,18.867591857910156,0.5604187250137329,1.4802807569503784,-5.440826892852783,2
752,-43.58900451660156,-56.265869140625,18.855777740478516,1.5901854038238525,0.8879863619804382,-5.283039093017578,2
753,-34.423030853271484,-44.90713119506836,16.048458099365234,1.6419199705123901,0.5067134499549866,-5.108972072601318,2
754,-5.536758899688721,-23.86952781677246,16.23434829711914,2.331348419189453,0.33788472414016724,-4.9501752853393555,2
755,14.225911140441895,2.172579288482666,17.016721725463867,2.636589765548706,0.39080774784088135,-4.784950256347656,2
756,29.649354934692383,21.216611862182617,16.274024963378906,2.157559633255005,0.8579730987548828,-4.630429267883301,2
757,46.89846420288086,36.041316986083984,16.550092697143555,1.8473056554794312,1.440956950187683,-4.483426094055176,2
758,54.828792572021484,39.06526565551758,16.56085205078125,1.417689561843872,1.9594535827636719,-4.304803371429443,2
759,52.820743560791016,31.620500564575195,16.283153533935547,0.9412130117416382,2.7505810260772705,-4.164811611175537,2
760,38.98650360107422,12.751850128173828,14.941059112548828,0.6648247241973877,2.8615875244140625,-3.9289605617523193,2
761,14.801681518554688,-10.457478523254395,14.224764823913574,0.7244464159011841,3.2699975967407227,-3.804896593093872,2
762,-14.739777565002441,-29.720943450927734,14.72404670715332,1.1437275409698486,3.3009321689605713,-3.6617534160614014,2
763,-47.93551254272461,-32.26915740966797,13.221070289611816,1.4217314720153809,2.7503538131713867,-3.489516258239746,2
764,-78.09003448486328,-29.126323699951172,11.271256446838379,1.8806312084197998,1.9744328260421753,-3.325890302658081,2
765,-100.53643035888672,-12.68432331085205,12.15256404876709,1.794540286064148,0.9312919974327087,-3.228816270828247,2
766,-96.56754302978516,-5.032223701477051,14.552830696105957,1.8754827976226807,-0.09591610729694366,-3.096410036087036,2
767,-70.97291564941406,1.630576252937317,15.387754440307617,1.8178712129592896,-0.8425576090812683,-2.9863226413726807,2
768,-36.35121154785156,8.168251991271973,13.988265991210938,1.8694367408752441,-1.4059841632843018,-2.8244788646698,2
769,2.2707645893096924,11.303871154785156,12.075262069702148,1.6673245429992676,-1.1580979824066162,-2.8352208137512207,2
770,34.21274948120117,8.284943580627441,10.588190078735352,1.593530535697937,-0.824682354927063,-2.7657251358032227,2
771,49.38572692871094,1.9322705268859863,8.851480484008789,1.620940089225769,-0.2883895933628082,-2.7029707431793213,2
772,45.49076461791992,0.5871015191078186,7.446867942810059,1.6401467323303223,0.1571083664894104,-2.60910701751709,2
773,26.170740127563477,8.476287841796875,6.302487850189209,1.6350446939468384,0.6744431853294373,-2.584199905395508,2
774,-1.9771356582641602,16.42367935180664,3.547415018081665,1.4619032144546509,0.8423337340354919,-2.5416882038116455,2
775,-20.992557525634766,29.674070358276367,1.0837302207946777,1.1737737655639648,0.5999802947044373,-2.4709513187408447,2
776,-38.32379150390625,30.34129524230957,-0.5414435863494873,0.7610240578651428,0.2196030616760254,-2.4277219772338867,2
777,-40.807044982910156,27.022844314575195,-4.200267791748047,0.38939204812049866,-0.45758432149887085,-2.3602476119995117,2
778,-21.876924514770508,23.941753387451172,-9.216726303100586,0.15290479362010956,-0.6719366908073425,-2.4691667556762695,2
779,6.317017078399658,17.51310157775879,-11.08248519897461,-0.11385712772607803,-0.874342679977417,-2.544316530227661,2
780,26.78590202331543,7.555771827697754,-12.047113418579102,-0.1901983916759491,-0.7006903290748596,-2.6768977642059326,2
781,28.952686309814453,-10.768183708190918,-11.121642112731934,-0.15421758592128754,-0.2740774154663086,-2.8348381519317627,2
782,16.740507125854492,-38.2679557800293,-11.793764114379883,-0.05200425162911415,0.3076237142086029,-3.005354642868042,2
783,-3.137850761413574,-61.37931442260742,-12.756461143493652,0.8080857992172241,0.4138748347759247,-3.1868252754211426,2
784,-26.3129940032959,-64.59542083740234,-14.310259819030762,1.198097586631775,0.4529310166835785,-3.317749500274658,2
785,-45.09193420410156,-41.478092193603516,-13.143474578857422,2.132570266723633,-0.17548155784606934,-3.4561779499053955,2
786,-56.77617263793945,0.213957279920578,-6.598824501037598,2.343024969100952,-0.5491849780082703,-3.579658269882202,2
787,-61.5239372253418,40.807167053222656,0.41448602080345154,2.0603885650634766,-1.4464648962020874,-3.5367348194122314,2
788,-58.54586410522461,68.27204132080078,6.334306240081787,1.2584630250930786,-1.9414958953857422,-3.5141656398773193,2
789,-42.851070404052734,79.82826232910156,11.318018913269043,0.3821558952331543,-2.4764771461486816,-3.4379684925079346,2
790,-14.26487922668457,74.43399810791016,15.054758071899414,-0.663266658782959,-2.966571807861328,-3.2631850242614746,2
791,17.37740707397461,51.86212921142578,18.91998291015625,-0.9363411664962769,-2.4799022674560547,-3.3132483959198,2
792,37.015953063964844,26.193775177001953,21.390541076660156,-1.430312991142273,-2.0077426433563232,-3.1447863578796387,2
793,37.96870040893555,7.573826789855957,25.546125411987305,-1.5018748044967651,-1.6770349740982056,-2.946617841720581,2
794,26.047025680541992,-12.965415954589844,31.045757293701172,-1.4105370044708252,-1.1210167407989502,-2.717480421066284,2
795,13.138859748840332,-32.99686813354492,36.2503776550293,-1.0764570236206055,-1.001157522201538,-2.4213831424713135,2
796,-6.713822364807129,-54.81678009033203,41.5316162109375,-0.32402393221855164,-0.964715838432312,-2.1434178352355957,2
797,-22.798131942749023,-65.26073455810547,45.48664474487305,0.277966171503067,-1.3337305784225464,-1.694929838180542,2
798,-43.66691589355469,-61.13212203979492,47.04096603393555,1.1851989030838013,-1.8443849086761475,-1.3005949258804321,2
799,-60.53373718261719,-40.26134490966797,46.09168243408203,1.8238431215286255,-2.4425487518310547,-0.845978856086731,2
800,-63.11672592163086,-14.910370826721191,42.72714614868164,2.5157976150512695,-3.402759552001953,-0.5031291246414185,2
801,-48.53230285644531,21.63838005065918,36.41035842895508,1.3696144819259644,-3.631044387817383,0.27252042293548584,2
802,-22.570051193237305,57.95224380493164,27.344501495361328,0.8625876903533936,-4.080109119415283,0.6315744519233704,2
803,8.581025123596191,80.0563735961914,19.424345016479492,0.04858419671654701,-4.285383224487305,0.8859754800796509,2
804,34.73165512084961,86.06591796875,11.732168197631836,-1.127803087234497,-3.9586429595947266,1.1288715600967407,2
805,55.684112548828125,75.49655151367188,4.972738265991211,-1.6787207126617432,-3.2878217697143555,1.02036452293396,2
806,64.88208770751953,55.01381301879883,1.299235224723816,-2.4636030197143555,-2.718853712081909,1.070347785949707,2
807,63.94381332397461,19.37201690673828,-1.518347978591919,-2.7507236003875732,-1.7333894968032837,1.0050605535507202,2
808,46.4332389831543,-20.606517791748047,-2.1945436000823975,-2.791464328765869,-1.057830810546875,1.0084943771362305,2
809,21.986013412475586,-56.54221725463867,-1.9940634965896606,-2.071936845779419,-1.1335759162902832,0.7645841836929321,2
810,-5.641330242156982,-73.92932891845703,-1.1674675941467285,-1.0433522462844849,-1.2222058773040771,0.5503092408180237,2
811,-27.698232650756836,-69.98590850830078,-3.0213377475738525,-0.05119786784052849,-1.1823712587356567,0.45343056321144104,2
812,-38.3358268737793,-51.09980773925781,-5.324185848236084,0.28506091237068176,-1.8637638092041016,0.5174746513366699,2
813,-37.340843200683594,-21.613431930541992,-10.078182220458984,0.5796968936920166,-2.4591617584228516,0.47175493836402893,2
814,-24.881593704223633,14.414618492126465,-13.819952011108398,0.6269737482070923,-2.711198091506958,0.37074050307273865,2
815,-0.5771764516830444,45.1754264831543,-15.658864974975586,0.1449243426322937,-2.2753052711486816,0.3671066164970398,2
816,31.877317428588867,66.27114868164062,-19.858055114746094,-0.7106920480728149,-2.1150527000427246,0.3055250942707062,2
817,62.709285736083984,66.981689453125,-21.48785400390625,-1.1259138584136963,-1.4844564199447632,-0.021081965416669846,2
818,77.89566040039062,52.6529426574707,-18.09561538696289,-1.9479389190673828,-0.6415252685546875,-0.12398312240839005,2
819,63.007259368896484,33.899139404296875,-16.332624435424805,-2.153851270675659,0.17374025285243988,-0.39357054233551025,2
820,25.131000518798828,7.427218914031982,-14.014175415039062,-2.1719257831573486,0.5607386827468872,-0.6482583284378052,2
821,-16.65924835205078,-21.301544189453125,-11.033522605895996,-2.034991979598999,0.5617115497589111,-0.8182843327522278,2
822,-47.801334381103516,-43.24484634399414,-7.637243747711182,-1.5201436281204224,-0.005439615808427334,-1.0304473638534546,2
823,-65.05123138427734,-58.178077697753906,-9.242704391479492,-0.6892082691192627,-0.9812102913856506,-1.2911083698272705,2
824,-70.32916259765625,-61.59965896606445,-11.804061889648438,-0.20114080607891083,-1.7402127981185913,-1.3674933910369873,2
825,-76.41151428222656,-38.37821960449219,-14.056404113769531,0.4581958055496216,-2.655144214630127,-1.5394837856292725,2
826,-74.3935546875,-11.807709693908691,-15.090761184692383,0.5264747142791748,-3.317754030227661,-1.6122291088104248,2
827,-48.00958251953125,6.496846675872803,-15.290268898010254,0.32364529371261597,-4.336200714111328,-1.7747807502746582,2
828,2.1240038871765137,21.280061721801758,-13.669365882873535,0.1707688421010971,-4.039503574371338,-1.8453208208084106,2
829,60.35139083862305,33.846107482910156,-10.47143840789795,-0.22832795977592468,-3.4613161087036133,-1.9123437404632568,2
830,106.45172119140625,41.499053955078125,-9.26136589050293,-0.5575027465820312,-2.4441041946411133,-2.029536008834839,2
831,123.75225830078125,37.6203498840332,-8.621378898620605,-1.1776349544525146,-0.6124382615089417,-1.9595521688461304,2
832,105.64897918701172,27.322092056274414,-3.1952009201049805,-1.3410998582839966,0.16615071892738342,-2.1376278400421143,2
833,60.65349197387695,22.640689849853516,1.9108164310455322,-1.5974540710449219,1.157812237739563,-2.1077752113342285,2
834,8.12224006652832,29.85779571533203,4.473824977874756,-1.8674064874649048,1.2739520072937012,-2.0998573303222656,2
835,-32.300933837890625,44.912269592285156,5.5076799392700195,-2.3394594192504883,1.0653836727142334,-2.0259859561920166,2
836,-59.702964782714844,54.118873596191406,5.359612941741943,-2.9503421783447266,0.27999719977378845,-2.0054211616516113,2
837,-71.78777313232422,54.98231506347656,6.333953857421875,-3.5652008056640625,-0.8348835110664368,-2.045224189758301,2
838,-63.99238967895508,38.83061981201172,8.74989128112793,-4.067652225494385,-1.1914047002792358,-1.8846478462219238,2
839,-44.51669692993164,11.02499008178711,12.423933029174805,-4.333375453948975,-2.1251327991485596,-1.9101555347442627,2
840,-11.060153007507324,-26.916255950927734,16.35623550415039,-3.8163180351257324,-2.041943311691284,-1.695842981338501,2
841,20.773889541625977,-58.23884963989258,17.65199089050293,-3.0124874114990234,-1.944705605506897,-1.5526494979858398,2
842,45.41743850708008,-69.74150085449219,20.351163864135742,-2.228778839111328,-1.3474946022033691,-1.2651947736740112,2
843,56.90441131591797,-59.71285629272461,22.398548126220703,-1.1944893598556519,-0.7669145464897156,-1.0823774337768555,2
844,55.903865814208984,-30.760717391967773,24.253643035888672,-1.2402751445770264,-0.023093104362487793,-0.6862702965736389,2
845,46.6978874206543,-0.6283602714538574,23.152175903320312,-0.9289673566818237,0.6263328790664673,-0.42015087604522705,2
846,30.632665634155273,14.227519989013672,20.424560546875,-1.0628266334533691,0.9065359830856323,-0.237289160490036,2
847,10.57662582397461,21.402503967285156,19.801698684692383,-1.2866262197494507,0.9790176749229431,-0.07870204746723175,2
848,-12.261894226074219,19.216304779052734,20.952417373657227,-1.5934276580810547,0.7044188976287842,0.039294395595788956,2
849,-34.01844024658203,5.887115001678467,23.77654457092285,-1.6868404150009155,0.37124916911125183,0.2321167290210724,2
850,-40.09800338745117,-4.75202751159668,26.999156951904297,-1.6448293924331665,-0.0030781105160713196,0.4937330484390259,2
851,-36.15000915527344,-14.166901588439941,27.881309509277344,-1.498053789138794,-0.2555297017097473,0.8191964030265808,2
852,-15.885930061340332,-6.244132041931152,28.402219772338867,-1.3536293506622314,-0.7100449204444885,1.0352648496627808,2
853,17.865509033203125,16.68543243408203,27.693391799926758,-1.4005546569824219,-0.6274177432060242,1.3333820104599,2
854,44.84402084350586,31.647125244140625,27.88555145263672,-1.7199082374572754,-0.1016252264380455,1.6697748899459839,2
855,58.84162521362305,38.7104377746582,23.92361068725586,-2.290832757949829,0.7031452059745789,2.011411428451538,2
856,50.92082595825195,41.68000030517578,15.959071159362793,-2.8756978511810303,1.2010602951049805,2.1835174560546875,2
857,38.78215789794922,36.4979362487793,9.974853515625,-3.350200891494751,1.8106117248535156,2.3702032566070557,2
858,22.206195831298828,20.273778915405273,4.7767558097839355,-3.8141579627990723,2.0381996631622314,2.404649257659912,2
859,1.106835126876831,-9.99717903137207,4.645200252532959,-3.8032305240631104,1.6573262214660645,2.2648258209228516,2
860,-17.789756774902344,-44.278167724609375,6.360410213470459,-3.406717300415039,1.5649570226669312,2.3297393321990967,2
861,-30.935062408447266,-72.6250991821289,9.110876083374023,-2.614027500152588,1.1907620429992676,2.3739778995513916,2
862,-31.057445526123047,-83.84927368164062,10.72408390045166,-1.9196499586105347,0.6894921660423279,2.361207962036133,2
863,-15.216191291809082,-88.91138458251953,12.86082649230957,-0.777874231338501,0.46105748414993286,2.5289418697357178,2
864,4.004212379455566,-82.55790710449219,16.643695831298828,-0.016640471294522285,0.5770397186279297,2.7164626121520996,2
865,25.6343994140625,-71.8698501586914,20.42412567138672,0.9726470708847046,0.7403566837310791,2.9485127925872803,2
866,36.41892623901367,-49.448707580566406,25.341699600219727,1.2794392108917236,1.1962636709213257,3.1412277221679688,2
867,30.37588882446289,-22.044883728027344,24.557592391967773,1.6172199249267578,1.5641202926635742,3.3911356925964355,2
868,6.792355060577393,-2.413794994354248,23.82819175720215,1.7625374794006348,1.767672061920166,3.6425278186798096,2
869,-18.5483455657959,15.428529739379883,24.783306121826172,1.3312832117080688,1.341269612312317,3.736725091934204,2
870,-46.98707580566406,36.015106201171875,22.809045791625977,1.1059024333953857,0.8685060739517212,3.9811387062072754,2
871,-73.31403350830078,45.53635787963867,22.89228630065918,0.4332502484321594,0.2955997586250305,4.140323638916016,2
872,-88.64197540283203,26.30347442626953,25.59813690185547,0.11769426614046097,-0.9221822023391724,4.389607906341553,2
873,-97.87024688720703,-11.23853874206543,27.092920303344727,0.11028394103050232,-1.6738675832748413,4.668882369995117,2
874,-96.82454681396484,-46.284828186035156,24.878135681152344,0.5626515746116638,-2.8154478073120117,4.989590644836426,2
875,-69.21183776855469,-76.7393569946289,24.15735626220703,1.022573709487915,-3.4851908683776855,5.2206926345825195,2
876,-22.891965866088867,-95.62367248535156,22.937366485595703,2.2585701942443848,-4.076163291931152,5.592715263366699,2
877,34.1870002746582,-78.89867401123047,21.217636108398438,2.872539758682251,-3.795717716217041,5.81362247467041,2
878,75.12648010253906,-48.42405319213867,20.222200393676758,3.836320638656616,-3.0324161052703857,6.041342735290527,2
879,97.9841537475586,-14.361344337463379,16.673982620239258,3.6285600662231445,-2.2525906562805176,6.269280433654785,2
880,101.71624755859375,18.825624465942383,11.615859985351562,3.767688274383545,-0.8979892730712891,6.293647766113281,2
881,93.71123504638672,33.02425765991211,10.067359924316406,3.302377462387085,0.39640161395072937,6.300727844238281,2
882,75.10363006591797,30.77304458618164,9.056405067443848,2.927996873855591,0.7984204888343811,6.5822014808654785,2
883,48.1567497253418,21.493032455444336,9.351150512695312,2.5399253368377686,1.5199909210205078,6.635178089141846,2
884,4.290563106536865,3.806689500808716,11.051328659057617,2.4570202827453613,1.3261215686798096,6.949459075927734,2
885,-50.85295104980469,-19.257450103759766,10.686638832092285,2.723254442214966,0.9868590831756592,7.083967685699463,2
886,-89.71641540527344,-24.982938766479492,7.07511568069458,3.031799077987671,-0.0198544729501009,7.306337356567383,2
887,-113.98278045654297,-19.450233459472656,4.918320655822754,3.3086459636688232,-1.4981056451797485,7.590317726135254,2
888,-115.2602767944336,-3.2032108306884766,5.2317705154418945,3.1545350551605225,-2.4992635250091553,7.542731285095215,2
889,-91.05058288574219,31.644832611083984,2.553424835205078,2.9835920333862305,-3.746472120285034,7.6910881996154785,2
890,-60.504302978515625,67.64105224609375,-3.6818158626556396,2.108248710632324,-4.1007981300354,7.423410415649414,2
891,-23.080120086669922,95.50602722167969,-10.060879707336426,1.0011956691741943,-4.6188788414001465,7.371628761291504,2
892,21.869524002075195,89.19172668457031,-13.865132331848145,-0.027576027438044548,-4.428849220275879,7.0805463790893555,2
893,63.52585220336914,51.89412307739258,-11.104408264160156,-0.9562228322029114,-3.6856770515441895,6.7772345542907715,2
894,91.87496948242188,-7.018285274505615,-7.484545707702637,-0.6280906200408936,-2.8465895652770996,6.533784866333008,2
895,111.57630920410156,-59.330055236816406,-2.9820809364318848,-0.0315115712583065,-1.4600387811660767,6.2700114250183105,2
896,115.05463409423828,-97.31344604492188,0.7529006600379944,0.977631688117981,-0.3683629035949707,6.257483959197998,2
897,99.54562377929688,-102.49543762207031,0.8976243734359741,2.4246597290039062,0.7869213223457336,6.099993705749512,2
898,84.18321228027344,-89.33098602294922,-4.704445838928223,3.2937114238739014,1.2016589641571045,6.304527282714844,2
899,70.48638916015625,-59.01853942871094,-12.041169166564941,4.314931392669678,2.2550296783447266,5.995040416717529,2
900,50.06945037841797,-9.332186698913574,-17.444114685058594,4.208745956420898,2.7088568210601807,5.995943069458008,2
901,17.53852653503418,43.19990539550781,-21.857521057128906,3.9434616565704346,3.096647024154663,5.8014235496521,2
902,-29.63530921936035,79.08114624023438,-21.722103118896484,3.3090760707855225,2.771172046661377,5.778077125549316,2
903,-69.72099304199219,89.686279296875,-19.855302810668945,2.0072848796844482,2.1397128105163574,5.687931060791016,2
904,-83.63906860351562,81.92467498779297,-17.878713607788086,1.1286503076553345,1.2101598978042603,5.609134197235107,2
905,-72.12654113769531,66.533935546875,-19.24515724182129,0.07489537447690964,0.27754589915275574,5.469329833984375,2
906,-36.790016174316406,41.45446014404297,-22.094900131225586,0.005415195599198341,0.0033023871947079897,5.181704998016357,2
907,27.77607536315918,12.069818496704102,-25.775117874145508,-0.24171192944049835,-0.07644592970609665,4.95858907699585,2
908,79.64134216308594,-9.984930992126465,-26.60520362854004,-0.04063272848725319,0.5981521606445312,4.658867359161377,2
909,109.2241439819336,-18.341869354248047,-24.282188415527344,0.13675987720489502,1.8036885261535645,4.30799674987793,2
910,113.85396575927734,-10.35142993927002,-22.75010108947754,0.4222966134548187,2.5989696979522705,4.213608741760254,2
911,99.07331848144531,5.4119086265563965,-22.73093032836914,0.411641925573349,4.095874309539795,3.8423047065734863,2
912,71.58397674560547,19.676651000976562,-21.265913009643555,0.3108975291252136,5.0072784423828125,3.6283679008483887,2
913,37.916011810302734,23.775724411010742,-20.344993591308594,0.02486935816705227,5.401595592498779,3.4642558097839355,2
914,1.3101288080215454,19.842792510986328,-16.644046783447266,-0.3595055341720581,5.365815162658691,3.3119235038757324,2
915,-30.503751754760742,18.501895904541016,-11.24553394317627,-0.605887234210968,5.137302398681641,3.1919467449188232,2
916,-57.42521286010742,16.438507080078125,-6.240532398223877,-0.8164748549461365,4.5541510581970215,3.1330552101135254,2
917,-71.98905944824219,15.045671463012695,-4.3604607582092285,-0.9207203388214111,3.6664164066314697,3.158801317214966,2
918,-72.7081527709961,9.418560028076172,-6.010286808013916,-1.0491831302642822,2.8488757610321045,3.1232457160949707,2
919,-53.41575241088867,1.616230845451355,-4.924674987792969,-1.0595113039016724,2.161595582962036,3.092191696166992,2
920,-20.636735916137695,-3.6827139854431152,-2.7078030109405518,-1.0310639142990112,1.9109174013137817,3.0560312271118164,2
921,5.166376113891602,-4.802984237670898,-0.4503640830516815,-1.0764515399932861,2.0832250118255615,2.982360363006592,2
922,21.020639419555664,-7.0270586013793945,0.023946469649672508,-1.0346189737319946,2.527561664581299,2.9741902351379395,2
923,27.175186157226562,-12.397931098937988,-0.5083662271499634,-0.9296073913574219,2.7536284923553467,2.973324775695801,2
924,26.635704040527344,-17.85711669921875,-0.7836021184921265,-0.5670361518859863,3.1892971992492676,3.084728479385376,2
925,22.084300994873047,-18.971261978149414,-0.4604365825653076,-0.465848445892334,3.2477710247039795,3.006573438644409,2
926,14.070109367370605,-10.449068069458008,3.1537506580352783,-0.2992504835128784,3.614097833633423,3.037590503692627,2
927,0.177289217710495,-5.5716142654418945,5.158294677734375,-0.5222334861755371,3.485685348510742,2.903019905090332,2
928,-15.71888256072998,-9.644064903259277,10.236080169677734,-0.446605920791626,3.3894009590148926,2.9266653060913086,2
929,-16.055133819580078,-25.040708541870117,14.863158226013184,-0.30964186787605286,3.202097177505493,3.0362627506256104,2
930,-8.623336791992188,-42.01375961303711,15.71618366241455,0.14770828187465668,3.1325337886810303,3.318037509918213,2
931,-3.7314281463623047,-45.48747634887695,13.41493034362793,-0.005713007878512144,3.0045573711395264,3.1537821292877197,2
932,-4.439404010772705,-32.83842849731445,12.287978172302246,0.7539627552032471,3.034705400466919,3.4470927715301514,2
933,0.5056796669960022,-16.043485641479492,10.133122444152832,0.8281020522117615,2.9862563610076904,3.3736929893493652,2
934,8.990945816040039,-7.678247451782227,10.090587615966797,1.0400391817092896,2.998918294906616,3.469087600708008,2
935,9.72087574005127,-7.318582057952881,9.302364349365234,1.2442997694015503,3.136357307434082,3.630737066268921,2
936,7.896431922912598,-11.794319152832031,5.71385383605957,1.3428189754486084,3.3000845909118652,3.7447633743286133,2
937,0.6541544795036316,-11.04325008392334,0.5751575827598572,1.4270391464233398,3.337082862854004,3.8009090423583984,2
938,-12.99502944946289,-5.37369966506958,-2.1984152793884277,1.5165116786956787,3.2502527236938477,3.8030648231506348,2
939,-35.31897735595703,10.795127868652344,-2.224008798599243,1.3346587419509888,3.1074697971343994,3.6417653560638428,2
940,-55.513031005859375,19.898109436035156,-5.911221981048584,1.324588656425476,2.769822597503662,3.6499900817871094,2
941,-66.38060760498047,16.2127685546875,-7.23861026763916,1.0660767555236816,2.3235769271850586,3.5681467056274414,2
942,-63.34331512451172,1.415772557258606,-4.742031097412109,0.9435898065567017,1.5214308500289917,3.5462076663970947,2
943,-55.07720947265625,-13.562350273132324,-6.8519606590271,0.9707431197166443,0.8332516551017761,3.545546054840088,2
944,-26.706863403320312,-15.31411361694336,-9.128377914428711,1.0770260095596313,0.13578666746616364,3.5000100135803223,2
945,16.810916900634766,-14.770051002502441,-7.9456586837768555,1.312264323234558,-0.10212181508541107,3.432586193084717,2
946,44.8564567565918,-9.68251895904541,-10.754776000976562,1.285731315612793,0.4251355528831482,3.226236343383789,2
947,51.24032211303711,-4.35217809677124,-16.530094146728516,1.4313205480575562,0.9376683831214905,3.1218247413635254,2
948,43.57680130004883,-6.699292182922363,-19.221538543701172,1.4838032722473145,1.272722840309143,3.0002667903900146,2
949,24.154621124267578,-9.905115127563477,-19.499820709228516,1.5474094152450562,1.9767565727233887,2.786186456680298,2
950,5.19463586807251,-10.376498222351074,-17.44610595703125,1.5801140069961548,2.0502424240112305,2.6139004230499268,2
951,-9.903361320495605,1.4325428009033203,-16.364635467529297,1.6231690645217896,1.9774022102355957,2.4466917514801025,2
952,-11.664113998413086,18.130380630493164,-15.122628211975098,1.6549354791641235,1.8183268308639526,2.3004283905029297,2
953,-6.253120422363281,29.871761322021484,-13.696788787841797,1.4153451919555664,1.6848071813583374,2.121610164642334,2
954,4.066427230834961,26.336515426635742,-13.122554779052734,1.0631580352783203,1.6326789855957031,1.9634069204330444,2
955,5.825700759887695,5.743092060089111,-15.127320289611816,0.7619341611862183,1.7307190895080566,1.8196125030517578,2
956,-3.033464193344116,-19.225114822387695,-15.645960807800293,0.7677700519561768,1.7022684812545776,1.7276815176010132,2
957,-6.73670768737793,-44.925193786621094,-16.50052833557129,1.1090693473815918,1.709959864616394,1.6188868284225464,2
958,-3.096463441848755,-48.861412048339844,-16.160276412963867,1.5228843688964844,1.5716432332992554,1.4684951305389404,2
959,-9.972281455993652,-49.05257034301758,-15.334726333618164,2.0571155548095703,1.552391767501831,1.2958863973617554,2
960,-19.18254852294922,-46.165260314941406,-15.830588340759277,2.3549604415893555,1.3675928115844727,1.1122612953186035,2
961,-21.58696746826172,-38.467552185058594,-19.7856502532959,3.007085084915161,1.113620400428772,0.9986618757247925,2
962,-31.778823852539062,-26.93047523498535,-25.928068161010742,3.137925386428833,0.9684829115867615,0.7474468350410461,2
963,-47.7265625,-5.962073802947998,-32.80830764770508,3.6151633262634277,0.504910945892334,0.5899086594581604,2
964,-53.04650115966797,21.526456832885742,-39.63222885131836,3.732414722442627,0.12830594182014465,0.27291423082351685,2
965,-33.09445571899414,49.85372543334961,-45.25307083129883,3.4875946044921875,-0.5026622414588928,-0.06786000728607178,2
966,2.39300799369812,68.32174682617188,-48.420562744140625,2.7922463417053223,-0.46075060963630676,-0.6945891380310059,2
967,32.22635269165039,72.79447174072266,-50.21558380126953,1.9491945505142212,-0.5102148056030273,-1.198028564453125,2
968,42.19902038574219,61.46097183227539,-47.0345458984375,1.3348009586334229,-0.056402429938316345,-1.776414394378662,2
969,43.90095901489258,37.35295486450195,-42.0576286315918,0.8436828851699829,0.2847707271575928,-2.2412331104278564,2
970,41.72393798828125,10.732708930969238,-37.312225341796875,0.4080447554588318,0.6747568845748901,-2.661034345626831,2
971,28.386388778686523,-11.08388614654541,-30.20199203491211,0.34732237458229065,1.2521333694458008,-3.098289728164673,2
972,-3.162700653076172,-29.97443199157715,-18.747879028320312,0.49873703718185425,1.6099584102630615,-3.437654972076416,2
973,-34.3504524230957,-41.920021057128906,-14.203092575073242,0.8679304122924805,1.5718990564346313,-3.6434881687164307,2
974,-56.82810974121094,-42.192955017089844,-11.554183959960938,1.427664875984192,1.0254368782043457,-3.741711378097534,2
975,-69.2480697631836,-35.183860778808594,-10.675469398498535,1.9430612325668335,0.5552733540534973,-3.877131462097168,2
976,-71.27073669433594,-20.530410766601562,-7.503814220428467,2.6129047870635986,-0.5161764025688171,-3.9194555282592773,2
977,-66.34716796875,0.6135395765304565,-4.313995361328125,2.605945587158203,-1.0853211879730225,-4.024209022521973,2
978,-54.4221076965332,20.849451065063477,-1.5869426727294922,2.429607629776001,-1.8267244100570679,-4.038451671600342,2
979,-32.44901657104492,37.67051696777344,0.7860412001609802,2.146146297454834,-2.2862548828125,-4.084420680999756,2
980,3.3147435188293457,54.674259185791016,2.6927406787872314,1.572803258895874,-2.680143356323242,-4.049005508422852,2
981,27.2178897857666,57.63544845581055,5.829296588897705,1.118404507637024,-2.5981292724609375,-4.100088596343994,2
