,gyro.x,gyro.y,gyro.z,stabilizer.pitch,stabilizer.roll,stabilizer.yaw,label
0,-0.016606248915195465,0.03557393327355385,-0.017858345061540604,-0.3555784523487091,-0.9360920190811157,-0.2192620486021042,2
1,-0.08488232642412186,0.0681874081492424,0.10965155065059662,-0.268991619348526,-0.9384236335754395,-0.21620796620845795,2
2,-0.17801697552204132,0.10296976566314697,0.038209911435842514,-0.26894858479499817,-0.9383249282836914,-0.21515534818172455,2
3,-0.03496352955698967,0.016711726784706116,-0.023367922753095627,-0.2690066993236542,-0.9384568333625793,-0.2150174230337143,2
4,-0.062987320125103,-0.019523220136761665,0.0032332725822925568,-0.2683863043785095,-0.9378544092178345,-0.21449923515319824,2
5,0.03286062553524971,-0.08187785744667053,0.09256110340356827,-0.2675740122795105,-0.9369226098060608,-0.2131463885307312,2
6,-0.02711820788681507,-0.01083377469331026,0.0937022864818573,-0.26646149158477783,-0.9358711838722229,-0.21244855225086212,2
7,0.028984608128666878,0.03639513626694679,-0.0030042617581784725,-0.26595163345336914,-0.9348308444023132,-0.21140126883983612,2
8,-0.034163132309913635,-0.12855364382266998,0.1336260735988617,-0.26563379168510437,-0.9341377019882202,-0.21107199788093567,2
9,-0.10072556883096695,-0.04680992662906647,0.06950971484184265,-0.26509904861450195,-0.9344123005867004,-0.21003568172454834,2
10,0.018023237586021423,0.003898032708093524,0.09008825570344925,-0.26464733481407166,-0.9337319731712341,-0.209039106965065,2
11,-0.06297767907381058,-0.010781942866742611,0.008099940605461597,-0.20208416879177094,-0.9958579540252686,-0.20714862644672394,2
12,-0.040918923914432526,0.005405480042099953,0.014894416555762291,-0.2179490029811859,-0.9189162254333496,-0.20763623714447021,2
13,-0.018909702077507973,-0.011466236785054207,-0.018397096544504166,-0.2308497577905655,-0.9244127869606018,-0.20759515464305878,2
14,-0.1075693741440773,-0.024148721247911453,-0.09404468536376953,-0.2397003322839737,-0.9288735389709473,-0.20800425112247467,2
15,-0.17740431427955627,0.04522604122757912,0.16178825497627258,-0.3073212802410126,-0.9320518374443054,-0.20945502817630768,2
16,-0.09832406044006348,0.045645300298929214,0.03940627723932266,-0.17273586988449097,-1.05854332447052,-0.20412413775920868,2
17,-0.14628221094608307,0.09769512712955475,0.07198099046945572,-0.3221629559993744,-0.9047627449035645,-0.20723401010036469,2
18,-0.09889505058526993,0.1158352941274643,-0.10024925321340561,-0.3088340163230896,-0.9144637584686279,-0.20721296966075897,2
19,-0.1683967113494873,0.04025604575872421,0.04727548733353615,-0.29752662777900696,-0.9234450459480286,-0.2067173719406128,2
20,0.02362859807908535,0.12393727153539658,0.05476382002234459,-0.29067283868789673,-0.9290866851806641,-0.20583917200565338,2
21,-0.010449823923408985,-0.04172602668404579,0.039621829986572266,-0.28272512555122375,-0.9313201308250427,-0.20515762269496918,2
22,-0.0419875793159008,-0.03537656366825104,-0.010981177911162376,-0.2764114439487457,-0.935551106929779,-0.2047041356563568,2
23,0.015424564480781555,0.03249691054224968,-0.05085867643356323,-0.27633872628211975,-0.9349837899208069,-0.2049902379512787,2
24,-0.09818204492330551,0.027977004647254944,0.07292602956295013,-0.27604934573173523,-0.9337791204452515,-0.20479866862297058,2
25,-0.08822073042392731,0.06746457517147064,0.004308236297219992,-0.27607443928718567,-0.9336919188499451,-0.20381619036197662,2
26,-0.07411203533411026,0.016613807529211044,0.04703373834490776,-0.2760236859321594,-0.933009684085846,-0.20323462784290314,2
27,-0.1273934692144394,-0.02696707658469677,0.07876508682966232,-0.2754411995410919,-0.9329115748405457,-0.20260071754455566,2
28,-0.03131904453039169,0.055156055837869644,0.033395908772945404,-0.275524377822876,-0.9332334399223328,-0.2017105221748352,2
29,-0.03127986937761307,0.04247215390205383,0.05259062722325325,-0.2757863402366638,-0.9331985712051392,-0.20109884440898895,2
30,-0.09292793273925781,-0.04451798275113106,0.11828326433897018,-0.2754017412662506,-0.9326077699661255,-0.1999063789844513,2
31,-0.06503357738256454,-0.08854532986879349,0.03876807913184166,-0.27515262365341187,-0.9327552318572998,-0.19971081614494324,2
32,-0.05784694850444794,-0.06997345387935638,0.014936862513422966,-0.27402591705322266,-0.9323170185089111,-0.19920870661735535,2
33,0.009706265293061733,0.03892742097377777,-0.07719435542821884,-0.27316319942474365,-0.931717574596405,-0.1987680196762085,2
34,-0.13582852482795715,0.10258817672729492,0.07962911576032639,-0.2735574245452881,-0.9310864210128784,-0.1990566849708557,2
35,-0.07115237414836884,-0.034711990505456924,-0.017160434275865555,-0.2734217941761017,-0.9313716888427734,-0.19825869798660278,2
36,-0.10141316056251526,0.0007157741347327828,0.018006227910518646,-0.27295342087745667,-0.9310345649719238,-0.1980263739824295,2
37,-0.051513221114873886,-0.050768762826919556,0.0879247784614563,-0.27317488193511963,-0.930886447429657,-0.19760829210281372,2
38,0.010439221747219563,0.01275054644793272,0.11370361596345901,-0.27257710695266724,-0.9307027459144592,-0.19654838740825653,2
39,-0.04763201251626015,0.14756116271018982,-0.04551932215690613,-0.2726637125015259,-0.9295458197593689,-0.19702044129371643,2
40,-0.01702522486448288,0.039155054837465286,-0.03899610787630081,-0.2735973596572876,-0.9292396903038025,-0.19695480167865753,2
41,-0.05625090375542641,-0.08016784489154816,0.04650405794382095,-0.2730952799320221,-0.9286919236183167,-0.19692862033843994,2
42,-0.015139670111238956,0.030460231006145477,0.07284515351057053,-0.2726801931858063,-0.9281161427497864,-0.19587662816047668,2
43,-0.042846862226724625,0.036648258566856384,0.028503213077783585,-0.2723325192928314,-0.9277060031890869,-0.19520452618598938,2
44,-0.06419266760349274,0.0237769465893507,0.01177957747131586,-0.2723301947116852,-0.9278685450553894,-0.19514276087284088,2
45,-0.13900385797023773,0.04321258142590523,0.0567803829908371,-0.27234965562820435,-0.9270219206809998,-0.19393526017665863,2
46,-0.18797868490219116,-0.06767191737890244,0.04151511564850807,-0.2718900740146637,-0.9278997182846069,-0.1937299519777298,2
47,-0.14045120775699615,0.034578174352645874,0.009342229925096035,-0.2715396285057068,-0.9285255074501038,-0.1933661848306656,2
48,-0.1482921540737152,0.056637465953826904,0.14866448938846588,-0.27148133516311646,-0.9291824102401733,-0.19232146441936493,2
49,-0.044214874505996704,0.13411113619804382,0.013828031718730927,-0.27171969413757324,-0.9290589094161987,-0.1911381334066391,2
50,-0.058754462748765945,-0.12483499944210052,0.04766616225242615,-0.2719862759113312,-0.9286131262779236,-0.19040420651435852,2
51,-0.11507461965084076,0.07187898457050323,-0.11401712894439697,-0.27158644795417786,-0.9285107851028442,-0.19035376608371735,2
52,-0.10682567954063416,-0.052367135882377625,0.06629043072462082,-0.2713928520679474,-0.9282953143119812,-0.19024629890918732,2
53,-0.03465636074542999,-0.03197549283504486,0.05254416912794113,-0.2695360779762268,-1.1966474056243896,-0.19007866084575653,2
54,-0.06834724545478821,0.021880431100726128,0.05213267356157303,-0.26926079392433167,-0.8597469925880432,-0.18920940160751343,2
55,-0.02759765088558197,-0.00034699513344094157,-0.0033685199450701475,-0.2690058946609497,-0.8771222829818726,-0.18880769610404968,2
56,-0.0420507937669754,0.10638292878866196,-0.029202887788414955,-0.2695818245410919,-0.890662431716919,-0.18856820464134216,2
57,-0.09766405075788498,-0.06504914164543152,-0.0062842355109751225,-0.2691393792629242,-0.9015950560569763,-0.18826745450496674,2
58,-0.21178923547267914,-0.06272124499082565,-0.0070608071982860565,-0.267605185508728,-0.9122127890586853,-0.1881147027015686,2
59,-0.08799061179161072,0.024083906784653664,-0.03760015219449997,-0.2670381963253021,-0.9196338057518005,-0.18761663138866425,2
60,-0.09301923215389252,0.03742276877164841,0.02366054616868496,-0.2670324146747589,-0.9193891882896423,-0.18778735399246216,2
61,-0.05332857370376587,-0.014055674895644188,0.002764370758086443,-0.19945958256721497,-0.9227015972137451,-0.1848418265581131,2
62,-0.09767446666955948,-0.04181104153394699,0.12732768058776855,-0.21572183072566986,-0.9262199401855469,-0.18459545075893402,2
63,-0.046905238181352615,0.02533145621418953,-0.03948616608977318,-0.22838689386844635,-0.9286590218544006,-0.18456390500068665,2
64,0.0010466468520462513,-0.06196193769574165,-0.03482287377119064,-0.2362603098154068,-0.9298539161682129,-0.18524031341075897,2
65,-0.1096596047282219,0.01731071248650551,0.005140702705830336,-0.24331888556480408,-0.9319647550582886,-0.18466459214687347,2
66,-0.004551877733319998,0.10818620026111603,0.10115518420934677,-0.18341760337352753,-1.0662860870361328,-0.1795237511396408,2
67,-0.1458348035812378,0.007469273172318935,-0.11869842559099197,-0.33849087357521057,-0.8997963666915894,-0.1860065460205078,2
68,0.0786265879869461,-0.04290696606040001,0.07545864582061768,-0.31834423542022705,-0.9086562991142273,-0.18539658188819885,2
69,-0.08837500214576721,-0.02319657802581787,0.10493689030408859,-0.3026495575904846,-0.9174083471298218,-0.18373002111911774,2
70,-0.1101105809211731,-0.01821780391037464,0.08990663290023804,0.0,0.0,0.0,2
71,0.01568005606532097,-0.005962890572845936,0.06533677875995636,-0.0001951662707142532,-0.0006942686159163713,0.0008359205676242709,2
72,-0.018899839371442795,0.008555414155125618,0.05834187567234039,3.237547934986651e-05,-0.0008331407443620265,0.001201314851641655,2
73,-0.08140649646520615,0.022303782403469086,0.061820268630981445,-0.022375870496034622,-0.08613084256649017,0.001750886789523065,2
74,0.021530864760279655,0.030056733638048172,0.007648543454706669,-0.03529055416584015,-0.12919065356254578,0.0016876908484846354,2
75,-0.0997394546866417,0.005210767965763807,0.0579913891851902,-0.04607503488659859,-0.2012542486190796,0.002401601057499647,2
76,-0.013739093206822872,-0.10488519817590714,0.008985092863440514,-0.06241276487708092,-0.282530277967453,0.00267039705067873,2
77,-0.04737841337919235,-0.021283650770783424,0.06387750804424286,-0.08172120153903961,-0.3591859042644501,0.002995252376422286,2
78,-0.17622916400432587,-0.04250754788517952,0.033406101167201996,-0.0977446436882019,-0.43923836946487427,0.0033310248982161283,2
79,-0.0850093811750412,0.11097440868616104,-0.050525352358818054,-0.11861807107925415,-0.507595956325531,0.003403489477932453,2
80,-0.04358067363500595,-0.09887894988059998,-0.0160982646048069,-0.1320803016424179,-0.5663657784461975,0.0026994862128049135,2
81,-0.08972440659999847,-0.05078849568963051,0.07170877605676651,-0.14320926368236542,-0.6186349987983704,0.0027066683396697044,2
82,-0.025432493537664413,0.0628022849559784,0.11811964958906174,-0.15567833185195923,-0.6601302027702332,0.0034895362332463264,2
83,-0.06165510043501854,0.0961177796125412,-0.07852087169885635,-0.16957686841487885,-0.6931995153427124,0.0038979784585535526,2
84,-0.08064238727092743,0.06395033001899719,-0.0570647306740284,-0.17649111151695251,-0.7239546179771423,0.0031517816241830587,2
85,-0.10809529572725296,0.05770879238843918,-0.017008675262331963,-0.18572786450386047,-0.7512404918670654,0.0029235081747174263,2
86,-0.10692009329795837,0.036573201417922974,0.04607444256544113,-0.19064773619174957,-0.7715778946876526,0.0025444228667765856,2
87,-0.027775824069976807,-0.02831920050084591,0.13691172003746033,0.32449203729629517,-1.0466562509536743,-0.0002192081738030538,2
88,-0.11702719330787659,0.0014394961763173342,0.04128296300768852,-0.07681936025619507,-0.7435189485549927,0.003568437648937106,2
89,-0.04653720185160637,-0.04566614702343941,0.0370057187974453,-0.116656593978405,-0.7718624472618103,0.004613141994923353,2
90,-0.09813611209392548,0.06203394755721092,0.055975619703531265,-0.14667180180549622,-0.7981677651405334,0.005463048350065947,2
91,-0.03556443005800247,-0.04190325364470482,-0.02461552433669567,-0.1653902232646942,-0.8172195553779602,0.005639535374939442,2
92,-0.13414929807186127,0.013876164332032204,0.0024373969063162804,-0.1808336228132248,-0.8368069529533386,0.005420495290309191,2
93,-0.11440364271402359,-0.06989554315805435,0.08700094372034073,-0.190598264336586,-0.852165937423706,0.006231695879250765,2
94,0.00805944949388504,0.022846190258860588,0.059370093047618866,-0.19940346479415894,-0.862619161605835,0.007530946750193834,2
95,-0.10271456837654114,0.012906251475214958,-0.1487227827310562,-0.205611914396286,-0.8742913007736206,0.007071016356348991,2
96,0.004609203431755304,0.05758165195584297,0.020689189434051514,-0.21015238761901855,-0.8828791975975037,0.006447415798902512,2
97,-0.10498325526714325,0.006996301934123039,0.03832889720797539,-0.21244607865810394,-0.8909021615982056,0.006258588749915361,2
98,-0.21600230038166046,0.008589263074100018,-0.08238906413316727,-0.2147218883037567,-0.8997156023979187,0.0062219370156526566,2
99,-0.055995360016822815,-0.031477879732847214,-0.01060006394982338,-0.21540284156799316,-0.9070562124252319,0.005539782345294952,2
100,-0.15299184620380402,-0.05033894255757332,0.017792614176869392,-0.2159232646226883,-0.9141525626182556,0.005682629067450762,2
101,-0.058521706610918045,-0.014722866006195545,0.03909943252801895,-0.21556751430034637,-0.913967490196228,0.0062853493727743626,2
102,0.028895238414406776,-0.060148339718580246,0.07487427443265915,-0.21540461480617523,-0.9136134386062622,0.006944142747670412,2
103,-0.13368944823741913,0.05631718784570694,0.01995091885328293,-0.21741652488708496,-1.2942014932632446,0.003797561163082719,2
104,-0.03189540281891823,0.010733583010733128,0.00882295984774828,-0.2192588746547699,-0.8318181037902832,0.008888600394129753,2
105,-0.10610674321651459,-0.010332374833524227,-0.09753698110580444,-0.22113147377967834,-0.8563953042030334,0.008443662896752357,2
106,-0.038837648928165436,0.0625750795006752,0.009643549099564552,-0.22327087819576263,-0.8757860064506531,0.007764408830553293,2
107,-0.13297498226165771,0.03644252568483353,0.13552500307559967,-0.22448189556598663,-0.889522135257721,0.00831412523984909,2
108,0.026421884074807167,0.07134515047073364,0.04652389883995056,-0.225107342004776,-0.899694561958313,0.009066472761332989,2
109,-0.09903362393379211,0.035763632506132126,-0.028219234198331833,-0.22598709166049957,-0.9087675213813782,0.008818999864161015,2
110,-0.030769890174269676,-0.06704502552747726,-0.040409401059150696,-0.22627270221710205,-0.9162939190864563,0.0088581508025527,2
111,-0.014454546384513378,-0.06199388578534126,0.04004732891917229,-0.22639429569244385,-0.9221546649932861,0.008475066162645817,2
112,-0.1444588303565979,0.070750892162323,-0.004878794774413109,-0.22782321274280548,-0.9279927611351013,0.008973316289484501,2
113,-0.09805922210216522,0.022946672514081,0.05364832282066345,-0.22992560267448425,-0.9351078867912292,0.00878758355975151,2
114,-0.020435936748981476,0.085042305290699,-0.05041182413697243,-0.332538902759552,-0.9386559724807739,0.01081717200577259,2
115,-0.12520110607147217,0.08188343793153763,0.08240707963705063,-0.3078131377696991,-0.941796064376831,0.011067423038184643,2
116,0.00936717726290226,-0.03777376189827919,0.11203152686357498,-0.2883196175098419,-0.9447894096374512,0.01112518459558487,2
117,-0.05188407748937607,-0.04286792874336243,0.08529102057218552,-0.27345120906829834,-0.9470041990280151,0.01147792674601078,2
118,0.037833020091056824,0.0630280151963234,-0.13198529183864594,-0.262336403131485,-0.9493764042854309,0.011561731807887554,2
119,-0.052609384059906006,0.05423090606927872,-0.0039034048095345497,-0.2544868588447571,-0.9494990110397339,0.010925940237939358,2
120,-0.29436343908309937,-0.09615454077720642,-0.00013280300481710583,-0.2471366971731186,-0.9541757702827454,0.010605832561850548,2
121,-0.002735663438215852,0.07744183391332626,-0.014746347442269325,-0.24674908816814423,-0.9550996422767639,0.010382345877587795,2
122,-0.05417121574282646,0.03740464150905609,-0.05270238220691681,-0.24663518369197845,-0.9544551968574524,0.0098695894703269,2
123,0.10534799098968506,-0.06418274343013763,-0.019268397241830826,-0.24677282571792603,-0.9540550708770752,0.01029511820524931,2
124,-0.04647856950759888,-0.04320073872804642,0.06485772877931595,-0.2455207109451294,-0.9525689482688904,0.010084489360451698,2
125,-0.10674834996461868,-0.010852954350411892,0.016199102625250816,-0.24474181234836578,-0.9523163437843323,0.010696196928620338,2
126,0.13657644391059875,-0.027378305792808533,0.0490969717502594,-0.24432387948036194,-0.9517653584480286,0.010971731506288052,2
127,-0.04847699776291847,-0.0003494576958473772,0.12295553088188171,-0.24380719661712646,-0.9506612420082092,0.0117415776476264,2
128,-0.1095648929476738,0.016008563339710236,0.06175750494003296,-0.24383902549743652,-0.9498088359832764,0.012235754169523716,2
129,-0.11157888919115067,0.009723643772304058,0.05711537227034569,-0.2434070110321045,-0.9501153230667114,0.012699785642325878,2
130,-0.06479913741350174,0.03817356750369072,0.05545378103852272,-0.24316611886024475,-0.9495539665222168,0.013130943290889263,2
131,-0.060651589184999466,0.01017439179122448,0.09172317385673523,-0.24318046867847443,-0.9489920735359192,0.013875032775104046,2
132,0.10359442234039307,-0.05786949023604393,0.07620494812726974,-0.16898448765277863,-1.0962615013122559,0.01219850778579712,2
133,-0.1174563467502594,0.054350875318050385,0.020914848893880844,-0.33532071113586426,-0.9110777378082275,0.016897115856409073,2
134,-0.05887347459793091,0.11993106454610825,0.051478996872901917,-0.2400541603565216,-0.9219638705253601,0.016044318675994873,2
135,-0.11736086755990982,0.018994130194187164,0.17274880409240723,-0.09682583063840866,-1.0026390552520752,0.014036291278898716,2
136,0.046712085604667664,0.04141441360116005,-1.9690030967467465e-05,-0.2083488553762436,-0.9167184829711914,0.01705443486571312,2
137,-0.012492535635828972,0.06746579706668854,0.1305420696735382,-0.2202473282814026,-1.0694586038589478,0.01724211499094963,2
138,0.0977519229054451,-0.022181905806064606,0.09739023447036743,-0.22667548060417175,-0.9671558141708374,0.0187215656042099,2
139,-0.14190979301929474,0.09072581678628922,-0.0098080113530159,-0.23254959285259247,-0.8923255205154419,0.019292155280709267,2
140,-0.07479626685380936,0.15013839304447174,0.07235053181648254,-0.3097718060016632,-0.908429741859436,0.020389826968312263,2
141,-0.06649023294448853,-0.024433286860585213,-0.006983044557273388,-0.2224675565958023,-0.9929226040840149,0.01913994550704956,2
142,0.05120708420872688,-0.13550306856632233,0.07162587344646454,-0.2293999195098877,-0.9834230542182922,0.01985427923500538,2
143,-0.14528892934322357,-0.041317377239465714,-0.004071636591106653,-0.16302555799484253,-0.9764038920402527,0.019337138161063194,2
144,0.021670354530215263,0.011000349186360836,0.032883867621421814,-0.32889464497566223,-0.9006840586662292,0.022022264078259468,2
145,-0.11186813563108444,0.07467479258775711,0.05786541476845741,-0.30897125601768494,-0.9162085652351379,0.0221825260668993,2
146,-0.028024638071656227,-0.09618052840232849,0.10116949677467346,-0.2939876317977905,-0.9276250004768372,0.023196963593363762,2
147,-0.05623912066221237,-0.011694478802382946,0.06859157979488373,-0.2834446430206299,-0.9367438554763794,0.02398412860929966,2
148,-0.06938058882951736,-0.005555395036935806,0.08392606675624847,-0.2758452296257019,-0.9433753490447998,0.02459055557847023,2
149,-0.038558702915906906,0.09999003261327744,0.004932241048663855,-0.27575838565826416,-0.9433945417404175,0.02493845298886299,2
150,-0.013645646162331104,0.05745115503668785,0.10715310275554657,-0.2760189473628998,-0.9422460794448853,0.02593718282878399,2
151,-0.0807679295539856,0.079189233481884,0.057338815182447433,-0.27661818265914917,-0.9421355128288269,0.02661294676363468,2
152,-0.11606228351593018,0.0070452578365802765,0.022336721420288086,-0.27642911672592163,-0.9421097040176392,0.027027592062950134,2
153,0.05255648121237755,0.12466780096292496,0.06840896606445312,-0.27711406350135803,-0.9411854147911072,0.02720189280807972,2
154,-0.08667769283056259,-0.04880863428115845,-0.05245204269886017,-0.27678272128105164,-0.9409008622169495,0.027398722246289253,2
155,-0.07491912692785263,0.044970884919166565,0.018270213156938553,-0.27680695056915283,-0.941085934638977,0.02687774784862995,2
156,-0.14805786311626434,0.05320143327116966,0.07513409852981567,-0.2765137255191803,-0.9408299326896667,0.027346670627593994,2
157,-0.03951280191540718,-0.054878413677215576,0.11772046238183975,-0.2760539650917053,-0.9409540295600891,0.02800634503364563,2
158,-0.01798585057258606,0.004067317582666874,0.08431962877511978,-0.3452567756175995,-0.9413167834281921,0.02931978553533554,2
159,0.023669175803661346,0.013264365494251251,0.009554635733366013,-0.25534480810165405,-0.9411677718162537,0.02931603416800499,2
160,-0.2230178713798523,0.09002455323934555,0.05523867905139923,-0.2559092044830322,-0.941163957118988,0.02957955375313759,2
161,-0.06559775769710541,-0.08023747056722641,0.15685805678367615,-0.25520583987236023,-0.9413573145866394,0.030636895447969437,2
162,0.00039508266490884125,0.019153382629156113,0.04038203880190849,-0.25544315576553345,-0.9402610659599304,0.03143226355314255,2
163,-0.00394583772867918,-0.018430817872285843,0.06799384951591492,-0.25556066632270813,-0.9398928880691528,0.03183555230498314,2
164,0.02009383589029312,0.05266344174742699,-0.027736302465200424,-0.25520995259284973,-0.9389638900756836,0.03220738098025322,2
165,-0.07055488973855972,0.1045253649353981,0.017798326909542084,-0.2550835907459259,-0.9385061264038086,0.03192196041345596,2
166,-0.08266381174325943,-0.12958399951457977,0.08892001211643219,-0.2548825740814209,-0.9382030367851257,0.03273170068860054,2
167,-0.1894626021385193,0.07699549198150635,0.03769286349415779,-0.25432252883911133,-0.9381656050682068,0.033471424132585526,2
168,0.027798231691122055,-0.0002669290697667748,0.07191770523786545,-0.25469136238098145,-0.9381787180900574,0.03377547860145569,2
169,-0.08154547214508057,0.0006748387822881341,0.13339872658252716,-0.25441959500312805,-0.9374932646751404,0.03433908149600029,2
170,-0.11305326223373413,0.04403718560934067,0.00032032839953899384,-0.25381559133529663,-0.9374218583106995,0.03503713756799698,2
171,-0.10272424668073654,0.05552297085523605,0.04607316479086876,-0.25397858023643494,-0.9373862147331238,0.034893523901700974,2
172,-0.12839950621128082,-0.033320240676403046,0.04530986770987511,-0.2539480924606323,-0.9376413822174072,0.03575048968195915,2
173,0.034729231148958206,0.026899179443717003,0.04073497653007507,-0.25408464670181274,-0.9369645714759827,0.035782136023044586,2
174,-0.026927225291728973,-0.10033001005649567,0.03726479411125183,-0.25386011600494385,-0.9365015029907227,0.03632490709424019,2
175,-0.11546304821968079,-0.021008724346756935,-0.004529466386884451,-0.2532929480075836,-0.9361605048179626,0.03631719946861267,2
176,0.09117460250854492,0.025206441059708595,0.01314178854227066,-0.25303035974502563,-0.9359220862388611,0.03625921532511711,2
177,0.01599523052573204,-0.053787961602211,0.09395598620176315,-0.25281766057014465,-0.9349609613418579,0.03736630082130432,2
178,-0.11715126037597656,-0.08973971754312515,0.05621464177966118,-0.25239208340644836,-0.9342685341835022,0.03775875270366669,2
179,-0.0867004320025444,0.030231311917304993,0.02922922372817993,-0.251582533121109,-0.9345049262046814,0.03855239599943161,2
180,-0.09820418059825897,-0.06490402668714523,0.14740236103534698,-0.1845763474702835,-0.9355716109275818,0.039410367608070374,2
181,-0.12798817455768585,-0.06183246523141861,0.0449797548353672,-0.20196588337421417,-0.9376034140586853,0.040249284356832504,2
182,-0.06630941480398178,-0.08555655926465988,0.012169988825917244,-0.21555963158607483,-0.9393928050994873,0.03988289460539818,2
183,-0.11736336350440979,0.03440532088279724,-0.005850776564329863,-0.2250034213066101,-0.9411826133728027,0.04026171565055847,2
184,-0.06707842648029327,0.05692305788397789,-0.0018118933076038957,-0.2331095188856125,-0.9420669078826904,0.040314070880413055,2
185,-0.03104388155043125,-0.01282680593430996,0.09697476029396057,-0.23896560072898865,-0.9423965811729431,0.040175311267375946,2
186,-0.0568363256752491,-0.052469849586486816,0.09774456173181534,-0.2429867684841156,-1.0126972198486328,0.04081844165921211,2
187,-0.13577716052532196,0.07628653943538666,0.03824566677212715,-0.2467578649520874,-0.9947900176048279,0.041070565581321716,2
188,-0.11163236945867538,-0.026990605518221855,0.009189825505018234,-0.2488822340965271,-0.9124022126197815,0.04168524220585823,2
189,-0.06308409571647644,7.217928941827267e-05,0.10498867928981781,-0.25110891461372375,-0.9222497344017029,0.04229780659079552,2
190,-0.05953759700059891,0.04230286926031113,0.024348033592104912,-0.25136011838912964,-0.928607165813446,0.04297983646392822,2
191,-0.07377097755670547,-0.002555722137913108,0.0008190416265279055,-0.2518823444843292,-1.0038334131240845,0.042661745101213455,2
192,-0.06305097043514252,0.001048444421030581,0.12746652960777283,-0.2518373429775238,-1.13234281539917,0.04255200922489166,2
193,-0.09914582967758179,0.0812385156750679,0.0802433043718338,-0.2515147924423218,-0.8696674108505249,0.04425523802638054,2
194,-0.07396598905324936,0.04126088321208954,0.028044501319527626,-0.2514633238315582,-0.8889766335487366,0.04471663758158684,2
195,0.00618370296433568,-0.06716849654912949,0.06665650755167007,-0.25050148367881775,-0.9028626084327698,0.04535866901278496,2
196,-0.07962479442358017,-0.0013155183987691998,0.0873127356171608,-0.2509039044380188,-0.9137683510780334,0.04548623785376549,2
197,-0.08376423269510269,0.027238143607974052,0.02569267898797989,-0.25102946162223816,-0.9233605265617371,0.04630269855260849,2
198,-0.08338577300310135,0.07006348669528961,0.028788281604647636,-0.3236728310585022,-0.9311313629150391,0.04607364162802696,2
199,-0.02136817015707493,-0.05811755359172821,0.05295620113611221,-0.3038940131664276,-0.9364765286445618,0.04623372107744217,2
200,-0.052484672516584396,-0.07689516246318817,-0.018818913027644157,-0.28765398263931274,-0.9416367411613464,0.046571869403123856,2
201,-0.04079632833600044,0.06214235723018646,0.09058311581611633,-0.27643969655036926,-0.9454556703567505,0.046624455600976944,2
202,0.01925981417298317,-0.01221912819892168,0.093396857380867,-0.2681480348110199,-0.9469360113143921,0.04748310521245003,2
203,-0.14170441031455994,-0.04206416383385658,0.006059111561626196,-0.2612449526786804,-0.9494063854217529,0.04780163988471031,2
204,-0.08943133801221848,0.08162946254014969,0.08356886357069016,-0.26142892241477966,-0.9495663642883301,0.047960586845874786,2
205,-0.07689715921878815,0.007933436892926693,0.07585405558347702,-0.26078665256500244,-0.9492349624633789,0.0488356277346611,2
206,-0.01828392595052719,-0.0371280163526535,0.013652280904352665,-0.26041802763938904,-0.9488024711608887,0.04921879991889,2
207,-0.12983480095863342,0.079170823097229,0.027303112670779228,-0.1881324052810669,-1.0921576023101807,0.0489678792655468,2
208,-0.014302046038210392,-0.04759206250309944,-0.020412562415003777,-0.2037239521741867,-0.9170990586280823,0.04955863952636719,2
209,-0.04623296856880188,0.04692336171865463,0.00863627064973116,-0.2161509245634079,-0.9256170392036438,0.04923557490110397,2
210,-0.04901459813117981,-0.06158439815044403,-0.011339640244841576,-0.22588923573493958,-0.9337595105171204,0.049446433782577515,2
211,-0.039328355342149734,0.043599724769592285,0.28794988989830017,-0.23105017840862274,-0.9347534775733948,0.04838283360004425,2
212,0.08609446883201599,-0.00877152569591999,0.08959253132343292,-0.2318417727947235,-0.9351941347122192,0.04979657009243965,2
213,0.1534789502620697,0.17413920164108276,0.7363699078559875,-0.23393234610557556,-0.9280059933662415,0.049388397485017776,2
214,-0.5826289653778076,0.3191326856613159,0.5178126692771912,-0.30494022369384766,-0.9197266697883606,0.043893128633499146,2
215,-0.3907553255558014,0.20411796867847443,0.4125099182128906,-0.28607887029647827,-0.9118577241897583,0.04251182824373245,2
216,-0.7223886251449585,0.2092788964509964,-0.24031244218349457,-0.27126017212867737,-0.8982931971549988,0.04971088096499443,2
217,-0.12177673727273941,0.0957922413945198,0.17188391089439392,-0.11559927463531494,-1.0974723100662231,0.04994610697031021,2
218,0.0895116999745369,-0.6514807343482971,-0.16018985211849213,-0.28095996379852295,-0.8909602165222168,0.05535665526986122,2
219,0.5567517876625061,-0.3056058883666992,2.7221808433532715,-0.25994208455085754,-0.8658888339996338,0.05842906981706619,2
220,-0.4410534203052521,1.1473108530044556,-1.7779570817947388,-0.1100003570318222,-0.9809796810150146,0.067586250603199,2
221,-2.7622640132904053,2.441434144973755,-6.8375749588012695,-0.35186460614204407,-1.003492832183838,0.02292827144265175,2
222,-7.0669474601745605,5.672811508178711,-3.3885653018951416,-0.35445207357406616,-0.7343977689743042,-0.03190111741423607,2
223,12.289729118347168,6.695608615875244,-0.6963090896606445,-0.4446178376674652,-0.6945582628250122,-0.0468100905418396,2
224,-10.549738883972168,-0.39535513520240784,0.2624821960926056,-0.4479374885559082,-1.2847378253936768,-0.0608397051692009,2
225,7.295109748840332,-8.914809226989746,1.8623086214065552,-0.5341478586196899,-1.38753342628479,-0.05021800100803375,2
226,-14.150674819946289,4.994400501251221,1.2918123006820679,-0.5847588181495667,-2.0351345539093018,-0.05205165967345238,2
227,14.139066696166992,-4.72943115234375,3.229215383529663,-0.6748689413070679,-2.052872896194458,-0.03341394290328026,2
228,8.422039031982422,-1.813655972480774,4.761934280395508,-0.7414312958717346,-2.5203449726104736,-0.011914812959730625,2
229,1.5697566270828247,-4.018699645996094,6.784590244293213,-0.9268666505813599,-2.677258014678955,0.05436426401138306,2
230,11.606585502624512,-22.62961769104004,6.921030521392822,-1.3357362747192383,-3.1478562355041504,0.17592313885688782,2
231,5.807069778442383,-20.936410903930664,6.878824710845947,-1.0252050161361694,-3.1058075428009033,0.22991958260536194,2
232,23.325908660888672,-29.69685935974121,3.3351218700408936,-0.9805550575256348,-3.6492393016815186,0.27090999484062195,2
233,39.28844451904297,-26.23810386657715,0.2477613240480423,-0.7371159791946411,-3.30947208404541,0.3134743571281433,2
234,68.02337646484375,-25.37200927734375,1.9353132247924805,-0.6140252947807312,-3.3108153343200684,0.3179226219654083,2
235,86.28619384765625,-10.683159828186035,5.2535905838012695,-0.40118852257728577,-2.8017594814300537,0.31069883704185486,2
236,105.94286346435547,0.2529425621032715,3.5596141815185547,-0.1875499039888382,-2.1255862712860107,0.2839662730693817,2
237,109.70160675048828,6.500677585601807,2.4715442657470703,-0.19501440227031708,-0.586510956287384,0.3078657388687134,2
238,99.37076568603516,-14.591512680053711,0.4560762047767639,-0.748202383518219,-0.09236113727092743,0.463290810585022,2
239,71.7355728149414,-39.98563766479492,-1.3126897811889648,-0.24877490103244781,1.5391391515731812,0.43656811118125916,2
240,28.091482162475586,-68.15204620361328,-1.1728371381759644,0.4346102774143219,2.541654348373413,0.416774183511734,2
241,-4.439487457275391,-67.75556182861328,-2.3774497509002686,0.35381364822387695,4.199733734130859,0.35011783242225647,2
242,-28.140920639038086,-54.14130783081055,-4.570057392120361,1.8055036067962646,4.069280624389648,0.5470338463783264,2
243,-32.426231384277344,-49.139556884765625,-8.674702644348145,2.964663505554199,4.285853385925293,0.6719093322753906,2
244,-26.92978286743164,-44.991355895996094,-10.150457382202148,2.120652914047241,3.541513681411743,-0.06823550164699554,2
245,-19.784927368164062,-30.52669906616211,-5.526282787322998,2.2989370822906494,3.9876396656036377,-0.48381370306015015,2
246,-14.427586555480957,-14.279424667358398,-1.8910906314849854,3.0275371074676514,4.531883716583252,-0.38621440529823303,2
247,-16.421329498291016,-5.395279884338379,-2.9531116485595703,4.325622081756592,5.915194034576416,-0.11939182132482529,2
248,-19.983478546142578,1.61137056350708,-5.4840497970581055,4.534415245056152,5.652631759643555,0.0363207645714283,2
249,-30.74555206298828,9.82892894744873,-7.747636318206787,3.602067708969116,4.553727626800537,-0.2399349808692932,2
250,-45.039398193359375,12.105894088745117,-9.137904167175293,4.148533344268799,4.023252487182617,0.3786889612674713,2
251,-55.83598327636719,22.135971069335938,-13.308639526367188,3.3975603580474854,3.087017059326172,0.060117535293102264,2
252,-64.8407211303711,35.972023010253906,-10.912262916564941,3.3134853839874268,2.33939266204834,0.1968071609735489,2
253,-66.07563018798828,34.109954833984375,-8.530814170837402,2.450803518295288,1.983322262763977,-0.4722580909729004,2
254,-58.539390563964844,20.385684967041016,-5.132391452789307,2.6456260681152344,1.9541571140289307,-0.5543597340583801,2
255,-37.44994354248047,-2.4052388668060303,-4.5891876220703125,2.96870493888855,1.3187114000320435,-0.23751071095466614,2
256,-15.581875801086426,-17.305757522583008,-4.585057735443115,3.5040013790130615,1.395434021949768,-0.2395610511302948,2
257,0.18900460004806519,-17.040924072265625,-0.6693074107170105,3.873040199279785,1.146429181098938,-0.07149942964315414,2
258,7.626803874969482,-6.326921463012695,0.6099216341972351,4.206716537475586,1.1824579238891602,0.03241997957229614,2
259,9.944684028625488,14.205439567565918,3.3903095722198486,3.8657729625701904,0.9179625511169434,0.14270830154418945,2
260,11.352072715759277,36.16210174560547,6.922764301300049,3.358405351638794,0.9364307522773743,0.16514699161052704,2
261,9.9616060256958,53.40130615234375,10.460587501525879,3.2623560428619385,0.955099880695343,0.40498268604278564,2
262,-1.7459077835083008,63.62491226196289,11.105367660522461,3.1456620693206787,1.1381537914276123,0.5645208358764648,2
263,-15.951547622680664,67.2907485961914,13.603774070739746,2.2058331966400146,0.9094906449317932,0.7184142470359802,2
264,-29.51029396057129,68.3067855834961,16.769012451171875,1.7585959434509277,0.8472210168838501,0.8325579166412354,2
265,-35.97856140136719,62.603546142578125,20.618511199951172,1.0081480741500854,0.2783893048763275,1.1338002681732178,2
266,-33.42876434326172,48.225032806396484,21.279376983642578,0.7718824148178101,0.11860853433609009,1.3203638792037964,2
267,-20.95869255065918,33.67071533203125,21.76263999938965,0.07967983186244965,-0.3352721333503723,1.5478421449661255,2
268,-6.080378532409668,28.4521541595459,23.744909286499023,-0.19653989374637604,-0.4586041271686554,1.7802917957305908,2
269,1.21609365940094,27.021005630493164,24.668230056762695,-0.8309651613235474,-0.5840376019477844,2.019948959350586,2
270,3.1653943061828613,23.149877548217773,24.513261795043945,-0.7503475546836853,-0.6053851246833801,2.2669320106506348,2
271,-3.561776638031006,16.253772735595703,23.30129051208496,-0.9074797034263611,-0.7232004404067993,2.49931001663208,2
272,-10.502264976501465,11.465231895446777,18.72929573059082,-1.0652236938476562,-0.857653021812439,2.7084975242614746,2
273,-9.778875350952148,11.498836517333984,14.943998336791992,-0.9168989658355713,-1.0265374183654785,2.8448030948638916,2
274,-0.7319861054420471,12.05899429321289,10.869244575500488,-1.2235305309295654,-1.071937918663025,2.99776554107666,2
275,5.318426609039307,10.86208724975586,4.341617584228516,-1.6817734241485596,-0.980441689491272,3.1326510906219482,2
276,7.389230728149414,6.582518577575684,-0.22056244313716888,-1.5866435766220093,-1.2442846298217773,3.038763999938965,2
277,14.995506286621094,4.018978595733643,-3.0822808742523193,-1.7951383590698242,-1.217960000038147,3.023362398147583,2
278,23.243995666503906,1.4102648496627808,-6.491225719451904,-1.934892177581787,-0.8319554924964905,3.065115213394165,2
279,34.38236618041992,-1.7533831596374512,-10.86257266998291,-2.1739072799682617,-0.35490280389785767,3.1018218994140625,2
280,34.18622589111328,-3.8791987895965576,-16.87986946105957,-2.6930654048919678,1.3260375261306763,3.5851259231567383,2
281,3.8342201709747314,-13.599952697753906,-21.659008026123047,-3.0714471340179443,1.4181535243988037,3.3705661296844482,2
282,-36.82705307006836,-24.34538459777832,-19.338308334350586,-2.613020420074463,0.8388718366622925,2.9440195560455322,2
283,-64.20719146728516,-30.476436614990234,-12.563281059265137,-2.3090338706970215,-0.12241031229496002,2.548081398010254,2
284,-71.14527893066406,-28.894756317138672,-6.40819787979126,-1.7559351921081543,-1.113196611404419,2.3121118545532227,2
285,-59.59661865234375,-24.107213973999023,-1.492255687713623,-1.5721073150634766,-1.8306034803390503,2.2530417442321777,2
286,-38.54154968261719,-19.060710906982422,0.7499253749847412,-1.189610481262207,-2.5807671546936035,2.1446311473846436,2
287,-9.117191314697266,-23.09392547607422,1.0174163579940796,-0.970541775226593,-3.2020955085754395,2.023969888687134,2
288,32.646034240722656,-24.708633422851562,0.5742678642272949,-0.6362538933753967,-2.9647040367126465,2.0924787521362305,2
289,61.712791442871094,-17.524747848510742,1.9210604429244995,-0.42763829231262207,-2.9325850009918213,1.9928194284439087,2
290,71.19654846191406,-9.069419860839844,4.765164375305176,-0.16266512870788574,-1.991852045059204,2.053115129470825,2
291,69.52351379394531,3.381322145462036,8.587987899780273,-0.0050302124582231045,-1.528721809387207,2.027064800262451,2
292,51.99905014038086,13.644729614257812,13.14934253692627,0.10606487095355988,-0.7640154957771301,2.075418710708618,2
293,35.7159309387207,19.83344268798828,17.723745346069336,0.1731072962284088,-0.3550741970539093,2.146205425262451,2
294,31.60116195678711,20.2030029296875,18.659231185913086,-0.08183331787586212,0.009353837929666042,2.3416543006896973,2
295,27.95861053466797,20.196149826049805,16.64371109008789,-0.2184125781059265,0.03911856561899185,2.500119924545288,2
296,14.076618194580078,24.824108123779297,12.555615425109863,-0.5525838136672974,0.43462955951690674,2.6772146224975586,2
297,-1.2445878982543945,18.874418258666992,4.402320861816406,-0.6833593845367432,0.23721136152744293,2.7544002532958984,2
298,1.7143839597702026,5.958320617675781,0.46840909123420715,-0.8561112880706787,0.36757123470306396,2.788013458251953,2
299,17.94566535949707,-6.872316360473633,-1.217739224433899,-1.2262557744979858,0.310641348361969,2.776761531829834,2
300,27.536556243896484,-27.300615310668945,-4.644956111907959,-1.1812193393707275,0.4513262212276459,2.7441508769989014,2
301,32.39930725097656,-46.333984375,-9.695732116699219,-1.0168722867965698,0.34054359793663025,2.611741781234741,2
302,37.40476989746094,-48.25239562988281,-14.634788513183594,-0.4113066494464874,1.004274606704712,2.5498504638671875,2
303,39.5878791809082,-44.968963623046875,-17.69678497314453,-0.06015796214342117,1.1243096590042114,2.3312671184539795,2
304,35.35633850097656,-35.51485824584961,-17.90934944152832,0.35853731632232666,1.6487356424331665,2.1569769382476807,2
305,30.084842681884766,-15.023354530334473,-15.194297790527344,0.6213953495025635,2.355778932571411,2.007831335067749,2
306,21.25397491455078,11.148618698120117,-10.749310493469238,0.5127612948417664,2.241666555404663,1.8164517879486084,2
307,14.638593673706055,29.882436752319336,-6.853133201599121,0.18635030090808868,2.51134991645813,1.7053730487823486,2
308,14.824357032775879,29.81451988220215,-5.572723388671875,0.0026980217080563307,2.472679615020752,1.6882563829421997,2
309,15.802802085876465,13.79289436340332,-8.666375160217285,-0.15431027114391327,2.9645791053771973,1.6556798219680786,2
310,5.971292018890381,-13.621362686157227,-12.862668991088867,-0.060821905732154846,2.7708542346954346,1.6056978702545166,2
311,-9.05516242980957,-33.0130615234375,-16.831850051879883,0.2669662535190582,2.9783847332000732,1.4895025491714478,2
312,-16.74861717224121,-34.89762496948242,-23.460569381713867,0.5354450345039368,2.779721736907959,1.251290202140808,2
313,-23.573888778686523,-27.964757919311523,-26.967893600463867,0.7063129544258118,2.5367987155914307,0.9295199513435364,2
314,-24.475507736206055,-23.418834686279297,-27.440744400024414,0.7850643396377563,2.2836453914642334,0.5822051763534546,2
315,-17.65638542175293,-18.8599796295166,-25.04753303527832,1.1835628747940063,2.1889612674713135,0.37162914872169495,2
316,0.4413219392299652,-23.284503936767578,-20.774168014526367,1.6031466722488403,2.379887819290161,0.18628527224063873,2
317,24.89556312561035,-28.711837768554688,-15.436226844787598,2.1502456665039062,2.292057991027832,0.11315272003412247,2
318,42.090911865234375,-28.410945892333984,-11.08897590637207,2.318773031234741,2.36478853225708,-0.03876172751188278,2
319,39.88335037231445,-11.469654083251953,-6.681511402130127,2.434056043624878,2.971498489379883,-0.21691839396953583,2
320,30.954801559448242,3.034083366394043,-8.552552223205566,2.3464455604553223,2.954875946044922,-0.2511378526687622,2
321,28.02077293395996,21.721172332763672,-11.201231002807617,2.0061042308807373,3.504565715789795,-0.48296883702278137,2
322,26.99793815612793,35.544105529785156,-9.945503234863281,1.6151678562164307,3.437652826309204,-0.5196654796600342,2
323,27.13832664489746,43.00522232055664,-10.776833534240723,1.204056978225708,4.0773749351501465,-0.6882002949714661,2
324,24.799901962280273,41.04444885253906,-12.860160827636719,0.6230055093765259,3.879103660583496,-0.7126559615135193,2
325,10.990564346313477,34.47601318359375,-12.868088722229004,0.37247395515441895,4.414712429046631,-0.8404431939125061,2
326,-3.881169557571411,22.31423568725586,-11.437065124511719,0.07259561866521835,4.096193790435791,-0.8662673234939575,2
327,-13.773999214172363,4.838361740112305,-13.129403114318848,-0.045448750257492065,4.226064682006836,-0.9909691214561462,2
328,-22.23785400390625,-16.443721771240234,-15.49531364440918,-0.06827614456415176,3.8421669006347656,-1.1309336423873901,2
329,-28.09894371032715,-38.70303726196289,-19.51339340209961,0.42458242177963257,3.5749120712280273,-1.1992193460464478,2
330,-26.437740325927734,-53.79740905761719,-23.70761489868164,0.9919431805610657,3.431300640106201,-1.4016879796981812,2
331,-22.443387985229492,-50.050052642822266,-25.8354434967041,1.756905436515808,3.30094838142395,-1.5768818855285645,2
332,-17.8763427734375,-28.92405891418457,-27.71636962890625,2.080077886581421,3.0673251152038574,-1.899827241897583,2
333,-10.268121719360352,-0.8680464029312134,-26.344247817993164,1.9744715690612793,2.9949891567230225,-2.2982895374298096,2
334,1.0317422151565552,23.330659866333008,-21.385528564453125,1.6860824823379517,3.086228847503662,-2.628837823867798,2
335,-0.8905676603317261,32.511051177978516,-12.40461254119873,1.0321491956710815,3.1313180923461914,-2.9409523010253906,2
336,-10.80007266998291,39.528961181640625,-5.426510810852051,0.9904719591140747,3.190068006515503,-2.903921365737915,2
337,-28.117612838745117,45.9228515625,-1.24663245677948,0.5416916012763977,2.8271381855010986,-2.9007654190063477,2
338,-40.40398406982422,40.58745574951172,5.185396194458008,-0.3775497078895569,2.524250030517578,-3.036672592163086,2
339,-37.42521286010742,19.57455062866211,12.373383522033691,-0.13094021379947662,2.204176425933838,-2.7505743503570557,2
340,-25.948043823242188,-10.95733642578125,14.72532844543457,-0.2009589523077011,1.7260891199111938,-2.5969796180725098,2
341,-14.63634204864502,-30.804914474487305,14.390317916870117,0.10942355543375015,1.6698853969573975,-2.4356400966644287,2
342,-4.699492931365967,-26.76361846923828,12.045162200927734,0.4978366196155548,1.5315552949905396,-2.289987802505493,2
343,-1.825573444366455,-6.099832057952881,10.103196144104004,0.7661759257316589,1.5217442512512207,-2.1629080772399902,2
344,-13.114908218383789,9.407034873962402,10.82600212097168,0.7227484583854675,2.053588390350342,-2.079634428024292,2
345,-22.252437591552734,14.554105758666992,16.003189086914062,0.45075181126594543,1.7985739707946777,-1.971504807472229,2
346,-25.64729118347168,19.07602310180664,19.622295379638672,0.2702641189098358,1.3178632259368896,-1.7847999334335327,2
347,-27.551973342895508,26.51154899597168,18.405162811279297,0.06042161211371422,0.9616931676864624,-1.5822341442108154,2
348,-23.633174896240234,32.48169708251953,15.459083557128906,-0.39717918634414673,0.6490045189857483,-1.4256200790405273,2
349,-16.12498664855957,38.76109313964844,13.264662742614746,-0.5759170651435852,0.2989215850830078,-1.26649010181427,2
350,-9.495268821716309,39.90597915649414,12.765501022338867,-1.1455267667770386,0.08816757798194885,-1.1462095975875854,2
351,-6.603743553161621,24.86827278137207,13.054116249084473,-1.3503996133804321,-0.10200294107198715,-1.0216234922409058,2
352,-8.461121559143066,-3.8527512550354004,12.212444305419922,-1.5239616632461548,-0.2864514887332916,-0.9043359756469727,2
353,-8.949851989746094,-28.085786819458008,9.033089637756348,-1.2495510578155518,-0.46704813838005066,-0.816950798034668,2
354,-9.647045135498047,-46.29631423950195,8.662449836730957,-0.7654282450675964,-0.5777440667152405,-0.7411878108978271,2
355,-11.201725006103516,-49.30857849121094,9.179817199707031,-0.2790941894054413,-0.7066181302070618,-0.6479560136795044,2
356,0.2961796820163727,-40.43302536010742,7.765244960784912,0.2584976255893707,-0.9038514494895935,-0.5917871594429016,2
357,24.933168411254883,-20.47458267211914,8.210185050964355,0.4773910939693451,-0.5943805575370789,-0.4572904706001282,2
358,41.78403854370117,0.966816782951355,8.709779739379883,0.5632319450378418,-0.2762642502784729,-0.36784595251083374,2
359,60.101409912109375,11.033921241760254,11.908117294311523,0.4056504964828491,0.04789595678448677,-0.26860377192497253,2
360,76.33031463623047,15.255912780761719,18.44796371459961,0.16432474553585052,0.9035672545433044,-0.06966172903776169,2
361,73.29794311523438,15.982932090759277,23.824214935302734,0.10516980290412903,1.505125641822815,0.10506251454353333,2
362,43.110294342041016,14.35184097290039,29.020404815673828,-0.12958502769470215,2.1115198135375977,0.39625346660614014,2
363,-5.931151866912842,14.001510620117188,33.13886642456055,-0.22076299786567688,2.1950416564941406,0.6922622323036194,2
364,-62.53180694580078,17.12388038635254,35.48143005371094,-0.3275817632675171,1.6641813516616821,1.0173760652542114,2
365,-89.30191802978516,20.097265243530273,35.706443786621094,-0.5411779284477234,0.9137236475944519,1.3890880346298218,2
366,-81.58475494384766,6.529782295227051,32.129920959472656,-0.7866238355636597,-0.07024562358856201,1.7323569059371948,2
367,-42.008487701416016,-12.901827812194824,27.191143035888672,-0.7109131217002869,-0.7408396005630493,2.0288124084472656,2
368,0.3325987160205841,-17.56882667541504,18.963485717773438,-0.4298163652420044,-0.7783836722373962,2.280223846435547,2
369,25.881175994873047,-12.20093822479248,11.635929107666016,-0.20122654736042023,-0.5147911906242371,2.444512128829956,2
370,37.30624771118164,-3.723491668701172,6.7813401222229,-0.37794050574302673,-0.12257266044616699,2.588643789291382,2
371,33.54853820800781,1.8435724973678589,4.614593029022217,-0.14430291950702667,0.19756503403186798,2.6011056900024414,2
372,16.28270721435547,5.550351619720459,3.715489387512207,-0.15195591747760773,0.3796637952327728,2.6277897357940674,2
373,5.541871547698975,8.455020904541016,3.144233226776123,-0.28656312823295593,0.6266695857048035,2.687645673751831,2
374,-6.315894603729248,8.684993743896484,7.070208549499512,-0.4510291814804077,0.666620671749115,2.751849889755249,2
375,-8.526954650878906,8.856159210205078,8.925719261169434,-0.5717638731002808,-0.02046540006995201,2.772547960281372,2
376,-6.106729984283447,11.150712013244629,6.5590434074401855,-0.7195755243301392,-0.141874760389328,2.8560264110565186,2
377,-1.0777126550674438,10.364765167236328,1.1866439580917358,-0.7610683441162109,-0.19453559815883636,2.8830881118774414,2
378,0.42213594913482666,3.4167490005493164,-2.0150415897369385,-0.872002899646759,-0.07569846510887146,2.9007630348205566,2
379,-2.215771198272705,-3.21319842338562,-4.007204532623291,-0.908267080783844,-0.10760804265737534,2.875154495239258,2
380,0.7264402508735657,-11.430235862731934,-5.552092552185059,-0.7878766655921936,-0.011867678724229336,2.8312628269195557,2
381,6.4461565017700195,-22.99867820739746,-2.405841588973999,-0.4909343421459198,0.148832768201828,2.7835135459899902,2
382,13.778328895568848,-31.843475341796875,0.1257035732269287,-0.3143559694290161,0.20157814025878906,2.7803025245666504,2
383,24.02385139465332,-29.09735107421875,3.559194326400757,0.1312151551246643,0.665176272392273,2.8113927841186523,2
384,33.700313568115234,-9.850468635559082,6.943513870239258,0.33252525329589844,0.2513497769832611,2.7726588249206543,2
385,39.13873291015625,14.082296371459961,6.484055042266846,0.2801818549633026,0.9191159605979919,2.884437084197998,2
386,31.571046829223633,26.825468063354492,5.478172302246094,-0.028222324326634407,1.1441134214401245,2.9538800716400146,2
387,10.077528953552246,28.099666595458984,2.840954065322876,-0.36505645513534546,1.5355937480926514,3.029188632965088,2
388,-8.429286003112793,23.59280014038086,-0.14265543222427368,-0.699703574180603,1.3636980056762695,3.040977954864502,2
389,-24.488380432128906,8.512974739074707,-0.047494493424892426,-0.8701261878013611,1.1243045330047607,3.0351662635803223,2
390,-30.094890594482422,-7.016113758087158,1.3224960565567017,-0.8453344106674194,0.7856086492538452,3.0316317081451416,2
391,-17.836950302124023,-26.815601348876953,2.1926968097686768,-0.5260258913040161,0.5126984715461731,3.0379581451416016,2
392,19.166505813598633,-42.096187591552734,3.979102611541748,-0.009983728639781475,0.543809711933136,3.0605812072753906,2
393,67.37604522705078,-42.13954162597656,5.231081962585449,0.3700807988643646,1.3904839754104614,3.1461548805236816,2
394,98.50996398925781,-14.503379821777344,3.813131093978882,0.6718026399612427,1.8868693113327026,3.160911798477173,2
395,101.92053985595703,21.740516662597656,-0.9617937207221985,0.5793977379798889,2.8879973888397217,3.180694580078125,2
396,74.82740783691406,38.34697341918945,-5.957475662231445,0.15864858031272888,3.6363375186920166,3.1574230194091797,2
397,29.07069206237793,44.24243927001953,-8.427007675170898,-0.3236755430698395,4.22478723526001,3.1171114444732666,2
398,-5.395585060119629,34.175540924072266,-8.613572120666504,-0.7212589979171753,4.271717071533203,3.0579886436462402,2
399,-30.942724227905273,15.352002143859863,-6.850081443786621,-1.1227082014083862,4.015720844268799,2.9803202152252197,2
400,-52.349605560302734,-6.101131916046143,-3.5384371280670166,-1.0821692943572998,3.468273401260376,2.934936285018921,2
401,-66.28175354003906,-26.240215301513672,-0.3911767601966858,-0.7898796796798706,2.8332388401031494,2.928699254989624,2
402,-70.82923126220703,-44.325294494628906,2.504385232925415,-0.31097856163978577,1.8913207054138184,2.9326772689819336,2
403,-58.32078170776367,-47.54637908935547,1.0844788551330566,-0.11417075246572495,1.2588711977005005,2.8819127082824707,2
404,-38.10631561279297,-39.26057052612305,-0.9806537628173828,0.6948378682136536,0.9552992582321167,2.976741313934326,2
405,-3.6466989517211914,-23.367765426635742,-5.7728271484375,1.0663074254989624,0.5852200984954834,2.941305637359619,2
406,44.420562744140625,3.112121343612671,-6.315089702606201,1.1602176427841187,1.0295722484588623,2.875743865966797,2
407,81.20171356201172,21.894838333129883,-2.7389066219329834,0.7899906635284424,1.6679881811141968,2.7843050956726074,2
408,93.29450988769531,25.04047393798828,-3.5324294567108154,0.5407798290252686,2.483933687210083,2.763185977935791,2
409,90.65107727050781,18.132230758666992,-2.8336217403411865,0.3345603048801422,3.098238229751587,2.7442736625671387,2
410,74.8969497680664,1.2873872518539429,1.6101739406585693,0.24495626986026764,4.150854110717773,2.742929220199585,2
411,44.26666259765625,-18.771690368652344,6.081523418426514,0.32811272144317627,4.473696231842041,2.7809526920318604,2
412,7.260450839996338,-35.19766616821289,9.422460556030273,0.7668414115905762,4.953759670257568,2.861642599105835,2
413,-23.336763381958008,-38.68266296386719,9.928970336914062,1.1104477643966675,4.717291355133057,2.9254634380340576,2
414,-55.03872299194336,-29.08786964416504,9.23579216003418,1.534989356994629,4.185856819152832,3.0164237022399902,2
415,-70.12274932861328,-7.164863109588623,8.432044982910156,1.7011970281600952,3.4739482402801514,3.083707571029663,2
416,-68.26715087890625,25.4971866607666,6.3267107009887695,1.428934931755066,2.5173227787017822,3.1115801334381104,2
417,-44.26728057861328,59.26314926147461,4.7280073165893555,1.1367430686950684,2.2501602172851562,3.1693384647369385,2
418,-15.09708309173584,80.87549591064453,3.964385986328125,0.11357982456684113,1.9275155067443848,3.1348063945770264,2
419,-0.28180131316185,80.84152221679688,4.1844706535339355,-0.6272588968276978,1.8938405513763428,3.2180230617523193,2
420,16.67628288269043,67.09721374511719,4.420974254608154,-1.4750165939331055,2.1181609630584717,3.253059148788452,2
421,20.65311050415039,46.4745979309082,5.7308669090271,-1.6748543977737427,2.348203420639038,3.4237165451049805,2
422,24.11238670349121,25.392677307128906,4.894001483917236,-2.2689757347106934,2.5582499504089355,3.4486730098724365,2
423,27.2757568359375,3.9872634410858154,3.4873790740966797,-2.392056941986084,2.897446870803833,3.5192861557006836,2
424,18.697452545166016,-19.97430419921875,-0.05585388466715813,-2.250333786010742,3.336101770401001,3.5684099197387695,2
425,1.2419421672821045,-42.75384521484375,-3.3778257369995117,-1.7995705604553223,3.3845255374908447,3.5674662590026855,2
426,-21.7701358795166,-46.175872802734375,-4.880717754364014,-1.0552927255630493,3.1700406074523926,3.553252935409546,2
427,-40.255699157714844,-34.54616165161133,-11.211775779724121,-1.0537269115447998,2.6911258697509766,3.3455235958099365,2
428,-57.300968170166016,-11.415664672851562,-16.840625762939453,-0.5874141454696655,2.0674824714660645,3.2260918617248535,2
429,-43.078086853027344,4.986605167388916,-17.71914291381836,-0.593654453754425,1.5342646837234497,3.0377020835876465,2
430,-15.535776138305664,20.52963638305664,-17.75792121887207,-0.6775943636894226,1.530887246131897,2.9125776290893555,2
431,1.502542495727539,26.192615509033203,-18.069826126098633,-0.994269073009491,1.4992115497589111,2.72845458984375,2
432,14.271353721618652,36.09204864501953,-15.507227897644043,-1.1239267587661743,1.4208630323410034,2.5711259841918945,2
433,22.679275512695312,35.63463592529297,-15.80063247680664,-1.737897515296936,1.7420809268951416,2.4084458351135254,2
434,20.784957885742188,26.323959350585938,-17.419727325439453,-2.2233738899230957,2.0449624061584473,2.242763042449951,2
435,6.689157485961914,18.47792625427246,-17.30025863647461,-2.5309274196624756,1.8384253978729248,2.0104832649230957,2
436,-7.042735576629639,9.019268035888672,-16.93079948425293,-2.648691415786743,2.074598550796509,1.8881288766860962,2
437,-19.96190643310547,-4.322657108306885,-13.703055381774902,-2.382430076599121,2.059540033340454,1.7855640649795532,2
438,-24.76177406311035,-24.624221801757812,-9.693327903747559,-2.493618965148926,1.6503641605377197,1.5939195156097412,2
439,-15.332850456237793,-32.81185531616211,-5.901819705963135,-1.9752267599105835,1.3006168603897095,1.496278166770935,2
440,0.42270612716674805,-31.898611068725586,-2.6097936630249023,-1.4936344623565674,1.3116191625595093,1.4806344509124756,2
441,9.136109352111816,-22.99138069152832,1.2703758478164673,-1.028647541999817,1.4095070362091064,1.4892722368240356,2
442,13.176411628723145,-13.707677841186523,0.5707570314407349,-0.7295122146606445,1.5002080202102661,1.5014287233352661,2
443,16.441465377807617,-3.061514139175415,-3.2399039268493652,-1.2085421085357666,1.9781312942504883,1.5353114604949951,2
444,18.786977767944336,4.971195220947266,-4.77604341506958,-0.13346344232559204,1.9250385761260986,1.4917945861816406,2
445,25.304407119750977,19.086856842041016,-3.9244301319122314,-0.8223247528076172,2.7418556213378906,1.5486129522323608,2
446,28.341808319091797,48.795433044433594,-8.112459182739258,-1.4214956760406494,2.221961736679077,1.3447833061218262,2
447,11.84082317352295,64.76058959960938,-13.046499252319336,-2.410060405731201,3.6923270225524902,1.4952607154846191,2
448,-16.1270694732666,66.50749206542969,-19.54763412475586,-2.84993577003479,4.354457378387451,1.5350062847137451,2
449,-54.761783599853516,65.43119049072266,-24.241865158081055,-3.705047369003296,3.843449354171753,1.3127691745758057,2
450,-100.37690734863281,52.44112777709961,-25.263607025146484,-4.370816230773926,2.7800567150115967,1.0170949697494507,2
451,-142.63914489746094,16.321420669555664,-25.067319869995117,-4.476254940032959,0.9316380620002747,0.6375355124473572,2
452,-159.6744384765625,-17.11272430419922,-24.116968154907227,-4.307518005371094,-0.48610740900039673,0.44793614745140076,2
453,-159.0020751953125,-42.04103469848633,-24.161890029907227,-3.859250783920288,-2.892186164855957,-0.022603169083595276,2
454,-132.28390502929688,-65.03739166259766,-23.10961151123047,-3.27186918258667,-3.929734945297241,-0.06692348420619965,2
455,-89.71406555175781,-90.09274291992188,-17.834531784057617,-2.020308256149292,-5.093334197998047,-0.20115499198436737,2
456,-36.98554992675781,-104.01461791992188,-13.761631965637207,-1.1631953716278076,-5.711256980895996,-0.247334823012352,2
457,21.113536834716797,-84.36320495605469,-8.918798446655273,0.014158239588141441,-5.696775436401367,-0.2425938993692398,2
458,73.69220733642578,-35.58498001098633,-2.996337890625,0.597314715385437,-5.17525577545166,-0.21590334177017212,2
459,91.56317901611328,11.405618667602539,-4.373486518859863,0.7261052131652832,-4.011817455291748,-0.14732131361961365,2
460,80.24838256835938,58.88688659667969,-6.989862442016602,0.07289459556341171,-3.724148988723755,-0.2530970871448517,2
461,53.50406265258789,92.29788970947266,-13.025152206420898,-1.0090192556381226,-2.8153371810913086,-0.21599990129470825,2
462,22.984424591064453,103.93790435791016,-15.563078880310059,-2.251241683959961,-2.7373220920562744,-0.35752132534980774,2
463,-1.4272955656051636,92.05036163330078,-11.626084327697754,-3.2127034664154053,-3.0357375144958496,-0.6544978022575378,2
464,-11.00866985321045,59.28681945800781,-4.324591636657715,-3.759063482284546,-3.188241481781006,-0.9144359230995178,2
465,-2.1107633113861084,15.84528636932373,6.122288227081299,-3.9407927989959717,-3.2933387756347656,-1.0408122539520264,2
466,17.904747009277344,-12.4393949508667,13.536749839782715,-3.779545545578003,-3.099714756011963,-1.0071038007736206,2
467,38.278377532958984,-25.735942840576172,20.12848472595215,-3.469273328781128,-2.8785243034362793,-0.9137330651283264,2
468,59.591224670410156,-30.937320709228516,25.019607543945312,-3.0147321224212646,-2.0469303131103516,-0.6767576336860657,2
469,72.50485229492188,-26.473575592041016,26.242467880249023,-2.9845130443573,-1.4844675064086914,-0.30386611819267273,2
470,68.95076751708984,-21.316665649414062,25.866716384887695,-2.6305460929870605,-0.6296899318695068,-0.06609657406806946,2
471,58.03995895385742,-19.16473388671875,24.208412170410156,-2.5491273403167725,0.1431446224451065,0.28947699069976807,2
472,46.857120513916016,-14.600666046142578,22.74727439880371,-2.249577522277832,0.49236300587654114,0.4068646728992462,2
473,37.6479377746582,-11.130854606628418,23.00343132019043,-2.12703800201416,0.7560566067695618,0.5897044539451599,2
474,24.01561737060547,-10.908666610717773,23.737756729125977,-2.131187915802002,1.146838903427124,0.8968890309333801,2
475,13.454057693481445,-13.400045394897461,23.896921157836914,-1.9348171949386597,1.1783158779144287,1.0506727695465088,2
476,5.591429233551025,-20.225093841552734,24.893043518066406,-1.5647015571594238,1.3702270984649658,1.2334084510803223,2
477,3.894925117492676,-14.304605484008789,25.313899993896484,-1.3541258573532104,1.3081765174865723,1.4460517168045044,2
478,11.046821594238281,0.7840105295181274,25.321258544921875,-1.3439000844955444,1.1719250679016113,1.6693463325500488,2
479,20.113040924072266,22.599794387817383,26.11372947692871,-1.641274094581604,1.5112671852111816,2.037775754928589,2
480,24.50248146057129,39.553951263427734,26.406530380249023,-2.0228471755981445,1.7952344417572021,2.3466591835021973,2
481,22.598169326782227,48.58110046386719,26.9498291015625,-2.5387353897094727,2.229048013687134,2.6964850425720215,2
482,18.544084548950195,47.109642028808594,25.78021812438965,-3.101896286010742,2.596835136413574,3.0368716716766357,2
483,13.965189933776855,35.48812484741211,24.719478607177734,-3.5247392654418945,2.8746933937072754,3.3398518562316895,2
484,12.128564834594727,16.326257705688477,22.996679306030273,-3.905998945236206,3.0891549587249756,3.6304895877838135,2
485,11.249377250671387,-10.597010612487793,21.42564582824707,-3.724182605743408,2.6815412044525146,3.683532238006592,2
486,7.008568286895752,-36.84486389160156,21.67578887939453,-3.2528934478759766,3.087604522705078,3.9565417766571045,2
487,3.80997896194458,-54.972068786621094,21.0904541015625,-2.652012348175049,2.937316417694092,4.082011699676514,2
488,2.0503218173980713,-63.45474624633789,20.830259323120117,-2.2249438762664795,3.0010499954223633,4.27007532119751,2
489,-10.558749198913574,-71.98018646240234,16.673694610595703,-1.4143375158309937,2.937870502471924,4.4186906814575195,2
490,-30.689517974853516,-73.52161407470703,11.210124015808105,-0.8254038095474243,2.576681137084961,4.47503662109375,2
491,-52.345699310302734,-65.41261291503906,3.7047367095947266,-0.060896143317222595,2.1562609672546387,4.5269551277160645,2
492,-60.454063415527344,-51.004554748535156,-4.034768581390381,0.49970728158950806,1.2689194679260254,4.4387969970703125,2
493,-53.878814697265625,-28.740861892700195,-9.759140968322754,0.97355055809021,0.624569296836853,4.361940860748291,2
494,-37.82955551147461,-8.376498222351074,-13.870551109313965,1.073463797569275,0.345434308052063,4.256762981414795,2
495,-18.083110809326172,14.279400825500488,-19.182048797607422,1.050506353378296,-0.09012764692306519,4.078799247741699,2
496,-1.231432318687439,27.893842697143555,-22.965723037719727,0.713506281375885,0.23205815255641937,3.878222942352295,2
497,11.307591438293457,34.288330078125,-23.76798439025879,0.295202374458313,0.33616676926612854,3.634439468383789,2
498,18.628211975097656,35.63321304321289,-23.237287521362305,-0.01531399879604578,0.5846997499465942,3.4048495292663574,2
499,20.624370574951172,29.788190841674805,-24.584693908691406,-0.37513408064842224,0.9054045081138611,3.166796922683716,2
500,19.187883377075195,14.704169273376465,-24.3397274017334,-0.5541198253631592,1.121087908744812,2.9256393909454346,2
501,15.956562995910645,-15.829728126525879,-24.41062355041504,-0.5025776624679565,1.374810814857483,2.6823887825012207,2
502,13.24191665649414,-43.78407669067383,-22.490015029907227,-0.3140313923358917,1.4401768445968628,2.4362692832946777,2
503,9.751849174499512,-54.72410583496094,-20.10823631286621,0.5199059844017029,1.5888360738754272,2.2213950157165527,2
504,1.5153549909591675,-53.87779235839844,-17.295337677001953,0.8641917705535889,1.5637847185134888,2.0143051147460938,2
505,0.20331087708473206,-41.510005950927734,-16.326635360717773,1.5424377918243408,1.610428810119629,1.8353242874145508,2
506,-11.83601188659668,-29.33090591430664,-10.458597183227539,1.842521071434021,1.657036304473877,1.6684067249298096,2
507,-36.80635452270508,-13.790538787841797,-6.515671253204346,2.2137339115142822,1.2495850324630737,1.6226328611373901,2
508,-50.641639709472656,3.893685817718506,-1.5636107921600342,1.9976972341537476,0.8460957407951355,1.5448163747787476,2
509,-57.960845947265625,15.179215431213379,0.12345444411039352,1.8100512027740479,-0.02317344769835472,1.611958622932434,2
510,-55.48820877075195,41.57130432128906,-1.6455118656158447,1.4493755102157593,-0.3990615904331207,1.5410270690917969,2
511,-43.496463775634766,61.07977294921875,-5.216928482055664,0.750157356262207,-0.8850750923156738,1.4810147285461426,2
512,-20.64850425720215,64.52896881103516,-9.530548095703125,0.1816229522228241,-1.2893357276916504,1.425736427307129,2
513,12.128409385681152,54.116058349609375,-15.663528442382812,-0.5131381154060364,-1.1540467739105225,1.2226744890213013,2
514,47.62465286254883,37.87034606933594,-20.72831153869629,-0.9897447228431702,-0.8815243244171143,1.0358250141143799,2
515,63.52908706665039,0.8197001814842224,-22.239953994750977,-1.0221573114395142,0.048781003803014755,0.7101454138755798,2
516,50.55107116699219,-39.67643737792969,-19.242525100708008,-0.6849057078361511,0.5242000222206116,0.5224384069442749,2
517,16.088376998901367,-67.74534606933594,-16.693157196044922,0.0734335333108902,0.8726778030395508,0.3291705846786499,2
518,-30.870468139648438,-71.06570434570312,-15.56021785736084,0.8183943033218384,0.5620877742767334,0.22534038126468658,2
519,-70.1871109008789,-57.78239059448242,-15.220390319824219,1.6247286796569824,0.23955757915973663,0.018845750018954277,2
520,-78.55497741699219,-31.922225952148438,-14.31218147277832,1.7867182493209839,-0.3725304901599884,-0.16271266341209412,2
521,-49.191734313964844,-8.229936599731445,-12.045992851257324,2.0899481773376465,-1.1471227407455444,-0.2748927175998688,2
522,3.7430503368377686,-4.773845672607422,-5.576916694641113,2.138113021850586,-1.1664577722549438,-0.43486708402633667,2
523,50.43435287475586,0.30749648809432983,2.166287899017334,2.1875338554382324,-0.9421777725219727,-0.44830745458602905,2
524,65.87571716308594,9.851658821105957,10.150197982788086,2.1215481758117676,0.024429386481642723,-0.5145471096038818,2
525,38.78893280029297,27.77949333190918,18.48599624633789,1.8880257606506348,0.47111690044403076,-0.32108402252197266,2
526,-16.339344024658203,41.72743606567383,20.333322525024414,1.3707813024520874,0.4637680649757385,-0.04762863740324974,2
527,-66.67294311523438,42.212310791015625,20.540868759155273,0.9179535508155823,-0.06160115823149681,0.20914703607559204,2
528,-98.98807525634766,47.68797302246094,19.2901668548584,0.32971566915512085,-1.4759548902511597,0.6374114751815796,2
529,-98.60550689697266,54.98176193237305,17.450176239013672,-0.10759972035884857,-2.060120105743408,0.6474583745002747,2
530,-83.12659454345703,66.94013977050781,17.983064651489258,-0.8958098888397217,-3.17669415473938,0.8797780275344849,2
531,-59.92003631591797,57.01996994018555,17.437885284423828,-1.4864037036895752,-3.574864625930786,0.9060752391815186,2
532,-31.891220092773438,27.72486686706543,15.401382446289062,-1.939784288406372,-4.078037261962891,1.0522279739379883,2
533,-7.074365615844727,-2.6843082904815674,8.53319263458252,-1.9756581783294678,-4.306768417358398,1.143629789352417,2
534,15.937143325805664,-27.599163055419922,5.130521297454834,-1.6480722427368164,-4.20263671875,1.145443081855774,2
535,33.13752365112305,-55.951881408691406,6.795243740081787,-1.0988359451293945,-3.8263542652130127,1.149308681488037,2
536,46.99440002441406,-68.38430786132812,9.748771667480469,-0.1941436380147934,-3.3030102252960205,1.1477073431015015,2
537,62.689125061035156,-61.2953987121582,12.701202392578125,0.07012470811605453,-2.8891491889953613,1.4541175365447998,2
538,69.6894760131836,-37.42958450317383,12.809468269348145,0.6838874816894531,-2.0401360988616943,1.5470030307769775,2
539,60.09975814819336,-7.029952049255371,13.57435131072998,1.0331319570541382,-1.565997838973999,1.689971685409546,2
540,40.191993713378906,28.562101364135742,9.989864349365234,0.757388710975647,-1.134570598602295,1.918738603591919,2
541,18.514183044433594,42.82172775268555,3.146540880203247,0.31107398867607117,-1.0234181880950928,2.065609931945801,2
542,-6.5940680503845215,48.04299545288086,-0.672716498374939,-0.2912445664405823,-1.0038447380065918,2.1420645713806152,2
543,-22.311614990234375,42.69000244140625,-0.18355688452720642,-0.6567665934562683,-1.2587772607803345,2.1035513877868652,2
544,-23.108301162719727,30.577526092529297,1.0798476934432983,-1.1090936660766602,-1.5666676759719849,2.1288928985595703,2
545,-16.598718643188477,23.310749053955078,3.390382766723633,-1.3757903575897217,-1.3058186769485474,2.078848123550415,2
546,-1.5732572078704834,11.203047752380371,3.909080743789673,-1.4514224529266357,-1.7680922746658325,2.101489782333374,2
547,11.766997337341309,-15.763988494873047,2.156724452972412,-1.641073226928711,-1.7462431192398071,2.188520669937134,2
548,24.082555770874023,-46.848907470703125,0.06595484167337418,-1.1154594421386719,-1.4256280660629272,2.1105740070343018,2
549,26.018245697021484,-58.61296844482422,2.249988079071045,-0.34076276421546936,-1.2825307846069336,2.051132917404175,2
550,15.857516288757324,-45.62667465209961,6.045295715332031,0.1602749228477478,-1.0482033491134644,2.1161398887634277,2
551,4.923155784606934,-19.50110626220703,6.042160987854004,0.712030827999115,-0.779029905796051,2.1192128658294678,2
552,-5.331286430358887,12.727397918701172,4.9077043533325195,0.7536563277244568,-0.7111346125602722,2.1866695880889893,2
553,-6.033310890197754,40.224464416503906,2.8755619525909424,-0.3011898696422577,-0.8212482333183289,2.4662117958068848,2
554,-0.7355832457542419,50.18768310546875,2.4977033138275146,-0.8007684946060181,-0.8738073706626892,2.4979329109191895,2
555,12.3858642578125,45.53628158569336,3.910369873046875,-1.4921132326126099,-0.7847759127616882,2.568288803100586,2
556,26.440656661987305,19.946063995361328,1.9029327630996704,-1.7826142311096191,-0.7411301732063293,2.5804975032806396,2
557,27.53081512451172,-27.619245529174805,-0.4671712815761566,-1.6186453104019165,-0.3396886885166168,2.5385491847991943,2
558,27.98975372314453,-65.30094909667969,2.27482533454895,-0.8546414375305176,0.05915268883109093,2.4638333320617676,2
559,25.381301879882812,-82.05502319335938,5.791173458099365,0.21028369665145874,0.43075278401374817,2.4264843463897705,2
560,28.48830223083496,-82.85670471191406,7.180329322814941,1.0108811855316162,0.2557104825973511,2.4986419677734375,2
561,30.540021896362305,-58.633453369140625,6.2209625244140625,1.9359922409057617,0.6396027207374573,2.5325310230255127,2
562,30.60468292236328,-12.874075889587402,3.9377148151397705,2.055877208709717,0.915289044380188,2.6313183307647705,2
563,40.315242767333984,42.2362060546875,2.2862298488616943,1.8199855089187622,1.4544399976730347,2.678464412689209,2
564,44.20823669433594,73.52450561523438,0.20904597640037537,1.0484058856964111,1.7909696102142334,2.7391481399536133,2
565,40.74030303955078,71.43898010253906,-0.1470419317483902,0.1398610919713974,2.369364023208618,2.766065835952759,2
566,28.192058563232422,52.829444885253906,-1.6117709875106812,-0.3382003605365753,2.3261022567749023,2.8216140270233154,2
567,7.781521320343018,28.909664154052734,-4.372811794281006,-0.7320182919502258,2.5516104698181152,2.8093504905700684,2
568,-12.248124122619629,7.022172451019287,-6.566175937652588,-0.6693137884140015,2.499315023422241,2.771658420562744,2
569,-31.06159782409668,-20.877714157104492,-7.984805107116699,-0.5814772248268127,2.1233370304107666,2.716113328933716,2
570,-40.82634353637695,-47.69945526123047,-10.984506607055664,-0.017216674983501434,1.8303431272506714,2.6249544620513916,2
571,-37.40105438232422,-68.66590118408203,-13.832510948181152,0.7665858268737793,1.2522698640823364,2.520820140838623,2
572,-27.340810775756836,-76.43665313720703,-15.07270336151123,1.2086620330810547,1.0646613836288452,2.3149032592773438,2
573,-19.392610549926758,-65.4122543334961,-15.620168685913086,2.1683638095855713,0.7065609097480774,2.194925546646118,2
574,-15.245270729064941,-36.16407012939453,-16.892988204956055,2.738814115524292,0.45482009649276733,2.04388427734375,2
575,-11.4834566116333,7.25126314163208,-19.492883682250977,2.734327793121338,0.5891208648681641,1.7983269691467285,2
576,5.820817947387695,49.51025390625,-20.113000869750977,2.4051353931427,0.7249939441680908,1.560516357421875,2
577,36.695499420166016,83.08526611328125,-21.697494506835938,1.4256376028060913,0.9861491918563843,1.3038582801818848,2
578,55.929664611816406,95.60736083984375,-24.964990615844727,0.39455848932266235,1.5249396562576294,1.0639785528182983,2
579,49.97995376586914,79.85077667236328,-28.836048126220703,-0.7733736038208008,2.123514413833618,0.7781819105148315,2
580,31.4384822845459,49.154022216796875,-30.837890625,-1.478645920753479,2.5380859375,0.49621668457984924,2
581,6.974647045135498,13.870140075683594,-29.402925491333008,-1.3708686828613281,2.8027901649475098,0.26987046003341675,2
582,-16.030147552490234,-16.93514633178711,-26.307313919067383,-1.5142841339111328,2.5732133388519287,-0.014208381995558739,2
583,-34.08592987060547,-38.79393005371094,-22.99481201171875,-1.0502732992172241,2.2444746494293213,-0.22724808752536774,2
584,-44.74694061279297,-46.560489654541016,-20.135326385498047,-0.45349758863449097,1.608786702156067,-0.4004204571247101,2
585,-48.79689407348633,-40.369667053222656,-17.04105567932129,0.19300761818885803,1.2735153436660767,-0.5611064434051514,2
586,-44.63405227661133,-26.252317428588867,-13.735883712768555,0.6512473225593567,0.6900103688240051,-0.6877948045730591,2
587,-37.57437515258789,-9.861572265625,-8.953723907470703,0.7415981292724609,0.1616295576095581,-0.8211793899536133,2
588,-26.731447219848633,8.707207679748535,-5.370589733123779,0.7920252680778503,-0.29655560851097107,-0.8796542882919312,2
589,-10.811872482299805,20.07782745361328,-1.0487902164459229,0.5662936568260193,-0.5744746327400208,-0.926788866519928,2
590,11.954169273376465,26.11458396911621,2.8058056831359863,0.2145269513130188,-0.26272550225257874,-0.9744569659233093,2
591,31.804279327392578,32.663673400878906,4.208759784698486,-0.21384085714817047,0.48169222474098206,-1.008344292640686,2
592,32.95466232299805,28.98954963684082,2.726228713989258,-0.6719580292701721,1.0243275165557861,-1.0035868883132935,2
593,23.929100036621094,13.58591365814209,0.42788979411125183,-0.7971063852310181,1.1980663537979126,-0.9593929648399353,2
594,16.524744033813477,-9.022228240966797,3.379725456237793,-0.5776533484458923,1.3963556289672852,-0.905950665473938,2
595,11.165732383728027,-25.50563621520996,8.896879196166992,-0.42366930842399597,1.5706266164779663,-0.8577398657798767,2
596,-3.5479700565338135,-21.27817153930664,13.378067016601562,-0.005887721199542284,1.5698213577270508,-0.7252668142318726,2
597,-26.597301483154297,1.5846418142318726,13.577234268188477,-0.03330528736114502,1.2271572351455688,-0.6057309508323669,2
598,-44.704769134521484,20.199888229370117,11.41499137878418,-0.1858229637145996,0.8568426966667175,-0.4861558675765991,2
599,-49.22475051879883,26.394245147705078,13.950474739074707,-0.46590784192085266,0.38647469878196716,-0.3678549826145172,2
600,-48.501182556152344,24.88581657409668,16.39524269104004,-0.8236345648765564,-0.3963812291622162,-0.22716602683067322,2
601,-42.38218307495117,26.75257110595703,13.977681159973145,-1.016223669052124,-0.6467569470405579,-0.06556721776723862,2
602,-22.042875289916992,29.336204528808594,14.299079895019531,-1.4197725057601929,-0.8306310176849365,0.05152885988354683,2
603,2.8992671966552734,21.578466415405273,16.285009384155273,-1.7017675638198853,-0.9374210834503174,0.2009059190750122,2
604,20.179548263549805,12.45671558380127,17.22396469116211,-1.823726773262024,-0.7364267110824585,0.3766644597053528,2
605,24.424461364746094,3.828389883041382,16.9182071685791,-1.8728210926055908,-0.3951564431190491,0.5584043264389038,2
606,20.53427505493164,-10.628252983093262,18.710285186767578,-1.7343552112579346,-0.05638505518436432,0.7530027627944946,2
607,13.254376411437988,-28.205846786499023,17.342634201049805,-1.4627063274383545,0.07962387800216675,0.9380629062652588,2
608,13.53484058380127,-39.450992584228516,14.150959968566895,-1.0235388278961182,0.023242101073265076,1.0789533853530884,2
609,7.681866645812988,-38.823883056640625,12.696307182312012,-0.3599020838737488,0.16444243490695953,1.2210352420806885,2
610,-2.060652732849121,-26.007022857666016,12.027085304260254,-0.14225858449935913,0.176370769739151,1.3409855365753174,2
611,-19.828895568847656,-10.227693557739258,11.661795616149902,-0.45393627882003784,0.16786478459835052,1.4661657810211182,2
612,-41.21661376953125,15.283620834350586,9.429483413696289,-0.4193195104598999,-0.11786439269781113,1.5775519609451294,2
613,-56.05966567993164,36.2088737487793,7.150650978088379,-0.7118822932243347,-0.9381924867630005,1.6196130514144897,2
614,-48.03047561645508,38.796077728271484,9.204385757446289,-1.1949691772460938,-1.426957130432129,1.6974821090698242,2
615,-29.277252197265625,35.80153274536133,9.695747375488281,-1.5014314651489258,-1.6422770023345947,1.8054044246673584,2
616,-15.999104499816895,23.451860427856445,8.691079139709473,-1.8894035816192627,-1.8129737377166748,1.8981804847717285,2
617,-1.7759615182876587,-0.6753631234169006,9.730573654174805,-1.8904950618743896,-1.9230680465698242,1.9734861850738525,2
618,14.85587215423584,-23.293718338012695,9.199596405029297,-1.7759357690811157,-1.83840811252594,2.0834810733795166,2
619,20.611846923828125,-33.59303283691406,6.943345069885254,-1.33113694190979,-1.545296549797058,2.171649932861328,2
620,17.145244598388672,-38.41837692260742,5.862092971801758,-0.7868934869766235,-1.5168050527572632,2.198277473449707,2
621,21.590852737426758,-37.49665069580078,3.4616289138793945,-0.37603315711021423,-1.060228705406189,2.2922158241271973,2
622,19.37262725830078,-28.99123191833496,2.487793207168579,-0.23703143000602722,-0.9947859644889832,2.3383402824401855,2
623,6.781313896179199,-13.486973762512207,1.4921505451202393,0.05035332217812538,-0.944759726524353,2.338392972946167,2
624,-7.692192077636719,-2.334794044494629,-0.1978657841682434,-0.017464295029640198,-1.0156440734863281,2.36802339553833,2
625,0.574354887008667,17.10793685913086,-1.8995219469070435,-0.040903471410274506,-1.1241759061813354,2.344978094100952,2
626,21.651248931884766,34.923038482666016,-3.894381284713745,-0.4196995794773102,-0.9505350589752197,2.3429384231567383,2
627,42.16304397583008,30.75031852722168,-7.144676685333252,-0.8936067223548889,-0.4272878170013428,2.3304646015167236,2
628,50.062225341796875,10.191352844238281,-4.2653889656066895,-1.040071725845337,-0.10506509244441986,2.235452890396118,2
629,36.59105682373047,-9.422985076904297,-0.3640459179878235,-0.9731004238128662,0.4623880982398987,2.2089431285858154,2
630,4.889225482940674,-15.026429176330566,1.9646910429000854,-1.2821327447891235,0.5443606376647949,2.2813241481781006,2
631,-19.965848922729492,-17.017131805419922,2.901026487350464,-0.9473171830177307,0.28315719962120056,2.250758171081543,2
632,-28.661497116088867,-21.095726013183594,5.857961177825928,-0.7939626574516296,-0.012535855174064636,2.2912869453430176,2
633,-21.71930503845215,-26.93792152404785,9.849016189575195,-0.3538871705532074,-0.45433908700942993,2.3200180530548096,2
634,-4.0876078605651855,-33.993370056152344,13.116743087768555,-0.373879611492157,-0.4336118996143341,2.4953856468200684,2
635,13.429256439208984,-36.13590621948242,14.895657539367676,0.2158460170030594,-0.3421763479709625,2.6168060302734375,2
636,22.70330810546875,-29.56851577758789,16.346826553344727,0.6004512906074524,-0.10384640842676163,2.7751693725585938,2
637,27.31304168701172,-18.243343353271484,17.563037872314453,0.8185049891471863,0.09198857843875885,2.945586681365967,2
638,27.373504638671875,-5.888844013214111,17.519725799560547,0.7740995287895203,0.2514890432357788,3.135503053665161,2
639,18.709863662719727,5.091973304748535,15.745950698852539,0.7512941956520081,0.6319292783737183,3.313253879547119,2
640,7.194543361663818,13.386702537536621,13.178701400756836,0.6583139896392822,0.7510573863983154,3.4622769355773926,2
641,-5.9790191650390625,19.50627326965332,10.517969131469727,0.5242024064064026,0.7455578446388245,3.585150718688965,2
642,-20.79051399230957,18.78435516357422,6.992556095123291,0.27632683515548706,0.5711843967437744,3.6813580989837646,2
643,-27.853652954101562,16.132978439331055,5.7730937004089355,0.11667945981025696,0.21732892096042633,3.7473857402801514,2
644,-32.89884567260742,8.140881538391113,3.55997633934021,0.05803200602531433,-0.07133812457323074,3.792438507080078,2
645,-33.52910232543945,-2.6167173385620117,2.7321043014526367,0.06085280701518059,-0.5558838248252869,3.829822540283203,2
646,-28.516637802124023,-18.753049850463867,0.6032893657684326,0.3832392692565918,-0.9837473034858704,3.850135564804077,2
647,-19.73560905456543,-32.63153839111328,-1.1531740427017212,0.8519716262817383,-1.1451489925384521,3.840454578399658,2
648,-3.8522870540618896,-36.65278625488281,-5.090629577636719,0.751448392868042,-1.3300023078918457,3.837205171585083,2
649,22.635066986083984,-21.636137008666992,-9.936332702636719,1.00486159324646,-1.2096537351608276,3.773346424102783,2
650,41.84002685546875,-2.606337070465088,-15.752699851989746,1.3069254159927368,-0.631213366985321,3.6201870441436768,2
651,41.004676818847656,7.918866157531738,-20.218950271606445,1.2273118495941162,-0.1327940672636032,3.445040464401245,2
652,29.728591918945312,13.050105094909668,-24.078649520874023,1.151268482208252,0.23903243243694305,3.224095344543457,2
653,16.110279083251953,17.887632369995117,-24.754926681518555,1.0117100477218628,0.5576602816581726,2.9725074768066406,2
654,2.506331443786621,22.743932723999023,-24.011260986328125,0.78658127784729,0.6266567707061768,2.734267234802246,2
655,-5.2140350341796875,16.62308692932129,-19.96881675720215,0.19576121866703033,0.2238941490650177,2.588381052017212,2
656,-6.937067031860352,-7.004345417022705,-18.023061752319336,0.22040341794490814,0.1335713267326355,2.394939661026001,2
657,-1.0726863145828247,-41.06803894042969,-19.382768630981445,0.6804592609405518,0.09312587231397629,2.198910713195801,2
658,3.0816867351531982,-61.4781379699707,-22.682968139648438,1.2928526401519775,0.2910901606082916,1.956978440284729,2
659,4.1328253746032715,-66.55333709716797,-24.545726776123047,1.8281325101852417,0.3688722550868988,1.71280038356781,2
660,1.343607783317566,-46.2360725402832,-23.817548751831055,2.5369014739990234,0.4425676763057709,1.4556224346160889,2
661,-4.915275573730469,-9.117764472961426,-22.674715042114258,3.027064323425293,0.43442919850349426,1.2181705236434937,2
662,-10.814326286315918,28.584264755249023,-20.82678985595703,2.8635551929473877,0.31646665930747986,1.0087288618087769,2
663,-6.4581098556518555,52.06324005126953,-18.302566528320312,2.260761022567749,0.17554505169391632,0.8182079792022705,2
664,5.344363212585449,59.24578094482422,-16.23993492126465,1.4114742279052734,0.3336254954338074,0.5927459597587585,2
665,27.90938949584961,60.328216552734375,-14.565978050231934,0.9786450266838074,0.5385435819625854,0.42994600534439087,2
666,58.67258834838867,55.559776306152344,-14.074898719787598,0.2175983488559723,1.165947437286377,0.22459790110588074,2
667,80.4289779663086,52.12771224975586,-15.352030754089355,-0.2662305533885956,1.9400758743286133,0.07326607406139374,2
668,79.59921264648438,29.514713287353516,-16.51268196105957,-0.8659208416938782,2.758470058441162,-0.07078605890274048,2
669,49.0626106262207,-7.184240341186523,-14.960147857666016,-0.9339854121208191,3.249124765396118,-0.17290812730789185,2
670,-0.2991139888763428,-32.659507751464844,-13.498740196228027,-0.5611441135406494,3.5634849071502686,-0.30580684542655945,2
671,-48.208656311035156,-51.30406951904297,-13.344833374023438,-0.05456647649407387,3.2903854846954346,-0.43384045362472534,2
672,-83.81929779052734,-57.78110885620117,-12.95237922668457,0.9398853182792664,2.453692674636841,-0.4809298813343048,2
673,-100.94925689697266,-53.726806640625,-13.23332691192627,1.186087965965271,1.4904249906539917,-0.6874067187309265,2
674,-97.16484069824219,-39.43979263305664,-12.388345718383789,1.8125771284103394,0.10625354945659637,-0.7373416423797607,2
675,-67.38715362548828,-10.984829902648926,-8.524627685546875,1.9351222515106201,-0.2780715227127075,-0.9629639983177185,2
676,-31.088533401489258,17.301374435424805,-3.1241912841796875,1.8864552974700928,-0.8035198450088501,-1.045441746711731,2
677,-2.033820867538452,36.46951675415039,-0.5771703720092773,1.6543031930923462,-1.0827490091323853,-1.0533759593963623,2
678,22.840755462646484,43.9561767578125,1.6919583082199097,1.0545015335083008,-0.8596770763397217,-1.1282711029052734,2
679,42.5023078918457,37.50442123413086,3.571316957473755,0.7063634991645813,-0.5373828411102295,-1.1018308401107788,2
680,49.267398834228516,34.68465042114258,4.276062965393066,0.19011469185352325,0.2231273651123047,-1.1417618989944458,2
681,46.41394805908203,34.110679626464844,6.4868059158325195,-0.21547065675258636,0.7694830298423767,-1.102798342704773,2
682,34.46151351928711,30.303455352783203,6.457042217254639,-0.42425936460494995,1.1853755712509155,-1.0163384675979614,2
683,9.22130012512207,25.578630447387695,5.330228805541992,-0.6583518385887146,1.4533240795135498,-0.9445778727531433,2
684,-28.212190628051758,8.658202171325684,5.703010559082031,-0.865604043006897,1.2798538208007812,-0.8696311116218567,2
685,-66.44747161865234,-12.824407577514648,4.735085964202881,-0.734241783618927,0.4144202768802643,-0.7616698741912842,2
686,-84.03025817871094,-28.502368927001953,5.623383045196533,-0.3720988929271698,-0.19242168962955475,-0.7052695155143738,2
687,-86.06034088134766,-51.040985107421875,5.813920974731445,0.07473482191562653,-1.4403917789459229,-0.608396053314209,2
688,-61.07594299316406,-69.46207427978516,3.6302154064178467,0.9621292948722839,-1.7411848306655884,-0.5400473475456238,2
689,-21.14211654663086,-70.40550994873047,4.589770793914795,1.848699688911438,-2.1028246879577637,-0.46702665090560913,2
690,16.647329330444336,-45.35179901123047,4.086697578430176,2.007164716720581,-1.9313844442367554,-0.44030502438545227,2
691,36.01852035522461,3.017357349395752,6.033785343170166,2.3061106204986572,-1.3933603763580322,-0.40888479351997375,2
692,38.773319244384766,43.227943420410156,7.8489155769348145,1.8797533512115479,-0.9429653286933899,-0.3467720150947571,2
693,26.09441375732422,65.49895477294922,8.294331550598145,1.0553194284439087,-0.6875983476638794,-0.25304847955703735,2
694,-0.9728845953941345,81.12245178222656,10.815016746520996,0.35354307293891907,-0.5480027198791504,-0.16585630178451538,2
695,-30.952341079711914,84.43802642822266,13.161449432373047,-0.8344315886497498,-0.9372584819793701,-0.010259972885251045,2
696,-50.56983184814453,74.0800552368164,15.321136474609375,-1.277685284614563,-1.0849583148956299,0.06783600151538849,2
697,-48.395225524902344,41.76762771606445,17.808311462402344,-2.007079839706421,-1.6089353561401367,0.2254459410905838,2
698,-29.36505699157715,-4.412014007568359,20.155044555664062,-2.0941569805145264,-2.2114343643188477,0.40850839018821716,2
699,-8.228824615478516,-38.77684783935547,19.477861404418945,-1.5757184028625488,-2.4426519870758057,0.5864768028259277,2
700,10.923248291015625,-53.76476287841797,18.96491050720215,-0.9938945770263672,-2.1676857471466064,0.7862750887870789,2
701,24.098102569580078,-52.3221435546875,19.4193058013916,-0.33412089943885803,-1.9732362031936646,0.9822434782981873,2
702,31.611604690551758,-39.07695007324219,19.271533966064453,0.40466898679733276,-1.6804115772247314,1.1488419771194458,2
703,35.93036651611328,-22.851675033569336,18.405988693237305,0.37023892998695374,-1.1463372707366943,1.4209290742874146,2
704,41.370059967041016,-9.42905044555664,16.62008285522461,0.41683539748191833,-0.8443251252174377,1.618518352508545,2
705,36.993770599365234,11.507621765136719,14.89043140411377,0.33478498458862305,-0.30022498965263367,1.8006870746612549,2
706,24.575246810913086,33.53514862060547,12.196011543273926,-0.00779384421184659,0.0682038962841034,1.9666777849197388,2
707,8.930758476257324,53.59035873413086,7.660758018493652,-0.6286702752113342,0.04184575751423836,2.099573850631714,2
708,-7.271543025970459,54.48374938964844,6.050242900848389,-1.0101444721221924,-0.032289713621139526,2.1300296783447266,2
709,-12.59506893157959,44.81599426269531,7.609957695007324,-1.82036292552948,-0.022582005709409714,2.256774663925171,2
710,-18.991857528686523,35.090965270996094,6.539769649505615,-2.135132312774658,-0.34027934074401855,2.299471616744995,2
711,-31.54170799255371,5.039093017578125,7.071443557739258,-2.329153537750244,-0.8442807197570801,2.337190628051758,2
712,-36.640533447265625,-21.743732452392578,5.956432819366455,-2.0161256790161133,-1.0758187770843506,2.3945670127868652,2
713,-25.66436767578125,-28.781784057617188,5.189819812774658,-1.599852442741394,-1.5514732599258423,2.4146833419799805,2
714,-5.761488437652588,-20.31939125061035,4.504560470581055,-1.089302897453308,-1.7303791046142578,2.4321630001068115,2
715,17.196990966796875,-11.66765308380127,6.059347629547119,-1.1629528999328613,-1.4341230392456055,2.5619964599609375,2
716,37.03767395019531,1.6038024425506592,7.253295421600342,-1.2530691623687744,-1.0370925664901733,2.6769895553588867,2
717,46.17319869995117,6.059375286102295,6.688272953033447,-1.3230104446411133,-0.6288398504257202,2.7442054748535156,2
718,38.097442626953125,16.568798065185547,5.85872745513916,-1.446579098701477,-0.09923063963651657,2.8287642002105713,2
719,18.300771713256836,17.545867919921875,1.951035737991333,-1.6649142503738403,0.09742520749568939,2.8546409606933594,2
720,-9.48399829864502,11.815196990966797,-0.12258344143629074,-1.6494580507278442,-0.11162026971578598,2.80329966545105,2
721,-35.855438232421875,-0.34548288583755493,-1.3147886991500854,-1.7181980609893799,-0.16498500108718872,2.779996871948242,2
722,-40.899497985839844,-12.138931274414062,-2.2423126697540283,-1.592031478881836,-0.5847031474113464,2.711550712585449,2
723,-32.90873336791992,-23.68263816833496,-1.44805109500885,-1.2892078161239624,-0.8460671901702881,2.706087827682495,2
724,-16.132343292236328,-35.45561599731445,0.4912056624889374,-1.186495304107666,-1.1416488885879517,2.719411611557007,2
725,2.252528429031372,-47.44881057739258,2.9119622707366943,-0.9584529399871826,-1.2349205017089844,2.7695298194885254,2
726,21.57155990600586,-53.445518493652344,6.760255813598633,-0.30865418910980225,-1.1675326824188232,2.798267364501953,2
727,32.16373062133789,-41.56609344482422,7.967586040496826,0.14741730690002441,-1.207044243812561,2.827960729598999,2
728,35.56242752075195,-21.26856231689453,7.663064479827881,0.42081013321876526,-0.7657098770141602,2.9715068340301514,2
729,41.44936752319336,0.1051456481218338,6.121829032897949,0.6828200221061707,-0.5540861487388611,3.0303056240081787,2
730,48.218780517578125,17.127002716064453,5.461669921875,0.7557913661003113,0.1396026909351349,3.1443870067596436,2
731,39.66885757446289,19.521236419677734,2.363290309906006,0.606063187122345,0.5682141184806824,3.2031219005584717,2
732,18.727169036865234,14.300861358642578,1.3381417989730835,0.39173269271850586,0.9135093688964844,3.2321667671203613,2
733,1.1173057556152344,4.49392557144165,2.210911750793457,0.2653600573539734,0.9717118740081787,3.2276318073272705,2
734,-22.54720687866211,-1.7106705904006958,4.994073867797852,0.26865389943122864,1.02547025680542,3.2416398525238037,2
735,-45.322959899902344,-2.6913325786590576,7.407941818237305,0.35851916670799255,0.9188874959945679,3.2815144062042236,2
736,-61.13845443725586,-7.561161518096924,11.263466835021973,0.3509501516819,0.14009736478328705,3.3255786895751953,2
737,-59.344444274902344,-9.168170928955078,14.950961112976074,0.32509490847587585,-0.36559680104255676,3.4235901832580566,2
738,-57.155216217041016,-16.14443588256836,19.42784309387207,0.5910568833351135,-0.8243658542633057,3.569101572036743,2
739,-50.760013580322266,-18.268884658813477,20.30923843383789,0.758581817150116,-1.3756698369979858,3.753643751144409,2
740,-43.554073333740234,-23.075956344604492,20.755306243896484,0.9303489923477173,-2.0619637966156006,3.9650557041168213,2
741,-11.942669868469238,-21.061626434326172,15.387675285339355,1.1462805271148682,-2.2306456565856934,4.172769069671631,2
742,23.531084060668945,10.35970687866211,10.084460258483887,1.285325050354004,-2.6126551628112793,4.366977214813232,2
743,46.502784729003906,46.25043487548828,1.5691416263580322,1.2023760080337524,-2.2997865676879883,4.485827922821045,2
744,63.48367691040039,68.76905822753906,-6.106423854827881,0.6632089614868164,-1.5335396528244019,4.51298189163208,2
745,64.9051742553711,77.62876892089844,-9.267355918884277,-0.1405649036169052,-0.7631891965866089,4.472019195556641,2
746,30.526199340820312,66.457763671875,-12.467662811279297,-0.8277630805969238,-0.8068675398826599,4.421517848968506,2
747,-5.798306465148926,45.965877532958984,-11.803184509277344,-1.6405601501464844,-0.3410659730434418,4.308657169342041,2
748,-24.974889755249023,6.360389232635498,-9.818109512329102,-2.0257632732391357,-0.4928041100502014,4.1680755615234375,2
749,-19.58548355102539,-22.504533767700195,-8.94858455657959,-2.10799241065979,-0.7527176737785339,4.045393943786621,2
750,-6.255889892578125,-46.82425308227539,-8.439120292663574,-1.9323537349700928,-0.9561591744422913,3.9507830142974854,2
751,13.620935440063477,-64.62017822265625,-5.0342206954956055,-1.220625638961792,-0.9979748129844666,3.8429996967315674,2
752,32.934627532958984,-64.27799987792969,-0.7361116409301758,-0.6468014717102051,-0.7971621155738831,3.8036954402923584,2
753,33.34170150756836,-42.59792709350586,1.5529441833496094,0.04909054934978485,-0.3533170521259308,3.8000059127807617,2
754,19.5311336517334,-5.366933822631836,-1.2495157718658447,0.45047929883003235,-0.20875686407089233,3.8100228309631348,2
755,4.941361904144287,21.440542221069336,-4.5406622886657715,0.5370215177536011,0.11525152623653412,3.8217921257019043,2
756,-5.3021464347839355,38.379764556884766,-5.280425071716309,0.25856539607048035,-0.007058354560285807,3.7881336212158203,2
757,-10.023923873901367,45.28459930419922,-5.072843074798584,-0.2720813453197479,-0.0593235045671463,3.7460412979125977,2
758,-12.586992263793945,38.801124572753906,-3.3010942935943604,-0.6609023213386536,-0.12452580034732819,3.6921498775482178,2
759,-15.077054023742676,32.20621109008789,-2.5235824584960938,-1.1326823234558105,-0.31396010518074036,3.647738218307495,2
760,-9.669811248779297,18.171573638916016,-2.363711357116699,-1.5129854679107666,-0.49999192357063293,3.6160061359405518,2
761,7.261141777038574,3.723421335220337,-1.865687608718872,-1.6868847608566284,-0.5695529580116272,3.5925064086914062,2
762,25.4770565032959,-16.107046127319336,-4.0842766761779785,-1.7690880298614502,-0.960364043712616,3.527545690536499,2
763,53.54041290283203,-31.05261993408203,-3.390103816986084,-1.5687419176101685,-0.5435323119163513,3.5234737396240234,2
764,70.29523468017578,-39.007503509521484,-1.507938027381897,-1.1905591487884521,-0.04797554388642311,3.488328456878662,2
765,66.11138153076172,-30.543304443359375,1.0985764265060425,-0.8690177202224731,0.5226747989654541,3.45381760597229,2
766,55.52727127075195,-18.643447875976562,5.441357612609863,-0.5834861993789673,1.2112749814987183,3.45135760307312,2
767,37.819313049316406,-11.33829116821289,8.806744575500488,-0.2501889765262604,1.7811836004257202,3.4822113513946533,2
768,15.976310729980469,-9.860568046569824,12.411840438842773,-0.3145486116409302,1.9209133386611938,3.5098278522491455,2
769,-1.9131442308425903,-14.605401039123535,16.286523818969727,-0.08623301982879639,2.0330123901367188,3.6107499599456787,2
770,-9.911604881286621,-21.36395835876465,14.898632049560547,-0.016096031293272972,2.169570207595825,3.761648416519165,2
771,-6.804215431213379,-18.360021591186523,10.759629249572754,0.27050498127937317,2.0369062423706055,3.92041277885437,2
772,1.6549333333969116,-7.265381336212158,6.658587455749512,0.2787388861179352,2.01766300201416,4.007504463195801,2
773,11.452363014221191,6.012516021728516,4.41890287399292,0.42083218693733215,1.8429945707321167,4.080709934234619,2
774,16.703128814697266,27.143917083740234,1.6948497295379639,0.3789318799972534,2.0329673290252686,4.128086090087891,2
775,18.004236221313477,31.658143997192383,2.1206960678100586,0.06694570928812027,2.3043406009674072,4.139853000640869,2
776,13.601035118103027,30.767757415771484,5.776373386383057,-0.3492480218410492,2.6307785511016846,4.151952743530273,2
777,5.0750532150268555,13.687037467956543,7.141551494598389,-0.655515193939209,2.8630871772766113,4.219869613647461,2
778,-4.706807613372803,4.596170902252197,5.641745090484619,-0.7601852416992188,2.9574973583221436,4.32739782333374,2
779,-7.891383171081543,4.250945091247559,3.047590494155884,-0.8668221831321716,2.9222562313079834,4.379024505615234,2
780,-16.339170455932617,7.911561012268066,-0.2538405954837799,-0.817664623260498,2.7886335849761963,4.446630001068115,2
781,-23.473304748535156,11.783753395080566,-3.9642319679260254,-1.0477300882339478,2.3921315670013428,4.386491775512695,2
782,-25.12998390197754,12.166535377502441,-6.0691609382629395,-1.0918413400650024,2.054230213165283,4.376707553863525,2
783,-16.784976959228516,7.917976379394531,-6.571323871612549,-1.218506097793579,1.802627682685852,4.3252034187316895,2
784,-8.238432884216309,-2.532369375228882,-4.429673671722412,-1.1690208911895752,1.8007850646972656,4.336240768432617,2
785,3.1381032466888428,-11.508746147155762,-5.4963860511779785,-1.6599100828170776,1.7161694765090942,4.099629878997803,2
786,4.66875696182251,-23.933109283447266,-7.019327640533447,-1.2108879089355469,1.8240582942962646,4.048145294189453,2
787,4.094090461730957,-49.78997039794922,-8.887137413024902,-1.053155541419983,1.9521840810775757,4.121826648712158,2
788,-1.4946109056472778,-60.73064422607422,-9.116528511047363,-0.3221835792064667,1.7820383310317993,4.1211419105529785,2
789,-9.71057415008545,-59.6969108581543,-9.167880058288574,-0.04529519006609917,1.8368207216262817,3.906420946121216,2
790,-10.648392677307129,-47.95063400268555,-6.138728618621826,0.9119894504547119,1.9282163381576538,3.938689947128296,2
791,-8.8197021484375,-28.31380844116211,-4.992992401123047,0.9587118625640869,1.7549859285354614,3.670764923095703,2
792,-8.926000595092773,-1.3462231159210205,-4.582484245300293,1.3051564693450928,1.6037307977676392,3.6046414375305176,2
793,-9.254547119140625,22.454381942749023,-4.835684776306152,1.4608451128005981,1.6092722415924072,3.5736536979675293,2
794,-7.986778736114502,35.235450744628906,-4.901700496673584,1.165064811706543,1.605323076248169,3.4735984802246094,2
795,-6.613514423370361,28.79427719116211,-5.4474263191223145,0.7896195650100708,1.5414719581604004,3.412022829055786,2
796,-5.698428630828857,20.171768188476562,-7.08493709564209,0.47528478503227234,1.3416417837142944,3.3770968914031982,2
797,1.0317449569702148,17.209136962890625,-7.41416072845459,0.28091874718666077,1.4971750974655151,3.3148157596588135,2
798,-1.4798239469528198,16.18873405456543,-10.183140754699707,0.143701434135437,1.534256935119629,3.2572968006134033,2
799,-7.922745704650879,12.811482429504395,-13.123666763305664,0.03669612482190132,1.3048170804977417,3.2048757076263428,2
800,-15.001660346984863,-5.325530052185059,-14.622570037841797,0.017845969647169113,1.1407384872436523,3.1307294368743896,2
801,-16.273300170898438,-16.569597244262695,-15.677927017211914,-0.6277058124542236,1.1238926649093628,2.8071353435516357,2
802,-13.289017677307129,-41.50663757324219,-14.45067024230957,-0.3125486373901367,0.8348172307014465,2.712953567504883,2
803,-9.747039794921875,-66.81246948242188,-15.930390357971191,0.7170276641845703,0.8058992028236389,2.4187684059143066,2
804,-9.104239463806152,-70.25016784667969,-16.5572509765625,1.4828435182571411,0.636631429195404,2.26690411567688,2
805,-11.016729354858398,-54.024505615234375,-18.301982879638672,2.067347526550293,0.5225759744644165,2.0771329402923584,2
806,-13.625164031982422,-29.44451141357422,-19.665239334106445,2.6801397800445557,0.603582501411438,1.902157187461853,2
807,-9.2285795211792,-1.8301700353622437,-19.770336151123047,2.6282923221588135,0.4493679404258728,1.6686289310455322,2
808,1.382379412651062,21.802404403686523,-18.125598907470703,2.371387481689453,0.4597695767879486,1.4538524150848389,2
809,12.880387306213379,36.151695251464844,-15.982585906982422,2.293968915939331,0.6450319886207581,1.4029955863952637,2
810,34.01844787597656,37.02804183959961,-15.11778450012207,1.6580277681350708,0.8907067179679871,1.1220039129257202,2
811,41.923179626464844,35.920082092285156,-13.397899627685547,1.6473394632339478,1.1395812034606934,1.0601420402526855,2
812,31.39188003540039,28.510963439941406,-11.10692024230957,1.2911933660507202,1.3382947444915771,0.9786480069160461,2
813,7.052189350128174,11.332099914550781,-7.694697380065918,1.0046638250350952,1.75674307346344,0.8575531244277954,2
814,-12.025671005249023,-1.9446340799331665,-4.667803764343262,0.9734887480735779,1.959708333015442,0.7832320928573608,2
815,-31.356048583984375,-21.879812240600586,0.3894402086734772,1.1289589405059814,1.6343252658843994,0.8209262490272522,2
816,-57.84499740600586,-35.17085266113281,1.4284273386001587,1.2442810535430908,1.3493050336837769,0.8040285706520081,2
817,-69.04811096191406,-22.8901424407959,1.6956790685653687,1.789315104484558,0.549826443195343,0.9257360696792603,2
818,-64.80848693847656,5.089806079864502,0.23593862354755402,2.1865084171295166,0.24090011417865753,0.8598695397377014,2
819,-50.89023971557617,22.783477783203125,2.256675958633423,2.115966558456421,-0.7156729698181152,0.9345294833183289,2
820,-32.453556060791016,38.92177963256836,4.832454681396484,1.8081061840057373,-1.022568702697754,0.8529969453811646,2
821,-9.292196273803711,47.692298889160156,5.150467395782471,1.3390378952026367,-1.5066196918487549,0.9028321504592896,2
822,12.246273040771484,45.0302848815918,4.513683795928955,0.7578871250152588,-1.5094506740570068,0.8858985304832458,2
823,21.132156372070312,24.670759201049805,5.451915264129639,0.19361639022827148,-1.4379955530166626,0.9177274107933044,2
824,15.28038501739502,8.93703842163086,4.482261657714844,0.07485499233007431,-1.1746742725372314,0.9345007538795471,2
825,3.641747236251831,4.356482028961182,3.976078987121582,-0.04653914272785187,-1.0026260614395142,0.9821745157241821,2
826,6.540181636810303,11.589517593383789,1.6246273517608643,-0.041386477649211884,-0.9504970908164978,1.021074652671814,2
827,11.515850067138672,10.735440254211426,-0.10832922160625458,-0.09969735890626907,-0.8772574067115784,1.0372353792190552,2
828,21.783845901489258,3.6179802417755127,-1.0772420167922974,-0.23198151588439941,-0.8473517298698425,1.0527307987213135,2
829,23.150236129760742,0.057011812925338745,-2.7565417289733887,-0.2737267017364502,-0.624694287776947,1.0350838899612427,2
830,21.20429229736328,-1.5020567178726196,-3.1921393871307373,-0.31589633226394653,-0.4397246837615967,1.0248727798461914,2
831,18.659990310668945,0.3721342384815216,-3.657031774520874,-0.26920974254608154,-0.1279514878988266,0.9793180227279663,2
832,16.09274673461914,0.0479685515165329,-1.9417951107025146,-0.23816604912281036,0.13400085270404816,0.9325932264328003,2
833,11.698200225830078,-3.439143180847168,0.6462405920028687,-0.1936267912387848,0.193857803940773,0.9040023684501648,2
834,-1.8348380327224731,-8.329094886779785,2.37807559967041,-0.0873849093914032,0.3187890648841858,0.8923172950744629,2
835,-26.915311813354492,-15.263191223144531,3.154505968093872,0.01167365349829197,0.18667025864124298,0.9143148064613342,2
836,-59.01126480102539,-16.34588050842285,3.9456920623779297,-0.19166141748428345,-0.11724552512168884,0.9936352968215942,2
837,-84.05152893066406,-20.639902114868164,6.1172637939453125,0.21399152278900146,-0.8432127833366394,1.0089259147644043,2
838,-84.69837188720703,-22.58306121826172,7.939774513244629,0.26703083515167236,-1.7438656091690063,1.0879850387573242,2
839,-71.79014587402344,-14.49227237701416,7.864245414733887,0.6342765092849731,-2.654191732406616,1.1505922079086304,2
840,-43.58055877685547,-7.286863803863525,8.18899154663086,0.8040259480476379,-3.468836545944214,1.2407389879226685,2
841,-0.8672826290130615,-3.3788583278656006,10.090555191040039,0.9432938098907471,-3.989687919616699,1.313149094581604,2
842,57.403968811035156,5.685114860534668,10.514199256896973,0.9838557243347168,-3.8286170959472656,1.3921759128570557,2
843,93.27233123779297,20.72069549560547,13.13102912902832,0.7926751375198364,-3.1567821502685547,1.5371663570404053,2
844,101.961669921875,36.525787353515625,11.752079010009766,0.5059843063354492,-2.0276355743408203,1.6763086318969727,2
845,85.73051452636719,40.017887115478516,7.804637432098389,0.09775620698928833,-1.2560266256332397,1.8425266742706299,2
846,48.95717239379883,34.68108367919922,2.906702756881714,-0.3676060140132904,-0.292977511882782,1.9507176876068115,2
847,11.049545288085938,21.794818878173828,-0.3509672284126282,-0.717751145362854,0.38198718428611755,1.987320065498352,2
848,-28.62006950378418,-0.6126823425292969,-1.430971384048462,-0.9089585542678833,0.47225263714790344,1.970697045326233,2
849,-51.07946014404297,-15.00179672241211,-1.992256760597229,-0.8739386200904846,-0.015810716897249222,1.9154080152511597,2
850,-60.543678283691406,-31.53680992126465,-1.846630573272705,-0.6319930553436279,-0.8434020280838013,1.8495956659317017,2
851,-47.614376068115234,-41.371009826660156,-2.222409963607788,-0.3124777376651764,-1.2017368078231812,1.8280361890792847,2
852,-19.014331817626953,-42.28218460083008,-0.00020251890236977488,0.4457455277442932,-1.6651455163955688,1.7182514667510986,2
853,20.037656784057617,-38.9709587097168,0.6069422364234924,0.8948396444320679,-1.8791191577911377,1.715131402015686,2
854,58.98336410522461,-34.46684265136719,0.4458611011505127,1.060910701751709,-1.457190752029419,1.8089669942855835,2
855,98.86241912841797,-20.58864974975586,5.4234466552734375,1.223452091217041,-0.8318290114402771,1.878990650177002,2
856,96.88780975341797,10.94842529296875,3.1208341121673584,1.5873767137527466,0.12552721798419952,1.8934414386749268,2
857,53.1489372253418,44.89083480834961,-1.587476134300232,1.434826135635376,1.1382834911346436,1.9831734895706177,2
858,-13.94507884979248,69.5815658569336,-6.770028591156006,0.9144240617752075,1.8044716119766235,2.0471081733703613,2
859,-74.4997787475586,78.48853302001953,-7.77963924407959,0.10474515706300735,1.353180170059204,2.0823814868927,2
860,-100.14689636230469,76.35214233398438,-7.164083480834961,-0.8396717309951782,0.4050624668598175,2.0615220069885254,2
861,-94.06107330322266,51.9515380859375,-4.663002014160156,-1.2665225267410278,-0.24281422793865204,1.939273715019226,2
862,-66.39767456054688,10.91867446899414,-2.351097583770752,-1.8254826068878174,-1.4048370122909546,1.8617008924484253,2
863,-22.25153350830078,-24.388551712036133,-2.0146596431732178,-1.8698900938034058,-2.2064685821533203,1.8005818128585815,2
864,32.11583709716797,-49.83352279663086,-0.08012180775403976,-1.5029574632644653,-2.417877435684204,1.7623522281646729,2
865,65.13984680175781,-48.15394592285156,3.604458808898926,-0.969445526599884,-2.064018726348877,1.7786331176757812,2
866,99.29360961914062,-33.822994232177734,7.412639617919922,-0.3143497705459595,-1.1168408393859863,1.832493543624878,2
867,113.20895385742188,-20.02367401123047,12.0048246383667,-0.43557918071746826,-0.2359934002161026,2.0110650062561035,2
868,105.03268432617188,2.7754058837890625,15.339648246765137,-0.2767329216003418,1.1359868049621582,2.166314125061035,2
869,78.74542236328125,10.603572845458984,17.232887268066406,-0.19964222609996796,1.6291784048080444,2.2325265407562256,2
870,36.171592712402344,2.839844226837158,19.16075325012207,-0.23729319870471954,2.774294137954712,2.4237139225006104,2
871,-26.877256393432617,-4.803161144256592,17.788183212280273,-0.32510411739349365,3.0843136310577393,2.592668056488037,2
872,-66.49544525146484,-8.347342491149902,16.76160430908203,-0.3570212125778198,2.6569719314575195,2.7339375019073486,2
873,-78.99409484863281,-5.881559371948242,18.00590705871582,-0.20312872529029846,2.07281756401062,2.897859811782837,2
874,-73.0732421875,-2.4823970794677734,20.00712013244629,-0.00920077133923769,0.9294338226318359,3.03498911857605,2
875,-52.111000061035156,8.505562782287598,19.535722732543945,-0.05766721069812775,0.28914350271224976,3.234320640563965,2
876,-18.97052001953125,22.262487411499023,19.135616302490234,-0.04539472237229347,-0.37397265434265137,3.432874917984009,2
877,15.750435829162598,33.55455017089844,19.079992294311523,-0.4111843407154083,-0.2886258363723755,3.647129535675049,2
878,50.0042610168457,30.22171401977539,17.4445858001709,-0.7417720556259155,-0.09091917425394058,3.851759433746338,2
879,63.509727478027344,18.903079986572266,17.636018753051758,-1.0784436464309692,0.4996749460697174,4.054612159729004,2
880,66.2332534790039,-5.616357326507568,17.87738609313965,-1.1948844194412231,1.0975712537765503,4.239114284515381,2
881,53.45998001098633,-21.59838104248047,19.490304946899414,-0.9899857044219971,1.852961540222168,4.444105625152588,2
882,32.53500747680664,-30.911510467529297,18.753257751464844,-0.5410024523735046,2.6258418560028076,4.679693222045898,2
883,8.966972351074219,-41.69618606567383,13.704744338989258,0.057715170085430145,3.0969600677490234,4.908201217651367,2
884,12.987741470336914,-56.090938568115234,6.280593395233154,0.9766213893890381,5.157069206237793,5.36702299118042,2
885,26.728322982788086,-52.63880920410156,1.2293013334274292,1.7124528884887695,5.273708343505859,5.4612932205200195,2
886,9.345146179199219,-23.881072998046875,-0.5680001974105835,2.0956509113311768,5.130992889404297,5.369333267211914,2
887,-46.563358306884766,4.607736587524414,-3.113297462463379,2.1562657356262207,4.953426361083984,5.232632637023926,2
888,-113.57136535644531,25.076274871826172,-1.983625888824463,1.7771096229553223,4.442505359649658,5.038374900817871,2
889,-169.71266174316406,37.10805130004883,0.8949934840202332,1.402496099472046,2.8152618408203125,4.981551647186279,2
890,-204.49366760253906,39.368778228759766,4.449698448181152,0.8577712178230286,1.4580392837524414,4.879483699798584,2
891,-217.14840698242188,26.847488403320312,9.411242485046387,0.3334532082080841,-1.4325510263442993,4.9165730476379395,2
892,-204.16656494140625,4.625370502471924,9.915631294250488,0.08202345669269562,-3.1267244815826416,4.983168125152588,2
893,-186.0611114501953,-17.615829467773438,9.397370338439941,0.03580166772007942,-6.114406585693359,5.165225028991699,2
894,-146.20045471191406,-33.043861389160156,10.975927352905273,0.09265825152397156,-7.664463043212891,5.238465785980225,2
895,-95.6087646484375,-39.76144790649414,11.198761940002441,0.5246838927268982,-9.62434196472168,5.42304801940918,2
896,-23.633073806762695,-35.77207565307617,8.996513366699219,0.7078410387039185,-10.560564041137695,5.593516826629639,2
897,55.759613037109375,-25.52861785888672,9.540780067443848,1.180246114730835,-10.794412612915039,5.7102227210998535,2
898,128.27330017089844,-3.0423736572265625,9.04599666595459,1.5124446153640747,-10.276077270507812,5.8178629875183105,2
899,174.4864501953125,19.161527633666992,5.619121551513672,1.4031506776809692,-8.74969482421875,6.0106611251831055,2
900,188.23667907714844,28.799774169921875,4.682243824005127,1.140698790550232,-7.437269687652588,6.171331405639648,2
901,169.38671875,40.423927307128906,1.6161441802978516,0.8519895076751709,-5.070200443267822,6.139647960662842,2
902,128.9175567626953,53.32051086425781,-4.045376777648926,0.38095253705978394,-3.6370656490325928,6.2617597579956055,2
903,73.63455200195312,58.93820571899414,-11.840849876403809,-0.2903316020965576,-1.9526920318603516,6.3204851150512695,2
904,20.766483306884766,45.65401077270508,-16.276256561279297,-0.8029767274856567,-1.3010741472244263,6.166810035705566,2
905,-26.118602752685547,19.190034866333008,-17.539215087890625,-1.2923609018325806,-1.2300209999084473,6.018369674682617,2
906,-44.372344970703125,-12.097951889038086,-18.36885643005371,-1.4181222915649414,-1.5757458209991455,5.76751184463501,2
907,-32.055171966552734,-32.04441452026367,-14.654145240783691,-1.1568615436553955,-2.0432920455932617,5.461334228515625,2
908,-9.318944931030273,-40.37831115722656,-10.552674293518066,-0.6754061579704285,-2.3614437580108643,5.202782154083252,2
909,17.994813919067383,-38.00834274291992,-5.94665002822876,-0.3994455337524414,-2.3568646907806396,5.17676305770874,2
910,48.056976318359375,-16.891813278198242,-3.897681951522827,0.33654287457466125,-2.116971492767334,4.938811302185059,2
911,68.51416015625,6.052676200866699,-3.712570905685425,-0.06504183262586594,-1.7428025007247925,5.2522711753845215,2
912,86.9239273071289,26.07166290283203,-8.189898490905762,-0.09392514824867249,-0.6152569651603699,5.253552436828613,2
913,84.25437927246094,34.22283935546875,-10.596179008483887,-0.5880299806594849,-0.15005671977996826,5.304774761199951,2
914,53.90045928955078,33.51554870605469,-11.013976097106934,-0.9662818312644958,0.8501969575881958,5.23533821105957,2
915,25.673175811767578,21.39179229736328,-10.386077880859375,-1.3755348920822144,1.1372740268707275,5.128060817718506,2
916,4.283536911010742,6.676781177520752,-7.515997886657715,-1.4950224161148071,1.362979531288147,4.976728439331055,2
917,-9.620471000671387,-10.713537216186523,-4.037034511566162,-1.4299585819244385,1.3243730068206787,4.840707778930664,2
918,-20.560104370117188,-26.645002365112305,-5.639969348907471,-1.2612500190734863,1.2299138307571411,4.7740797996521,2
919,-17.83763885498047,-36.94392013549805,-8.651114463806152,-0.9858328700065613,1.0042985677719116,4.70892333984375,2
920,-11.627936363220215,-29.588376998901367,-11.556130409240723,-0.43846920132637024,0.9042748212814331,4.6148152351379395,2
921,-9.240837097167969,-16.12687110900879,-14.766036033630371,-0.5952588319778442,0.7171796560287476,4.523264408111572,2
922,1.3822648525238037,-7.470459938049316,-17.504262924194336,-0.37545618414878845,0.6908716559410095,4.3890228271484375,2
923,24.4005069732666,-11.150152206420898,-19.69797706604004,-0.2644835114479065,0.7280189394950867,4.2262187004089355,2
924,44.466400146484375,-21.147523880004883,-21.04785919189453,-0.008036310784518719,1.1090214252471924,4.062719345092773,2
925,60.28623962402344,-31.92472267150879,-19.176801681518555,-0.20584385097026825,1.276516318321228,3.8032758235931396,2
926,63.96284866333008,-25.73633575439453,-17.298831939697266,0.2805132269859314,2.216325283050537,3.6607139110565186,2
927,63.43922805786133,-16.428878784179688,-15.33280086517334,0.49817338585853577,2.583343982696533,3.4370105266571045,2
928,50.00602722167969,-10.31486701965332,-16.363380432128906,0.6644999384880066,3.3593802452087402,3.279113292694092,2
929,33.51134490966797,6.5221099853515625,-19.8111629486084,0.8219598531723022,3.967468500137329,3.107482433319092,2
930,9.993815422058105,10.350591659545898,-22.978891372680664,0.6798892617225647,4.510463714599609,2.905871629714966,2
931,-9.573705673217773,8.212905883789062,-22.017133712768555,0.654807984828949,4.582542419433594,2.7120983600616455,2
932,-23.306312561035156,5.177394390106201,-16.6092472076416,0.6482568979263306,4.568614482879639,2.5262796878814697,2
933,-36.56645584106445,13.976059913635254,-12.72901725769043,0.3950333893299103,4.100982666015625,2.2731144428253174,2
934,-45.53451919555664,14.292963981628418,-6.524303436279297,0.3909464180469513,3.667388439178467,2.198385715484619,2
935,-44.196998596191406,6.181957721710205,-0.8741438388824463,0.22282694280147552,3.2657928466796875,2.1201210021972656,2
936,-37.52827835083008,-7.786850452423096,4.19892692565918,-0.26846879720687866,2.586458683013916,1.8815125226974487,2
937,-28.312299728393555,-21.0465030670166,5.0968217849731445,-0.0776371881365776,2.195232391357422,1.989077091217041,2
938,-15.62564754486084,-23.254976272583008,2.615602493286133,0.18110109865665436,2.0389864444732666,2.0700700283050537,2
939,10.759258270263672,-23.447235107421875,-0.36933642625808716,0.5618352890014648,1.9169938564300537,2.183258056640625,2
940,39.814186096191406,-21.92348289489746,-4.614557266235352,0.601726770401001,2.252805709838867,2.0767412185668945,2
941,46.392662048339844,-15.985696792602539,-2.834514856338501,0.6094165444374084,2.789583206176758,1.9146701097488403,2
942,28.911306381225586,-14.989744186401367,-3.096014976501465,0.7323431968688965,3.0994365215301514,1.8490166664123535,2
943,1.1688538789749146,-6.8040690422058105,-8.840710639953613,0.9634637832641602,3.4093499183654785,1.8513329029083252,2
944,-25.264938354492188,2.3172616958618164,-14.296360969543457,1.0316236019134521,3.3366618156433105,1.7617108821868896,2
945,-41.7692985534668,-3.105978488922119,-16.33568572998047,1.174625277519226,3.0918264389038086,1.7220604419708252,2
946,-48.06049346923828,1.4625669717788696,-18.526594161987305,0.6982750296592712,2.6873416900634766,1.2772269248962402,2
947,-43.88950729370117,12.62561321258545,-18.05682945251465,0.7094614505767822,2.130591630935669,1.1227457523345947,2
948,-33.79921340942383,20.211977005004883,-16.31194305419922,0.5593771934509277,1.6620374917984009,0.9316786527633667,2
949,-8.576504707336426,20.690170288085938,-15.217550277709961,0.398811936378479,1.3535348176956177,0.7879164814949036,2
950,13.771194458007812,12.032608985900879,-16.11695098876953,0.2484925389289856,1.511446237564087,0.652267336845398,2
951,22.694080352783203,6.643465042114258,-16.295154571533203,0.21589595079421997,1.5694772005081177,0.5570340156555176,2
952,26.395235061645508,-0.669137716293335,-13.845170974731445,0.10968239605426788,1.9463448524475098,0.3732587993144989,2
953,13.131302833557129,-20.364309310913086,-8.842324256896973,0.24587860703468323,2.0663576126098633,0.3179829716682434,2
954,-6.55361795425415,-28.984119415283203,-5.343798637390137,0.11610043048858643,2.192511796951294,0.0825851634144783,2
955,-20.87255096435547,-21.25851821899414,-6.422047138214111,0.5581369400024414,2.073808431625366,0.10051342099905014,2
956,-30.16777229309082,-15.44134521484375,-6.251046180725098,0.8214313983917236,1.8999687433242798,0.048557739704847336,2
957,-33.75185775756836,-7.085723876953125,-5.917448997497559,0.9759504199028015,1.665152907371521,-0.025361228734254837,2
958,-32.578617095947266,6.590036869049072,-4.548810005187988,0.9517733454704285,1.383805513381958,-0.13788866996765137,2
959,-29.730785369873047,5.749110221862793,-0.289913535118103,0.9535464644432068,0.9572811722755432,-0.16156157851219177,2
960,-19.487123489379883,7.331281661987305,-0.48037248849868774,1.0091620683670044,0.7627469301223755,-0.13651378452777863,2
961,-6.819430351257324,0.8049006462097168,-0.2630610167980194,0.9119192361831665,0.5177674293518066,-0.14827345311641693,2
962,4.930090427398682,-18.422651290893555,-0.8372862339019775,0.9682103395462036,0.47156792879104614,-0.12952262163162231,2
963,13.602140426635742,-33.21624755859375,-1.8420171737670898,1.29338800907135,0.5355554819107056,-0.08466760069131851,2
964,13.561890602111816,-44.214874267578125,-2.0499868392944336,1.400998830795288,0.7096609473228455,-0.16806061565876007,2
965,7.3111162185668945,-56.70966720581055,-1.2760858535766602,1.9301820993423462,0.7736974358558655,-0.15697751939296722,2
966,3.4786219596862793,-60.86700439453125,3.7823901176452637,2.6240062713623047,0.9059370160102844,-0.14951549470424652,2
967,-5.995069980621338,-50.48926544189453,6.7603068351745605,3.1705355644226074,0.8855593800544739,-0.1339576244354248,2
968,-25.343040466308594,-31.495954513549805,6.188827991485596,3.900062084197998,0.6578443050384521,0.013894950039684772,2
969,-42.304996490478516,-9.146381378173828,4.95936918258667,4.124668598175049,0.28678467869758606,0.08966771513223648,2
970,-64.89714050292969,24.129304885864258,1.4537116289138794,4.076089382171631,-0.23914361000061035,0.15100014209747314,2
971,-71.77317810058594,54.80787658691406,0.6030661463737488,3.6047239303588867,-0.7410940527915955,0.08209948986768723,2
972,-58.217220306396484,74.31455993652344,1.0144226551055908,2.8233184814453125,-1.5305103063583374,0.07513634860515594,2
973,-35.78574752807617,74.14411163330078,1.133182168006897,2.173100233078003,-2.0656139850616455,0.03288352116942406,2
974,5.1062541007995605,48.988521575927734,3.1381208896636963,1.3972792625427246,-2.143906354904175,-0.10719267278909683,2
975,36.2639274597168,12.779888153076172,5.335731506347656,0.9790089726448059,-2.004979133605957,-0.16065524518489838,2
976,45.4467887878418,-21.723527908325195,12.724400520324707,1.064857006072998,-1.5144251585006714,-0.20318470895290375,2
977,37.68428421020508,-45.63627243041992,18.94966697692871,1.4259849786758423,-1.0864508152008057,-0.10608180612325668,2
978,18.828773498535156,-63.94609451293945,22.398244857788086,2.151235580444336,-0.6724088788032532,0.02562682516872883,2
979,-3.0134918689727783,-67.96006774902344,20.773405075073242,2.7288095951080322,-0.6494671106338501,0.3193228244781494,2
