,gyro.x,gyro.y,gyro.z,stabilizer.pitch,stabilizer.roll,stabilizer.yaw,label
0,-0.05837968736886978,0.06332196295261383,-0.002652387600392103,-0.2688739001750946,-1.0201208591461182,-1.0752290487289429,2
1,-0.09216773509979248,-0.020670516416430473,0.08046702295541763,-0.2692301869392395,-1.0198471546173096,-1.0741374492645264,2
2,-0.002535091945901513,0.06429468840360641,0.06877881288528442,-0.2688998579978943,-1.019494652748108,-1.0724103450775146,2
3,-0.08018561452627182,0.01824379712343216,-0.04786352440714836,-0.26908427476882935,-1.018375277519226,-1.070752501487732,2
4,-0.011193014681339264,0.06254330277442932,0.025200165808200836,-0.26928505301475525,-1.0176395177841187,-1.0700079202651978,2
5,-0.03702491149306297,0.0518869049847126,-0.006665615830570459,-0.2694530785083771,-1.01702880859375,-1.0685145854949951,2
6,-0.08453451097011566,0.023416582494974136,-0.016001824289560318,-0.27004265785217285,-1.0166856050491333,-1.0670498609542847,2
7,-0.0968661978840828,-0.006401995662599802,-0.07888944447040558,-0.2699865698814392,-1.0168068408966064,-1.0659763813018799,2
8,-0.08494176715612411,0.006190802901983261,0.048918433487415314,-0.27012449502944946,-1.0165249109268188,-1.0655862092971802,2
9,-0.014503154903650284,0.050400640815496445,-0.015603582374751568,-0.2700612545013428,-1.0163661241531372,-1.0643388032913208,2
10,-0.07060083746910095,0.05415201187133789,0.06697620451450348,-0.2702644467353821,-1.0154145956039429,-1.063346266746521,2
11,-0.10750647634267807,0.025034895166754723,-0.006816597655415535,-0.2707027792930603,-1.0149314403533936,-1.0621691942214966,2
12,-0.059945736080408096,0.003539355704560876,0.02651137113571167,-0.2706318199634552,-1.0147078037261963,-1.0608903169631958,2
13,-0.08656414598226547,0.03860785439610481,0.06304604560136795,-0.27045324444770813,-1.014367938041687,-1.0598300695419312,2
14,-0.12399201095104218,0.022494010627269745,-0.016378577798604965,-0.2706054747104645,-1.0140446424484253,-1.0583443641662598,2
15,0.14556682109832764,0.001839334494434297,0.009282475337386131,-0.2705915868282318,-1.0867630243301392,-1.0568323135375977,2
16,-0.15877175331115723,-0.009205851703882217,-0.02479621209204197,-0.2704940438270569,-0.992207944393158,-1.0560107231140137,2
17,-0.07642801105976105,-0.010033783502876759,-0.03700285032391548,-0.27055513858795166,-0.9982216358184814,-1.055259346961975,2
18,-0.058797553181648254,0.010984828695654869,-0.09936763346195221,-0.2703547179698944,-0.9983474612236023,-1.0547564029693604,2
19,-0.018010448664426804,-0.09934791177511215,0.07601721584796906,-0.27023932337760925,-0.9980136156082153,-1.0545356273651123,2
20,0.011319011449813843,-0.02142729051411152,0.05567403882741928,-0.2691793739795685,-0.9970518350601196,-1.0533607006072998,2
21,-0.044068343937397,-0.007863203063607216,-0.010442839004099369,-0.26859110593795776,-0.9961671233177185,-1.0521390438079834,2
22,-0.16262775659561157,0.02312394417822361,0.0336502380669117,-0.2677757441997528,-0.9955272078514099,-1.051188349723816,2
23,-0.043237730860710144,0.09563712030649185,0.09848979860544205,-0.26779288053512573,-0.9960653185844421,-1.0496119260787964,2
24,0.01846137084066868,-0.006097954232245684,-0.0696689710021019,-0.2679975628852844,-0.9955365061759949,-1.047945499420166,2
25,-0.16522778570652008,0.09190293401479721,-0.04259535297751427,-0.26753079891204834,-0.9948578476905823,-1.0470925569534302,2
26,-0.122850701212883,0.05329137668013573,-0.0314478799700737,-0.26811885833740234,-0.9950544834136963,-1.046681523323059,2
27,-0.05400260165333748,0.03018094226717949,0.04562772810459137,-0.2685251832008362,-0.9954401254653931,-1.0460307598114014,2
28,-0.16485412418842316,0.0825527235865593,-0.002219466958194971,-0.26939472556114197,-0.9247154593467712,-1.0450929403305054,2
29,0.04151197522878647,-0.05918096378445625,0.06181729957461357,-0.270465612411499,-0.9457300305366516,-1.0442630052566528,2
30,-0.11639901995658875,-0.035053033381700516,-0.03211222216486931,-0.2692563533782959,-1.03292715549469,-1.042626976966858,2
31,-0.1988077163696289,0.08111151307821274,-0.029713613912463188,-0.2685718536376953,-1.0328575372695923,-1.0415306091308594,2
32,-0.15350750088691711,-0.0772443562746048,-0.08638951927423477,-0.26845937967300415,-1.0333274602890015,-1.0407685041427612,2
33,-0.1172044426202774,0.017944104969501495,-0.01983429491519928,-0.2680493891239166,-1.0339864492416382,-1.0403083562850952,2
34,-0.1434202790260315,0.03849383816123009,-0.06160471588373184,-0.2687841057777405,-0.9587769508361816,-1.0395756959915161,2
35,-0.0418248251080513,0.10094766318798065,-0.0967777818441391,-0.269939661026001,-0.9752150774002075,-1.0384896993637085,2
36,-0.09850126504898071,0.03984840586781502,0.11595242470502853,-0.2717612087726593,-0.9877567291259766,-1.0380195379257202,2
37,-0.04095059260725975,0.05970323085784912,-0.014883948490023613,-0.27267229557037354,-0.9980860948562622,-1.0362507104873657,2
38,-0.06783130764961243,0.01133168675005436,0.02824743650853634,-0.2738358676433563,-1.004948616027832,-1.0353360176086426,2
39,-0.034414224326610565,-0.039363086223602295,0.10041595995426178,-0.27370360493659973,-1.0102832317352295,-1.0341851711273193,2
40,-0.09294755011796951,-0.018679479137063026,-0.026960495859384537,-0.27315130829811096,-1.0092558860778809,-1.0322630405426025,2
41,-0.07254031300544739,-0.03278637304902077,-0.005634170491248369,-0.2727418839931488,-1.0092170238494873,-1.030951976776123,2
42,-0.07510282844305038,0.06807757914066315,-0.09122774749994278,-0.27264586091041565,-0.9415414333343506,-1.030109167098999,2
43,-0.06541317701339722,0.03074181079864502,0.01053472701460123,-0.2734857499599457,-1.031538486480713,-1.0300116539001465,2
44,-0.08926157653331757,0.02757590264081955,0.1325862854719162,-0.2732483148574829,-1.0310118198394775,-1.0289796590805054,2
45,-0.16727043688297272,-0.0002419777592876926,-0.017603103071451187,-0.27321407198905945,-1.030889868736267,-1.0269988775253296,2
46,-0.07092732191085815,0.11111438274383545,0.051004186272621155,-0.27326419949531555,-1.0313606262207031,-1.0261998176574707,2
47,-0.0778917670249939,0.08637822419404984,-0.0071377819404006,-0.27379530668258667,-1.0312143564224243,-1.0245342254638672,2
48,-0.0282790157943964,0.086790069937706,-0.07869890332221985,-0.2740458846092224,-1.0306893587112427,-1.0232863426208496,2
49,-0.11246692389249802,-0.05867967754602432,0.007996476255357265,-0.27406588196754456,-1.0296891927719116,-1.023015022277832,2
50,0.0006659372011199594,-0.05893570929765701,-0.04081234335899353,-0.2732900083065033,-1.029279351234436,-1.0221027135849,2
51,0.006966316141188145,0.07214048504829407,0.045419588685035706,-0.27254387736320496,-1.0284854173660278,-1.021263837814331,2
52,-0.11393242329359055,0.041148360818624496,-0.056484583765268326,-0.27265435457229614,-1.0275813341140747,-1.0197479724884033,2
53,-0.03389085456728935,0.06967554986476898,-0.08999082446098328,-0.2726943790912628,-1.0274715423583984,-1.0188727378845215,2
54,-0.17003625631332397,0.004363285377621651,-0.03066375106573105,-0.27445271611213684,-1.1592786312103271,-1.018760085105896,2
55,-0.0023359335027635098,-0.015747426077723503,0.04378737136721611,-0.2754237949848175,-1.0605229139328003,-1.0185818672180176,2
56,-0.12653028964996338,-0.034060362726449966,0.01098029688000679,-0.27532264590263367,-1.050230622291565,-1.0170646905899048,2
57,0.04723728448152542,-0.029208693653345108,0.07608643174171448,-0.27438440918922424,-1.0435764789581299,-1.0155588388442993,2
58,-0.014007674530148506,0.036508459597826004,0.00025839428417384624,-0.27379992604255676,-1.036113977432251,-1.013911247253418,2
59,-0.029081210494041443,0.011765865609049797,0.1067233458161354,-0.2738093137741089,-1.0350358486175537,-1.0127779245376587,2
60,-0.09646816551685333,-0.0786392018198967,-0.04275568202137947,-0.27361416816711426,-1.0342004299163818,-1.01072359085083,2
61,-0.12002099305391312,0.050611454993486404,-2.0124145521549508e-05,-0.27269646525382996,-1.0341293811798096,-1.009691596031189,2
62,-0.07169151306152344,-0.004315160680562258,0.06856045871973038,-0.27273163199424744,-1.034425973892212,-1.0086930990219116,2
63,-0.09546879678964615,0.06833907961845398,-0.029819170013070107,-0.2725626826286316,-1.03413724899292,-1.0072922706604004,2
64,-0.04353800043463707,0.026426319032907486,0.04294895753264427,-0.2727532982826233,-1.0337457656860352,-1.006284236907959,2
65,-0.07106631994247437,0.0787210687994957,-0.004932052921503782,-0.27284008264541626,-1.0329904556274414,-1.005004644393921,2
66,-0.19743800163269043,-0.001756434328854084,-0.045741163194179535,-0.27430450916290283,-0.9015163779258728,-1.0045218467712402,2
67,-0.08397319912910461,-0.019950484856963158,0.014787252061069012,-0.274444043636322,-1.0026463270187378,-1.0038683414459229,2
68,-0.05488255247473717,0.009787512943148613,0.0378105454146862,-0.27425020933151245,-1.0119084119796753,-1.0027496814727783,2
69,-0.10245512425899506,-0.0714372768998146,0.025980232283473015,-0.27465084195137024,-1.0191742181777954,-1.001247763633728,2
70,-0.07209496945142746,-0.030880022794008255,0.06759066134691238,-0.27397677302360535,-1.0890858173370361,-1.000000238418579,2
71,-0.09645084291696548,-0.037428319454193115,0.0514889657497406,0.0,0.0,0.0,2
72,-0.0668862834572792,0.05423351377248764,0.03268938884139061,0.0007912858272902668,-0.0002547695767134428,0.0003296292561572045,2
73,-0.06056033447384834,-0.05900774151086807,-0.014640108682215214,-0.005163625814020634,-0.0159606970846653,0.0008194280089810491,2
74,-0.03764016553759575,0.04152914881706238,0.07197294384241104,-0.014083110727369785,-0.05636011064052582,0.0006574508151970804,2
75,-0.1465742290019989,0.006863057613372803,-0.016874035820364952,-0.03662056848406792,-0.12070580571889877,0.0010371124371886253,2
76,-0.0195133276283741,0.019563106819987297,0.058431290090084076,-0.05917634814977646,-0.2058502584695816,0.0008395459735766053,2
77,-0.11879948526620865,0.056282591074705124,-0.034097909927368164,-0.08452071994543076,-0.28788864612579346,0.0011090303305536509,2
78,-0.13027796149253845,-0.0018329499289393425,0.007582732010632753,-0.11152979731559753,-0.37673646211624146,0.000816095620393753,2
79,0.06435676664113998,0.03502253443002701,-0.05636819452047348,-0.1343412697315216,-0.46108677983283997,0.0006632618024013937,2
80,-0.14019867777824402,-0.00238762516528368,0.011093620210886002,-0.1564263552427292,-0.04795466363430023,0.001401516841724515,2
81,-0.0022181239910423756,0.003239456797018647,-0.014618020504713058,-0.17188990116119385,-0.276766300201416,0.0008021036046557128,2
82,-0.09609639644622803,-0.04971403256058693,0.07396714389324188,-0.18465884029865265,-0.8402279019355774,-0.0014508417807519436,2
83,-0.02905530296266079,0.06487704813480377,-0.05443914979696274,-0.1925385743379593,-0.8198433518409729,-0.001024404657073319,2
84,-0.04066741093993187,-0.020710786804556847,-0.09219856560230255,-0.2040187567472458,-1.1587705612182617,-0.002821490168571472,2
85,-0.009588614106178284,0.029282020404934883,0.0799693614244461,-0.21287359297275543,-1.048229455947876,-0.002939785597845912,2
86,0.020191064104437828,0.09205696731805801,0.10526639223098755,-0.22039173543453217,-0.9795240759849548,-0.0019798215944319963,2
87,-0.09290900081396103,0.024576041847467422,0.0014226078055799007,-0.22786056995391846,-0.9366689324378967,-0.0008676940342411399,2
88,-0.03789692744612694,-0.022025609388947487,0.06795681267976761,-0.232070654630661,-0.9147707223892212,-0.0007875656592659652,2
89,-0.021276403218507767,0.16730405390262604,0.028128158301115036,-0.23566782474517822,-0.659468412399292,0.0011403026292100549,2
90,-0.17662295699119568,-0.05637476220726967,-0.053387437015771866,-0.24543575942516327,-0.7305522561073303,0.0009422386065125465,2
91,-0.10888407379388809,0.156847283244133,-0.09883712232112885,-0.24708253145217896,-0.786730170249939,0.00045492136268876493,2
92,-0.060119494795799255,0.10214996337890625,0.003156170016154647,-0.25465816259384155,-0.82648766040802,-0.0006091634859330952,2
93,-0.14259876310825348,0.0155528225004673,0.026192031800746918,-0.26007935404777527,-0.8541552424430847,-0.0009801092091947794,2
94,-0.021394411101937294,0.09058131277561188,0.037434909492731094,-0.2627558708190918,-0.8778345584869385,-0.0008971513598226011,2
95,-0.062218669801950455,-0.011161241680383682,-0.0029476620256900787,-0.2667335867881775,-0.7115857601165771,0.0007107029086910188,2
96,0.06922542303800583,0.026659047231078148,-0.12383991479873657,-0.2677825391292572,-0.7788577675819397,0.0001508679852122441,2
97,-0.07181179523468018,0.022225411608815193,0.04882651939988136,-0.2696763575077057,-0.993171751499176,-0.0026419407222419977,2
98,-0.11177901923656464,0.03513462841510773,0.006808219477534294,-0.2716602087020874,-0.9809622764587402,-0.002326151356101036,2
99,-0.11442506313323975,-0.0008306016679853201,0.0057449257001280785,-0.2729402184486389,-1.131276249885559,-0.0034044599160552025,2
100,0.00829888042062521,-0.004095716401934624,0.027675563469529152,-0.2726980447769165,-0.9320670962333679,-0.0017262713517993689,2
101,-0.09046114981174469,-0.06031987443566322,0.06701281666755676,-0.27340570092201233,-0.6459600329399109,0.0008635250269435346,2
102,-0.157960444688797,0.13323774933815002,-0.04012906178832054,-0.2726340889930725,-0.8806494474411011,-0.0008169226930476725,2
103,-0.041907817125320435,0.04078178107738495,0.07816904783248901,-0.27590614557266235,-0.9066466093063354,-0.0012382621644064784,2
104,-0.11310720443725586,0.10997004806995392,-0.03968909755349159,-0.2777632772922516,-1.0586767196655273,-0.0017434780020266771,2
105,-0.09488502144813538,0.05087679252028465,0.003109692595899105,-0.2798757553100586,-1.0341178178787231,-0.0017400729702785611,2
106,-0.0907682254910469,-0.01938759908080101,-0.011265221051871777,-0.28145456314086914,-1.0167324542999268,-0.0012584724463522434,2
107,-0.055963147431612015,0.056035492569208145,0.09388928860425949,-0.2817123234272003,-1.0041794776916504,-0.000984463724307716,2
108,-0.06330223381519318,-0.009720204398036003,-0.0691143050789833,-0.28339236974716187,-0.9949603080749512,-0.0005826097331009805,2
109,-0.1599901020526886,0.031140008941292763,0.06184310466051102,-0.2832392454147339,-0.9945348501205444,-0.0009374130750074983,2
110,-0.08244246989488602,0.06809192895889282,-0.08915559947490692,-0.283878892660141,-0.8744025826454163,0.00043641586671583354,2
111,-0.07862477004528046,0.05443600192666054,0.015059618279337883,-0.2857804596424103,-1.1361501216888428,-0.0023993770591914654,2
112,-0.048579826951026917,0.039019227027893066,0.01053893193602562,-0.2884056270122528,-0.8659049272537231,0.00045319891069084406,2
113,-0.059187836945056915,0.0013338194694370031,0.07355347275733948,-0.29063379764556885,-1.1239818334579468,-0.0017001734813675284,2
114,-0.15544499456882477,0.14016303420066833,0.023890262469649315,-0.29152801632881165,-0.9752181768417358,0.00013980160292703658,2
115,-0.12672947347164154,0.12165237963199615,-0.00118178129196167,-0.292374849319458,-0.9755258560180664,0.0005480916006490588,2
116,-0.1871746927499771,0.0739244893193245,-0.035199299454689026,-0.29376378655433655,-0.6538414359092712,0.0036630602553486824,2
117,-0.22862479090690613,0.007446309085935354,0.019695676863193512,-0.29489174485206604,-1.068468451499939,-0.0003081179456785321,2
118,-0.15699468553066254,0.00973666924983263,-0.02982303313910961,-0.29443949460983276,-1.052404522895813,0.00022031799016986042,2
119,-0.02319677360355854,-0.014871464110910892,-0.024799471721053123,-0.29477718472480774,-1.0399525165557861,5.174880789127201e-05,2
120,-0.09125841408967972,0.06595057994127274,0.0018904277822002769,-0.2943600118160248,-0.9284384250640869,0.0010836559813469648,2
121,-0.11272924393415451,0.11294528096914291,-0.03405053913593292,-0.29510626196861267,-0.9500579237937927,0.0008115516975522041,2
122,-0.18974392116069794,0.06229139491915703,0.08263538032770157,-0.2963142693042755,-0.9672030806541443,0.0002503900323063135,2
123,-0.09044541418552399,0.07088039815425873,-0.03551408648490906,-0.296831876039505,-0.9811363220214844,0.0007966267294250429,2
124,-0.08494675904512405,-0.16169922053813934,0.014871512539684772,-0.29761502146720886,-1.0847549438476562,-0.00022434876882471144,2
125,-0.07986495643854141,-0.01944875903427601,-0.1098155602812767,-0.29500898718833923,-1.0638049840927124,0.0002348943380638957,2
126,-0.16955560445785522,0.0321279801428318,0.05338136851787567,-0.2947644889354706,-1.0480889081954956,-0.0001680175046203658,2
127,-0.15236803889274597,0.035636961460113525,0.06980178505182266,-0.20250190794467926,-1.0370320081710815,-0.0011511173797771335,2
128,-0.07542972266674042,-0.030707160010933876,-0.04420556128025055,-0.31966930627822876,-1.0293165445327759,0.0013824865454807878,2
129,-0.061646126210689545,0.12060577422380447,-0.051032647490501404,-0.3116963505744934,-0.932490348815918,0.0018374412320554256,2
130,-0.010884384624660015,0.047906339168548584,0.08625204861164093,-0.3087642192840576,-1.0441845655441284,0.0004483769298531115,2
131,0.019037451595067978,0.08597978949546814,-0.08624248951673508,-0.3050841987133026,-1.0344070196151733,0.0007793843396939337,2
132,-0.10229028761386871,0.15233004093170166,0.016342926770448685,-0.3034501373767853,-0.9361086487770081,0.0009028635104186833,2
133,-0.12651534378528595,0.03165065869688988,-0.060214679688215256,-0.3039660155773163,-0.9549509882926941,0.00030986274941824377,2
134,-0.009584445506334305,0.04860788583755493,0.06018003076314926,-0.30244213342666626,-1.0596461296081543,-0.0011502241250127554,2
135,0.007021836470812559,0.06455353647470474,0.07894778996706009,-0.30196380615234375,-1.0467677116394043,-0.0006691264570690691,2
136,-0.13364587724208832,-0.00022814888507127762,-0.006872221827507019,-0.3020157217979431,-1.0358119010925293,-0.00013188070442993194,2
137,-0.01045764610171318,-0.03237549215555191,0.12991298735141754,-0.30140572786331177,-1.0296893119812012,-1.222649916599039e-05,2
138,-0.09338744729757309,0.020690876990556717,-0.08713502436876297,-0.3010810613632202,-1.0290058851242065,0.0009974852437153459,2
139,-0.03329538553953171,-0.04285290837287903,0.01063428446650505,-0.30083003640174866,-1.0290125608444214,0.00033380533568561077,2
140,-0.08956756442785263,-0.01740025356411934,0.0023710185196250677,-0.30051302909851074,-1.0284454822540283,0.0002037720987573266,2
141,0.008955961093306541,-0.057387884706258774,-0.010034156031906605,-0.2999725937843323,-1.0284234285354614,0.00015390577027574182,2
142,-0.013994892127811909,-0.022730257362127304,-0.07633829116821289,-0.29911476373672485,-1.0277841091156006,0.0001086763440980576,2
143,-0.1970609724521637,-0.06146626174449921,-0.058034151792526245,-0.2987096905708313,-1.026924729347229,-0.00029606433236040175,2
144,-0.054898135364055634,0.028899921104311943,0.04536230117082596,-0.29806432127952576,-1.0274055004119873,-0.0003234547621104866,2
145,-0.030093999579548836,-0.019551396369934082,0.004173181485384703,-0.29791387915611267,-1.0271244049072266,1.2270127626834437e-05,2
146,-0.08565863966941833,-0.0028870084788650274,0.00013960489013697952,-0.29749390482902527,-1.0265215635299683,4.474196430237498e-06,2
147,0.004352558869868517,0.11683198064565659,0.022460052743554115,-0.29748740792274475,-0.9449324011802673,0.000998050207272172,2
148,-0.02058444172143936,0.11435650289058685,-0.001634695683605969,-0.29927268624305725,-1.0462983846664429,0.0005976678221486509,2
149,-0.18321819603443146,-0.0818525031208992,-0.031040744855999947,-0.29984036087989807,-1.0453510284423828,0.00045085925376042724,2
150,0.002095287200063467,-0.016878215596079826,-0.0420696884393692,-0.2976875305175781,-0.9644718766212463,0.0011466692667454481,2
151,0.01863221451640129,0.06900495290756226,-0.011905266903340816,-0.29627397656440735,-0.9820209741592407,0.0009253278840333223,2
152,-0.1325313150882721,-0.002181461313739419,0.03848589211702347,-0.29661688208580017,-0.9950146675109863,0.0006950733368285,2
153,-0.19070005416870117,-0.06524306535720825,-0.04279090836644173,-0.2952370047569275,-1.162048101425171,-4.681540667661466e-05,2
154,-0.04706282541155815,0.0021712693851441145,-0.043902646750211716,-0.29328301548957825,-1.1323729753494263,-0.00018505100160837173,2
155,-0.05432300269603729,-0.043063174933195114,0.02738123945891857,-0.292682409286499,-1.03200364112854,0.0002849619777407497,2
156,-0.08242428302764893,-0.03684816136956215,-0.07562745362520218,-0.29190006852149963,-1.108860969543457,0.0001388913078699261,2
157,-0.12166855484247208,0.007459710352122784,-0.04791463911533356,-0.29092395305633545,-1.0147804021835327,5.301954297465272e-05,2
158,-0.11250173300504684,0.013128519058227539,-0.06644283980131149,-0.2910095453262329,-1.0149500370025635,-0.00035930838203057647,2
159,-0.10730738192796707,0.08014673739671707,-0.02493547648191452,-0.291332870721817,-1.015086054801941,-0.0007064215024001896,2
160,-0.02882339619100094,-0.0645536556839943,0.08567214012145996,-0.2917070984840393,-1.0152385234832764,-0.0007351032691076398,2
161,-0.10675793141126633,0.036319550126791,0.07043639570474625,-0.29104095697402954,-1.0146971940994263,3.7778750993311405e-05,2
162,-0.021407093852758408,0.04738142713904381,0.01362117100507021,-0.2909175157546997,-1.0145677328109741,0.0006151286652311683,2
163,0.01581314578652382,0.01764860935509205,0.12632568180561066,-0.2913300693035126,-1.013689398765564,0.0005113246152177453,2
164,-0.11271870881319046,0.02760813944041729,0.06526070088148117,-0.29179757833480835,-1.0127571821212769,0.001488964888267219,2
165,0.027166564017534256,0.007713643833994865,0.01811177469789982,-0.29226598143577576,-1.087540864944458,0.001663564471527934,2
166,-0.02378220297396183,-0.01242156233638525,-0.0775851383805275,-0.292113721370697,-0.9965566396713257,0.002413263777270913,2
167,-0.04862312600016594,-0.0018432916840538383,-0.02907525934278965,-0.2918734848499298,-0.9962736368179321,0.0018434629309922457,2
168,-0.12430767714977264,0.07352343201637268,0.12476225197315216,-0.29163315892219543,-1.0734169483184814,0.001154768979176879,2
169,-0.16177929937839508,-0.07900524139404297,-0.023022929206490517,-0.2926448583602905,-1.0600733757019043,0.002117193304002285,2
170,-0.06789541989564896,-0.004308735486119986,0.07160137593746185,-0.2913300693035126,-0.9811583161354065,0.002462957287207246,2
171,-0.10023105144500732,-0.004197392147034407,0.054102689027786255,-0.2904928922653198,-0.9912870526313782,0.0028361317235976458,2
172,-0.0703222006559372,-0.019471073523163795,-0.030817048624157906,-0.29005223512649536,-0.8615149855613708,0.0039051841013133526,2
173,-0.0033010095357894897,0.036062635481357574,0.02712598443031311,-0.28904008865356445,-0.9725387096405029,0.0032228403724730015,2
174,-0.04379475489258766,0.06592860817909241,-0.040502384305000305,-0.28944218158721924,-0.9862412810325623,0.003192827571183443,2
175,-0.022145457565784454,-0.0798783153295517,0.0012121513718739152,-0.2898203134536743,-0.9969825148582458,0.002992718480527401,2
176,0.03931083530187607,0.02568540722131729,0.010799684561789036,-0.2889726758003235,-1.004937767982483,0.0030641965568065643,2
177,0.11624553799629211,0.010501974262297153,-0.041851285845041275,-0.2899184823036194,-1.080011248588562,0.0028558981139212847,2
178,-0.13704296946525574,0.08228269964456558,-0.005026404745876789,-0.28958943486213684,-1.066038727760315,0.0026721844915300608,2
179,-0.06724413484334946,0.0004202775307931006,-0.024314777925610542,-0.2901715934276581,-1.0579407215118408,0.002555140061303973,2
180,-0.08870552480220795,-0.04871487244963646,0.13365089893341064,-0.2896471917629242,-0.9816267490386963,0.002846833784133196,2
181,-0.12370523810386658,0.05311935767531395,-0.007623683195561171,-0.28906482458114624,-0.993938148021698,0.0037983383517712355,2
182,-0.018512628972530365,-0.0026808520779013634,-0.04012610390782356,-0.28946295380592346,-1.0042859315872192,0.0036843428388237953,2
183,-0.13911014795303345,0.026431763544678688,-0.09895733743906021,-0.28926312923431396,-1.0108968019485474,0.003294224850833416,2
184,-0.00029011821607127786,0.03859731927514076,0.07049573957920074,-0.2901265621185303,-1.0173994302749634,0.002586568705737591,2
185,-0.018665200099349022,-0.003681554226204753,-0.01309474278241396,-0.2905614376068115,-1.0165780782699585,0.003193029435351491,2
186,-0.006181840319186449,-0.1357213407754898,0.042484819889068604,-0.2908438444137573,-1.085991621017456,0.0027904538437724113,2
187,-0.02885371446609497,-0.011804740875959396,0.06000861898064613,-0.2893499732017517,-1.0704317092895508,0.0032574369106441736,2
188,-0.0020511671900749207,0.11640330404043198,-0.08637399971485138,-0.2896704077720642,-1.1229993104934692,0.0034561289940029383,2
189,-0.06758298724889755,0.06128789111971855,-0.012672184966504574,-0.29108962416648865,-1.0343278646469116,0.003182110143825412,2
190,-0.07780133187770844,0.02159915305674076,0.006891109514981508,-0.29127541184425354,-1.0339577198028564,0.0026206045877188444,2
191,-0.10271463543176651,0.04129383713006973,0.06845960766077042,-0.2912648022174835,-1.0339504480361938,0.0023810090497136116,2
192,-0.1246943324804306,-0.05519324168562889,-0.03204836696386337,-0.2911517024040222,-1.034013271331787,0.002839814405888319,2
193,-0.040944721549749374,-0.023078862577676773,0.00932654831558466,-0.29034918546676636,-1.0337960720062256,0.002791364910081029,2
194,-0.015519819222390652,0.08705310523509979,0.016873739659786224,-0.28984203934669495,-1.033084750175476,0.00319976476021111,2
195,-0.08120562136173248,0.07510355114936829,0.004481502342969179,-0.29064399003982544,-1.0325309038162231,0.0036595012061297894,2
196,-0.11437926441431046,0.026561617851257324,0.048890046775341034,-0.29139041900634766,-1.0324208736419678,0.0035027454141527414,2
197,0.039944130927324295,0.10286347568035126,-0.0073238578625023365,-0.291557639837265,-1.0325084924697876,0.0037084382493048906,2
198,-0.10769619792699814,0.025526555255055428,0.08766583353281021,-0.2922675311565399,-1.0317254066467285,0.003688282798975706,2
199,-0.07707181572914124,0.10398785769939423,0.04410431534051895,-0.2927840054035187,-0.906868577003479,0.004497263114899397,2
200,-0.07038410753011703,0.08606161922216415,0.00313749723136425,-0.2940913438796997,-1.0039170980453491,0.0042603639885783195,2
201,-0.022604642435908318,-0.0028617335483431816,0.09260682016611099,-0.2944296896457672,-1.0118659734725952,0.004057031590491533,2
202,0.0007794920238666236,0.09972790628671646,-0.07118840515613556,-0.29425111413002014,-1.080432415008545,0.00420353701338172,2
203,-0.07267923653125763,0.06859471648931503,-0.004403865430504084,-0.2948600947856903,-1.1290040016174316,0.0034809818025678396,2
204,-0.09110289067029953,0.0876021608710289,0.010289114899933338,-0.29515212774276733,-1.0375001430511475,0.003767190035432577,2
205,-0.06722696125507355,-0.05722459778189659,0.04286115616559982,-0.29552605748176575,-1.0368032455444336,0.0037890446837991476,2
206,-0.07238297164440155,0.0974724292755127,0.0392744354903698,-0.2952596843242645,-1.0363527536392212,0.004137482028454542,2
207,-0.12002401053905487,-0.06518105417490005,0.07371838390827179,-0.2957305610179901,-1.0362783670425415,0.004761091899126768,2
208,-0.12613612413406372,-0.06406287848949432,0.10447602719068527,-0.2952030897140503,-1.0363872051239014,0.005176571197807789,2
209,-0.19861868023872375,-0.07215765863656998,-0.04623275250196457,-0.29419127106666565,-1.0363463163375854,0.005656841676682234,2
210,0.04472857341170311,-0.037612222135066986,-0.06404262036085129,-0.29309454560279846,-1.0369731187820435,0.005254074931144714,2
211,-0.1810959130525589,0.02214275300502777,-0.016515620052814484,-0.29313066601753235,-1.0373722314834595,0.004908495116978884,2
212,0.0755961462855339,-0.0329027958214283,0.09778174757957458,-0.29193708300590515,-0.9672209024429321,0.0055569373071193695,2
213,-0.2767711579799652,-0.03777369484305382,-0.3668583929538727,-0.2884240448474884,-1.0421133041381836,0.004865327849984169,2
214,0.28647205233573914,-0.49328723549842834,-2.3249902725219727,-0.2873564660549164,-0.963077962398529,0.008778167888522148,2
215,-0.07031967490911484,-0.4706368148326874,0.5021616220474243,-0.2797275483608246,-0.9636209607124329,0.006705504842102528,2
216,-0.5169441103935242,-0.4386606216430664,-0.11826107650995255,-0.26924222707748413,-0.8929527997970581,0.010817735455930233,2
217,0.2924795150756836,-0.0030571743845939636,0.15611471235752106,-0.2650587558746338,-0.9775837063789368,0.01038028672337532,2
218,-0.018591534346342087,-0.10769809037446976,0.31781819462776184,-0.2550225853919983,-0.8885220289230347,0.009842361323535442,2
219,0.479133278131485,-0.7712860107421875,0.7494559288024902,-0.2508755624294281,-0.9582808017730713,0.016840752214193344,2
220,-0.0637509822845459,0.23954026401042938,-3.069148063659668,-0.24093511700630188,-0.9326553344726562,0.022698283195495605,2
221,-0.05832592770457268,0.8801137208938599,-7.051242828369141,-0.23890410363674164,-0.9093834757804871,-0.011984674260020256,2
222,4.215234279632568,-3.9240641593933105,-6.153273105621338,-0.2569175660610199,-0.8958412408828735,-0.07965153455734253,2
223,3.012007474899292,-7.903463840484619,-2.246734857559204,-0.3504340946674347,-1.0868654251098633,-0.1380709856748581,2
224,-9.037731170654297,6.964463233947754,4.035033702850342,-0.23477688431739807,-0.962190568447113,-0.14530517160892487,2
225,5.160206317901611,-3.8682074546813965,2.506117582321167,-0.8610295653343201,-1.7235913276672363,-0.11848245561122894,2
226,10.717302322387695,0.35932523012161255,-1.212533950805664,-0.7093917727470398,-1.7921117544174194,-0.10656635463237762,2
227,-4.956566333770752,-1.5321335792541504,-2.645289421081543,-0.9283252954483032,-2.2613131999969482,-0.13512897491455078,2
228,8.27793025970459,-7.537552833557129,-2.5931246280670166,-0.9154914021492004,-2.245028018951416,-0.15767157077789307,2
229,0.6672821044921875,10.49909782409668,-4.68039608001709,-1.1300162076950073,-2.516327142715454,-0.1817604899406433,2
230,-2.5044023990631104,-12.904926300048828,-5.718757152557373,-1.7169734239578247,-2.9818053245544434,-0.21513983607292175,2
231,21.131824493408203,-31.656600952148438,-3.1989173889160156,-1.8434083461761475,-3.173647880554199,-0.24889840185642242,2
232,30.506505966186523,-39.45787811279297,-0.5767853856086731,-1.7045964002609253,-3.7169852256774902,-0.3547074794769287,2
233,40.871063232421875,-48.748809814453125,-0.45696765184402466,-2.5341415405273438,-4.123580455780029,-0.17354491353034973,2
234,51.67304992675781,-52.22822952270508,-2.28924560546875,-2.0668463706970215,-3.711125373840332,-0.14210514724254608,2
235,72.01313781738281,-50.55715560913086,-0.8795990347862244,-2.1591203212738037,-3.6769044399261475,-0.08883894234895706,2
236,82.60968780517578,-46.141632080078125,0.7273011803627014,-1.5891050100326538,-2.7188096046447754,-0.025446757674217224,2
237,88.99059295654297,-42.302032470703125,2.2338337898254395,-2.1425373554229736,-2.6002118587493896,0.15330424904823303,2
238,92.70851135253906,-49.3776741027832,1.5050249099731445,-1.0284239053726196,-1.5463489294052124,0.03102228417992592,2
239,83.53180694580078,-65.44355010986328,0.11744364351034164,-1.3815507888793945,0.271676242351532,0.5601825714111328,2
240,65.6274185180664,-89.4771728515625,-1.4469181299209595,-0.02366197109222412,1.6285113096237183,0.6730233430862427,2
241,37.98951721191406,-89.34832763671875,-2.7706029415130615,2.1598172187805176,2.038231134414673,0.5777081847190857,2
242,12.890621185302734,-74.60794830322266,-3.295680522918701,4.1539692878723145,4.207996845245361,0.6511877179145813,2
243,0.7108731269836426,-58.414737701416016,-1.5323641300201416,5.098024368286133,6.980437278747559,0.13240186870098114,2
244,-14.452750205993652,-35.73759078979492,-1.9956958293914795,7.070993423461914,7.924046039581299,0.251079797744751,2
245,-32.87904739379883,-1.992834210395813,-2.6750447750091553,5.899771690368652,9.330780982971191,-1.6945685148239136,2
246,-41.60405731201172,28.74266242980957,-3.426112174987793,5.2744059562683105,8.588767051696777,-1.8415753841400146,2
247,-58.333396911621094,42.43438720703125,-6.868368148803711,5.520346641540527,7.670785903930664,-0.8940627574920654,2
248,-88.55657196044922,45.19343185424805,-10.430415153503418,5.111464500427246,5.86909294128418,0.10007720440626144,2
249,-113.68895721435547,46.145484924316406,-8.596076965332031,3.261077642440796,5.967652320861816,-2.1826388835906982,2
250,-130.58424377441406,33.73343276977539,-2.5918242931365967,3.430246591567993,4.107696056365967,-0.954167902469635,2
251,-139.1357879638672,12.480684280395508,-1.9711012840270996,4.068374156951904,2.512842893600464,0.23256157338619232,2
252,-129.2643280029297,-10.332560539245605,-2.943995237350464,4.777012825012207,0.3482781648635864,1.5194863080978394,2
253,-109.14283752441406,-21.770130157470703,-3.819060802459717,5.345015048980713,-1.0634920597076416,1.968094825744629,2
254,-83.14058685302734,-21.43294906616211,-4.658062934875488,6.071587085723877,-2.699272394180298,2.690974235534668,2
255,-50.24357986450195,-12.168431282043457,-5.982693672180176,6.532031059265137,-3.2610347270965576,2.5526411533355713,2
256,-14.947741508483887,1.1906658411026,-3.4721529483795166,6.671054363250732,-4.2468791007995605,2.992140531539917,2
257,18.95220184326172,24.244800567626953,-5.1812334060668945,6.433910846710205,-4.650732040405273,3.1750853061676025,2
258,43.95478057861328,56.50947189331055,-3.764760732650757,6.3386335372924805,-4.452281951904297,3.0995442867279053,2
259,63.26329803466797,81.38070678710938,-3.9175467491149902,4.4293999671936035,-3.862996816635132,3.122115135192871,2
260,63.4006233215332,94.72232818603516,-5.254201412200928,4.838059425354004,-2.858121156692505,2.433579921722412,2
261,56.80647659301758,97.23113250732422,-7.1617584228515625,4.362986087799072,-2.504854440689087,2.4031643867492676,2
262,45.69404220581055,93.69818878173828,-4.836848735809326,2.9898033142089844,-1.8461124897003174,2.3563060760498047,2
263,40.955596923828125,84.70159149169922,-3.7964468002319336,2.4255735874176025,-1.645593523979187,2.435441255569458,2
264,43.801822662353516,64.72112274169922,-2.9972517490386963,1.3425848484039307,-1.2190964221954346,2.4610378742218018,2
265,38.28081130981445,39.44245147705078,-4.019576549530029,0.9859539866447449,-0.8917896151542664,2.395223379135132,2
266,19.49753189086914,18.63258934020996,-5.076563835144043,0.48112303018569946,-0.5226799845695496,2.4698305130004883,2
267,-4.757596969604492,4.42194938659668,-6.150147914886475,0.61344313621521,-0.6786113977432251,2.4645235538482666,2
268,-20.23708724975586,-0.20888547599315643,-5.295021057128906,0.4846106469631195,-0.8746395707130432,2.4663326740264893,2
269,-25.643413543701172,3.350170612335205,-3.8676719665527344,0.3599929213523865,-1.1970429420471191,2.4737982749938965,2
270,-27.40278434753418,15.374350547790527,-1.8215107917785645,0.3111394941806793,-1.4754711389541626,2.48218035697937,2
271,-19.765396118164062,30.756746292114258,-0.6430043578147888,0.14230561256408691,-1.9399341344833374,2.4857826232910156,2
272,-2.0325164794921875,44.275577545166016,-0.002339553087949753,-0.20904485881328583,-2.142103910446167,2.4748764038085938,2
273,23.59641456604004,56.990535736083984,-0.9335063695907593,-0.7427616715431213,-2.251811981201172,2.4944405555725098,2
274,49.308345794677734,68.56706237792969,-3.7087342739105225,-1.4673476219177246,-2.0863547325134277,2.4829745292663574,2
275,70.88262939453125,61.52918243408203,-7.360244274139404,-1.918367862701416,-2.0041747093200684,2.3289201259613037,2
276,80.43533325195312,51.219139099121094,-9.017559051513672,-2.9127235412597656,-0.7674517631530762,2.416492223739624,2
277,74.014404296875,31.293476104736328,-8.868616104125977,-3.639012336730957,0.1711769998073578,2.411515474319458,2
278,50.94866180419922,3.866900682449341,-7.274949550628662,-3.7050235271453857,0.46384888887405396,2.1431620121002197,2
279,24.25336265563965,-22.194684982299805,-5.864196300506592,-3.856691598892212,1.0265334844589233,2.132200002670288,2
280,1.3723673820495605,-37.231380462646484,-4.748406887054443,-3.5667362213134766,0.7222574353218079,1.797010064125061,2
281,-13.48226547241211,-42.50908660888672,-4.343293190002441,-3.1953084468841553,0.7894709706306458,1.7871664762496948,2
282,-23.432947158813477,-40.5691032409668,-3.21083664894104,-3.123455047607422,0.2562706470489502,1.4935376644134521,2
283,-30.47262191772461,-37.500274658203125,-0.5624945759773254,-2.695605993270874,0.3463979959487915,1.6791242361068726,2
284,-31.88323974609375,-19.91185188293457,4.085781574249268,-3.076923370361328,0.3993467092514038,1.855317234992981,2
285,-20.284976959228516,-6.483351707458496,10.421761512756348,-2.680887460708618,0.05296092852950096,1.9041720628738403,2
286,1.322169542312622,-2.8369758129119873,17.874902725219727,-2.4423375129699707,-0.4651794135570526,1.804732084274292,2
287,32.428043365478516,-4.396250247955322,25.690122604370117,-2.369891405105591,-0.21322129666805267,2.1192550659179688,2
288,61.160308837890625,-9.998528480529785,30.824289321899414,-2.124513864517212,-0.15616869926452637,2.2113609313964844,2
289,82.6549301147461,-14.419648170471191,38.378761291503906,-2.220240354537964,0.8168801069259644,2.6941721439361572,2
290,83.97566986083984,-5.265485763549805,43.17562484741211,-1.8109408617019653,1.40645432472229,2.960677146911621,2
291,66.0891342163086,7.470087051391602,46.50223922729492,-1.6858826875686646,2.347094774246216,3.462897300720215,2
292,45.542545318603516,15.823625564575195,47.969600677490234,-1.8331552743911743,2.479904890060425,3.683988571166992,2
293,30.321090698242188,14.719428062438965,46.317665100097656,-1.9768719673156738,3.401029586791992,4.371866703033447,2
294,11.685461044311523,11.562763214111328,43.03794860839844,-2.16152024269104,3.0723037719726562,4.557652473449707,2
295,7.444760322570801,-4.615649223327637,40.0588493347168,-2.2256932258605957,3.4645888805389404,5.095775604248047,2
296,13.72565746307373,-28.62616539001465,34.09896469116211,-2.0737500190734863,3.1417508125305176,5.35057258605957,2
297,19.79522132873535,-45.17172622680664,26.312593460083008,-1.681499719619751,3.47698712348938,5.753422260284424,2
298,19.383501052856445,-49.069313049316406,19.86846351623535,-1.4733095169067383,3.320382833480835,5.721183776855469,2
299,24.987510681152344,-46.536067962646484,15.468158721923828,-0.8035269975662231,3.8270576000213623,6.0768303871154785,2
300,33.5668830871582,-37.402748107910156,8.783303260803223,-0.4246305823326111,3.9948549270629883,6.11614465713501,2
301,41.199073791503906,-30.976961135864258,3.094388961791992,-0.24038644134998322,4.504528522491455,6.107864856719971,2
302,27.07021141052246,-23.168676376342773,0.5350541472434998,0.02185998298227787,4.640087604522705,6.033853054046631,2
303,-9.476318359375,-2.773580551147461,-2.8341057300567627,0.3562965989112854,5.191736221313477,6.143383026123047,2
304,-30.917036056518555,14.986529350280762,-9.344888687133789,0.23869898915290833,4.9385809898376465,6.023335933685303,2
305,-31.11809539794922,19.430953979492188,-12.441779136657715,-0.11610361933708191,4.614001750946045,5.815878391265869,2
306,-21.59638214111328,6.7513861656188965,-10.144081115722656,-0.1824580281972885,4.213998317718506,5.791340351104736,2
307,-8.210535049438477,-11.414579391479492,-10.037172317504883,0.9266920685768127,5.572506427764893,6.460350513458252,2
308,-4.422516345977783,-22.7005558013916,-8.645599365234375,0.8137754201889038,5.116994857788086,6.158717632293701,2
309,-9.372644424438477,-24.324800491333008,-6.4901652336120605,1.1392146348953247,4.8730645179748535,6.176757335662842,2
310,-24.873825073242188,-17.219036102294922,-8.97361946105957,1.3738601207733154,5.321483612060547,6.043774127960205,2
311,-37.394412994384766,-3.612574338912964,-10.104888916015625,1.5509833097457886,4.429538249969482,6.0316901206970215,2
312,-47.895912170410156,5.042150497436523,-14.408065795898438,0.7840352058410645,3.944538116455078,5.4135050773620605,2
313,-45.67873001098633,11.328510284423828,-16.452112197875977,0.8574314117431641,3.2462756633758545,5.402353763580322,2
314,-36.31044006347656,17.210824966430664,-16.13340187072754,0.9960588216781616,2.375094175338745,5.482237815856934,2
315,-18.552509307861328,27.132854461669922,-12.656401634216309,0.0709158256649971,2.2809090614318848,4.888219356536865,2
316,13.547064781188965,36.901058197021484,-10.54617691040039,-0.08618748933076859,2.436415433883667,4.808701992034912,2
317,26.76801109313965,35.69877243041992,-11.666072845458984,-0.4821053147315979,2.58351731300354,4.7096848487854,2
318,25.411659240722656,18.055723190307617,-15.863774299621582,-0.831676185131073,3.161471366882324,4.579355716705322,2
319,21.839008331298828,-13.2929048538208,-18.67059898376465,-0.9130221009254456,3.4966049194335938,4.446987152099609,2
320,7.938588619232178,-41.28682327270508,-19.786195755004883,-0.503372311592102,4.12882661819458,4.329944610595703,2
321,-17.437156677246094,-60.377830505371094,-17.111164093017578,-0.01485426351428032,3.7794816493988037,4.104775428771973,2
322,-48.5048828125,-64.6926040649414,-14.64559555053711,0.4917623996734619,3.2203500270843506,3.852897882461548,2
323,-75.63485717773438,-53.7584228515625,-12.04632568359375,1.0579736232757568,2.5792016983032227,3.650618076324463,2
324,-81.49551391601562,-31.714651107788086,-12.286227226257324,1.498134732246399,1.3444015979766846,3.4966657161712646,2
325,-63.52704620361328,-14.47252082824707,-15.170580863952637,1.7355659008026123,0.7734584808349609,3.3388209342956543,2
326,-28.880292892456055,-4.0534892082214355,-17.935253143310547,1.7294301986694336,0.19765880703926086,3.1526360511779785,2
327,18.533967971801758,-1.3255205154418945,-20.75396728515625,1.7939010858535767,0.1295006275177002,2.953195095062256,2
328,52.58037567138672,2.529989719390869,-20.22919273376465,1.7246030569076538,0.5752537846565247,2.7050621509552,2
329,58.882755279541016,5.455056190490723,-19.984037399291992,1.8100090026855469,1.1968932151794434,2.490394353866577,2
330,36.19419479370117,15.108136177062988,-19.996496200561523,2.2259747982025146,1.7667378187179565,2.277566909790039,2
331,-6.711080074310303,29.314001083374023,-20.01552391052246,2.146306276321411,1.725467562675476,2.174506187438965,2
332,-52.311614990234375,39.81990432739258,-21.884504318237305,1.5972015857696533,1.454719066619873,2.0231246948242188,2
333,-76.3960952758789,41.1038932800293,-24.330957412719727,1.6242263317108154,0.794886589050293,1.8327035903930664,2
334,-83.82914733886719,37.64974594116211,-22.445993423461914,0.9187427759170532,-0.4043114483356476,1.7218860387802124,2
335,-70.3587646484375,26.27796173095703,-17.806617736816406,0.43582582473754883,-0.855055034160614,1.4008352756500244,2
336,-25.243972778320312,15.31169319152832,-11.526948928833008,0.05988258495926857,-1.7842931747436523,1.3042421340942383,2
337,22.079769134521484,-7.329236030578613,-7.680058002471924,-0.07416322082281113,-1.3663742542266846,1.088552713394165,2
338,57.058231353759766,-26.258769989013672,-7.133120059967041,0.08895418047904968,-1.0136630535125732,0.9941645860671997,2
339,68.54541015625,-37.85746765136719,-7.544868469238281,0.31992456316947937,-0.5575491189956665,0.9482744932174683,2
340,53.56171417236328,-39.525272369384766,-5.688285827636719,0.8050742745399475,0.4830135703086853,0.8173856735229492,2
341,21.78277587890625,-30.970903396606445,-2.73933744430542,1.4010040760040283,0.48227545619010925,0.7357336282730103,2
342,-9.439936637878418,-27.375186920166016,-0.4621981084346771,1.6853013038635254,0.7516669631004333,0.7038887739181519,2
343,-29.337358474731445,-22.522924423217773,0.3078419864177704,1.705222487449646,0.23844946920871735,0.7984351515769958,2
344,-49.02794647216797,-10.762981414794922,-1.0472650527954102,2.0382862091064453,0.042901065200567245,0.7599936723709106,2
345,-63.04655456542969,0.22815659642219543,-5.5252885818481445,2.1512348651885986,-0.6358432173728943,0.7649357914924622,2
346,-62.496360778808594,15.873406410217285,-7.2156572341918945,2.057558059692383,-1.3409559726715088,0.7345749139785767,2
347,-46.94744873046875,25.65145492553711,-6.7587666511535645,1.8535966873168945,-1.9280176162719727,0.6592144966125488,2
348,-20.235157012939453,28.07698631286621,-6.9635090827941895,1.4588814973831177,-2.308124303817749,0.6042396426200867,2
349,9.725491523742676,32.630035400390625,-6.086833953857422,0.9636400938034058,-2.2647688388824463,0.534951388835907,2
350,32.456661224365234,37.72712326049805,-9.03830337524414,0.6337186098098755,-2.3358964920043945,0.4967290461063385,2
351,45.65256118774414,27.448522567749023,-12.207817077636719,0.039690058678388596,-1.8688079118728638,0.4543153941631317,2
352,49.337100982666016,14.662886619567871,-12.542805671691895,-0.28329479694366455,-1.5661273002624512,0.37423741817474365,2
353,43.60128402709961,4.417662143707275,-11.797069549560547,-0.39764371514320374,-1.0495463609695435,0.23178446292877197,2
354,34.55449676513672,-6.525531768798828,-8.883048057556152,-0.3507983386516571,-0.7670560479164124,0.08986029773950577,2
355,24.65219497680664,-15.651148796081543,-5.3786773681640625,-0.28452572226524353,-0.6666404604911804,0.011505438014864922,2
356,16.438915252685547,-24.15493392944336,-1.3122453689575195,-0.051825180649757385,-0.5537497997283936,-0.05607739835977554,2
357,18.89620018005371,-19.627946853637695,0.47253677248954773,0.20854908227920532,-0.5301750898361206,-0.07557304203510284,2
358,30.924650192260742,-1.7988746166229248,0.9725220203399658,0.2296900451183319,-0.3550094664096832,-0.016771236434578896,2
359,46.41312026977539,10.52448844909668,-0.30110326409339905,0.19992880523204803,0.10156061500310898,0.006330322474241257,2
360,47.69463348388672,14.339221954345703,-2.118339776992798,-0.0032919631339609623,0.26990723609924316,0.017797360196709633,2
361,36.134307861328125,1.6906155347824097,-2.1672089099884033,-0.16918310523033142,1.1983692646026611,0.026986440643668175,2
362,19.009098052978516,-9.233559608459473,-1.7275596857070923,-0.13467970490455627,0.8759473562240601,-0.036143943667411804,2
363,6.185306549072266,-10.019229888916016,-2.533661365509033,-0.009998565539717674,1.285784363746643,-0.050352390855550766,2
364,-2.2751519680023193,-11.318458557128906,-3.441241502761841,0.06141094118356705,0.8225337266921997,-0.10516464710235596,2
365,5.325602054595947,-13.670158386230469,-4.876254081726074,0.23811857402324677,1.0794827938079834,-0.13179737329483032,2
366,23.174365997314453,-16.019941329956055,-7.728737831115723,0.32089629769325256,1.2917985916137695,-0.1712956577539444,2
367,38.067970275878906,-11.183128356933594,-9.721978187561035,0.5602715015411377,1.709612250328064,-0.24918855726718903,2
368,39.872066497802734,-4.165745258331299,-12.50209903717041,0.6260589957237244,1.747681975364685,-0.36426857113838196,2
369,27.703861236572266,0.18966330587863922,-14.075860977172852,0.7272322773933411,2.483961343765259,-0.4817564785480499,2
370,4.0391340255737305,1.6515945196151733,-15.908220291137695,0.6104835271835327,2.391136407852173,-0.6306119561195374,2
371,-14.309876441955566,0.5650021433830261,-17.548131942749023,0.553837776184082,2.386991262435913,-0.7898296117782593,2
372,-25.26837921142578,3.3409101963043213,-17.72995948791504,0.4992122948169708,2.211998462677002,-0.9831082224845886,2
373,-24.45733070373535,-3.2231392860412598,-18.331764221191406,0.49829018115997314,2.0112078189849854,-1.156635046005249,2
374,-16.18362808227539,-16.478866577148438,-17.781755447387695,0.4749610424041748,1.8328850269317627,-1.351391077041626,2
375,-3.800496816635132,-34.322689056396484,-16.73107147216797,0.826913058757782,1.7761411666870117,-1.5068074464797974,2
376,13.077122688293457,-41.44089126586914,-15.83757209777832,1.3001554012298584,1.692111611366272,-1.662241816520691,2
377,26.426820755004883,-34.82978439331055,-9.633769035339355,2.0252511501312256,1.6056686639785767,-1.7585786581039429,2
378,22.80800437927246,-23.127973556518555,-1.1059057712554932,2.317765235900879,1.8740053176879883,-1.8616524934768677,2
379,19.813203811645508,-3.271357536315918,2.3325355052948,2.4652559757232666,2.223125457763672,-1.8962947130203247,2
380,11.071141242980957,20.5253963470459,2.972738027572632,2.3723604679107666,2.2005956172943115,-1.8632938861846924,2
381,-1.121430516242981,42.475921630859375,4.358341217041016,1.9661701917648315,2.4117422103881836,-1.871232032775879,2
382,-15.962886810302734,46.30158996582031,6.147504806518555,1.3415248394012451,2.3153247833251953,-1.8370267152786255,2
383,-15.840047836303711,39.41670227050781,12.44728946685791,0.901941180229187,2.144289255142212,-1.7480289936065674,2
384,-7.883011341094971,21.56999969482422,19.69226837158203,0.37446439266204834,2.0606393814086914,-1.6449875831604004,2
385,1.6346464157104492,4.794132232666016,24.520605087280273,0.3682672083377838,2.095086097717285,-1.4132521152496338,2
386,3.2449374198913574,-4.944746017456055,29.376136779785156,0.398954302072525,2.2602031230926514,-1.1697207689285278,2
387,-0.26752233505249023,-6.3838019371032715,35.37664794921875,0.4912603795528412,2.4068233966827393,-0.8829023838043213,2
388,1.45809006690979,-0.2692638635635376,38.666709899902344,0.7937562465667725,2.1314048767089844,-0.44831258058547974,2
389,4.1481757164001465,-3.850855588912964,36.27265548706055,0.7865911722183228,1.909198522567749,-0.04716040566563606,2
390,9.808767318725586,4.582877159118652,26.997873306274414,0.8103511929512024,2.1219747066497803,0.28160279989242554,2
391,11.089859008789062,16.18321990966797,16.571651458740234,0.6964508295059204,2.3269128799438477,0.5185031890869141,2
392,4.73867130279541,29.956645965576172,6.94412899017334,0.37862855195999146,2.5849997997283936,0.6359959244728088,2
393,5.601945400238037,30.09548568725586,2.8528881072998047,0.012702920474112034,2.6588313579559326,0.696980357170105,2
394,5.621025085449219,17.1849308013916,1.0098003149032593,-0.23387396335601807,2.5332999229431152,0.7491471171379089,2
395,8.100791931152344,17.058794021606445,-3.372413396835327,-0.5431108474731445,2.5550734996795654,0.7308809161186218,2
396,14.025038719177246,15.834246635437012,-7.95527458190918,-0.7748421430587769,2.93597412109375,0.6803070902824402,2
397,13.765205383300781,-0.47138512134552,-9.563477516174316,-1.0028003454208374,3.1285388469696045,0.5868227481842041,2
398,12.468964576721191,-21.87576675415039,-7.11063814163208,-0.8897618055343628,3.305011749267578,0.5054029226303101,2
399,8.121469497680664,-30.684364318847656,-4.014562606811523,-0.48010697960853577,3.307969808578491,0.4622105062007904,2
400,-1.826134443283081,-39.097225189208984,-0.08980982005596161,0.054415855556726456,3.3640472888946533,0.46306487917900085,2
401,-6.4989142417907715,-38.04924392700195,2.426865339279175,0.3190285861492157,3.1985697746276855,0.3954240679740906,2
402,-14.659131050109863,-22.154041290283203,3.288689374923706,0.8679601550102234,3.088395357131958,0.4596017897129059,2
403,-17.417524337768555,-5.977935314178467,4.119996547698975,0.8871253132820129,2.861999034881592,0.4294206202030182,2
404,-20.298933029174805,6.370965003967285,4.754031181335449,1.1048837900161743,2.6682333946228027,0.5173948407173157,2
405,-20.687217712402344,22.650089263916016,4.007996559143066,0.9123318195343018,2.4299190044403076,0.5414690375328064,2
406,-18.465845108032227,26.623252868652344,4.992830276489258,0.5104475021362305,2.1145880222320557,0.5421545505523682,2
407,-23.525310516357422,24.889450073242188,6.477104187011719,0.2168945074081421,1.975701928138733,0.5963379740715027,2
408,-31.137250900268555,19.735013961791992,7.2133917808532715,-0.17797593772411346,1.588260531425476,0.6289832592010498,2
409,-29.089765548706055,14.68123722076416,5.7621331214904785,-0.2614758610725403,1.4009307622909546,0.7330846190452576,2
410,-23.686634063720703,10.282491683959961,3.3885111808776855,-0.4990892708301544,0.9472432136535645,0.7640189528465271,2
411,-7.562638759613037,-9.828651428222656,3.0880849361419678,-0.5059201121330261,0.6991347074508667,0.8033124804496765,2
412,17.558631896972656,-31.053728103637695,3.160367488861084,-0.2549297511577606,0.6904336810112,0.8516570329666138,2
413,34.295536041259766,-42.202308654785156,2.9151880741119385,0.3068947494029999,1.0041918754577637,0.9097734689712524,2
414,39.07208251953125,-26.699932098388672,3.470644950866699,0.8054426908493042,1.7806611061096191,0.967973530292511,2
415,39.17396545410156,-3.0819036960601807,0.91355961561203,1.024695634841919,2.1753313541412354,0.9895606637001038,2
416,20.83327293395996,9.537649154663086,0.7420925498008728,1.013503074645996,2.2460854053497314,0.9839146137237549,2
417,-13.645874977111816,18.345138549804688,3.1513490676879883,0.8095564842224121,2.5527420043945312,0.999144971370697,2
418,-45.26929473876953,32.35779571533203,4.795190334320068,0.4464424252510071,1.9171504974365234,1.0260279178619385,2
419,-70.3590087890625,40.60157012939453,3.868992805480957,-0.1261555701494217,1.2427244186401367,1.0575757026672363,2
420,-74.40950012207031,41.05653762817383,6.709019660949707,-0.44273003935813904,0.14661629498004913,1.1075596809387207,2
421,-51.78532791137695,33.44881057739258,7.71415376663208,-0.812025785446167,-0.612509548664093,1.177382469177246,2
422,-13.376906394958496,22.66162109375,7.994276523590088,-1.251827597618103,-1.1542651653289795,1.2389514446258545,2
423,28.137956619262695,11.002288818359375,5.821777820587158,-1.589290976524353,-1.1699424982070923,1.3065975904464722,2
424,60.81797409057617,-2.939706325531006,5.613715171813965,-1.638344407081604,-0.5289663076400757,1.3866639137268066,2
425,78.47413635253906,-7.929661750793457,9.339016914367676,-1.54120934009552,0.4407305121421814,1.4852557182312012,2
426,73.47897338867188,-6.675619125366211,11.23123836517334,-1.4184038639068604,1.183213710784912,1.5696040391921997,2
427,41.94059371948242,-16.654300689697266,14.216306686401367,-0.6134278178215027,2.333812713623047,1.6796283721923828,2
428,2.757556676864624,-14.77437686920166,14.596874237060547,-0.3695722818374634,2.456096649169922,1.78001868724823,2
429,-32.08644104003906,-3.3806092739105225,12.013916015625,-0.2863343060016632,2.374459743499756,1.913703203201294,2
430,-52.569252014160156,6.854301929473877,11.88393783569336,-0.30274930596351624,1.7679266929626465,2.000284194946289,2
431,-63.24278259277344,19.820066452026367,12.047892570495605,-0.6198185682296753,1.0893231630325317,2.113710880279541,2
432,-63.69898223876953,30.80801773071289,13.151595115661621,-0.621921181678772,0.4904053807258606,2.2370259761810303,2
433,-46.21457290649414,48.06760025024414,14.775044441223145,-1.0593680143356323,-0.2121141254901886,2.36027455329895,2
434,-16.255399703979492,73.35704040527344,14.46198844909668,-1.8084553480148315,-0.2820894420146942,2.5652949810028076,2
435,4.807913780212402,92.82083892822266,8.407156944274902,-2.94126033782959,-0.42004677653312683,2.702977180480957,2
436,17.519418716430664,85.73167419433594,3.2584824562072754,-3.7266979217529297,-0.07649125903844833,2.810586929321289,2
437,12.832159042358398,55.935455322265625,-0.13221168518066406,-4.7451090812683105,-0.10675220191478729,2.8040759563446045,2
438,-2.865995407104492,19.656564712524414,-0.05785767361521721,-5.090989112854004,-0.08705510199069977,2.762378692626953,2
439,-8.555563926696777,-10.470823287963867,0.9436365365982056,-5.302031993865967,-0.1667630672454834,2.764763355255127,2
440,-5.96741247177124,-42.747005462646484,1.5429898500442505,-5.010905742645264,-0.3061063289642334,2.7373640537261963,2
441,11.47204875946045,-74.00382232666016,1.8460203409194946,-4.191110134124756,-0.35655730962753296,2.69726300239563,2
442,43.86318588256836,-94.16970825195312,5.153404235839844,-3.1774113178253174,-0.06878464668989182,2.7404162883758545,2
443,75.05034637451172,-94.1481704711914,6.535566329956055,-1.8250635862350464,0.5316249132156372,2.7676637172698975,2
444,87.719482421875,-72.23574829101562,6.022467613220215,-1.270599365234375,1.374111533164978,2.906648874282837,2
445,75.32272338867188,-37.971126556396484,0.5164713263511658,-0.5507534742355347,2.5661346912384033,3.0749688148498535,2
446,39.852760314941406,3.393321990966797,-5.37116003036499,-0.2647721767425537,2.8158392906188965,2.8580687046051025,2
447,-2.1711294651031494,43.49974060058594,-9.730061531066895,-0.5226501822471619,3.0370233058929443,2.7876148223876953,2
448,-24.326942443847656,70.8749008178711,-9.61676025390625,-1.243463397026062,2.913405656814575,2.7240099906921387,2
449,-34.86666488647461,76.02644348144531,-6.720298767089844,-2.1043155193328857,2.691028118133545,2.697972059249878,2
450,-33.9033203125,60.23868942260742,-2.771186351776123,-3.196258068084717,2.171722412109375,2.6248464584350586,2
451,-24.31647491455078,29.261531829833984,1.0837862491607666,-3.24603271484375,1.9260566234588623,2.6460564136505127,2
452,-10.256329536437988,-5.88506555557251,4.133453845977783,-3.301290273666382,1.7003580331802368,2.6667022705078125,2
453,9.22801685333252,-33.946044921875,5.543914794921875,-3.0842947959899902,1.869657039642334,2.794550895690918,2
454,23.229827880859375,-46.31706619262695,6.231936454772949,-2.665864944458008,2.040102958679199,2.8541011810302734,2
455,27.36319351196289,-42.356407165527344,5.919939994812012,-1.9531699419021606,2.4036824703216553,2.950389862060547,2
456,15.876815795898438,-26.884294509887695,3.031916379928589,-1.501470685005188,2.778099298477173,3.0345187187194824,2
457,-7.610960960388184,-2.964667797088623,-0.35706743597984314,-1.3989895582199097,2.9109530448913574,3.0517847537994385,2
458,-40.989322662353516,18.54492950439453,-3.8877522945404053,-1.4039530754089355,2.6304805278778076,2.9946513175964355,2
459,-76.88899993896484,29.842327117919922,-5.337488174438477,-1.8876944780349731,1.7740724086761475,2.816558837890625,2
460,-99.76612091064453,25.98976707458496,-5.37294864654541,-2.1415562629699707,0.6836416125297546,2.6877281665802,2
461,-108.8818588256836,11.41722297668457,-7.539644241333008,-2.4914486408233643,-0.15039514005184174,2.6874947547912598,2
462,-96.76468658447266,-1.9919726848602295,-12.790204048156738,-2.4349496364593506,-1.3090842962265015,2.5821969509124756,2
463,-63.81614303588867,-12.47402286529541,-16.282873153686523,-2.321458101272583,-1.7612369060516357,2.597254514694214,2
464,-19.235122680664062,-20.25037956237793,-16.237571716308594,-2.0353591442108154,-2.377835273742676,2.41538405418396,2
465,24.297727584838867,-22.150611877441406,-13.676102638244629,-1.708721399307251,-2.1014323234558105,2.382063150405884,2
466,55.65263748168945,-17.85953140258789,-10.198845863342285,-1.482108235359192,-1.5973148345947266,2.3156652450561523,2
467,73.58968353271484,-21.444602966308594,-9.863555908203125,-1.3000560998916626,-0.8549479842185974,2.2583870887756348,2
468,72.93157196044922,-24.59427261352539,-8.11758041381836,-0.8984277844429016,0.05035647004842758,2.1891746520996094,2
469,60.69915771484375,-14.973587036132812,-5.691545009613037,-0.8016812801361084,0.6714296340942383,2.107332706451416,2
470,47.80618667602539,6.185033798217773,-1.9506876468658447,-0.37297523021698,1.7458126544952393,2.126164674758911,2
471,31.225521087646484,22.475736618041992,0.6721197366714478,-0.7348607182502747,1.6085692644119263,2.0292067527770996,2
472,6.266566753387451,42.68461608886719,0.7407946586608887,-1.132499098777771,1.8707919120788574,2.0645334720611572,2
473,-27.030508041381836,60.43334197998047,-0.8787497282028198,-1.5813243389129639,1.7718180418014526,2.0624284744262695,2
474,-62.94137191772461,59.93588638305664,-0.7575236558914185,-2.4922170639038086,1.111411452293396,2.046308994293213,2
475,-83.72607421875,45.433982849121094,-0.7173066139221191,-2.94415020942688,0.42005157470703125,2.0390193462371826,2
476,-89.15492248535156,21.052715301513672,-5.6775360107421875,-3.269346237182617,-0.33425694704055786,2.036130428314209,2
477,-82.58084869384766,-1.209315299987793,-11.008688926696777,-3.334484100341797,-1.4522349834442139,1.9081991910934448,2
478,-74.42354583740234,-17.2884578704834,-13.854852676391602,-3.132459878921509,-2.061521291732788,1.825856328010559,2
479,-58.144107818603516,-24.971466064453125,-16.85430145263672,-2.769157886505127,-2.900611400604248,1.6440472602844238,2
480,-29.595773696899414,-21.16887855529785,-19.77791976928711,-2.4046008586883545,-3.118053913116455,1.5393073558807373,2
481,4.62497615814209,-19.501420974731445,-22.76558494567871,-2.307217836380005,-3.1800975799560547,1.4115123748779297,2
482,47.18235778808594,-15.484023094177246,-24.84456443786621,-2.029871940612793,-2.932530164718628,1.1929669380187988,2
483,65.94284057617188,-18.88192367553711,-24.203550338745117,-1.7215055227279663,-2.1828036308288574,0.9712749123573303,2
484,65.36131286621094,-3.9130163192749023,-22.699453353881836,-1.4691641330718994,-1.436426043510437,0.7367662787437439,2
485,45.257877349853516,17.609586715698242,-21.679458618164062,-1.4292911291122437,-0.9735730886459351,0.467691034078598,2
486,22.14242172241211,28.959325790405273,-22.313922882080078,-1.9423836469650269,-0.6332272887229919,0.3375340700149536,2
487,2.6585819721221924,37.990562438964844,-21.279218673706055,-2.3257274627685547,-0.4427182078361511,0.14230908453464508,2
488,-16.728490829467773,30.966781616210938,-17.987796783447266,-2.7397384643554688,-0.5759268403053284,-0.07499629259109497,2
489,-35.97861862182617,15.120741844177246,-14.235665321350098,-3.1312334537506104,-0.8714172840118408,-0.22917303442955017,2
490,-58.70963668823242,-0.45831498503685,-12.662540435791016,-3.252026319503784,-1.3236502408981323,-0.38033485412597656,2
491,-69.25021362304688,-21.509122848510742,-10.476737976074219,-2.9636361598968506,-2.136889696121216,-0.6189779043197632,2
492,-51.06839370727539,-39.00750732421875,-6.879587173461914,-2.5779356956481934,-2.517110586166382,-0.6839712262153625,2
493,-26.375457763671875,-47.16165542602539,-2.1493189334869385,-1.8382502794265747,-3.1076419353485107,-0.8511168956756592,2
494,-13.216200828552246,-40.95386505126953,0.5697855949401855,-1.3991789817810059,-3.2217557430267334,-0.803297221660614,2
495,5.143979549407959,-14.843246459960938,-1.5886669158935547,-0.9345270395278931,-3.5731379985809326,-0.8573219180107117,2
496,30.863037109375,16.447511672973633,-4.377274513244629,-1.3311529159545898,-3.257420063018799,-0.6525773406028748,2
497,45.554595947265625,39.46165466308594,-9.322830200195312,-1.7191885709762573,-2.777808427810669,-0.6098078489303589,2
498,44.1595344543457,60.36625289916992,-13.92325496673584,-2.1669039726257324,-2.240387201309204,-0.7016493678092957,2
499,25.190393447875977,74.9922866821289,-16.02712631225586,-3.0273871421813965,-1.7632719278335571,-0.7562879920005798,2
500,-3.9596636295318604,59.866302490234375,-17.127376556396484,-3.8091185092926025,-1.735593557357788,-0.947460949420929,2
501,-18.250329971313477,30.549741744995117,-15.0617094039917,-4.2879815101623535,-1.7739654779434204,-1.1500624418258667,2
502,-17.426380157470703,-6.4652910232543945,-13.458995819091797,-4.121659755706787,-2.1723313331604004,-1.5219831466674805,2
503,-6.6964192390441895,-50.395076751708984,-8.303970336914062,-3.8099963665008545,-2.197575569152832,-1.6837818622589111,2
504,5.825723171234131,-80.27410888671875,-3.937105894088745,-3.1178982257843018,-2.1981098651885986,-1.7923123836517334,2
505,11.194610595703125,-100.09322357177734,-2.6982908248901367,-1.7848222255706787,-2.2311158180236816,-2.0235371589660645,2
506,10.00107192993164,-92.30802154541016,-3.9847471714019775,-1.1234487295150757,-2.101611852645874,-1.8732436895370483,2
507,7.713489055633545,-74.09629821777344,-7.239983558654785,0.023132821545004845,-2.0628390312194824,-1.9975770711898804,2
508,9.606535911560059,-42.908790588378906,-9.573325157165527,0.4510168433189392,-1.971535325050354,-1.9303797483444214,2
509,14.793108940124512,-19.319326400756836,-9.441330909729004,0.9156525731086731,-1.843264102935791,-2.035045623779297,2
510,12.961052894592285,-0.34813740849494934,-8.253214836120605,1.1439626216888428,-1.5557632446289062,-2.127913236618042,2
511,6.99555778503418,16.71959686279297,-6.7996368408203125,1.2022610902786255,-1.5620414018630981,-2.2451210021972656,2
512,8.385045051574707,32.042781829833984,-4.590795040130615,0.9637829661369324,-1.4733357429504395,-2.2943665981292725,2
513,7.68828821182251,37.2811393737793,-4.231194496154785,0.4826306998729706,-1.3680088520050049,-2.2915854454040527,2
514,6.127137660980225,35.99014663696289,-3.698176383972168,-0.05021420866250992,-1.2805753946304321,-2.284213066101074,2
515,10.964286804199219,37.19512176513672,-1.344882845878601,-0.5573051571846008,-1.1239945888519287,-2.2767274379730225,2
516,15.95380687713623,34.5864143371582,-0.027896186336874962,-1.0457446575164795,-0.9610310196876526,-2.253110408782959,2
517,13.832708358764648,21.170166015625,1.9996628761291504,-1.460288643836975,-0.8798352479934692,-2.2178092002868652,2
518,5.365837097167969,3.7697205543518066,5.7382354736328125,-1.3973524570465088,-0.7867002487182617,-2.2635552883148193,2
519,-1.1452220678329468,-14.416990280151367,5.888853073120117,-1.266788125038147,-0.754466712474823,-2.2394490242004395,2
520,-3.5737602710723877,-26.199451446533203,5.347357749938965,-1.0220165252685547,-0.5928584337234497,-2.2105462551116943,2
521,2.3013479709625244,-28.771455764770508,4.0861029624938965,-0.4855900704860687,-0.667690098285675,-2.2245259284973145,2
522,12.79612922668457,-28.275787353515625,2.6119351387023926,0.0584094412624836,-0.6268728971481323,-2.250518321990967,2
523,22.275634765625,-31.596881866455078,1.8470096588134766,0.44344374537467957,-0.26219332218170166,-2.266740560531616,2
524,29.825279235839844,-28.16438102722168,1.8748972415924072,0.8616147637367249,-0.05162086710333824,-2.266860246658325,2
525,32.225555419921875,-16.662153244018555,0.42801588773727417,0.5925026535987854,0.2608053982257843,-2.140071153640747,2
526,28.78877830505371,-0.8864373564720154,-0.23763281106948853,0.9057471752166748,0.754441499710083,-2.200322389602661,2
527,22.95428466796875,14.632033348083496,0.28966763615608215,0.7275487780570984,0.9481399059295654,-2.1580452919006348,2
528,8.934590339660645,28.135461807250977,-0.39954596757888794,0.5045034885406494,1.2216722965240479,-2.16290545463562,2
529,-9.595805168151855,36.174102783203125,0.5049675107002258,-0.020358838140964508,1.1644015312194824,-2.1116747856140137,2
530,-30.050884246826172,35.609920501708984,1.6650729179382324,-0.4796935021877289,0.8748226165771484,-2.06014347076416,2
531,-47.55385971069336,25.195240020751953,2.7104110717773438,-0.8598213195800781,0.6225668787956238,-2.0516855716705322,2
532,-57.588619232177734,5.268218517303467,3.2358438968658447,-0.9517661333084106,0.034051984548568726,-2.0095252990722656,2
533,-59.851016998291016,-24.664770126342773,3.3523290157318115,-0.8270760178565979,-0.7663509249687195,-1.9372615814208984,2
534,-54.62373733520508,-52.88184356689453,3.4364852905273438,-0.3821794390678406,-1.1096481084823608,-1.9429758787155151,2
535,-36.723148345947266,-73.04621887207031,3.6518149375915527,0.2973763346672058,-1.572462558746338,-1.9035558700561523,2
536,-13.196150779724121,-70.80663299560547,2.8142216205596924,1.3040227890014648,-1.9894356727600098,-1.8276567459106445,2
537,2.4578769207000732,-51.7404670715332,2.6371941566467285,1.7409976720809937,-1.5830782651901245,-1.875613808631897,2
538,7.974981784820557,-24.835988998413086,0.10307823121547699,2.433741807937622,-1.434053897857666,-1.8707700967788696,2
539,-1.4051200151443481,8.431598663330078,-6.109108924865723,2.407287120819092,-1.403096079826355,-1.8581455945968628,2
540,-17.804155349731445,46.08836364746094,-10.803985595703125,2.060590982437134,-1.4181064367294312,-1.9373060464859009,2
541,-34.285194396972656,86.88966369628906,-12.237333297729492,1.3534208536148071,-1.4690688848495483,-2.1026785373687744,2
542,-49.55048370361328,101.80864715576172,-16.03351402282715,0.05688052996993065,-2.1980130672454834,-2.128680467605591,2
543,-49.01716613769531,100.46688842773438,-19.716157913208008,-0.7071697115898132,-2.6498916149139404,-2.3781611919403076,2
544,-43.11867141723633,77.08820343017578,-16.012741088867188,-1.8423813581466675,-3.2914416790008545,-2.558601140975952,2
545,-37.128055572509766,44.21092224121094,-7.255224227905273,-2.143291473388672,-3.670393228530884,-2.7906622886657715,2
546,-25.303390502929688,7.948100566864014,-1.1216723918914795,-2.581512689590454,-3.930225133895874,-2.880680799484253,2
547,0.7261003255844116,-33.20658493041992,4.6494832038879395,-2.2786827087402344,-4.16050386428833,-2.915306329727173,2
548,29.823131561279297,-80.99794006347656,8.66545295715332,-1.5109196901321411,-4.085721969604492,-2.8934578895568848,2
549,46.98878479003906,-112.74739074707031,10.685346603393555,-0.6344653367996216,-3.5593652725219727,-2.767695903778076,2
550,56.9259033203125,-105.21041870117188,13.982580184936523,0.6755853295326233,-2.776262044906616,-2.682894706726074,2
551,47.08348083496094,-69.73348236083984,15.922384262084961,1.2514852285385132,-2.5039474964141846,-2.3413469791412354,2
552,22.913938522338867,-18.573625564575195,19.259374618530273,1.9754538536071777,-1.8514142036437988,-2.241056203842163,2
553,10.185994148254395,25.270732879638672,19.123952865600586,1.8099349737167358,-1.883763074874878,-1.9262574911117554,2
554,9.495201110839844,57.46575927734375,15.33253002166748,1.3811440467834473,-1.8399271965026855,-1.7262842655181885,2
555,19.412919998168945,74.47196197509766,14.689305305480957,0.6342006325721741,-1.6882333755493164,-1.570683479309082,2
556,35.163082122802734,80.02975463867188,16.19780921936035,-0.2752992808818817,-1.3414045572280884,-1.4296491146087646,2
557,44.59504699707031,69.35608673095703,17.460012435913086,-1.143808126449585,-0.8934425115585327,-1.2722407579421997,2
558,39.610347747802734,45.610694885253906,18.768749237060547,-1.9081895351409912,-0.207973912358284,-1.1209551095962524,2
559,23.986736297607422,17.25827407836914,19.011343002319336,-2.117809295654297,-0.23043659329414368,-0.9101176261901855,2
560,10.411968231201172,-15.074393272399902,17.526369094848633,-2.1394340991973877,0.009079978801310062,-0.7472850680351257,2
561,-2.1493489742279053,-46.54737091064453,15.538804054260254,-1.7007312774658203,-0.10784374922513962,-0.5939885973930359,2
562,-19.815628051757812,-63.760833740234375,9.962336540222168,-1.0764659643173218,-0.20441816747188568,-0.4629603326320648,2
563,-42.34747314453125,-57.46756362915039,2.1831467151641846,-0.3986266255378723,-0.2777750492095947,-0.40287187695503235,2
564,-44.18235778808594,-34.8416748046875,-2.6622815132141113,0.1221313625574112,-1.0140061378479004,-0.3632014989852905,2
565,-32.8187255859375,0.39409303665161133,-3.671983003616333,0.28430357575416565,-1.493666172027588,-0.36883097887039185,2
566,-18.626100540161133,38.68687057495117,0.15604788064956665,0.20212669670581818,-1.7582006454467773,-0.40747272968292236,2
567,-3.99735689163208,68.73934173583984,6.565722942352295,-0.5683740377426147,-1.8740531206130981,-0.3819097578525543,2
568,8.264091491699219,70.4749984741211,11.22852611541748,-1.2073732614517212,-1.9553306102752686,-0.3283620774745941,2
569,13.475602149963379,52.72859191894531,12.672101974487305,-2.0234851837158203,-1.7888236045837402,-0.22560228407382965,2
570,10.531217575073242,17.309326171875,13.296804428100586,-2.465838670730591,-1.5623459815979004,-0.11746666580438614,2
571,2.9068398475646973,-19.785186767578125,11.89195728302002,-2.437347173690796,-1.4045976400375366,-0.0017185480101034045,2
572,-1.849702000617981,-53.849918365478516,7.637599468231201,-1.9889798164367676,-1.373196005821228,0.09265918284654617,2
573,-1.2714972496032715,-82.3052978515625,3.331777334213257,-1.1111233234405518,-1.3910231590270996,0.1449810415506363,2
574,4.036969184875488,-81.32736206054688,0.7933592796325684,-0.16436178982257843,-1.3985035419464111,0.17940548062324524,2
575,-1.5984997749328613,-48.89910125732422,-1.4891247749328613,0.8979780673980713,-1.327207088470459,0.16571809351444244,2
576,-12.987506866455078,-1.027425765991211,-3.267660617828369,0.7612214684486389,-1.4045660495758057,0.20694808661937714,2
577,-16.589685440063477,40.018672943115234,-0.012891652062535286,0.6256480813026428,-1.5573168992996216,0.18322061002254486,2
578,-16.598590850830078,65.66670227050781,0.9224133491516113,0.0004402952909003943,-1.7443474531173706,0.18599717319011688,2
579,-15.056795120239258,64.90840911865234,4.006307125091553,-0.8615051507949829,-1.866586685180664,0.20067912340164185,2
580,-4.147801876068115,38.744998931884766,4.223779678344727,-1.3139764070510864,-2.0752768516540527,0.21238386631011963,2
581,4.463423728942871,4.748632907867432,6.890527725219727,-1.6665773391723633,-2.0723187923431396,0.25370997190475464,2
582,15.373483657836914,-22.50421142578125,9.424551963806152,-1.4068478345870972,-1.941819667816162,0.2988389730453491,2
583,28.7047061920166,-42.362361907958984,12.153462409973145,-1.0042390823364258,-1.613394021987915,0.39514657855033875,2
584,32.8390007019043,-52.69253158569336,13.779664039611816,-0.5555835366249084,-1.3173019886016846,0.5329843759536743,2
585,36.32645034790039,-53.45735549926758,17.41359519958496,0.3889665901660919,-1.0361424684524536,0.6435873508453369,2
586,38.998878479003906,-47.988460540771484,19.212425231933594,0.7714882493019104,-0.6295474171638489,0.845116913318634,2
587,47.11949157714844,-47.5406608581543,19.28798484802246,1.4485737085342407,0.04492512345314026,1.011091947555542,2
588,59.389808654785156,-37.6128044128418,16.709318161010742,1.6729419231414795,0.13461129367351532,1.2485963106155396,2
589,69.77471160888672,-6.506843090057373,16.424222946166992,2.081181049346924,0.889663577079773,1.3890738487243652,2
590,56.107303619384766,21.19075584411621,15.443321228027344,1.9135236740112305,1.5967777967453003,1.5617682933807373,2
591,3.350738048553467,53.512298583984375,8.813358306884766,1.5232436656951904,2.0932116508483887,1.7113243341445923,2
592,-65.35263061523438,87.69337463378906,3.8278472423553467,0.8671343326568604,1.8012241125106812,1.8275833129882812,2
593,-105.49706268310547,119.92988586425781,2.0996804237365723,-0.5645768046379089,0.6353867053985596,1.9237630367279053,2
594,-118.30325317382812,125.13138580322266,2.69385027885437,-1.476868987083435,-0.09023715555667877,1.9256752729415894,2
595,-108.85667419433594,92.76278686523438,3.401611328125,-2.9521355628967285,-1.5784558057785034,1.946363091468811,2
596,-83.14090728759766,41.10209655761719,5.133219242095947,-3.4887547492980957,-2.2137277126312256,1.957470178604126,2
597,-54.22887420654297,-11.713797569274902,2.730759382247925,-3.8063108921051025,-3.1805574893951416,1.9963122606277466,2
598,-10.945503234863281,-49.382049560546875,1.8248686790466309,-3.273801803588867,-3.602069854736328,2.062551736831665,2
599,39.23729705810547,-66.36982727050781,6.103471755981445,-2.4499289989471436,-3.5569190979003906,2.1425533294677734,2
600,73.75785064697266,-72.48417663574219,8.246101379394531,-1.5872246026992798,-2.6471896171569824,2.272458076477051,2
601,91.07877349853516,-77.24258422851562,12.24181079864502,-1.1945855617523193,-1.8336973190307617,2.3968911170959473,2
602,91.12442016601562,-47.57893753051758,17.224138259887695,-0.04326547682285309,-0.5935506820678711,2.5549144744873047,2
603,74.69551086425781,10.290414810180664,18.899953842163086,0.038740042597055435,-0.07759424299001694,2.7245466709136963,2
604,35.995452880859375,55.80620574951172,15.069130897521973,-0.6341686844825745,0.7557588815689087,2.940694570541382,2
605,-3.4759299755096436,74.39812469482422,10.904138565063477,-1.1206282377243042,0.5271909832954407,3.051384449005127,2
606,-39.14162826538086,65.04471588134766,8.67371940612793,-2.1878867149353027,0.3692700266838074,3.1631531715393066,2
607,-67.14552307128906,39.624595642089844,7.312224388122559,-2.9898436069488525,-0.28074246644973755,3.2307627201080322,2
608,-87.75820922851562,15.781211853027344,1.6995396614074707,-2.745063304901123,-1.360040307044983,3.2691850662231445,2
609,-89.67756652832031,-11.612544059753418,-1.4079301357269287,-2.7412009239196777,-2.2415683269500732,3.276907205581665,2
610,-64.64524841308594,-38.24937438964844,-1.091809868812561,-2.270859956741333,-3.3842849731445312,3.2577455043792725,2
611,-17.1920223236084,-59.709007263183594,-1.7484256029129028,-1.9097551107406616,-3.5812113285064697,3.3195104598999023,2
612,39.83991241455078,-66.74043273925781,0.5583145618438721,-0.8057685494422913,-3.4904980659484863,3.364736557006836,2
613,97.63146209716797,-76.47238159179688,6.338218688964844,-0.1528623402118683,-2.8280246257781982,3.4397976398468018,2
614,140.95338439941406,-62.11961364746094,12.494452476501465,0.7669505476951599,-1.1409392356872559,3.6084349155426025,2
615,136.5823516845703,-13.398284912109375,13.403154373168945,1.2894388437271118,0.1490791290998459,3.7272250652313232,2
616,102.54182434082031,33.79975891113281,11.303016662597656,1.288367509841919,1.9187978506088257,3.8982627391815186,2
617,52.4371452331543,70.82228088378906,4.744424819946289,0.5871967673301697,2.3238322734832764,4.006982803344727,2
618,7.116897106170654,74.74005889892578,4.227383136749268,-0.4275133013725281,2.580458879470825,4.094113349914551,2
619,-30.525245666503906,65.33282470703125,5.972071170806885,-1.1960361003875732,2.381178379058838,4.170876979827881,2
620,-45.1070556640625,44.86097717285156,7.414732456207275,-2.044912099838257,1.9701069593429565,4.243133068084717,2
621,-47.98869705200195,13.658823013305664,11.421965599060059,-1.8714526891708374,1.2619518041610718,4.385159969329834,2
622,-41.013729095458984,-13.501167297363281,11.476785659790039,-1.8907831907272339,0.7115774750709534,4.501574516296387,2
623,-24.016515731811523,-35.50600051879883,11.809647560119629,-1.7052668333053589,0.41854915022850037,4.615107536315918,2
624,2.5491225719451904,-42.07863235473633,11.652525901794434,-0.991661012172699,0.23272307217121124,4.786392688751221,2
625,28.44961929321289,-26.811946868896484,8.819148063659668,-0.675175130367279,0.47541823983192444,4.889124393463135,2
626,59.16459655761719,-1.7588289976119995,6.0033111572265625,-0.3165781497955322,1.1953734159469604,5.016095161437988,2
627,79.30618286132812,18.0676212310791,1.2427773475646973,-0.8840926289558411,1.6724610328674316,4.9546966552734375,2
628,86.53421783447266,30.36180877685547,-3.695202112197876,-1.2176719903945923,2.8101072311401367,4.962563991546631,2
629,84.84710693359375,31.00172233581543,-9.66897964477539,-1.5865237712860107,3.389370918273926,4.897439479827881,2
630,76.09185028076172,17.049482345581055,-15.087733268737793,-1.9004639387130737,4.423783779144287,4.8073859214782715,2
631,61.845542907714844,4.79553747177124,-16.516786575317383,-2.0493011474609375,4.895303726196289,4.641286373138428,2
632,36.1922492980957,-4.691999912261963,-16.752037048339844,-2.0008950233459473,5.4630045890808105,4.506134986877441,2
633,1.9428480863571167,-9.817968368530273,-18.687101364135742,-1.8865807056427002,5.840887546539307,4.361042022705078,2
634,-30.43080711364746,-9.896815299987793,-20.357624053955078,-1.8876134157180786,5.393255710601807,4.088883876800537,2
635,-47.891300201416016,-5.917063236236572,-21.646265029907227,-1.6684997081756592,4.722493648529053,3.9130005836486816,2
636,-50.64865493774414,2.28560471534729,-22.632125854492188,-1.6243928670883179,4.2439446449279785,3.7105772495269775,2
637,-43.22231674194336,14.559401512145996,-22.684404373168945,-1.6618746519088745,3.836773157119751,3.520458459854126,2
638,-29.56165885925293,25.899696350097656,-20.131681442260742,-1.897495985031128,3.4416117668151855,3.2866201400756836,2
639,-17.26861000061035,28.7232723236084,-15.300893783569336,-2.2879409790039062,3.1161937713623047,3.046919107437134,2
640,-4.974554061889648,23.341991424560547,-10.210086822509766,-2.6612443923950195,2.9936907291412354,2.877397060394287,2
641,6.720412254333496,4.9204206466674805,-8.905388832092285,-2.8776159286499023,3.003598690032959,2.7784035205841064,2
642,16.12498664855957,-21.701570510864258,-7.204115390777588,-2.776177167892456,3.2634897232055664,2.756105422973633,2
643,21.221515655517578,-38.506866455078125,-3.4830758571624756,-2.1959497928619385,3.574923038482666,2.893575429916382,2
644,23.76321029663086,-46.0496826171875,0.574432909488678,-3.0088284015655518,3.937204360961914,2.137194871902466,2
645,19.66930389404297,-32.54751205444336,11.952738761901855,-2.440382242202759,4.3020853996276855,2.2930240631103516,2
646,10.379158020019531,-27.918975830078125,13.325069427490234,-2.129060745239258,4.256662368774414,2.336484909057617,2
647,-5.713116645812988,-30.045312881469727,15.084288597106934,-1.781253457069397,4.246241092681885,2.4752323627471924,2
648,-23.299039840698242,-38.88645553588867,13.688894271850586,-1.4102494716644287,3.9607551097869873,2.5681493282318115,2
649,-43.2462158203125,-50.09727478027344,13.124062538146973,-0.6501938700675964,3.673215866088867,2.87998366355896,2
650,-48.42937088012695,-48.245845794677734,16.636682510375977,-0.33134350180625916,3.100637197494507,2.849931240081787,2
651,-48.30845642089844,-50.98820877075195,21.667673110961914,0.4670616388320923,2.6366543769836426,3.209317207336426,2
652,-38.30857467651367,-36.99836349487305,24.381298065185547,1.1944817304611206,2.289548873901367,3.5966904163360596,2
653,-13.94271183013916,-5.674760818481445,24.654342651367188,1.2078176736831665,2.023052453994751,3.6548187732696533,2
654,20.177852630615234,30.524173736572266,22.389705657958984,0.8476806879043579,2.0825164318084717,3.725313425064087,2
655,48.99638748168945,59.73725128173828,20.98150634765625,0.36210572719573975,2.515420436859131,3.9215409755706787,2
656,59.837921142578125,73.9079818725586,16.888031005859375,-0.32520759105682373,3.359095811843872,4.140286445617676,2
657,41.73173904418945,65.10054779052734,13.186720848083496,-1.121466040611267,3.989655017852783,4.294219017028809,2
658,4.183056831359863,34.45540237426758,11.716669082641602,-1.7338612079620361,4.109405517578125,4.420046806335449,2
659,-25.045818328857422,-12.10607624053955,13.40343952178955,-1.8019596338272095,3.9932992458343506,4.610983848571777,2
660,-37.86912155151367,-48.904090881347656,13.469576835632324,-1.2154654264450073,3.698498487472534,4.910804271697998,2
661,-42.56040954589844,-73.75033569335938,11.083398818969727,-0.765110433101654,3.084609031677246,4.919708251953125,2
662,-51.331748962402344,-79.4651107788086,7.253713130950928,0.7258045077323914,2.473742961883545,5.381937503814697,2
663,-63.535858154296875,-68.51627349853516,6.066290855407715,0.9445254802703857,1.5507912635803223,5.1149492263793945,2
664,-68.9878921508789,-53.26001739501953,7.415770053863525,1.4994717836380005,0.8326007723808289,5.127601146697998,2
665,-55.19972610473633,-37.1601676940918,10.276267051696777,2.03350830078125,0.4196088910102844,5.217616558074951,2
666,-24.027494430541992,-17.935270309448242,11.073494911193848,2.4662468433380127,-0.08744105696678162,5.3755717277526855,2
667,10.531951904296875,18.960519790649414,9.755325317382812,2.4969141483306885,0.06380314379930496,5.43433141708374,2
668,31.435501098632812,45.831787109375,8.156745910644531,1.8842343091964722,0.5654467940330505,5.3419365882873535,2
669,35.70827102661133,59.31290817260742,6.461222171783447,1.199600338935852,1.0885626077651978,5.329421520233154,2
670,19.293058395385742,58.186058044433594,3.4383292198181152,0.5286722779273987,1.4184868335723877,5.374072074890137,2
671,-13.427361488342285,36.34089279174805,0.6952391266822815,-0.002834190148860216,1.4531644582748413,5.418866157531738,2
672,-49.47262191772461,9.713561058044434,-1.2817790508270264,-0.25523313879966736,0.9163720607757568,5.495704650878906,2
673,-76.09603881835938,-10.200652122497559,-5.471773147583008,-0.19807273149490356,0.19346749782562256,5.5185370445251465,2
674,-75.39490509033203,-24.420841217041016,-10.413493156433105,0.07978659123182297,-0.780074954032898,5.520110130310059,2
675,-45.95987319946289,-33.511932373046875,-12.619874954223633,0.5722612142562866,-1.2477308511734009,5.405760765075684,2
676,-16.17513084411621,-27.245319366455078,-12.315691947937012,0.9820424318313599,-1.7451297044754028,5.33573055267334,2
677,2.1707098484039307,-17.0490779876709,-9.985156059265137,1.2553316354751587,-1.4093730449676514,5.121304035186768,2
678,3.3776981830596924,-3.397021532058716,-7.565647125244141,1.4856796264648438,-1.3884143829345703,5.045802593231201,2
679,-9.986429214477539,11.673784255981445,-7.577746868133545,1.4777122735977173,-1.4306707382202148,4.990250110626221,2
680,-24.21519660949707,19.522775650024414,-10.979268074035645,1.3621556758880615,-1.6294770240783691,4.909093379974365,2
681,-41.299964904785156,10.827256202697754,-13.123659133911133,1.0623779296875,-1.9275909662246704,4.796412467956543,2
682,-50.518798828125,-2.742777109146118,-12.822468757629395,1.0851444005966187,-2.4763917922973633,4.680485248565674,2
683,-57.58433151245117,-17.61902618408203,-11.868755340576172,1.268147587776184,-2.8568806648254395,4.494670391082764,2
684,-48.39999771118164,-18.650497436523438,-8.669382095336914,1.7266680002212524,-3.743255853652954,4.459192276000977,2
685,-26.944852828979492,-8.467554092407227,-6.111651420593262,1.7191721200942993,-3.8579463958740234,4.327754497528076,2
686,1.5227605104446411,-2.0738284587860107,-4.866178035736084,1.847664713859558,-3.9457762241363525,4.228274822235107,2
687,9.978147506713867,7.742602825164795,-1.8914201259613037,1.7256865501403809,-3.8746180534362793,4.225996017456055,2
688,9.117048263549805,27.151546478271484,-5.759818077087402,1.5428942441940308,-3.880767345428467,4.240170955657959,2
689,15.54940128326416,35.94581985473633,-10.279809951782227,1.146077275276184,-3.7799737453460693,4.184610843658447,2
690,23.742246627807617,32.88395690917969,-15.289231300354004,0.6926489472389221,-3.4845101833343506,4.05540657043457,2
691,38.398921966552734,31.29346466064453,-14.435927391052246,0.295100599527359,-3.2383408546447754,3.938415288925171,2
692,35.264591217041016,24.313528060913086,-8.558406829833984,-0.04954330623149872,-2.876852035522461,3.840808153152466,2
693,8.845136642456055,10.050972938537598,-4.290493488311768,-0.22755195200443268,-2.5332674980163574,3.732264995574951,2
694,-17.202571868896484,-3.6844422817230225,1.0283100605010986,-0.1773446798324585,-2.595393657684326,3.662238836288452,2
695,-33.25360107421875,-14.862491607666016,7.51893949508667,0.2154058963060379,-2.662551164627075,3.463536500930786,2
696,-36.88467788696289,-27.804807662963867,10.747623443603516,0.4615139365196228,-3.8107526302337646,3.747182846069336,2
697,-21.832664489746094,-35.52114486694336,11.680462837219238,1.7136350870132446,-4.059901237487793,3.297004461288452,2
698,-3.1920113563537598,-36.736148834228516,13.250571250915527,2.3431556224823,-4.032196998596191,3.240436315536499,2
699,23.1638126373291,-19.025829315185547,10.963717460632324,2.892171859741211,-2.0450990200042725,2.6472182273864746,2
700,50.96815872192383,12.125847816467285,7.708163738250732,2.759258985519409,-1.7680903673171997,2.915769338607788,2
701,54.8914794921875,50.52948760986328,-1.412968635559082,2.346611976623535,-1.1945685148239136,3.0331125259399414,2
702,35.994136810302734,82.11656951904297,-11.830512046813965,1.2547672986984253,-0.9512279033660889,3.3427681922912598,2
703,4.362882614135742,101.40847778320312,-17.305505752563477,-0.09412243962287903,-0.7896314859390259,3.482771635055542,2
704,-27.697355270385742,100.7072525024414,-16.590696334838867,-1.066845417022705,-1.2796263694763184,3.403451919555664,2
705,-63.614810943603516,83.66523742675781,-16.703338623046875,-2.3056652545928955,-2.0066773891448975,3.455590009689331,2
706,-86.9019775390625,56.26090621948242,-16.8475399017334,-3.1281073093414307,-2.887632369995117,3.3278920650482178,2
707,-103.05326080322266,23.06694793701172,-19.239952087402344,-3.3985698223114014,-4.171572685241699,3.0903480052948,2
708,-100.29228210449219,-19.55894660949707,-22.082599639892578,-3.3856041431427,-5.458468437194824,2.882983922958374,2
709,-87.77154541015625,-64.75281524658203,-26.577293395996094,-2.759122371673584,-6.565946102142334,2.559952735900879,2
710,-52.78427505493164,-88.45985412597656,-28.951215744018555,-1.8300745487213135,-7.339643955230713,2.2919015884399414,2
711,-0.3535175323486328,-91.90692138671875,-33.58603286743164,-0.9879921674728394,-7.595032691955566,2.166964292526245,2
712,67.32101440429688,-80.19013214111328,-34.653743743896484,-0.06461595743894577,-7.456672668457031,1.9416128396987915,2
713,113.03131866455078,-42.2110595703125,-31.273265838623047,0.6950182318687439,-5.956441879272461,1.682411789894104,2
714,130.70835876464844,7.471428871154785,-27.932695388793945,0.8064581751823425,-5.057302474975586,1.5312470197677612,2
715,137.08163452148438,39.7131233215332,-30.6709041595459,0.3984498679637909,-3.2535665035247803,1.436465859413147,2
716,126.19730377197266,52.86726379394531,-32.54077911376953,-0.2238157093524933,-2.141993522644043,1.2557168006896973,2
717,89.59168243408203,45.16657638549805,-32.30094909667969,-0.9026583433151245,-0.8884930610656738,1.0532803535461426,2
718,36.342750549316406,23.55992889404297,-29.6986083984375,-1.2743099927902222,-0.4114682674407959,0.731918215751648,2
719,-19.885278701782227,8.035320281982422,-25.283878326416016,-1.448511004447937,-0.39236119389533997,0.45293688774108887,2
720,-56.298851013183594,-9.549116134643555,-23.734766006469727,-1.4336074590682983,-0.8723818063735962,0.186473086476326,2
721,-60.55352783203125,-28.09649085998535,-21.851089477539062,-1.1326600313186646,-1.7916176319122314,-0.13673432171344757,2
722,-38.85664749145508,-48.04429244995117,-17.51438331604004,-0.6380783319473267,-2.152045249938965,-0.38499000668525696,2
723,-10.541701316833496,-47.07354736328125,-17.57830810546875,-0.3926726281642914,-2.573897123336792,-0.4163043200969696,2
724,32.76781463623047,-28.452756881713867,-15.464128494262695,0.010808351449668407,-2.4361612796783447,-0.5559114813804626,2
725,71.42774200439453,-8.693248748779297,-8.457624435424805,0.4345051646232605,-1.8949283361434937,-0.7768176198005676,2
726,95.58348846435547,1.236759901046753,-5.105626106262207,-0.1911512166261673,-1.0597976446151733,-0.5235653519630432,2
727,106.25043487548828,10.680741310119629,-6.02731466293335,-0.153152734041214,0.3357652723789215,-0.603969156742096,2
728,97.60926055908203,21.45822525024414,-5.909664630889893,-0.44504308700561523,1.050518274307251,-0.607668399810791,2
729,73.01754760742188,26.640920639038086,-5.193499565124512,-0.6573249697685242,1.9961634874343872,-0.6670013666152954,2
730,46.197181701660156,31.38677215576172,-3.9300458431243896,-0.9751359224319458,2.6765809059143066,-0.6944765448570251,2
731,18.037010192871094,29.640836715698242,-1.9335135221481323,-1.2864478826522827,2.837008237838745,-0.726997971534729,2
732,-2.7008216381073,13.252534866333008,1.9145021438598633,-1.5750294923782349,2.8555219173431396,-0.7245053648948669,2
733,-10.91386890411377,-15.396004676818848,4.677973747253418,-1.514507532119751,2.7226147651672363,-0.7141082286834717,2
734,-1.4320300817489624,-41.70204162597656,5.5490617752075195,-1.0568941831588745,2.6802570819854736,-0.6853838562965393,2
735,20.689245223999023,-59.19810104370117,7.071208477020264,-0.592491090297699,2.8475732803344727,-0.6407607793807983,2
736,44.592552185058594,-58.88945007324219,10.861593246459961,-0.04885462298989296,3.2420082092285156,-0.5855047702789307,2
737,56.97260665893555,-45.74292755126953,14.053018569946289,0.5366034507751465,3.762742519378662,-0.49929139018058777,2
738,54.15596389770508,-27.25996971130371,15.790743827819824,1.0339089632034302,4.640357494354248,-0.3550778925418854,2
739,37.40459060668945,0.5910112261772156,14.522279739379883,1.0515490770339966,5.144357204437256,-0.25056272745132446,2
740,18.395835876464844,21.510984420776367,11.629070281982422,1.111775517463684,5.35757303237915,-0.07567111402750015,2
741,-6.65234375,35.65042495727539,7.8927412033081055,0.5884847044944763,5.048703670501709,-0.029454786330461502,2
742,-24.844970703125,41.96708297729492,6.686155796051025,0.11155275255441666,4.8797478675842285,0.04188878834247589,2
743,-28.536941528320312,39.081878662109375,6.186132907867432,-0.4149618446826935,4.504767417907715,0.09483490884304047,2
744,-18.408798217773438,20.351179122924805,5.239629745483398,-0.7117300033569336,4.224874019622803,0.19460219144821167,2
745,-6.055821895599365,-5.541245937347412,2.906647205352783,-0.7341547012329102,4.34110689163208,0.299444317817688,2
746,5.374178886413574,-38.175533294677734,-1.5283868312835693,-0.2612004578113556,4.3455400466918945,0.4574175179004669,2
747,11.36073112487793,-53.37997055053711,-3.5467936992645264,0.25098079442977905,4.42710542678833,0.44068312644958496,2
748,6.952223300933838,-54.647605895996094,-4.63014554977417,1.1713767051696777,4.622524261474609,0.5758009552955627,2
749,-3.3323113918304443,-40.676658630371094,-7.394462585449219,1.303380012512207,4.782639026641846,0.23642733693122864,2
750,-19.28376007080078,-15.428133964538574,-7.667229652404785,1.851904034614563,4.641294002532959,0.2911345362663269,2
751,-32.45339584350586,12.234889030456543,-9.26669692993164,1.3712188005447388,4.468241214752197,-0.1592005044221878,2
752,-35.074764251708984,32.43746566772461,-6.516146183013916,1.1897153854370117,4.183747291564941,-0.20803768932819366,2
753,-27.873821258544922,35.57859420776367,-6.109330177307129,0.7559876441955566,3.747164011001587,-0.29284489154815674,2
754,-15.090286254882812,28.115144729614258,-5.345248699188232,0.34441980719566345,3.704582929611206,-0.40113183856010437,2
755,-2.5483899116516113,15.525790214538574,-5.078719139099121,0.09297259151935577,3.9374992847442627,-0.47971031069755554,2
756,2.2426819801330566,0.5858378410339355,-3.262578010559082,0.075129933655262,4.02358865737915,-0.45935627818107605,2
757,-4.375094413757324,-13.509679794311523,-3.6719095706939697,0.29960888624191284,3.9533560276031494,-0.34893444180488586,2
758,-15.947256088256836,-28.510339736938477,-4.578868389129639,0.3833579123020172,3.743830919265747,-0.46759241819381714,2
759,-27.640945434570312,-37.34229278564453,-4.416693210601807,1.021411418914795,3.6356804370880127,-0.319440096616745,2
760,-36.493873596191406,-33.920799255371094,-6.225954532623291,1.8038934469223022,2.951223373413086,-0.047892432659864426,2
761,-42.35089874267578,-18.891677856445312,-8.26956844329834,1.4093118906021118,3.2481565475463867,-0.7413666248321533,2
762,-47.33241271972656,1.699232578277588,-5.929513454437256,1.6940010786056519,2.4716644287109375,-0.6369408369064331,2
763,-58.51852798461914,23.936269760131836,-7.323317527770996,1.5139245986938477,2.2806994915008545,-0.8065344095230103,2
764,-69.2485122680664,37.25640869140625,-7.875879287719727,1.1487730741500854,1.492112159729004,-0.8808997273445129,2
765,-77.86560821533203,38.12162399291992,-9.352018356323242,0.6440123915672302,0.31537356972694397,-0.9488744735717773,2
766,-73.2585678100586,31.467357635498047,-8.840121269226074,0.17169620096683502,-0.2986442446708679,-1.1387419700622559,2
767,-58.66317367553711,23.29764747619629,-5.363720417022705,-0.1608791947364807,-1.1589452028274536,-1.2079159021377563,2
768,-46.15309143066406,8.81859016418457,-4.724925518035889,-0.3161219358444214,-1.3154399394989014,-1.312686562538147,2
769,-29.295400619506836,-15.690650939941406,-7.301329612731934,-0.1014324352145195,-1.72690749168396,-1.258319616317749,2
770,-5.108936786651611,-37.41015625,-8.94700813293457,0.3619048595428467,-2.091451644897461,-1.2166614532470703,2
771,9.05920124053955,-47.16549301147461,-7.5872321128845215,0.8764179944992065,-1.8668105602264404,-1.2832739353179932,2
772,8.245797157287598,-49.90776824951172,-6.871318340301514,1.4495787620544434,-1.5625041723251343,-1.3510280847549438,2
773,-12.664220809936523,-41.925140380859375,-5.943366050720215,2.278355360031128,-1.6499650478363037,-1.3106818199157715,2
774,-32.727394104003906,-20.906465530395508,-5.27048921585083,2.2206978797912598,-1.6864005327224731,-1.4406601190567017,2
775,-30.511882781982422,10.961390495300293,-4.0831193923950195,2.5410537719726562,-2.0612146854400635,-1.4499329328536987,2
776,-21.421436309814453,53.89753341674805,-6.130890846252441,1.9618594646453857,-2.238513469696045,-1.5503722429275513,2
777,-30.254987716674805,101.37308502197266,-10.370382308959961,0.9325339794158936,-2.592391014099121,-1.6318578720092773,2
778,-32.60835266113281,121.6088638305664,-15.970352172851562,-0.15485642850399017,-2.6068649291992188,-1.8786613941192627,2
779,-35.55107116699219,104.11216735839844,-19.108055114746094,-1.910753846168518,-3.074326276779175,-2.0302271842956543,2
780,-23.598472595214844,56.52439880371094,-18.228214263916016,-2.341062068939209,-3.1451237201690674,-2.380737543106079,2
781,-5.683445930480957,-11.6544189453125,-12.851725578308105,-2.6468892097473145,-3.42448353767395,-2.5540809631347656,2
782,8.886746406555176,-73.02271270751953,-4.00108003616333,-1.9863836765289307,-3.4136810302734375,-2.7089691162109375,2
783,22.50303840637207,-123.88894653320312,5.0814971923828125,-0.6840656399726868,-3.3771965503692627,-2.766444683074951,2
784,26.325531005859375,-137.5800323486328,14.672843933105469,0.4654025435447693,-2.9121897220611572,-2.562556505203247,2
785,17.76862144470215,-121.57512664794922,19.61298179626465,2.3682594299316406,-2.625333786010742,-2.543999671936035,2
786,4.893309593200684,-86.05472564697266,20.260623931884766,3.0500621795654297,-2.6573901176452637,-2.1162240505218506,2
787,-8.497589111328125,-46.247013092041016,15.763237953186035,3.7285590171813965,-2.660747528076172,-1.8785134553909302,2
788,-16.517459869384766,-0.549364447593689,12.971944808959961,4.00901985168457,-2.816689968109131,-1.7036505937576294,2
789,-17.138639450073242,38.25444412231445,9.630265235900879,3.9140563011169434,-3.0404951572418213,-1.6064146757125854,2
790,-17.106998443603516,69.7046127319336,4.46965217590332,3.180394411087036,-3.258584499359131,-1.437520980834961,2
791,-19.0535888671875,92.60044860839844,-1.3675971031188965,2.004265308380127,-3.6056230068206787,-1.2198165655136108,2
792,-22.72895622253418,105.14561462402344,-5.411167144775391,0.9499282240867615,-3.774658203125,-1.2852119207382202,2
793,-11.657393455505371,109.37190246582031,-5.10762357711792,-0.4888306260108948,-4.020933628082275,-1.208472728729248,2
794,3.516052484512329,87.74989318847656,-2.8261594772338867,-1.6989673376083374,-3.8207268714904785,-1.2900936603546143,2
795,9.994819641113281,40.43882751464844,-1.9241969585418701,-2.45539927482605,-3.716491937637329,-1.348012924194336,2
796,19.863861083984375,-14.977811813354492,-0.530657172203064,-2.613807439804077,-3.5703039169311523,-1.412933349609375,2
797,29.582406997680664,-69.97296142578125,0.430415540933609,-1.9286257028579712,-3.169919967651367,-1.6239995956420898,2
798,26.988359451293945,-112.7618179321289,2.5538060665130615,-0.47506824135780334,-2.809546709060669,-1.9520714282989502,2
799,16.739566802978516,-134.5443115234375,6.478522300720215,0.9583917856216431,-2.7700064182281494,-1.9800443649291992,2
800,21.49300765991211,-131.464599609375,6.430880546569824,2.7671701908111572,-2.5258119106292725,-2.147296667098999,2
801,20.9293270111084,-108.8863754272461,5.189438343048096,3.9560837745666504,-2.4894587993621826,-1.9792602062225342,2
802,14.293892860412598,-66.16313934326172,4.601325988769531,4.910849094390869,-2.3513739109039307,-1.8780136108398438,2
803,16.584613800048828,-1.0917233228683472,3.619539499282837,5.251819133758545,-2.2862062454223633,-1.7422161102294922,2
804,14.590970993041992,59.23571014404297,2.116234302520752,5.005715847015381,-2.0236480236053467,-1.7206653356552124,2
805,13.417969703674316,98.83232116699219,1.5403196811676025,3.690272569656372,-2.0476136207580566,-1.3484671115875244,2
806,14.96541690826416,104.43870544433594,0.6568924784660339,2.2480099201202393,-1.88047194480896,-1.1257994174957275,2
807,5.476993083953857,95.35331726074219,-0.09129936993122101,1.2601715326309204,-1.6664048433303833,-1.203378438949585,2
808,-9.212557792663574,73.1485824584961,2.9627487659454346,0.10010083764791489,-1.7185393571853638,-1.0509167909622192,2
809,-17.38587760925293,40.40810775756836,7.155534744262695,-0.47069674730300903,-1.9258594512939453,-1.030840516090393,2
810,-10.914199829101562,8.448587417602539,11.000612258911133,-0.4994703233242035,-2.1857142448425293,-1.0627907514572144,2
811,-6.13834810256958,-12.574398040771484,14.967073440551758,-0.36860695481300354,-2.378154754638672,-0.9858437180519104,2
812,-1.2362501621246338,-27.665163040161133,18.53642463684082,-0.009141508489847183,-2.50938081741333,-0.8911582827568054,2
813,11.347345352172852,-42.498172760009766,22.419538497924805,0.21884456276893616,-2.443084478378296,-0.6429980397224426,2
814,30.011493682861328,-55.97869873046875,25.3913516998291,1.048204779624939,-2.2104148864746094,-0.584338366985321,2
815,44.296852111816406,-57.083168029785156,32.89229965209961,1.8190034627914429,-1.8341227769851685,-0.39069393277168274,2
816,46.31390380859375,-33.81671142578125,36.12744903564453,2.047154188156128,-1.345348596572876,0.08398649841547012,2
817,34.53764343261719,9.23359489440918,32.999053955078125,2.1588735580444336,-0.9743829965591431,0.483530730009079,2
818,25.932401657104492,47.10246658325195,27.41572380065918,1.8542207479476929,-0.4277239739894867,0.7750501036643982,2
819,18.81460189819336,63.96114730834961,22.36588478088379,1.046562910079956,-0.45219260454177856,1.1841400861740112,2
820,-0.04948900640010834,69.47341918945312,21.420190811157227,0.24036039412021637,-0.527744472026825,1.483660101890564,2
821,-26.08558464050293,52.18581008911133,24.196979522705078,-0.4110085964202881,-0.6691151261329651,1.7089641094207764,2
822,-43.66157150268555,28.038511276245117,23.501148223876953,-1.0193127393722534,-1.1343584060668945,2.0115044116973877,2
823,-41.14802169799805,1.4112813472747803,21.240196228027344,-1.2687913179397583,-1.5624496936798096,2.2539167404174805,2
824,-25.065141677856445,-16.94390296936035,15.908801078796387,-1.1073909997940063,-2.1097729206085205,2.429593563079834,2
825,6.765705585479736,-19.10674476623535,13.485568046569824,-0.7085745930671692,-2.292409896850586,2.5293822288513184,2
826,42.89093780517578,-7.999835968017578,16.124839782714844,-0.4124496877193451,-1.915786862373352,2.6446075439453125,2
827,73.83296203613281,9.3138427734375,17.635284423828125,-0.4344555139541626,-1.3925062417984009,2.8240866661071777,2
828,86.19597625732422,15.00702953338623,19.939620971679688,-0.6323028802871704,-0.1359727382659912,3.0386078357696533,2
829,75.18547058105469,11.83253288269043,21.843313217163086,-0.7945026755332947,1.2905992269515991,3.280468463897705,2
830,45.57272720336914,8.383546829223633,22.259614944458008,-0.8738604784011841,1.3388265371322632,3.460195779800415,2
831,5.983811855316162,3.9753761291503906,19.39970588684082,-0.896568238735199,1.9568933248519897,3.697693109512329,2
832,-26.605655670166016,-3.788649082183838,17.508554458618164,-0.9845772385597229,1.5422077178955078,3.8572373390197754,2
833,-39.48561096191406,-7.2857441902160645,16.38782501220703,-0.8130936622619629,0.8704230189323425,3.975377321243286,2
834,-39.50376510620117,-9.579330444335938,16.423532485961914,-0.6513722538948059,0.28651440143585205,4.106749534606934,2
835,-27.254413604736328,-10.001428604125977,12.018645286560059,-0.473420649766922,-0.022390978410840034,4.270807266235352,2
836,-5.921761989593506,-2.894775867462158,4.824085235595703,-0.3918563723564148,-0.24248941242694855,4.375223636627197,2
837,24.276165008544922,17.481109619140625,-0.9900453090667725,-0.42172378301620483,-0.2026505470275879,4.4102864265441895,2
838,51.65485382080078,42.03266525268555,-1.2280234098434448,-0.7797115445137024,0.1530785858631134,4.393619060516357,2
839,60.08684539794922,51.478153228759766,1.3704835176467896,-1.4341343641281128,1.0743043422698975,4.451362133026123,2
840,53.56659698486328,45.13971710205078,-1.352128267288208,-1.8217867612838745,1.8226988315582275,4.507481098175049,2
841,32.74870681762695,17.26602554321289,-4.064253330230713,-2.4019718170166016,2.386120557785034,4.502892971038818,2
842,-3.0059902667999268,-17.697162628173828,-7.348773002624512,-2.3088865280151367,2.1745989322662354,4.375909805297852,2
843,-26.156761169433594,-51.51506042480469,-6.885590076446533,-1.7835330963134766,2.0862982273101807,4.33241081237793,2
844,-29.281911849975586,-69.3624496459961,-5.859630584716797,-1.0548840761184692,1.7738322019577026,4.265585422515869,2
845,-22.372533798217773,-60.096736907958984,-5.974184513092041,-0.09050579369068146,1.2955209016799927,4.1960129737854,2
846,-1.6711336374282837,-36.16851806640625,-5.900991916656494,0.11760488897562027,0.9991272687911987,4.0188212394714355,2
847,22.460729598999023,-12.237563133239746,-6.698150157928467,0.6219611167907715,1.1569660902023315,4.0267415046691895,2
848,46.62782669067383,5.098766803741455,-6.354930400848389,0.6853801012039185,1.4063810110092163,3.9423563480377197,2
849,66.31124877929688,31.274141311645508,-6.937437057495117,0.38953468203544617,2.272829055786133,3.911555290222168,2
850,77.9322280883789,47.92905807495117,-4.8908514976501465,0.013280059210956097,3.2782082557678223,3.9177515506744385,2
851,75.45866394042969,46.61184310913086,-1.2062523365020752,-0.8236153721809387,4.007899761199951,3.8024613857269287,2
852,57.73524856567383,24.813884735107422,4.741259574890137,-1.3738722801208496,4.712902069091797,3.7973296642303467,2
853,22.80887794494629,2.305037260055542,9.418745040893555,-1.576701283454895,5.060438632965088,3.8382515907287598,2
854,-26.509841918945312,-17.396617889404297,12.0653657913208,-1.4088126420974731,4.990747928619385,3.950338840484619,2
855,-76.1681900024414,-27.213502883911133,14.951310157775879,-1.1107615232467651,4.380187511444092,4.0574188232421875,2
856,-107.3207015991211,-36.13216018676758,17.47530746459961,-0.6477347016334534,3.1507763862609863,4.188442230224609,2
857,-111.69686126708984,-37.968990325927734,20.423986434936523,0.07826290279626846,1.8993217945098877,4.5066375732421875,2
858,-101.60892486572266,-33.94944763183594,21.755447387695312,0.06553413718938828,1.1243895292282104,4.557117938995361,2
859,-72.88231658935547,-34.073307037353516,23.08085060119629,0.606494128704071,-0.18570367991924286,4.813906192779541,2
860,-23.789472579956055,-32.01523208618164,24.782320022583008,0.8616599440574646,-0.16222190856933594,5.104030609130859,2
861,25.646209716796875,-22.891572952270508,25.09827995300293,1.2796201705932617,-0.23284676671028137,5.4259748458862305,2
862,55.50860595703125,-5.564868927001953,25.987245559692383,1.4166812896728516,0.4321948289871216,5.693914413452148,2
863,74.54341125488281,21.543432235717773,28.41314125061035,1.3685804605484009,0.8733432292938232,5.944751739501953,2
864,80.41352844238281,42.63146209716797,29.4405574798584,0.8032041788101196,2.138406276702881,6.156735420227051,2
865,72.2981185913086,49.79560852050781,32.0126838684082,0.11789893358945847,2.5857698917388916,6.378239154815674,2
866,54.94004440307617,49.49020767211914,34.44359588623047,-0.5877735614776611,3.4267759323120117,6.65745210647583,2
867,29.97588348388672,45.494258880615234,34.64739990234375,-1.028962254524231,4.062259197235107,7.0499749183654785,2
868,3.9933626651763916,28.182872772216797,34.6581916809082,-1.4877196550369263,3.863067626953125,7.374007701873779,2
869,-27.793106079101562,3.5304152965545654,31.78853988647461,-1.5121999979019165,3.683947801589966,7.782650947570801,2
870,-61.11461639404297,-25.823455810546875,26.847414016723633,-1.262796401977539,3.110774517059326,8.141091346740723,2
871,-86.19207763671875,-49.176368713378906,21.232927322387695,-0.7704554200172424,2.2392141819000244,8.420486450195312,2
872,-99.92511749267578,-61.48000717163086,17.794677734375,0.04050249978899956,0.9326435923576355,8.695101737976074,2
873,-91.1667709350586,-59.16957473754883,13.272481918334961,0.4816010296344757,0.16464853286743164,8.786334991455078,2
874,-63.768821716308594,-51.439205169677734,10.381120681762695,1.2444580793380737,-0.8352601528167725,8.988442420959473,2
875,-24.694679260253906,-35.09135437011719,8.458831787109375,1.3379887342453003,-0.634955108165741,8.964345932006836,2
876,16.37417984008789,-3.380185842514038,5.226873397827148,1.6539868116378784,-0.8342324495315552,9.067083358764648,2
877,47.42559051513672,39.34904479980469,1.7270435094833374,1.4352649450302124,-0.3483637869358063,9.069456100463867,2
878,56.27031707763672,81.58493041992188,-2.00781512260437,0.634027898311615,0.34903669357299805,8.99290943145752,2
879,52.0583381652832,104.5861587524414,-4.817503929138184,-0.7076938152313232,1.0338772535324097,8.858094215393066,2
880,33.05418014526367,95.49189758300781,-5.640488624572754,-1.841584324836731,1.4755158424377441,8.808051109313965,2
881,1.6520445346832275,58.899723052978516,-4.7883620262146,-2.706774950027466,1.8179855346679688,8.770868301391602,2
882,-22.283702850341797,12.900856018066406,-2.824955463409424,-3.201709747314453,1.6237539052963257,8.72590160369873,2
883,-23.021915435791016,-29.530750274658203,0.695654034614563,-2.972217559814453,1.1554914712905884,8.735906600952148,2
884,-10.740168571472168,-57.08087921142578,2.6961629390716553,-2.0917117595672607,0.8826596140861511,8.835249900817871,2
885,2.0040085315704346,-70.65811157226562,4.700145721435547,-1.3527241945266724,0.7489476203918457,8.877494812011719,2
886,6.806941032409668,-75.15496063232422,4.589612007141113,-0.4185025095939636,0.8916532397270203,8.96462631225586,2
887,4.235207557678223,-57.987693786621094,4.587210178375244,0.11288579553365707,0.9693992137908936,8.971208572387695,2
888,4.703477382659912,-45.62242126464844,2.840078353881836,0.8484068512916565,1.0703867673873901,9.051161766052246,2
889,-3.0628838539123535,-27.996566772460938,-0.014043249189853668,1.1190822124481201,1.330876111984253,9.066494941711426,2
890,-21.962778091430664,-1.1982322931289673,-6.041261196136475,1.4398647546768188,1.125969409942627,9.055868148803711,2
891,-32.93281173706055,23.5659122467041,-10.091114044189453,1.1851356029510498,0.8409203290939331,8.946690559387207,2
892,-25.324256896972656,33.41332244873047,-9.83014965057373,0.7702959775924683,0.4182974696159363,8.820781707763672,2
893,-17.740798950195312,29.442201614379883,-9.453357696533203,0.3640032708644867,0.24121490120887756,8.713194847106934,2
894,-19.633676528930664,26.178632736206055,-9.283502578735352,0.10609229654073715,-0.03842993453145027,8.620461463928223,2
895,-17.56780242919922,30.93314552307129,-11.871752738952637,-0.27698513865470886,-0.10950157791376114,8.498995780944824,2
896,-18.36188316345215,26.800174713134766,-14.557765007019043,-0.6470606923103333,-0.2225559800863266,8.364062309265137,2
897,-30.544824600219727,8.296159744262695,-18.63042449951172,-0.8273655772209167,-0.49199503660202026,8.195592880249023,2
898,-40.847896575927734,-11.763423919677734,-19.635122299194336,-0.6711249351501465,-0.8241549134254456,8.013627052307129,2
899,-32.34743118286133,-28.3839168548584,-17.97324562072754,-0.2837062180042267,-1.5402623414993286,7.822646141052246,2
900,-9.36828327178955,-31.614070892333984,-13.089320182800293,-0.07320083677768707,-1.373894214630127,7.681337833404541,2
901,7.670176982879639,-26.857532501220703,-7.865693092346191,0.35812073945999146,-1.394016146659851,7.574629783630371,2
902,10.704148292541504,-14.434991836547852,-7.222954273223877,0.4085080027580261,-1.20766019821167,7.5172834396362305,2
903,7.746227264404297,-8.5968656539917,-5.74728536605835,0.6919981241226196,-1.0897042751312256,7.433255195617676,2
904,-1.5116602182388306,-12.347325325012207,-6.07865571975708,0.5131760835647583,-0.9976917505264282,7.411644458770752,2
905,-20.195083618164062,-10.980169296264648,-9.107263565063477,0.6446443200111389,-1.3364338874816895,7.339481830596924,2
906,-30.485637664794922,-5.084787368774414,-11.508309364318848,0.740705668926239,-1.6478604078292847,7.234562397003174,2
907,-22.893768310546875,3.3234853744506836,-13.586956024169922,0.7932446599006653,-2.1508710384368896,7.111764907836914,2
908,-15.871917724609375,5.634483814239502,-18.19547462463379,0.8486437201499939,-2.3285903930664062,6.925711154937744,2
909,-8.727221488952637,-10.554657936096191,-24.93196678161621,0.4777832329273224,-2.4009768962860107,6.801511764526367,2
910,2.115949869155884,2.445772171020508,-29.18278694152832,0.5581191182136536,-2.3403992652893066,6.5174665451049805,2
911,22.440881729125977,20.356990814208984,-30.683229446411133,0.40917980670928955,-2.1769564151763916,6.213926315307617,2
912,29.675281524658203,27.004426956176758,-29.45071792602539,0.18744048476219177,-1.8848682641983032,5.896287441253662,2
913,27.769685745239258,24.10944938659668,-30.662036895751953,-0.15621750056743622,-1.3912115097045898,5.604220390319824,2
914,23.804183959960938,10.3658447265625,-32.1026725769043,-0.2889416515827179,-1.2583577632904053,5.281350135803223,2
915,8.145217895507812,-0.4393274784088135,-33.74116897583008,-0.21011321246623993,-1.026106834411621,4.904752731323242,2
916,-7.152085304260254,-17.006818771362305,-36.7364387512207,0.07849262654781342,-1.0171947479248047,4.478893280029297,2
917,-24.532894134521484,-24.60224151611328,-35.66054153442383,0.5015649795532227,-1.2513011693954468,4.0497002601623535,2
918,-36.934146881103516,-14.289827346801758,-34.9592399597168,0.4129102826118469,-1.8186745643615723,3.829145908355713,2
919,-33.23958969116211,-4.5475873947143555,-36.49139404296875,0.5854595303535461,-2.3825623989105225,3.4584569931030273,2
920,-13.227582931518555,-11.692211151123047,-33.662986755371094,0.6242814064025879,-2.6191563606262207,3.1239912509918213,2
921,25.869998931884766,-30.794937133789062,-28.540029525756836,1.0723206996917725,-2.5250535011291504,2.7311887741088867,2
922,65.608154296875,-58.5289192199707,-24.62909507751465,1.1926804780960083,-2.016592264175415,2.63594651222229,2
923,89.00416564941406,-64.46306610107422,-26.339130401611328,2.1174426078796387,-0.9949729442596436,2.2523510456085205,2
924,89.60442352294922,-53.843536376953125,-28.299978256225586,2.3922412395477295,-0.2930644750595093,2.163661003112793,2
925,85.29778289794922,-35.321868896484375,-29.0656795501709,3.1012637615203857,0.9282137155532837,1.6876670122146606,2
926,68.69496154785156,-9.189563751220703,-28.566390991210938,3.351145029067993,1.4455690383911133,1.4480351209640503,2
927,44.1813850402832,24.3297176361084,-30.777877807617188,3.3307371139526367,2.1053457260131836,1.0957249402999878,2
928,16.752700805664062,50.49018478393555,-33.5588264465332,2.847137451171875,2.58415150642395,0.7576592564582825,2
929,-9.971831321716309,64.5540542602539,-31.425884246826172,1.9848616123199463,2.149465799331665,0.6793478727340698,2
930,-25.34787940979004,61.329071044921875,-25.465974807739258,1.0978556871414185,1.9550265073776245,0.4622328281402588,2
931,-29.31182289123535,44.19940185546875,-17.962867736816406,0.5268771648406982,1.5692927837371826,0.30619826912879944,2
932,-15.070361137390137,18.035629272460938,-11.34943675994873,0.15988589823246002,1.2491326332092285,0.20977750420570374,2
933,6.2584357261657715,-20.369794845581055,-6.749278545379639,0.26323938369750977,1.220780372619629,0.11731544137001038,2
934,27.72000503540039,-55.81401062011719,-5.018951416015625,1.0121194124221802,1.616754412651062,-0.02087477035820484,2
935,35.490779876708984,-72.44466400146484,-5.029423713684082,1.8896291255950928,1.8460851907730103,-0.05290704220533371,2
936,40.29644775390625,-71.74440002441406,-5.898046970367432,2.9682209491729736,2.4655842781066895,-0.19762006402015686,2
937,41.316158294677734,-50.7021484375,-6.425090789794922,3.79756236076355,2.9120471477508545,-0.28127211332321167,2
938,35.209686279296875,-21.728750228881836,-9.113228797912598,3.989320755004883,3.111084461212158,-0.32010361552238464,2
939,27.086729049682617,8.118343353271484,-12.322542190551758,3.8922197818756104,3.3413078784942627,-0.41755324602127075,2
940,16.921646118164062,32.552940368652344,-14.424843788146973,3.6207010746002197,3.6429734230041504,-0.583000123500824,2
941,-2.853848934173584,52.69235610961914,-15.391053199768066,2.9580864906311035,3.7863881587982178,-0.7786046266555786,2
942,-24.302766799926758,56.53694152832031,-15.96327018737793,2.192077875137329,3.579493999481201,-0.9164789915084839,2
943,-42.646888732910156,46.06647491455078,-16.95797348022461,1.7785234451293945,3.0966670513153076,-0.9600865840911865,2
944,-54.2957878112793,43.73078536987305,-17.995405197143555,1.3134061098098755,2.431986093521118,-1.0368834733963013,2
945,-56.68094253540039,33.8696403503418,-17.09247589111328,0.7136560678482056,1.8563618659973145,-1.2752716541290283,2
946,-39.23421859741211,25.209470748901367,-13.851265907287598,0.3662477433681488,1.288549780845642,-1.4059127569198608,2
947,1.0754141807556152,20.029010772705078,-10.9611177444458,0.07804841548204422,1.2516112327575684,-1.6065473556518555,2
948,36.60001754760742,11.658331871032715,-8.252685546875,0.1734546720981598,1.575077772140503,-1.636496663093567,2
949,63.72460174560547,11.417986869812012,-5.617227554321289,0.41473400592803955,2.359149217605591,-1.6534804105758667,2
950,70.71575927734375,12.628395080566406,-1.678654432296753,0.3316443860530853,3.276578426361084,-1.7386972904205322,2
951,65.93400573730469,8.876641273498535,-0.38457056879997253,0.2434791773557663,3.9832417964935303,-1.7301946878433228,2
952,51.10004425048828,5.9464030265808105,-1.104650855064392,-0.04669298231601715,4.557872772216797,-1.8116480112075806,2
953,23.72791862487793,5.196898460388184,-3.4867758750915527,-0.07014364749193192,4.782405376434326,-1.7882330417633057,2
954,-9.295772552490234,4.150480270385742,-8.048532485961914,-0.024741992354393005,4.932278633117676,-1.822227120399475,2
955,-42.55864715576172,9.05833911895752,-13.931135177612305,-0.08903136104345322,4.52658224105835,-1.9050352573394775,2
956,-70.8568115234375,23.170623779296875,-18.756816864013672,-0.3046509325504303,3.7186784744262695,-2.0562591552734375,2
957,-77.27648162841797,33.238197326660156,-20.744720458984375,-0.6444191932678223,2.9925975799560547,-2.265571117401123,2
958,-71.79005432128906,35.48233413696289,-19.71576690673828,-1.099841833114624,1.8813693523406982,-2.4800333976745605,2
959,-63.890167236328125,27.51209831237793,-14.268125534057617,-1.5142791271209717,1.2629731893539429,-2.7003893852233887,2
960,-45.25495529174805,14.937459945678711,-8.141825675964355,-1.5929522514343262,0.7603400945663452,-2.7362468242645264,2
961,-21.011098861694336,0.4240507483482361,-4.42871618270874,-1.6176406145095825,0.4740484058856964,-2.768648386001587,2
962,3.181429624557495,-14.02089786529541,-1.354853630065918,-1.393118977546692,0.7449507713317871,-2.703340530395508,2
963,10.550424575805664,-17.893062591552734,-2.340698003768921,-1.0615992546081543,0.916571855545044,-2.6491804122924805,2
964,1.8735148906707764,-0.4752137362957001,-4.273614883422852,-0.9687100052833557,1.083438754081726,-2.6753997802734375,2
965,-11.936956405639648,21.506141662597656,-3.209049940109253,-1.1288104057312012,0.9806544780731201,-2.7412850856781006,2
966,-22.61693572998047,20.29853630065918,0.5516095757484436,-1.4222687482833862,0.7913466095924377,-2.77909779548645,2
967,-20.71609115600586,12.955854415893555,3.209876537322998,-1.6745768785476685,0.3775080144405365,-2.8112471103668213,2
968,-13.71369743347168,-4.036667346954346,0.8027279376983643,-1.652911901473999,0.3504224717617035,-2.741058588027954,2
969,-6.24386739730835,-22.208751678466797,3.008910655975342,-1.3824191093444824,0.5917168259620667,-2.623716354370117,2
970,-8.04633903503418,-39.73626708984375,9.514522552490234,-0.8158482313156128,0.5589654445648193,-2.5017967224121094,2
971,-14.479955673217773,-32.6640625,14.566271781921387,-0.28499922156333923,0.46526291966438293,-2.347829580307007,2
972,-22.85955238342285,-13.401111602783203,17.44253158569336,-0.06541182100772858,0.3953644335269928,-2.161515951156616,2
973,-24.916927337646484,16.18022346496582,19.198486328125,-0.17394845187664032,-0.047743018716573715,-2.034543752670288,2
974,-12.645380020141602,36.87095260620117,19.568769454956055,-0.5561960339546204,-0.025753676891326904,-1.8061027526855469,2
975,-3.86659574508667,50.22077178955078,21.970333099365234,-1.2510467767715454,-0.10341363400220871,-1.631419062614441,2
976,-2.3932876586914062,44.01776885986328,25.83316993713379,-1.7300355434417725,-0.08427414298057556,-1.3842071294784546,2
977,-5.454949378967285,20.636131286621094,32.30509948730469,-2.2914953231811523,-0.16640439629554749,-1.1271028518676758,2
978,-11.441657066345215,-0.8323522210121155,37.0119743347168,-2.1047699451446533,-0.22255119681358337,-0.7602776885032654,2
