,gyro.x,gyro.y,gyro.z,stabilizer.pitch,stabilizer.roll,stabilizer.yaw,label
0,-0.08252263814210892,0.02172795496881008,-0.0895611122250557,-0.1552722305059433,-1.0595474243164062,-0.06384890526533127,2
1,-0.02428426593542099,-0.039128463715314865,-0.05254346877336502,-0.1553301215171814,-1.059377670288086,-0.06431260704994202,2
2,-0.09170220792293549,-0.0018289820291101933,-0.04204557090997696,-0.220330610871315,-1.0576270818710327,-0.06599453836679459,2
3,0.008746336214244366,0.05004192143678665,-0.058259014040231705,-0.2021903544664383,-1.0559229850769043,-0.0656551793217659,2
4,-0.07977540045976639,-0.10582384467124939,0.037941545248031616,-0.12240370362997055,-1.0533595085144043,-0.06402388960123062,2
5,-0.11288707703351974,-0.07149085402488708,0.04520367085933685,-0.1284807026386261,-1.0517548322677612,-0.06389458477497101,2
6,-0.0703120157122612,-0.0613415502011776,-0.03974314406514168,-0.133907750248909,-1.0514945983886719,-0.06330539286136627,2
7,0.08719528466463089,0.06319577246904373,0.02691086381673813,-0.13336576521396637,-1.0509488582611084,-0.06359056383371353,2
8,0.017033521085977554,-0.04482362046837807,-0.045441657304763794,-0.13352693617343903,-1.0495933294296265,-0.06322605162858963,2
9,-0.01823677122592926,-0.034509867429733276,-0.04649500921368599,-0.13330884277820587,-1.048559308052063,-0.06352044641971588,2
10,-0.09923528134822845,-0.047230109572410583,-0.10419961810112,-0.13302914798259735,-1.048194408416748,-0.06365792453289032,2
11,-0.07854917645454407,-0.029786130413413048,0.02154717594385147,-0.13346287608146667,-0.9145193696022034,-0.06526704877614975,2
12,0.038674402981996536,-0.12721087038516998,-0.1082983985543251,-0.13288405537605286,-1.0827120542526245,-0.06414680182933807,2
13,-0.063885398209095,-0.022178631275892258,0.0033526381012052298,-0.13227874040603638,-1.0050828456878662,-0.06471330672502518,2
14,0.042925383895635605,0.07783815264701843,0.03751394525170326,-0.13264574110507965,-1.0157275199890137,-0.06455293297767639,2
15,-0.03815466910600662,-0.09394176304340363,0.010253478772938251,-0.19931945204734802,-1.0885330438613892,-0.06665297597646713,2
16,0.043005868792533875,0.006605580914765596,-0.06267957389354706,-0.18177592754364014,-1.0768522024154663,-0.06591922044754028,2
17,0.003693503560498357,0.07755278795957565,-0.03478250652551651,-0.169736847281456,-1.0678950548171997,-0.0660744234919548,2
18,-0.09099900722503662,-0.008533445186913013,-0.048611290752887726,-0.16188059747219086,-1.061646819114685,-0.0662098228931427,2
19,-0.05118366330862045,0.010222223587334156,0.058375079184770584,-0.15540798008441925,-1.0578471422195435,-0.06610266864299774,2
20,-0.06518793851137161,0.041668251156806946,-0.060275137424468994,-0.15538246929645538,-1.0572961568832397,-0.06560640037059784,2
21,-0.03600461781024933,-0.013451608829200268,0.04564882069826126,-0.022829491645097733,-0.9898513555526733,-0.06224362552165985,2
22,0.012824095785617828,-0.032669804990291595,0.002313416451215744,-0.11878971010446548,-1.0703940391540527,-0.0645541399717331,2
23,0.04701787605881691,-0.05102397873997688,0.03459228202700615,-0.1901436150074005,-0.9984935522079468,-0.06733021140098572,2
24,-0.022496294230222702,-0.02691054716706276,-0.03313402459025383,-0.11195752024650574,-1.0746495723724365,-0.06399872899055481,2
25,0.01690012402832508,-0.06289336085319519,0.043237585574388504,-0.12047886103391647,-1.0663598775863647,-0.06444839388132095,2
26,0.016597595065832138,0.02178221195936203,-0.008769468404352665,-0.19059789180755615,-1.0599935054779053,-0.06614717096090317,2
27,-0.033831942826509476,-0.005602692253887653,0.06294580549001694,-0.17861579358577728,-1.0548043251037598,-0.06573908030986786,2
28,-0.03425958752632141,0.012929326854646206,0.06340106576681137,-0.17002730071544647,-1.0503476858139038,-0.06528964638710022,2
29,-0.04729751870036125,0.0060957339592278,-0.032702863216400146,-0.16377192735671997,-1.0474921464920044,-0.06453655660152435,2
30,-0.11162705719470978,0.06391827017068863,-0.0028734442312270403,-0.16375179588794708,-1.0469534397125244,-0.06490662693977356,2
31,-0.052647341042757034,-0.054394401609897614,-0.06189301982522011,-0.16057753562927246,-0.9138401746749878,-0.06408386677503586,2
32,-0.00968474242836237,0.03795073553919792,-0.026456711813807487,-0.15712295472621918,-1.080345630645752,-0.06571976095438004,2
33,-0.08711352944374084,0.015496058389544487,0.040419451892375946,-0.08979030698537827,-1.0703306198120117,-0.06348638981580734,2
34,0.06616479158401489,-2.5757033654372208e-05,0.013132221065461636,-0.10698152333498001,-1.063367247581482,-0.06350654363632202,2
35,-0.03460993990302086,-0.06856492161750793,0.007657364010810852,-0.11954117566347122,-1.0567570924758911,-0.06385142356157303,2
36,-0.08604205399751663,0.020234785974025726,-0.03801124170422554,-0.06094186007976532,-1.0529502630233765,-0.062333185225725174,2
37,-0.030420612543821335,0.034338004887104034,0.025631846860051155,-0.22020472586154938,-1.0507586002349854,-0.06692691147327423,2
38,-0.0733616054058075,-0.025056147947907448,-0.0631723701953888,-0.20306262373924255,-1.0480902194976807,-0.06655720621347427,2
39,-0.0745806023478508,-0.10839717090129852,0.011456235311925411,-0.18944776058197021,-1.0465186834335327,-0.06663573533296585,2
40,-0.08214381337165833,-0.0001911689032567665,0.000563514418900013,-0.1771666705608368,-1.0452473163604736,-0.06609001010656357,2
41,-0.030267879366874695,-0.03435106202960014,-0.07494049519300461,-0.16872917115688324,-1.0446306467056274,-0.06576484441757202,2
42,-0.10374714434146881,0.0900811105966568,-0.011684042401611805,-0.16170230507850647,-1.0442453622817993,-0.06634967029094696,2
43,-0.002239440567791462,0.008581389673054218,-0.011151453480124474,-0.16187085211277008,-1.0442125797271729,-0.06624934822320938,2
44,-0.009679676964879036,-0.14089235663414001,0.05214579403400421,-0.16161207854747772,-1.0434746742248535,-0.06660393625497818,2
45,0.025197718292474747,0.07204221934080124,-0.003014307701960206,-0.08982022106647491,-1.0426280498504639,-0.06389547884464264,2
46,-0.0343598835170269,0.04379311203956604,-0.09470166265964508,-0.10662147402763367,-1.041391372680664,-0.06418353319168091,2
47,-0.006698847282677889,-0.0350244902074337,0.0012447431217879057,-0.1193477064371109,-1.0410031080245972,-0.06521500647068024,2
48,9.468062489759177e-05,0.01576392725110054,-0.09678708761930466,-0.12802377343177795,-1.0409435033798218,-0.06562888622283936,2
49,0.06463892012834549,-0.11502458900213242,-0.06773065030574799,-0.13464473187923431,-1.0403316020965576,-0.0667201355099678,2
50,-0.029790224507451057,0.08149075508117676,0.008649526163935661,-0.1333695948123932,-1.0390642881393433,-0.06727176904678345,2
51,0.00584717420861125,-0.08373410254716873,-0.05340403690934181,-0.1333407163619995,-1.0383614301681519,-0.06730383634567261,2
52,-0.033141396939754486,-0.03427323326468468,0.0637659952044487,-0.13262316584587097,-1.0375112295150757,-0.0676259770989418,2
53,-0.019801290705800056,-0.018757514655590057,0.03247363492846489,-0.13211189210414886,-1.036744236946106,-0.06693674623966217,2
54,-0.07502130419015884,-0.0369601808488369,-0.07702313363552094,-0.13169921934604645,-1.0358291864395142,-0.06675171852111816,2
55,-0.10478464514017105,0.03628196567296982,0.10505213588476181,-0.1997722089290619,-1.0360407829284668,-0.06910455226898193,2
56,-0.06573021411895752,-0.08774370700120926,-0.11592420935630798,-0.18329060077667236,-1.0366796255111694,-0.0678018182516098,2
57,0.003845351980999112,0.06705014407634735,-0.008793976157903671,-0.1695050597190857,-0.9690479636192322,-0.06768093258142471,2
58,-0.08556603640317917,-0.019984174519777298,-0.020794933661818504,-0.09323476254940033,-1.0543136596679688,-0.06519827991724014,2
59,-0.06403699517250061,0.07608388364315033,-0.010712378658354282,-0.10460759699344635,-1.049919605255127,-0.06572592258453369,2
60,-0.08731527626514435,-0.01864921860396862,-0.13166847825050354,-0.11460268497467041,-1.0466501712799072,-0.06616475433111191,2
61,-0.07796979695558548,0.03154892101883888,0.05261051282286644,-0.1208902895450592,-1.0448046922683716,-0.0670611634850502,2
62,-0.07219666242599487,-0.04944084212183952,-0.050610266625881195,-0.12076704949140549,-1.044356346130371,-0.06651689857244492,2
63,-0.08692242950201035,-0.049071405082941055,-0.07819673418998718,-0.19223278760910034,-1.0430800914764404,-0.0685061663389206,2
64,-0.05300597846508026,-0.12338998168706894,-0.028911901637911797,-0.17652234435081482,-1.0415374040603638,-0.06846041977405548,2
65,-0.0045081982389092445,0.07300291210412979,-0.03429071977734566,-0.16377000510692596,-0.834663987159729,-0.06780359148979187,2
66,-0.03218739852309227,-0.03855236992239952,-0.044845566153526306,-0.0881139487028122,-1.0926921367645264,-0.06472421437501907,2
67,-0.06806129217147827,-0.06142175570130348,0.02797734923660755,0.0,0.0,0.0,2
68,-0.11641279608011246,0.0032635368406772614,0.0031195664778351784,0.00029270461527630687,-0.001064163283444941,0.00033945238101296127,2
69,-0.15353678166866302,-0.04001267999410629,0.039461057633161545,-0.1158885732293129,0.23496398329734802,0.0010532401502132416,2
70,0.008143878541886806,-0.0903502106666565,0.10530523210763931,-0.2846372127532959,0.2446569949388504,0.0015054886462166905,2
71,-0.05899134278297424,0.021663226187229156,-0.027679765596985817,-0.42004144191741943,0.21781599521636963,0.00219230935908854,2
72,0.009909769520163536,0.03930191323161125,-0.07933446764945984,-0.5159204602241516,0.14518317580223083,0.0014410298317670822,2
73,0.0799141526222229,-0.015329713001847267,-0.006908728741109371,-0.5645344257354736,0.05479659140110016,-2.8872289021819597e-06,2
74,-0.06581388413906097,0.07459847629070282,0.004064008127897978,-0.5883159637451172,-0.04771556332707405,-0.0010699897538870573,2
75,-0.07380233705043793,0.003484094049781561,0.00304722529835999,-0.5829241871833801,-0.1550954133272171,-0.002576264552772045,2
76,0.024142036214470863,-0.018348868936300278,0.009546979330480099,-0.5624451041221619,-0.247656911611557,-0.0032365808729082346,2
77,-0.009385695680975914,-0.03449251502752304,0.008478512987494469,-0.9808780550956726,-0.32477667927742004,-0.0043723369017243385,2
78,-0.14052581787109375,-0.09454388916492462,-0.059451695531606674,-0.8002889156341553,-0.3992152810096741,-0.005406523589044809,2
79,-0.05248980596661568,-0.030472205951809883,0.004193208646029234,-0.674812376499176,-0.4594201147556305,-0.00669059157371521,2
80,-0.008822331205010414,0.04695453867316246,-0.03777598217129707,-0.5803534388542175,-0.5156388878822327,-0.007940726354718208,2
81,-0.027783187106251717,-0.022332042455673218,-0.029860595241189003,-0.5162847638130188,-0.5641039609909058,-0.009045767597854137,2
82,-0.01564580574631691,-0.05635612830519676,0.061579424887895584,-0.46232330799102783,-0.6024024486541748,-0.010423284024000168,2
83,-0.06654515117406845,-0.10164270550012589,-0.04567510634660721,-0.42101675271987915,-0.6394445896148682,-0.010991952382028103,2
84,-0.024564502760767937,-0.004617440048605204,0.06556494534015656,-0.3872274160385132,-0.6696543097496033,-0.011989506892859936,2
85,-0.034536175429821014,-0.04744013398885727,-0.06218450143933296,-0.36318546533584595,0.04574137553572655,-0.007917421869933605,2
86,-0.055258478969335556,-0.06847967207431793,0.041347648948431015,-0.3427315056324005,-0.8963596224784851,-0.012744876556098461,2
87,-0.06641899049282074,-0.029714083299040794,-0.013803898356854916,-0.32420435547828674,-0.8657664060592651,-0.012285860255360603,2
88,-0.033305857330560684,-0.06484876573085785,0.0038102706894278526,-0.3133203983306885,-0.8478407859802246,-0.01259523443877697,2
89,-0.0962456688284874,-0.004533442202955484,0.045857444405555725,-0.3009433150291443,-0.6415139436721802,-0.012338838540017605,2
90,-0.08007204532623291,0.08972083777189255,-0.0863400474190712,-0.2943364679813385,-0.8876179456710815,-0.012108847498893738,2
91,-0.06555862724781036,-0.14170436561107635,-0.025367602705955505,-0.28731757402420044,-0.33159342408180237,-0.013461249880492687,2
92,-0.05872195586562157,0.09667588025331497,0.023576049134135246,-0.27927452325820923,-0.9995468854904175,-0.012531367130577564,2
93,-0.04926648736000061,-0.03464459255337715,-0.006145480088889599,-0.27319058775901794,-0.9577245116233826,-0.012227078899741173,2
94,-0.061731476336717606,-0.008055510930716991,0.07159225642681122,-0.10481541603803635,-0.930429995059967,-0.015270678326487541,2
95,-0.007662157528102398,-0.07618705183267593,-0.14260350167751312,-0.14636078476905823,-0.913543701171875,-0.01410001888871193,2
96,-0.052037015557289124,0.03140098601579666,0.08379322290420532,-0.17491286993026733,-0.7550161480903625,-0.015571667812764645,2
97,-0.035112809389829636,-0.03659849241375923,0.012639032676815987,-0.19570013880729675,-0.9372950792312622,-0.012472477741539478,2
98,-0.061597276479005814,-0.038098447024822235,0.02831432782113552,-0.20929688215255737,-0.9246701002120972,-0.012255779467523098,2
99,-0.16511033475399017,0.11113807559013367,-0.00932368729263544,-0.218288391828537,-0.9179625511169434,-0.012245547957718372,2
100,-0.08567330986261368,-0.07659861445426941,-0.013503595255315304,-0.22591887414455414,-0.9162035584449768,-0.01217605546116829,2
101,0.031121784821152687,-0.0027854719664901495,0.012369311414659023,-0.22766542434692383,-0.658904492855072,-0.01445995643734932,2
102,-0.07149551808834076,-0.018188977614045143,0.04399631544947624,-0.2277509868144989,-0.980657160282135,-0.011580619029700756,2
103,-0.11854474246501923,-0.038275592029094696,-0.01840432547032833,-0.34946441650390625,-0.8436734080314636,-0.009568708017468452,2
104,-0.12699244916439056,-0.12203987687826157,0.06867742538452148,-0.3145729899406433,-0.9866946339607239,-0.009723353199660778,2
105,0.005127507261931896,0.001914167427457869,-0.04151660576462746,-0.28813883662223816,-0.9732819199562073,-0.009973771870136261,2
106,-0.003949039150029421,-0.016261400654911995,0.10960181802511215,-0.15564601123332977,-0.9626498222351074,-0.013487894088029861,2
107,-0.034488074481487274,-0.04424922168254852,0.0373186394572258,-0.17113707959651947,-0.956303596496582,-0.012532651424407959,2
108,0.07675820589065552,0.07091323286294937,0.027425428852438927,-0.29237106442451477,-0.9522755742073059,-0.008818441070616245,2
109,-0.09148932248353958,0.04128448665142059,-0.04556964710354805,-0.2719069719314575,-0.9484317898750305,-0.009697851724922657,2
110,0.011421321891248226,-0.05557865649461746,-0.05837589502334595,-0.2541833519935608,-0.9469839930534363,-0.009950481355190277,2
111,-0.007271795067936182,-0.01664641499519348,-0.061595816165208817,-0.24076847732067108,-0.9455697536468506,-0.010664978995919228,2
112,-0.09786180406808853,-0.07721064984798431,0.04683888703584671,-0.2311699539422989,-0.9462641477584839,-0.011414199136197567,2
113,0.013634147122502327,-0.019162556156516075,-0.011313754133880138,-0.22250132262706757,-0.9476220011711121,-0.011311613954603672,2
114,0.010285819880664349,-0.02507713809609413,-0.004615926183760166,-0.21488052606582642,-0.9485518336296082,-0.011197463609278202,2
115,-0.11469052731990814,-0.1300114244222641,0.044205859303474426,-0.2138063609600067,-0.9477993845939636,-0.011372759006917477,2
116,-0.16311325132846832,0.12886129319667816,-0.04393406957387924,-0.21303711831569672,-0.9480818510055542,-0.011040592566132545,2
117,0.0048803710378706455,-0.16565310955047607,-0.04716983065009117,-0.2128274142742157,-0.9483525156974792,-0.011533675715327263,2
118,-0.08300076425075531,-0.008569235913455486,-0.10744933784008026,-0.21170683205127716,-0.9473453760147095,-0.012461190111935139,2
119,0.04211065545678139,0.024755259975790977,-0.04596831277012825,-0.21176356077194214,-0.946580171585083,-0.013154406100511551,2
120,0.026511631906032562,-0.038891613483428955,-0.11280833184719086,-0.20787861943244934,-0.851272463798523,-0.014264699071645737,2
121,-0.00406508706510067,0.03209703415632248,0.001150274183601141,-0.20657047629356384,-0.9707269072532654,-0.013820064254105091,2
122,-0.02799377776682377,-0.06266903132200241,-0.03420001640915871,-0.2060990184545517,-0.9700141549110413,-0.013940897770226002,2
123,-0.04183335602283478,0.10265649855136871,-0.005821067839860916,-0.20625844597816467,-0.9690949320793152,-0.014185908250510693,2
124,-0.07087833434343338,-0.12323696911334991,-0.003766958601772785,-0.11369788646697998,-0.9676283597946167,-0.016256943345069885,2
125,-0.052735835313797,-0.059940457344055176,-0.015376944094896317,-0.1324235200881958,-0.9658754467964172,-0.015522400848567486,2
126,-0.028406580910086632,-0.0735248476266861,-0.11920878291130066,-0.2370288372039795,-0.8760652542114258,-0.015370543114840984,2
127,0.028518112376332283,0.052317261695861816,0.018702376633882523,-0.2273600995540619,-0.8988089561462402,-0.015047523193061352,2
128,0.036744799464941025,0.0052967979572713375,-0.01555546559393406,-0.21989111602306366,-1.0044420957565308,-0.014454185031354427,2
129,0.030807465314865112,0.0028374148532748222,0.043166596442461014,-0.03899059444665909,-0.9952476024627686,-0.017405854538083076,2
130,-0.052422188222408295,0.019419431686401367,0.026135766878724098,-0.0770353227853775,-0.989353358745575,-0.016587596386671066,2
131,0.03359783813357353,-0.020115632563829422,0.029621370136737823,-0.1926245093345642,-0.9857389330863953,-0.014400827698409557,2
132,-0.13383734226226807,0.07215866446495056,-0.008657245896756649,-0.2776816189289093,-0.898511528968811,-0.01381267886608839,2
133,-0.021586783230304718,-0.05140261352062225,-0.039538558572530746,-0.25569218397140503,-0.9202315211296082,-0.013975195586681366,2
134,0.042490508407354355,0.010310000739991665,-0.11956273019313812,-0.23846644163131714,-1.019909143447876,-0.014632930979132652,2
135,0.0024591991677880287,-0.01874694414436817,0.051561806350946426,-0.22474832832813263,-1.010913610458374,-0.01478575635701418,2
136,-0.07196593284606934,-0.059372853487730026,-0.012423031032085419,-0.2150375247001648,-1.0041732788085938,-0.014732640236616135,2
137,-0.04072858765721321,-0.022489061579108238,-0.14629590511322021,-0.20662710070610046,-0.9994341135025024,-0.014731802977621555,2
138,-0.07242582738399506,-0.07759706676006317,0.02523522637784481,-0.19975586235523224,-0.9950025677680969,-0.015418384224176407,2
139,0.006810745690017939,-0.06303241103887558,-0.09905894845724106,-0.11565905809402466,-0.992920994758606,-0.0172599907964468,2
140,0.010173753835260868,-0.07968524843454361,-0.043364860117435455,-0.13124865293502808,-0.9917108416557312,-0.01784956455230713,2
141,-0.054838940501213074,-0.04560722038149834,-0.03742861747741699,-0.22018174827098846,-0.9130213260650635,-0.016877276822924614,2
142,0.09701461344957352,0.07055838406085968,-0.0485096350312233,-0.20995070040225983,-1.0096663236618042,-0.01690257154405117,2
143,-0.03419683501124382,0.020772993564605713,0.006030182354152203,-0.20448172092437744,-1.0042436122894287,-0.01751314103603363,2
144,-0.03812209516763687,0.00963402446359396,-0.06770778447389603,-0.2043805867433548,-1.0040143728256226,-0.017468029633164406,2
145,-0.06682746857404709,0.09442176669836044,0.08229424059391022,-0.12485642731189728,-1.0021369457244873,-0.01898430846631527,2
146,-0.03258180618286133,-0.004782408941537142,-0.025913715362548828,-0.1406663954257965,-1.0024977922439575,-0.01811382919549942,2
147,-0.14468693733215332,-0.12320886552333832,0.06985402852296829,-0.2256019413471222,-0.9279811382293701,-0.017179220914840698,2
148,0.025225268676877022,0.003902084194123745,0.032720040529966354,-0.1416272222995758,-1.019762635231018,-0.017170749604701996,2
149,-0.09727707505226135,-0.08328112959861755,-0.01805480197072029,-0.15017171204090118,-1.0151351690292358,-0.016936739906668663,2
150,-0.02757156267762184,-0.03584044426679611,0.041812725365161896,-0.15672443807125092,-1.0117852687835693,-0.016772665083408356,2
151,-0.05535213649272919,-0.05440058931708336,0.04234926775097847,-0.16234277188777924,-1.0089330673217773,-0.016503831371665,2
152,-0.044761162251234055,0.030775727704167366,0.028001341968774796,-0.16174708306789398,-1.0082768201828003,-0.01586543582379818,2
153,-0.17893584072589874,0.06629716604948044,-0.06403736025094986,-0.16193756461143494,-1.008424997329712,-0.016263891011476517,2
154,0.03995365649461746,0.03979767486453056,0.040698375552892685,-0.16240088641643524,-1.007771372795105,-0.016904206946492195,2
155,-0.09079588949680328,-0.09032194316387177,0.05010936036705971,-0.23377206921577454,-0.7988447546958923,-0.017698202282190323,2
156,0.023530779406428337,-0.11515680700540543,-0.1681915521621704,-0.21627987921237946,-1.0592637062072754,-0.016417229548096657,2
157,-0.06033426150679588,-0.031638480722904205,0.0006351317279040813,-0.20138956606388092,-1.045584797859192,-0.017273176461458206,2
158,0.07119979709386826,0.06626161932945251,0.027106957510113716,-0.12197243422269821,-1.0354785919189453,-0.018159450963139534,2
159,0.0033558313734829426,-0.02390994504094124,-0.02252991683781147,-0.13379324972629547,-0.8197662234306335,-0.01907404139637947,2
160,-0.04891316220164299,0.05695054307579994,0.09496340155601501,-0.2105870246887207,-1.006394624710083,-0.017578763887286186,2
161,-0.052731454372406006,0.05989320948719978,-0.024416744709014893,-0.19905324280261993,-1.075529932975769,-0.016201745718717575,2
162,-0.1926550269126892,0.03578053042292595,-0.04574170336127281,-0.190978541970253,-1.060172438621521,-0.01707387901842594,2
163,0.06799405068159103,0.08764800429344177,-0.004651615396142006,-0.1836593747138977,-1.0476185083389282,-0.017490539699792862,2
164,0.03227154165506363,-0.016086244955658913,0.017744123935699463,-0.1781555861234665,-1.0359104871749878,-0.017649278044700623,2
165,-0.17009028792381287,0.01762920804321766,-0.05073266476392746,-0.10310680419206619,-0.9589346051216125,-0.01937979832291603,2
166,-0.08181930333375931,0.06782223284244537,-0.0039071328938007355,-0.11694248765707016,-1.043038010597229,-0.018617218360304832,2
167,-0.13406892120838165,-0.008551819249987602,-0.014374272897839546,-0.12953780591487885,-1.034978985786438,-0.018672307953238487,2
168,0.029122233390808105,0.025731254369020462,-0.014040996320545673,-0.13588866591453552,-1.0303512811660767,-0.01839021034538746,2
169,-0.002557996427640319,0.04767743870615959,0.03312186896800995,-0.1427164077758789,-1.0249756574630737,-0.018066158518195152,2
170,0.025350192561745644,-0.055373892188072205,0.01593995839357376,-0.22005566954612732,-1.0223318338394165,-0.016727032139897346,2
171,-0.06974996626377106,-0.13770341873168945,-0.028890255838632584,-0.20454899966716766,-1.0196179151535034,-0.016581760719418526,2
172,-0.024113697931170464,0.018162112683057785,-0.037940241396427155,-0.1197875589132309,-1.0190207958221436,-0.01814846880733967,2
173,-0.0810529813170433,-0.10003571957349777,-0.10053059458732605,-0.12954232096672058,-1.0182440280914307,-0.01856735721230507,2
174,-0.03953586518764496,-0.04028192535042763,-0.02027447521686554,-0.1352698802947998,-1.0170035362243652,-0.019107090309262276,2
175,-0.1091034933924675,-0.03388702869415283,0.011153137311339378,-0.21263721585273743,-0.8030670881271362,-0.019787590950727463,2
176,-0.12459021061658859,0.007083628326654434,0.016561226919293404,-0.1987522840499878,-1.070397973060608,-0.018152259290218353,2
177,0.024896537885069847,-0.03463922068476677,0.00022570100554730743,-0.18891409039497375,-1.058958888053894,-0.018463822081685066,2
178,0.014169474132359028,0.05778319761157036,0.016911115497350693,-0.18165165185928345,-1.0488917827606201,-0.01806063950061798,2
179,-0.09908085316419601,0.06629256159067154,-0.0882878303527832,-0.17646461725234985,-1.041334629058838,-0.018460672348737717,2
180,-0.009130766615271568,0.068507619202137,-0.047154299914836884,-0.176591694355011,-1.0402185916900635,-0.019069397822022438,2
181,0.0028908834792673588,0.005070433020591736,-0.07138331979513168,-0.17457173764705658,-0.8313706517219543,-0.020298123359680176,2
182,-0.1127842515707016,0.08118331432342529,0.04010719060897827,-0.10492044687271118,-1.0834473371505737,-0.01982511207461357,2
183,-0.13811150193214417,-0.08953025937080383,-0.0839107558131218,-0.12140532582998276,-1.06935453414917,-0.0199903454631567,2
184,-0.057511452585458755,-0.07056953012943268,-0.05266495794057846,-0.13158003985881805,-0.9266284704208374,-0.02128327637910843,2
185,0.051965825259685516,0.10074841976165771,0.028185337781906128,-0.14028403162956238,-1.0842955112457275,-0.020226268097758293,2
186,-0.08931267261505127,0.11288426071405411,0.041209910064935684,-0.14832477271556854,-1.0687237977981567,-0.01970268413424492,2
187,-0.050958264619112015,0.024024905636906624,-0.046531353145837784,-0.21895378828048706,-0.9935186505317688,-0.019319413229823112,2
188,-0.06377973407506943,0.12129196524620056,-0.007134886924177408,-0.14194540679454803,-1.0668246746063232,-0.01939377933740616,2
189,0.005660287570208311,-0.04040517657995224,-0.011938740499317646,-0.14963605999946594,-1.0566080808639526,-0.019865158945322037,2
190,-0.09779191762208939,0.04223497584462166,0.010816540569067001,-0.15537981688976288,-1.0472822189331055,-0.019628264009952545,2
191,-0.002659491030499339,-0.020735478028655052,-0.028064144775271416,-0.1556839942932129,-1.0473610162734985,-0.020012205466628075,2
192,-0.06967923045158386,-0.04052360728383064,-0.09940563887357712,-0.22246265411376953,-1.0426982641220093,-0.019786858931183815,2
193,-0.09649021178483963,0.004077262710779905,-0.012949780561029911,-0.20714320242404938,-1.039358377456665,-0.020506730303168297,2
194,-0.010876817628741264,0.020724698901176453,-0.18931491672992706,-0.19599050283432007,-1.037429690361023,-0.021244866773486137,2
195,-0.10498325526714325,0.0033930225763469934,0.04337418079376221,-0.18868640065193176,-1.0368629693984985,-0.022140666842460632,2
196,0.012248207814991474,0.05290627107024193,0.012807389721274376,-0.18197153508663177,-0.9701542258262634,-0.021464958786964417,2
197,0.020118845626711845,-0.03211136534810066,-0.0490177720785141,-0.11187311261892319,-0.9859785437583923,-0.02213508076965809,2
198,-0.04444761946797371,0.03209793567657471,0.011274171993136406,-0.12508900463581085,-1.0633735656738281,-0.022238049656152725,2
199,-0.06160947307944298,0.008626147173345089,0.004426946863532066,-0.1364744007587433,-1.0553005933761597,-0.02171427011489868,2
200,-0.049077268689870834,0.011235683225095272,-0.013711591251194477,-0.209799662232399,-0.9831142425537109,-0.022267626598477364,2
201,0.0069486903958022594,0.00903206318616867,0.0026165808085352182,-0.13333368301391602,-0.9307282567024231,-0.022377582266926765,2
202,0.038835737854242325,-0.06083719804883003,-0.0109664062038064,-0.14139820635318756,-1.0879985094070435,-0.021966584026813507,2
203,-0.05334363132715225,-0.04193415492773056,-0.12004033476114273,-0.21301311254501343,-1.0071156024932861,-0.022654497995972633,2
204,-0.0726609006524086,-0.02729702554643154,-0.021842103451490402,-0.1999516487121582,-0.8823182582855225,-0.023888813331723213,2
205,-0.1003185287117958,0.06709875911474228,0.023935485631227493,-0.19060833752155304,-1.1201155185699463,-0.023988448083400726,2
206,-0.0007237486424855888,-0.016344929113984108,-0.10961757600307465,-0.18466824293136597,-1.0975737571716309,-0.02383025735616684,2
207,-0.018806058913469315,0.028045671060681343,0.0008491009357385337,-0.1795756220817566,-1.0804635286331177,-0.02393503673374653,2
208,-0.07153937965631485,0.04838019981980324,-0.04817498102784157,-0.17677006125450134,-1.067872405052185,-0.024126693606376648,2
209,-0.0004190647159703076,0.07151775807142258,0.0035375223960727453,-0.17350506782531738,-1.0583784580230713,-0.025068309158086777,2
210,0.043755486607551575,0.04025021940469742,-0.02362661249935627,-0.17208394408226013,-1.0501734018325806,-0.02462693117558956,2
211,-0.03381573036313057,-0.0795619860291481,-0.15778017044067383,-0.1720351278781891,-1.0511481761932373,-0.025285234674811363,2
212,-0.008513476699590683,0.2880611717700958,0.22537939250469208,-0.16998817026615143,-1.0427442789077759,-0.024927634745836258,2
213,-0.043551597744226456,-0.2583296597003937,-0.874767005443573,-0.16901949048042297,-1.0307358503341675,-0.025465507060289383,2
214,0.11387161165475845,-0.7657009363174438,-1.615855097770691,-0.16953974962234497,-1.0226988792419434,-0.019885228946805,2
215,-0.4766901135444641,-0.9867665767669678,-0.7116708159446716,-0.16319458186626434,-1.0075618028640747,-0.016515517607331276,2
216,0.5446818470954895,0.2791060209274292,1.1839675903320312,-0.08042331039905548,-0.9359691739082336,-0.024967290461063385,2
217,0.5080984234809875,0.39092400670051575,0.5595012307167053,-0.09340478479862213,-0.9998058080673218,-0.02894490584731102,2
218,-0.2431148737668991,-0.42328473925590515,-0.7261368632316589,-0.17581182718276978,-0.9055091738700867,-0.028679849579930305,2
219,-0.07543899863958359,-0.8825517892837524,0.14339765906333923,-0.1019737496972084,-0.8263013362884521,-0.021135199815034866,2
220,-2.6213128566741943,2.174145460128784,0.34510982036590576,-0.11011158674955368,-0.9740803241729736,-0.015553855337202549,2
221,-4.688526630401611,4.9396891593933105,-1.5088714361190796,-0.10515879839658737,-0.91098552942276,-0.02329995110630989,2
222,-1.4134348630905151,2.8084046840667725,-0.3486567735671997,-0.09205272793769836,-0.8833341002464294,-0.03788727894425392,2
223,10.66024112701416,3.249035120010376,6.329576015472412,-0.1879355013370514,-0.8694902658462524,-0.00910015869885683,2
224,-3.824632167816162,6.970151424407959,7.327884197235107,-0.18759530782699585,-1.354156494140625,0.07063935697078705,2
225,12.733938217163086,-7.05984354019165,3.0781593322753906,-0.22471411526203156,-1.5048234462738037,0.12117288261651993,2
226,-9.37168025970459,10.963801383972168,4.095574855804443,-0.44009149074554443,-1.6656168699264526,0.15937648713588715,2
227,10.255902290344238,-7.6227216720581055,1.6343278884887695,-0.5850405097007751,-1.731559157371521,0.1970234364271164,2
228,-5.89975118637085,-7.407421588897705,-0.08621221035718918,-0.3238896429538727,-2.0729193687438965,0.18575793504714966,2
229,6.617259979248047,0.3618629574775696,1.4468270540237427,-0.4070574939250946,-2.045044183731079,0.2043549120426178,2
230,29.10375213623047,1.139758586883545,0.9078935980796814,-0.5167250037193298,-2.167531728744507,0.21105004847049713,2
231,20.781444549560547,6.942237854003906,5.813292980194092,-0.6967980861663818,-2.0159530639648438,0.25266918540000916,2
232,28.77256965637207,-7.775925636291504,8.03365421295166,-0.5721781849861145,-1.580214262008667,0.3140734136104584,2
233,39.63935852050781,-15.925554275512695,6.9820332527160645,-0.6386247873306274,-1.70305335521698,0.39414483308792114,2
234,47.53731918334961,-26.852645874023438,4.6978535652160645,-0.32852983474731445,-1.6284239292144775,0.4238032102584839,2
235,42.19915008544922,-30.53788948059082,1.8903340101242065,-0.2551475167274475,-1.745193600654602,0.461545467376709,2
236,51.655067443847656,-26.507984161376953,-2.4829118251800537,-0.0856701135635376,-1.83059561252594,0.45760396122932434,2
237,53.315216064453125,-23.8150691986084,-4.246949672698975,0.24066847562789917,-0.9681161046028137,0.432178258895874,2
238,51.007545471191406,-16.07927703857422,-5.780518531799316,0.22091823816299438,-0.7794926166534424,0.40897130966186523,2
239,58.31965637207031,-5.572360992431641,-4.041716575622559,0.31110161542892456,0.26043832302093506,0.35624319314956665,2
240,55.887508392333984,-13.140347480773926,-4.47132682800293,0.1798466295003891,0.990959644317627,0.32498595118522644,2
241,59.84440231323242,-22.481287002563477,-4.978285789489746,0.4678901433944702,2.2568249702453613,0.25602149963378906,2
242,37.19975662231445,-28.319190979003906,-3.701970338821411,-0.855270266532898,4.803486347198486,-0.0614326111972332,2
243,-5.227141857147217,-27.323396682739258,-1.1732497215270996,-0.013438370078802109,4.74481201171875,0.09192253649234772,2
244,-39.20687484741211,-34.46089553833008,0.7018947005271912,0.570615828037262,3.7679619789123535,0.2072441428899765,2
245,-46.67314147949219,-59.27912902832031,0.3357243239879608,1.7684203386306763,3.379392385482788,0.5981365442276001,2
246,-38.75209045410156,-79.33051300048828,-3.147808790206909,1.8879752159118652,3.332331895828247,0.16345316171646118,2
247,-25.554941177368164,-73.86418151855469,-5.472166538238525,3.412752866744995,3.101670265197754,0.5470885038375854,2
248,-11.571938514709473,-53.61737060546875,-11.335490226745605,4.667484760284424,4.140546798706055,0.46655339002609253,2
249,-0.9209482669830322,-35.153961181640625,-14.562758445739746,5.586775779724121,3.9065957069396973,0.6802628636360168,2
250,0.401569664478302,-7.962250232696533,-17.464031219482422,5.284668922424316,3.899508476257324,0.21144720911979675,2
251,-11.205405235290527,25.47394371032715,-17.61980438232422,5.196929454803467,4.041109085083008,-0.07052844762802124,2
252,-31.099267959594727,53.359928131103516,-18.836111068725586,4.710590839385986,3.057783842086792,0.26088252663612366,2
253,-47.61867141723633,69.57051849365234,-20.24736785888672,4.260146141052246,2.9862308502197266,-0.019757643342018127,2
254,-49.88045883178711,84.51014709472656,-21.047283172607422,2.236707925796509,1.7092214822769165,-0.3923232853412628,2
255,-51.64851760864258,92.19624328613281,-19.694482803344727,0.626995325088501,1.386805534362793,-1.0973484516143799,2
256,-40.30878829956055,84.14764404296875,-17.09567642211914,0.529119074344635,0.9753673672676086,-0.8762733340263367,2
257,-25.647857666015625,55.11806869506836,-16.950960159301758,0.2265753149986267,0.833815336227417,-0.9388758540153503,2
258,-17.35448455810547,23.29305648803711,-14.858579635620117,0.25833991169929504,0.4055613875389099,-0.8535666465759277,2
259,-11.697989463806152,-4.845948696136475,-9.309012413024902,0.445191353559494,0.6931270360946655,-1.011673927307129,2
260,-5.65093994140625,-21.61399269104004,-1.7276743650436401,0.9074739217758179,0.4132843315601349,-0.9365928173065186,2
261,-5.466130256652832,-29.494871139526367,4.063348293304443,1.618086338043213,0.09896032512187958,-0.7611076831817627,2
262,1.5545639991760254,-26.942901611328125,6.0902018547058105,1.9508947134017944,0.3140486776828766,-0.743205726146698,2
263,14.81397819519043,-4.648632526397705,8.084500312805176,2.0011563301086426,0.36851590871810913,-0.6842051148414612,2
264,23.078704833984375,23.167451858520508,9.800210952758789,1.5960667133331299,0.6292368769645691,-0.6288774013519287,2
265,24.19328498840332,41.28000259399414,9.01122760772705,1.2551681995391846,0.9467448592185974,-0.5399345755577087,2
266,10.967090606689453,49.3194465637207,6.640020370483398,0.9144217371940613,1.2191797494888306,-0.4622831344604492,2
267,0.048503607511520386,44.690155029296875,4.155510425567627,0.33347731828689575,1.15985906124115,-0.3880389332771301,2
268,-8.53890609741211,33.56285858154297,-0.32875388860702515,-0.28486233949661255,1.0621026754379272,-0.38309353590011597,2
269,-25.09380531311035,22.988815307617188,-5.482219219207764,-0.033337488770484924,0.6424881815910339,-0.32755592465400696,2
270,-39.234222412109375,8.925487518310547,-9.14184284210205,-0.4257429838180542,0.12494481354951859,-0.4276995360851288,2
271,-40.34235382080078,-4.0506768226623535,-9.455126762390137,-0.6073803305625916,-0.2647276818752289,-0.5352716445922852,2
272,-38.733890533447266,-14.951255798339844,-8.908551216125488,-0.6123716831207275,-0.9091338515281677,-0.6535741686820984,2
273,-39.82115936279297,-22.270925521850586,-8.271071434020996,-0.495240718126297,-1.5067424774169922,-0.7567285895347595,2
274,-29.91088104248047,-26.250059127807617,-5.132534980773926,-0.21149711310863495,-1.9747085571289062,-0.8296800255775452,2
275,-4.921625137329102,-28.834657669067383,-2.458692789077759,0.14926141500473022,-1.6488585472106934,-0.7908598780632019,2
276,12.018184661865234,-24.137800216674805,1.0985782146453857,0.19228196144104004,-1.5348923206329346,-0.7527203559875488,2
277,22.328622817993164,-7.768578052520752,3.4962947368621826,0.4016669690608978,-1.5634567737579346,-0.7548651099205017,2
278,29.95514678955078,13.513436317443848,2.694518566131592,0.27668994665145874,-1.3113054037094116,-0.7077019810676575,2
279,30.799816131591797,27.026065826416016,2.586538314819336,-0.06099923700094223,-1.4634902477264404,-0.7051597833633423,2
280,28.39447021484375,31.251707077026367,1.2693241834640503,-0.2889074683189392,-1.107438325881958,-0.7046894431114197,2
281,27.296119689941406,34.33228302001953,0.595747709274292,-0.602915346622467,-1.055152177810669,-0.7302672863006592,2
282,27.881824493408203,33.17626190185547,1.5040327310562134,-1.1343926191329956,-0.5568546652793884,-0.6506637930870056,2
283,26.924198150634766,25.327800750732422,3.6042864322662354,-1.143905520439148,-0.7191842794418335,-0.7621575593948364,2
284,30.626344680786133,5.15923547744751,5.432644367218018,-1.4191783666610718,-0.28532782196998596,-0.6634462475776672,2
285,32.201683044433594,-9.10327434539795,3.443549871444702,-1.2356728315353394,-0.2851347029209137,-0.7211994528770447,2
286,20.477415084838867,-18.670366287231445,3.371058940887451,-1.0538156032562256,0.18323178589344025,-0.640791654586792,2
287,8.388508796691895,-21.839096069335938,1.7700082063674927,-0.8714510202407837,0.070065937936306,-0.6781857013702393,2
288,7.059389591217041,-21.459827423095703,1.2632719278335571,-0.7126092314720154,0.10053515434265137,-0.6683350801467896,2
289,7.746431827545166,-17.31507110595703,2.851875066757202,-0.5754426121711731,0.40222275257110596,-0.5861561298370361,2
290,5.542520046234131,-7.845506191253662,5.601596832275391,-0.5096819996833801,0.3858327865600586,-0.5637039542198181,2
291,2.01688551902771,1.4671835899353027,10.403923034667969,-0.47154054045677185,0.8037611246109009,-0.39145246148109436,2
292,-4.486420631408691,5.157252788543701,13.186921119689941,-0.20294906198978424,1.0689113140106201,-0.203682541847229,2
293,-10.112916946411133,7.6730055809021,14.748851776123047,-0.24743978679180145,1.1404823064804077,-0.033366791903972626,2
294,-19.167879104614258,14.818197250366211,18.58462142944336,-0.4985048472881317,1.4100642204284668,0.18753758072853088,2
295,-27.040451049804688,21.863624572753906,22.65261459350586,-0.23776404559612274,0.7252988219261169,0.40155458450317383,2
296,-27.519628524780273,18.824478149414062,27.80703353881836,-0.4469168186187744,0.2943437993526459,0.6368027329444885,2
297,-14.353625297546387,17.611507415771484,30.47274398803711,-0.814414918422699,0.11367394030094147,0.906152069568634,2
298,7.743220806121826,9.494866371154785,27.91172981262207,-1.7477389574050903,0.22493647038936615,1.1144843101501465,2
299,21.58271026611328,-2.1083877086639404,22.653982162475586,-1.2333827018737793,0.45724785327911377,1.438435673713684,2
300,31.326635360717773,-11.169567108154297,19.06551170349121,-0.3592841923236847,1.6144570112228394,1.9000225067138672,2
301,29.94995880126953,-13.786295890808105,16.782331466674805,-0.5360589027404785,1.5570306777954102,1.9599416255950928,2
302,18.81436538696289,-13.976531982421875,18.494426727294922,-0.4517296850681305,1.4219406843185425,2.061283826828003,2
303,9.110501289367676,-17.744029998779297,15.54017162322998,-0.5136639475822449,1.4753563404083252,2.1762030124664307,2
304,-4.8125739097595215,-26.141658782958984,11.316838264465332,-0.4342043399810791,0.9000002145767212,2.181777000427246,2
305,-12.231239318847656,-26.36669158935547,6.816847801208496,-0.2252436727285385,0.8591256737709045,2.2666032314300537,2
306,-2.0538551807403564,-18.54221534729004,4.5863189697265625,-0.5807684659957886,0.41132020950317383,2.1622955799102783,2
307,14.767972946166992,-13.842323303222656,4.363214492797852,-0.45008015632629395,0.6805711388587952,2.235607624053955,2
308,17.125873565673828,-19.919506072998047,0.556562602519989,-0.7541768550872803,0.5081156492233276,2.1430461406707764,2
309,5.927490711212158,-34.3456916809082,-1.7260677814483643,-0.2541389763355255,0.7538995146751404,2.175478219985962,2
310,-4.022275924682617,-45.82831954956055,-8.631844520568848,0.15940901637077332,0.4289819002151489,2.0731163024902344,2
311,-13.036925315856934,-42.69702911376953,-13.903846740722656,0.9687035083770752,0.3274618089199066,1.9860825538635254,2
312,-18.278797149658203,-25.88437271118164,-18.379301071166992,0.8918065428733826,0.05577129125595093,1.778209924697876,2
313,-31.437971115112305,-0.575316309928894,-18.89137077331543,1.139625906944275,-0.1482124775648117,1.5962319374084473,2
314,-28.811784744262695,16.134998321533203,-17.448057174682617,0.8847914338111877,-0.6249819993972778,1.4113305807113647,2
315,-7.756509304046631,20.33455467224121,-16.34889793395996,0.6557467579841614,-0.6846194267272949,1.2293206453323364,2
316,9.20871353149414,12.15464973449707,-16.40781021118164,0.47887733578681946,-0.7576864361763,1.0708261728286743,2
317,25.496000289916992,-1.586671233177185,-12.612177848815918,0.5959265232086182,-0.5847964286804199,0.9164827466011047,2
318,41.65007781982422,-12.65208625793457,-10.267494201660156,0.8016132116317749,0.039620909839868546,0.7623946666717529,2
319,53.859527587890625,-25.278076171875,-7.939000606536865,1.1605042219161987,0.2685699164867401,0.6878951787948608,2
320,65.89481353759766,-28.979408264160156,-7.8893256187438965,1.4328761100769043,1.0484914779663086,0.5817127823829651,2
321,70.61100006103516,-20.35091209411621,-7.160101890563965,1.606605052947998,1.316189169883728,0.5715941190719604,2
322,58.78422546386719,-7.340357780456543,-7.470510959625244,1.8601069450378418,2.3752360343933105,0.41312989592552185,2
323,29.670766830444336,1.778551697731018,-8.527243614196777,1.720557689666748,2.3585734367370605,0.4257875680923462,2
324,-7.6074724197387695,12.852980613708496,-10.70838737487793,1.6403412818908691,2.455613613128662,0.33110737800598145,2
325,-43.20263671875,22.721660614013672,-15.055863380432129,1.444960355758667,2.0214765071868896,0.24917364120483398,2
326,-60.21637725830078,23.930126190185547,-16.98313331604004,1.1910432577133179,1.4611046314239502,0.0960559993982315,2
327,-54.85383224487305,15.16550350189209,-14.940759658813477,1.006618618965149,0.761205792427063,-0.028806565329432487,2
328,-38.32601547241211,7.314488887786865,-9.81374454498291,0.8837611079216003,0.3429298400878906,-0.168866366147995,2
329,-9.59212875366211,0.2931162118911743,-2.987942934036255,0.8747336268424988,0.13720504939556122,-0.22870999574661255,2
330,22.98167610168457,-1.5585813522338867,-0.30715957283973694,0.9410930871963501,0.5274283289909363,-0.2967611253261566,2
331,51.29287338256836,5.769104957580566,-1.2647815942764282,0.9371395707130432,0.7239682674407959,-0.25945934653282166,2
332,72.4439926147461,6.044194221496582,-5.1666951179504395,0.8019352555274963,1.5872135162353516,-0.34321141242980957,2
333,78.8843994140625,8.129395484924316,-9.099652290344238,0.7280802726745605,1.9596786499023438,-0.34685805439949036,2
334,70.12482452392578,2.2145748138427734,-12.923481941223145,0.6553394198417664,3.012406826019287,-0.5051290392875671,2
335,42.3332633972168,-2.8301565647125244,-13.143631935119629,0.6712494492530823,3.1609995365142822,-0.5747862458229065,2
336,17.024036407470703,-8.4953031539917,-9.734545707702637,0.7598507404327393,3.6223843097686768,-0.7083070278167725,2
337,-5.3352131843566895,-14.946937561035156,-4.697256088256836,0.8832170963287354,3.3536055088043213,-0.7477840185165405,2
338,-15.563420295715332,-14.898313522338867,-4.549304008483887,1.0719982385635376,3.2790048122406006,-0.7930282950401306,2
339,-17.19135284423828,-11.43837833404541,-2.127490758895874,1.1611212491989136,3.0589966773986816,-0.8477067351341248,2
340,-20.414119720458984,-9.269743919372559,0.33903974294662476,1.2501529455184937,2.984889507293701,-0.8734663724899292,2
341,-15.774706840515137,-14.723851203918457,1.7142198085784912,1.3058056831359863,2.7367336750030518,-0.886305034160614,2
342,0.6561684012413025,-17.45269203186035,1.402496337890625,1.5117597579956055,2.6515207290649414,-0.8628268241882324,2
343,20.655963897705078,-17.94953727722168,4.28842830657959,1.5212329626083374,2.7230279445648193,-0.8992750644683838,2
344,38.710960388183594,-20.777496337890625,7.0461201667785645,1.7904433012008667,3.097945213317871,-0.8360809683799744,2
345,48.58404541015625,-15.685749053955078,12.409390449523926,1.9830987453460693,3.426912307739258,-0.7280700206756592,2
346,48.82134246826172,-6.931778907775879,17.9936580657959,2.1220638751983643,4.096317768096924,-0.6083250641822815,2
347,48.762454986572266,5.1337432861328125,23.397756576538086,2.118072032928467,4.395147800445557,-0.37247827649116516,2
348,38.88710403442383,18.947580337524414,25.00074577331543,1.9456104040145874,5.047975063323975,-0.18836277723312378,2
349,15.84113883972168,22.791147232055664,26.048389434814453,1.6194499731063843,5.407848834991455,0.012424362823367119,2
350,-14.908647537231445,24.18257713317871,29.245553970336914,1.2909470796585083,5.149872303009033,0.3113219439983368,2
351,-41.63791275024414,30.665708541870117,33.691768646240234,1.0527825355529785,4.910126686096191,0.6410983204841614,2
352,-56.747535705566406,31.800662994384766,38.37586975097656,0.7371008992195129,4.234257698059082,1.0468477010726929,2
353,-57.871883392333984,29.729494094848633,40.54970932006836,0.38750556111335754,3.3586061000823975,1.4707504510879517,2
354,-43.44466018676758,14.590594291687012,40.672550201416016,0.11398739367723465,3.013179302215576,1.8077201843261719,2
355,-25.718523025512695,0.272824227809906,36.52919006347656,0.13433235883712769,2.6419997215270996,2.2408530712127686,2
356,-7.167368412017822,-17.344572067260742,28.289182662963867,0.3076937198638916,2.6937215328216553,2.571502923965454,2
357,8.231902122497559,-29.284345626831055,20.356130599975586,0.8070939183235168,2.781693696975708,2.9069581031799316,2
358,22.74777603149414,-28.489543914794922,17.011146545410156,0.8273090124130249,2.732234001159668,2.9643712043762207,2
359,39.9931755065918,-13.171695709228516,15.194637298583984,1.533109426498413,3.046332359313965,3.3077898025512695,2
360,39.73542022705078,15.148833274841309,12.239171981811523,1.2621451616287231,3.379434108734131,3.353034496307373,2
361,19.72616958618164,34.39080047607422,11.044879913330078,0.8558306097984314,3.773165702819824,3.428921699523926,2
362,-8.104931831359863,37.31662368774414,11.215620040893555,0.5091565251350403,3.519441843032837,3.593203544616699,2
363,-16.872514724731445,34.478179931640625,9.504141807556152,-0.060923021286726,3.240297794342041,3.660179853439331,2
364,-7.15117073059082,27.82704734802246,6.532582759857178,-0.2564130127429962,3.1815683841705322,3.7925353050231934,2
365,9.713356971740723,12.961305618286133,3.330629825592041,-0.44188621640205383,3.336883068084717,3.8497796058654785,2
366,30.73943328857422,3.561159133911133,2.0593581199645996,-0.5459327697753906,3.410769462585449,3.872467279434204,2
367,50.22336959838867,-0.9354709386825562,1.584960699081421,-0.5518064498901367,3.861050605773926,3.8977301120758057,2
368,50.03571701049805,-4.361452102661133,-1.0749043226242065,-0.5523561239242554,4.408136367797852,3.8928849697113037,2
369,23.740909576416016,-2.4474146366119385,-6.921121120452881,-0.6749581694602966,4.826932907104492,3.803816556930542,2
370,-11.852903366088867,-2.4747793674468994,-7.2497663497924805,-0.5130264163017273,4.692756652832031,3.756941080093384,2
371,-43.5006217956543,-2.8942947387695312,-3.473276138305664,-0.4265979826450348,4.368897914886475,3.7159817218780518,2
372,-64.11456298828125,-2.8781802654266357,0.3042372167110443,-0.41396182775497437,3.741272211074829,3.682565927505493,2
373,-78.85015869140625,0.36927464604377747,2.4735915660858154,-0.40259850025177,2.883815288543701,3.675828218460083,2
374,-82.24272918701172,-14.795714378356934,4.959807395935059,-0.38053348660469055,2.350646495819092,3.7180678844451904,2
375,-67.78925323486328,-25.322933197021484,5.965222358703613,-0.005746703594923019,1.503587245941162,3.815906524658203,2
376,-49.96806335449219,-35.84627914428711,4.7238898277282715,0.1636279672384262,1.0810623168945312,3.833562135696411,2
377,-24.982515335083008,-38.91276168823242,5.274957656860352,0.612775981426239,0.7457098364830017,3.9043493270874023,2
378,1.8521119356155396,-28.842580795288086,5.268242835998535,0.8807744383811951,0.7757219076156616,3.9477922916412354,2
379,21.23539924621582,-10.487632751464844,4.1642255783081055,1.2050083875656128,0.9628264307975769,4.017034530639648,2
380,31.463720321655273,8.922752380371094,6.071727275848389,1.2697778940200806,1.3929511308670044,4.08659553527832,2
381,37.79398727416992,26.3718204498291,6.541504383087158,0.9997686743736267,1.7231431007385254,4.15018892288208,2
382,37.051883697509766,36.469703674316406,4.529317378997803,0.510820209980011,2.1116721630096436,4.209804058074951,2
383,21.191255569458008,33.921669006347656,-0.13102196156978607,-0.07040250301361084,2.5944552421569824,4.235834121704102,2
384,0.9782139658927917,16.253469467163086,-0.21251046657562256,-0.16888408362865448,2.7359542846679688,4.249619007110596,2
385,-13.191910743713379,-12.72607421875,2.7029225826263428,-0.17804664373397827,2.365633487701416,4.25698709487915,2
386,-24.12441062927246,-37.30561828613281,6.096063613891602,0.34860485792160034,2.3203928470611572,4.308382034301758,2
387,-31.601612091064453,-52.62138366699219,5.859882831573486,0.8990519046783447,1.9553253650665283,4.354863166809082,2
388,-40.543800354003906,-56.671512603759766,5.7766313552856445,1.738283395767212,1.2574509382247925,4.411130905151367,2
389,-51.109169006347656,-51.5716552734375,3.880679130554199,2.3338828086853027,0.998906672000885,4.447320461273193,2
390,-59.2031364440918,-46.45556640625,3.7365596294403076,2.678622007369995,0.19831733405590057,4.487682819366455,2
391,-58.0584716796875,-28.424097061157227,1.845446228981018,2.935204029083252,-0.3727257251739502,4.514042854309082,2
392,-46.66006851196289,7.31229829788208,1.912149429321289,3.1017870903015137,-1.1510305404663086,4.558178901672363,2
393,-29.496580123901367,41.13039779663086,3.660478115081787,2.602827310562134,-1.2429397106170654,4.547882080078125,2
394,-1.0284245014190674,68.2193603515625,4.742579460144043,1.8171356916427612,-1.43778395652771,4.610198497772217,2
395,26.614971160888672,79.87165832519531,2.424257516860962,1.0428727865219116,-1.1530641317367554,4.60310697555542,2
396,47.745426177978516,69.76586151123047,-1.6337988376617432,0.0005559602286666632,-0.8227831125259399,4.656438827514648,2
397,52.28292465209961,46.61176300048828,-2.838408946990967,-0.29634085297584534,-0.38302525877952576,4.568016529083252,2
398,37.42790985107422,15.923721313476562,0.4113568067550659,-0.6333131790161133,0.22174163162708282,4.547133922576904,2
399,15.666300773620605,-8.222665786743164,3.6474409103393555,-0.6020062565803528,0.28532904386520386,4.574187755584717,2
400,-4.30456018447876,-27.157907485961914,8.024307250976562,-0.26009073853492737,0.21620707213878632,4.606232643127441,2
401,-17.305110931396484,-30.55213165283203,10.180510520935059,0.0887063592672348,-0.04505384713411331,4.6957621574401855,2
402,-24.10738754272461,-33.53400421142578,8.46699047088623,0.6282944083213806,-0.3809507489204407,4.737477779388428,2
403,-26.238718032836914,-24.797515869140625,5.1425652503967285,0.8200066685676575,-0.9352920055389404,4.8495330810546875,2
404,-21.56399154663086,-4.810941696166992,3.345301389694214,0.8312556743621826,-1.1415023803710938,4.925407886505127,2
405,-17.643535614013672,9.978777885437012,6.39670467376709,0.7646321654319763,-1.3478764295578003,4.975131511688232,2
406,-10.263236999511719,14.864866256713867,10.53671646118164,0.5322203636169434,-1.5432682037353516,5.0884552001953125,2
407,2.815887451171875,14.73383903503418,10.411948204040527,0.36426907777786255,-1.4818845987319946,5.194083213806152,2
408,18.74827766418457,11.413880348205566,6.803196907043457,0.14427702128887177,-1.2572972774505615,5.3043131828308105,2
409,34.492958068847656,5.299890995025635,4.935983657836914,0.1461842656135559,-1.1372698545455933,5.324840545654297,2
410,44.107154846191406,-2.504023551940918,4.5586652755737305,0.1372760534286499,-0.6417555212974548,5.375736713409424,2
411,56.189849853515625,-0.19979876279830933,-0.4396805465221405,0.3320038318634033,0.16103188693523407,5.3249030113220215,2
412,55.703311920166016,8.95898151397705,0.5859031677246094,0.5006732940673828,0.3479093909263611,5.2435455322265625,2
413,44.922142028808594,28.52411651611328,0.47187453508377075,0.176331028342247,0.8840473294258118,5.30815315246582,2
414,28.09097671508789,40.902042388916016,-2.0924770832061768,-0.300279438495636,1.4189921617507935,5.345444679260254,2
415,5.047133445739746,35.85603332519531,-2.6906321048736572,-0.6773998737335205,1.1637736558914185,5.312925338745117,2
416,-13.962054252624512,22.53744125366211,-1.6111774444580078,-1.034570336341858,0.8014667630195618,5.308121681213379,2
417,-21.949108123779297,12.001779556274414,0.24790488183498383,-1.1691274642944336,0.6594436168670654,5.298567295074463,2
418,-26.8499698638916,4.740640640258789,1.8049639463424683,-1.1570910215377808,0.34332436323165894,5.281735897064209,2
419,-20.501876831054688,5.559113025665283,2.7954916954040527,-1.2249200344085693,0.04726468771696091,5.308232307434082,2
420,-4.166560173034668,13.709633827209473,4.549633026123047,-1.390884280204773,-0.07562626153230667,5.363321781158447,2
421,16.840797424316406,20.711624145507812,3.574803113937378,-1.6675018072128296,0.20666666328907013,5.456997394561768,2
422,33.37204360961914,28.615171432495117,1.7022147178649902,-1.7683786153793335,0.5751230120658875,5.46805477142334,2
423,47.33842468261719,33.453548431396484,-1.7324223518371582,-2.1437549591064453,1.2356573343276978,5.5323710441589355,2
424,53.2500114440918,28.153148651123047,-3.8760809898376465,-2.3827462196350098,1.5008095502853394,5.438167095184326,2
425,47.785648345947266,22.389415740966797,-5.363744258880615,-2.5209596157073975,2.0569987297058105,5.388787269592285,2
426,36.53498458862305,22.766597747802734,-6.256539344787598,-2.8297688961029053,2.3304176330566406,5.314388275146484,2
427,20.94271469116211,14.763692855834961,-6.835151672363281,-3.0685999393463135,2.8176193237304688,5.324698448181152,2
428,-4.359192848205566,3.2744228839874268,-4.777463436126709,-3.0124542713165283,2.7493224143981934,5.203831672668457,2
429,-27.782135009765625,-5.905396461486816,-5.965181350708008,-2.974336624145508,2.327700614929199,5.070517063140869,2
430,-40.78385543823242,-8.035840034484863,-11.808286666870117,-2.8764679431915283,2.023843765258789,4.999203205108643,2
431,-33.98002243041992,-6.643932342529297,-14.495050430297852,-2.741643190383911,1.526903748512268,4.819827556610107,2
432,-16.43771743774414,1.9365061521530151,-19.263090133666992,-2.750570058822632,1.3166632652282715,4.669317245483398,2
433,4.4653472900390625,10.89807415008545,-22.806365966796875,-2.8520331382751465,1.2836523056030273,4.464908123016357,2
434,19.638700485229492,12.810813903808594,-25.28343391418457,-2.9591104984283447,1.5492615699768066,4.286893367767334,2
435,29.062463760375977,21.629772186279297,-27.183975219726562,-3.218893051147461,1.9178211688995361,4.083819389343262,2
436,33.53958511352539,19.368675231933594,-27.543195724487305,-3.548266649246216,2.0315611362457275,3.7222752571105957,2
437,35.44123458862305,14.208283424377441,-25.001863479614258,-3.521658182144165,2.426079034805298,3.4994897842407227,2
438,33.495357513427734,7.597017288208008,-23.105070114135742,-3.598524570465088,2.6652748584747314,3.2195630073547363,2
439,23.892118453979492,9.470276832580566,-22.524290084838867,-3.6450870037078857,3.198148250579834,3.1291825771331787,2
440,12.470364570617676,12.788711547851562,-22.532817840576172,-3.738504648208618,3.447822093963623,2.9533872604370117,2
441,-1.6336028575897217,10.457491874694824,-20.051549911499023,-3.888221263885498,3.196884870529175,2.591965436935425,2
442,-14.110091209411621,-2.2453362941741943,-14.6944580078125,-3.8708486557006836,3.16862154006958,2.4687108993530273,2
443,-26.187990188598633,-9.44301700592041,-11.896061897277832,-3.6914584636688232,2.6493849754333496,2.180521249771118,2
444,-38.725833892822266,-17.980100631713867,-11.403295516967773,-3.5203166007995605,2.162381172180176,1.9824258089065552,2
445,-40.2409782409668,-27.05086326599121,-10.055306434631348,-3.212517023086548,1.7668871879577637,1.8868014812469482,2
446,-31.429594039916992,-32.53838348388672,-8.280157089233398,-2.8339033126831055,1.2781833410263062,1.7277125120162964,2
447,-22.18117332458496,-33.157127380371094,-7.134729862213135,-2.409189462661743,0.9644635319709778,1.6277790069580078,2
448,-1.1703165769577026,-26.02309226989746,-6.369197845458984,-1.9440361261367798,1.0744516849517822,1.7086119651794434,2
449,24.112449645996094,-6.774393081665039,-8.762916564941406,-2.277308464050293,0.866414487361908,1.3774089813232422,2
450,48.25428771972656,5.050041198730469,-9.452194213867188,-2.3557064533233643,1.7003949880599976,1.530571699142456,2
451,66.63267517089844,7.327689170837402,-9.922117233276367,-2.400362014770508,2.382962465286255,1.482309103012085,2
452,70.41812896728516,-0.4109151065349579,-9.131447792053223,-2.541261911392212,3.175416946411133,1.4328513145446777,2
453,70.18233489990234,-3.131171703338623,-10.105585098266602,-2.360382556915283,3.626080274581909,1.2193700075149536,2
454,54.51336669921875,3.065629243850708,-11.91779613494873,-2.270975351333618,4.630917549133301,1.3054131269454956,2
455,26.10481834411621,13.098705291748047,-14.753885269165039,-2.3685834407806396,4.682497024536133,1.0130926370620728,2
456,-22.511911392211914,9.733312606811523,-15.603297233581543,-2.5084030628204346,4.495691299438477,0.7797206044197083,2
457,-63.23237609863281,6.565335750579834,-14.2717866897583,-2.5956761837005615,3.8095054626464844,0.5401240587234497,2
458,-72.24414825439453,-1.1051965951919556,-10.721035957336426,-2.5140371322631836,3.183429479598999,0.4821690618991852,2
459,-57.313899993896484,-7.337753772735596,-6.252102375030518,-2.4047346115112305,2.4629225730895996,0.38792210817337036,2
460,-36.589378356933594,-10.45536994934082,-3.140418529510498,-2.3281352519989014,1.8493626117706299,0.2660897970199585,2
461,-15.952239990234375,-6.752694129943848,-3.5720787048339844,-2.1278109550476074,1.9891977310180664,0.42902183532714844,2
462,-6.411754608154297,-11.785993576049805,-7.524875164031982,-2.076781988143921,1.8297226428985596,0.3331909477710724,2
463,-13.950363159179688,-36.89082717895508,-9.04977035522461,-1.6839276552200317,1.7587653398513794,0.2799333333969116,2
464,-34.73237991333008,-44.04920959472656,-12.766146659851074,-1.09861159324646,1.3862013816833496,0.14383961260318756,2
465,-56.84462356567383,-39.41609573364258,-14.074772834777832,-0.7088179588317871,0.7336258292198181,-0.07100827246904373,2
466,-74.397705078125,-33.8465576171875,-13.572129249572754,-0.5089344382286072,0.09823027998209,-0.22700783610343933,2
467,-76.24028015136719,-10.110721588134766,-13.212767601013184,-0.29377615451812744,-0.724018931388855,-0.3731183707714081,2
468,-53.76503372192383,5.349958896636963,-11.104194641113281,-0.25707322359085083,-1.5493282079696655,-0.5325133800506592,2
469,-8.137998580932617,23.557064056396484,-8.251935958862305,-0.4177575707435608,-1.2393733263015747,-0.4950047433376312,2
470,37.28505325317383,34.2946662902832,-6.793441295623779,-0.7596133351325989,-1.0377038717269897,-0.5732046961784363,2
471,69.04749298095703,34.4311408996582,-2.687560796737671,-1.2708802223205566,-0.256242573261261,-0.587225615978241,2
472,78.54828643798828,19.10810089111328,1.466080665588379,-1.5266200304031372,0.378315269947052,-0.6114137768745422,2
473,68.530029296875,-1.3241071701049805,2.3335795402526855,-1.5240097045898438,1.373379111289978,-0.5555585622787476,2
474,44.68855285644531,-14.78998851776123,4.815440654754639,-1.2504146099090576,1.5191236734390259,-0.6006980538368225,2
475,6.649811267852783,-20.768810272216797,6.451456546783447,-0.8881489038467407,1.9024325609207153,-0.5450767278671265,2
476,-36.881103515625,-15.319718360900879,9.727025032043457,-0.7232652306556702,1.5246790647506714,-0.490339994430542,2
477,-69.4295425415039,0.10284710675477982,11.732221603393555,-0.5973586440086365,0.6597523093223572,-0.4204859435558319,2
478,-85.55413818359375,12.907403945922852,12.615521430969238,-0.6436894536018372,-0.18418101966381073,-0.30147334933280945,2
479,-78.23810577392578,18.790481567382812,10.887989044189453,-0.9247413873672485,-1.1752763986587524,-0.1898002326488495,2
480,-54.080875396728516,23.57459831237793,8.683160781860352,-1.2151037454605103,-1.6381491422653198,-0.0775960236787796,2
481,-14.077488899230957,31.607152938842773,6.1059441566467285,-1.4569931030273438,-1.9389678239822388,-0.015269529074430466,2
482,31.812698364257812,31.16399383544922,4.390874862670898,-1.71293306350708,-1.7360347509384155,0.020104654133319855,2
483,50.334537506103516,30.288105010986328,-1.257716178894043,-2.1588377952575684,-1.019486904144287,0.07264086604118347,2
484,50.19511795043945,9.762118339538574,-4.08095645904541,-2.451641082763672,-0.5471764802932739,0.04822448641061783,2
485,45.70949935913086,-21.18082618713379,-0.5019961595535278,-2.162524938583374,-0.04608073830604553,-0.020144380629062653,2
486,26.835660934448242,-33.36194610595703,2.6415534019470215,-1.6991394758224487,0.2934998869895935,-0.045670051127672195,2
487,3.9384915828704834,-33.81539535522461,1.9497486352920532,-1.1474744081497192,0.32890334725379944,-0.08316191285848618,2
488,-7.301824569702148,-35.860591888427734,3.3195676803588867,-0.9744704961776733,0.026303663849830627,-0.0414104089140892,2
489,-17.402372360229492,-34.95284652709961,5.448111534118652,-0.5310489535331726,-0.13591784238815308,-0.016592174768447876,2
490,-28.56256103515625,-15.211258888244629,4.98737096786499,-0.17694400250911713,-0.32955077290534973,0.022756442427635193,2
491,-31.471960067749023,7.95382833480835,1.5035048723220825,-0.19881360232830048,-0.8145945072174072,0.05572105944156647,2
492,-23.757089614868164,22.03668212890625,-0.019809633493423462,-0.4593585431575775,-1.0424262285232544,0.08685764670372009,2
493,5.01351261138916,37.40534210205078,-1.7067686319351196,-0.8758507370948792,-1.1442362070083618,0.09885043650865555,2
494,45.21184158325195,49.89740753173828,-3.482764959335327,-1.3947848081588745,-0.7302809357643127,0.08119375258684158,2
495,73.37726593017578,47.37077713012695,-4.4929704666137695,-1.9740586280822754,0.0657239630818367,0.06846340000629425,2
496,89.9572525024414,23.436460494995117,-5.166018486022949,-2.4428493976593018,0.9229599833488464,0.05207069218158722,2
497,96.65682220458984,4.877061367034912,-1.372445821762085,-2.507519483566284,2.3309271335601807,0.020073093473911285,2
498,91.86482238769531,-4.5244460105896,6.312121868133545,-2.403768301010132,2.799598455429077,-0.0011454494670033455,2
499,67.9588394165039,-29.432167053222656,15.225220680236816,-2.1013033390045166,3.7213988304138184,0.08450724929571152,2
500,38.917274475097656,-53.53190612792969,22.18980598449707,-1.5720057487487793,4.194318771362305,0.22625838220119476,2
501,9.937470436096191,-77.28779602050781,25.574321746826172,-0.7005204558372498,4.6033501625061035,0.40293726325035095,2
502,-8.376070022583008,-88.46234893798828,27.972660064697266,0.11514495313167572,4.315239429473877,0.5957464575767517,2
503,-19.352643966674805,-79.04225158691406,28.204557418823242,1.260804295539856,4.085190296173096,0.8009281158447266,2
504,-36.08753204345703,-46.31005096435547,23.977783203125,2.123182535171509,3.865170955657959,1.019773244857788,2
505,-59.800418853759766,2.5674338340759277,20.379804611206055,1.846850872039795,3.2972962856292725,1.2102935314178467,2
506,-80.16094207763672,52.57815933227539,17.611616134643555,1.4997950792312622,2.2024428844451904,1.4345042705535889,2
507,-90.66913604736328,90.23101043701172,15.86888313293457,0.4784858226776123,1.4439566135406494,1.5822380781173706,2
508,-87.13999938964844,112.93283081054688,14.007604598999023,-0.8183619379997253,0.3295459449291229,1.7424226999282837,2
509,-77.1441650390625,108.3508071899414,10.588781356811523,-2.421318292617798,-0.8055124878883362,1.8371939659118652,2
510,-58.746273040771484,83.45729064941406,7.550989627838135,-2.9531731605529785,-0.6645689010620117,1.8850599527359009,2
511,-32.09346008300781,47.22402572631836,4.822454452514648,-3.5265324115753174,-0.8843089938163757,1.930337905883789,2
512,1.1727300882339478,7.017168998718262,-0.5456811785697937,-3.657989978790283,-1.214011788368225,1.9566746950149536,2
513,39.696311950683594,-26.55912208557129,-1.9023298025131226,-3.063493251800537,-0.5600827932357788,1.9473886489868164,2
514,64.91986846923828,-52.308319091796875,1.7301280498504639,-2.353093147277832,0.26899483799934387,1.9490989446640015,2
515,60.716270446777344,-61.297664642333984,3.7323758602142334,-1.6349703073501587,0.8246986865997314,1.9669851064682007,2
516,45.29375076293945,-58.04905319213867,1.5456855297088623,-0.8761278390884399,1.4332783222198486,1.9776878356933594,2
517,26.227195739746094,-39.848915100097656,-3.905280351638794,-0.8203558921813965,1.5195012092590332,1.9682207107543945,2
518,8.196725845336914,-24.02874183654785,-8.093148231506348,-0.27451908588409424,1.764237403869629,1.8867847919464111,2
519,-15.275335311889648,1.5695751905441284,-11.553802490234375,-0.2874424457550049,1.5331323146820068,1.7869092226028442,2
520,-41.90302276611328,30.394948959350586,-13.742317199707031,-0.5479324460029602,1.0151305198669434,1.6597450971603394,2
521,-52.9974250793457,49.661705017089844,-13.177029609680176,-1.1415084600448608,0.3884989619255066,1.5356556177139282,2
522,-47.79829025268555,49.74314880371094,-12.385186195373535,-1.6912046670913696,-0.0651533380150795,1.4075947999954224,2
523,-26.412757873535156,28.8277587890625,-11.041695594787598,-2.1410491466522217,-0.31162142753601074,1.2935456037521362,2
524,4.778697967529297,1.5803037881851196,-11.749049186706543,-2.2434420585632324,-0.2686803936958313,1.181239366531372,2
525,27.989229202270508,-13.161759376525879,-13.149054527282715,-2.0338757038116455,-0.0652097761631012,1.0496784448623657,2
526,43.32984161376953,-22.569679260253906,-13.409711837768555,-1.6787053346633911,0.4652799963951111,0.9084741473197937,2
527,40.07502746582031,-34.28697204589844,-10.042149543762207,-1.4249557256698608,0.8917667865753174,0.7875685095787048,2
528,31.725364685058594,-31.713274002075195,-8.314358711242676,-0.8973252177238464,1.4249802827835083,0.6815792918205261,2
529,24.18643569946289,-18.920549392700195,-7.886422634124756,-1.049506425857544,1.5289045572280884,0.6190295815467834,2
530,15.289399147033691,-5.2800798416137695,-7.139975070953369,-0.7215244174003601,1.7947046756744385,0.5248976349830627,2
531,2.159714937210083,2.727038860321045,-6.971425533294678,-0.8315961360931396,1.8914297819137573,0.46132877469062805,2
532,-15.095569610595703,9.139650344848633,-7.499183654785156,-0.8467966914176941,1.6210951805114746,0.38408681750297546,2
533,-25.114282608032227,3.75939679145813,-6.635118007659912,-0.9639484882354736,1.378137230873108,0.312298059463501,2
534,-34.55204391479492,-1.693344235420227,-4.8427348136901855,-0.8972939848899841,1.1186654567718506,0.2531288266181946,2
535,-34.555580139160156,-0.41804665327072144,-2.9298603534698486,-0.850121021270752,0.7557207345962524,0.21391014754772186,2
536,-30.806169509887695,-0.4511944651603699,-0.5112404227256775,-0.7429187893867493,0.2076696753501892,0.19296947121620178,2
537,-26.564735412597656,-0.6306719779968262,2.3645424842834473,-0.6347859501838684,-0.0262072142213583,0.203626811504364,2
538,-25.924213409423828,4.465056419372559,3.191951274871826,-0.7152029871940613,-0.047150105237960815,0.23232348263263702,2
539,-33.78257369995117,10.43470573425293,2.7941393852233887,-0.7438160181045532,-0.6341851353645325,0.2650943994522095,2
540,-37.23651885986328,10.838231086730957,1.2897429466247559,-0.8458571434020996,-0.8407142758369446,0.27923059463500977,2
541,-33.27561569213867,8.422638893127441,1.176790475845337,-0.9093364477157593,-1.1182353496551514,0.2856332063674927,2
542,-30.747249603271484,5.2282233238220215,-0.28372570872306824,-0.9299502968788147,-1.3625432252883911,0.2853284180164337,2
543,-11.804147720336914,10.928183555603027,-3.30867862701416,-1.1169567108154297,-1.6775153875350952,0.27633294463157654,2
544,6.349928855895996,24.423892974853516,-8.639448165893555,-1.4016985893249512,-0.9766189455986023,0.2067086398601532,2
545,13.321581840515137,20.375362396240234,-9.69195556640625,-1.6188472509384155,-0.9270907640457153,0.1005893424153328,2
546,12.647307395935059,11.854305267333984,-8.399398803710938,-1.8039377927780151,-0.7425812482833862,0.012947823852300644,2
547,8.790424346923828,2.437648057937622,-6.324480056762695,-1.798789143562317,-0.6660296320915222,-0.07084675878286362,2
548,3.760082483291626,-2.4404873847961426,-4.14042329788208,-1.8340939283370972,-0.618943452835083,-0.11342276632785797,2
549,-2.061884880065918,-2.180025339126587,-4.34804630279541,-1.6521871089935303,-0.6327617168426514,-0.1800697147846222,2
550,-2.32114315032959,12.4913330078125,-5.304575443267822,-1.9371954202651978,-0.8012306690216064,-0.1900809407234192,2
551,-10.891840934753418,0.8545726537704468,-7.175311088562012,-1.9969305992126465,-0.9003174901008606,-0.2606959939002991,2
552,-31.950027465820312,-32.20782470703125,-11.71773624420166,-1.608065128326416,-1.2089154720306396,-0.4012702703475952,2
553,-51.36796951293945,-48.373233795166016,-14.639507293701172,-0.8784904479980469,-1.7727099657058716,-0.5960699915885925,2
554,-61.73957443237305,-46.41177749633789,-13.187249183654785,-0.9713164567947388,-2.0570030212402344,-0.5826858878135681,2
555,-56.81895446777344,-33.06779861450195,-11.65746784210205,-0.2963927686214447,-3.0209240913391113,-0.7630373239517212,2
556,-34.50413513183594,-22.34771728515625,-11.958956718444824,-0.25851714611053467,-3.2052831649780273,-0.7996140718460083,2
557,2.5000452995300293,-5.733593940734863,-13.535479545593262,-0.02074848860502243,-3.2648537158966064,-0.9483846426010132,2
558,33.712520599365234,8.766324043273926,-11.988667488098145,0.11018624901771545,-3.035292625427246,-1.1166497468948364,2
559,57.14396667480469,27.066240310668945,-12.446568489074707,-0.051120128482580185,-2.3145508766174316,-1.2560617923736572,2
560,57.526607513427734,39.540096282958984,-12.323296546936035,-0.6063500642776489,-1.626030445098877,-1.3263028860092163,2
561,32.36761474609375,33.74103927612305,-8.825827598571777,-1.1224662065505981,-1.0155829191207886,-1.4001492261886597,2
562,11.668209075927734,11.748641967773438,-2.0551395416259766,-1.4100807905197144,-0.9243902564048767,-1.43095862865448,2
563,3.011730670928955,-26.419506072998047,3.017443895339966,-1.1860231161117554,-0.981675922870636,-1.4722216129302979,2
564,-1.1692423820495605,-71.2865219116211,8.046406745910645,-0.23249231278896332,-0.6897588968276978,-1.577996850013733,2
565,2.2552943229675293,-103.5706558227539,13.420065879821777,0.5973806977272034,-0.9584299325942993,-1.4154738187789917,2
566,4.884603977203369,-117.36106872558594,17.830135345458984,2.201951265335083,-0.9889122843742371,-1.397889256477356,2
567,6.814237594604492,-96.49166107177734,23.195314407348633,2.9188499450683594,-0.981306254863739,-1.0367661714553833,2
568,7.853753566741943,-56.30429458618164,26.405717849731445,3.56829571723938,-0.8775607943534851,-0.7475217580795288,2
569,-0.9849211573600769,-10.59636116027832,27.307296752929688,3.612187623977661,-0.9095596075057983,-0.37843194603919983,2
570,-12.363361358642578,27.26371955871582,28.371835708618164,3.6461422443389893,-1.1836153268814087,-0.10071665793657303,2
571,-20.69141960144043,51.84889602661133,28.815832138061523,3.06095814704895,-1.5454734563827515,0.2768477201461792,2
572,-27.264110565185547,61.070030212402344,27.178131103515625,2.1881396770477295,-1.711477279663086,0.5979809761047363,2
573,-31.714181900024414,58.19106674194336,24.17095184326172,1.3560305833816528,-2.055854082107544,0.9118674397468567,2
574,-27.823543548583984,49.0803108215332,22.003807067871094,0.7908375263214111,-2.6162021160125732,1.2138649225234985,2
575,-6.277870178222656,28.407644271850586,17.755277633666992,0.32893505692481995,-2.4570658206939697,1.2958576679229736,2
576,22.691082000732422,1.869296908378601,13.387048721313477,0.36880436539649963,-2.218682289123535,1.335326075553894,2
577,39.65689468383789,-18.20267677307129,10.22785472869873,0.5464099049568176,-1.7502615451812744,1.3792753219604492,2
578,46.40951919555664,-21.75668716430664,6.392956256866455,0.9606424570083618,-1.3221120834350586,1.4073939323425293,2
579,41.625587463378906,-2.6614432334899902,1.7074772119522095,1.003697156906128,-0.7683926224708557,1.4424076080322266,2
580,16.985872268676758,18.71610450744629,-2.323099374771118,0.9920417070388794,-0.451343834400177,1.4013415575027466,2
581,-13.903100967407227,32.342044830322266,-4.310173988342285,0.6678932309150696,-0.6903294920921326,1.465478777885437,2
582,-45.30634689331055,28.978641510009766,-6.119527339935303,0.22944484651088715,-1.0657496452331543,1.463828444480896,2
583,-64.8386459350586,16.9361515045166,-10.202743530273438,0.021362310275435448,-1.6630491018295288,1.3764057159423828,2
584,-66.4581298828125,8.334388732910156,-13.351311683654785,-0.07065858691930771,-2.7457079887390137,1.373727798461914,2
585,-53.977256774902344,1.371232032775879,-14.039464950561523,-0.03278496861457825,-3.1177241802215576,1.1417468786239624,2
586,-36.42184066772461,-7.5873918533325195,-13.757131576538086,0.1201976090669632,-3.8493645191192627,1.0570639371871948,2
587,-1.2499130964279175,-12.668388366699219,-16.60004425048828,0.2628946602344513,-3.692365884780884,0.8084214925765991,2
588,38.392295837402344,-11.577489852905273,-18.819311141967773,0.41967689990997314,-3.4244534969329834,0.6125372052192688,2
589,62.065975189208984,-9.440035820007324,-20.296173095703125,0.6402831077575684,-2.815429210662842,0.3673165738582611,2
590,72.39836883544922,12.000101089477539,-24.481897354125977,0.7052468061447144,-1.7843821048736572,0.02953767590224743,2
591,61.32867431640625,45.868133544921875,-27.91061782836914,0.3246515095233917,-1.2604562044143677,-0.17178300023078918,2
592,29.760982513427734,61.60895538330078,-31.120296478271484,-0.42445674538612366,-0.7122747898101807,-0.43251755833625793,2
593,-4.29556131362915,50.652931213378906,-33.21079635620117,-0.9850986003875732,-0.7529181838035583,-0.7324552536010742,2
594,-21.413440704345703,32.48390579223633,-32.498779296875,-1.607570767402649,-0.9954272508621216,-0.9746265411376953,2
595,-29.00103759765625,4.364799499511719,-30.29612159729004,-1.6707855463027954,-1.3714178800582886,-1.3099205493927002,2
596,-22.375703811645508,-21.966123580932617,-25.869503021240234,-1.424529790878296,-1.629330039024353,-1.6329981088638306,2
597,-0.7752769589424133,-45.42537307739258,-21.014522552490234,-0.8216698169708252,-1.6373971700668335,-1.9429817199707031,2
598,19.470355987548828,-60.28374099731445,-14.633251190185547,-0.15789183974266052,-1.5019803047180176,-2.1425347328186035,2
599,27.271806716918945,-69.4483642578125,-9.385645866394043,0.6417012810707092,-1.1181254386901855,-2.300234794616699,2
600,32.317596435546875,-70.60301208496094,-1.5585616827011108,1.5130430459976196,-0.7164073586463928,-2.399214744567871,2
601,25.105167388916016,-61.418025970458984,5.701006889343262,2.244325876235962,-0.46358731389045715,-2.376560688018799,2
602,10.255370140075684,-41.35448455810547,4.24982213973999,2.7317209243774414,-0.39462560415267944,-2.288238525390625,2
603,-15.775968551635742,-1.4578819274902344,-5.085222244262695,2.673536539077759,-0.48750951886177063,-2.220724582672119,2
604,-37.3029899597168,43.63616943359375,-12.82938003540039,2.2686333656311035,-0.9295774102210999,-2.2505996227264404,2
605,-38.88066864013672,83.5886459350586,-18.734743118286133,1.3155003786087036,-1.2918505668640137,-2.376809597015381,2
606,-23.174394607543945,108.03271484375,-23.325773239135742,0.18113844096660614,-1.7429418563842773,-2.5553157329559326,2
607,3.430915594100952,108.22592163085938,-25.507871627807617,-1.2297083139419556,-1.920587182044983,-2.765883207321167,2
608,39.63349151611328,83.83402252197266,-24.627809524536133,-1.7949806451797485,-1.2389684915542603,-3.2223427295684814,2
609,74.45611572265625,38.08836364746094,-19.8607177734375,-2.5962061882019043,-0.4026777446269989,-3.4599380493164062,2
610,94.48992156982422,-24.17633056640625,-14.525969505310059,-2.302476167678833,0.6645906567573547,-3.7227046489715576,2
611,92.9315185546875,-75.37489318847656,-6.600436687469482,-1.4895228147506714,1.4743908643722534,-3.863753318786621,2
612,71.83647918701172,-98.50328063964844,-1.595968246459961,-0.4152258336544037,2.3269429206848145,-3.956743001937866,2
613,38.98375701904297,-94.10635375976562,1.4770548343658447,0.5489925742149353,2.7333688735961914,-3.986731767654419,2
614,4.021664619445801,-68.3133773803711,2.5449306964874268,1.1376291513442993,2.7385990619659424,-3.9806272983551025,2
615,-33.935508728027344,-27.740522384643555,0.46997061371803284,1.7670007944107056,2.5065503120422363,-3.9809951782226562,2
616,-59.47869873046875,18.879060745239258,-1.4338003396987915,1.727332592010498,2.0138468742370605,-3.993820905685425,2
617,-71.7174301147461,58.368953704833984,-0.28814083337783813,1.1765425205230713,0.9904622435569763,-3.964473009109497,2
618,-68.80706024169922,80.45921325683594,2.471390962600708,0.1435910314321518,0.6672212481498718,-4.032273292541504,2
619,-36.980865478515625,74.84337615966797,6.237370014190674,-0.8864474892616272,0.09542910009622574,-4.0118560791015625,2
620,6.663475513458252,52.46036911010742,9.75417423248291,-1.6530972719192505,-0.0016127960989251733,-3.953688144683838,2
621,50.26431655883789,13.960549354553223,13.306337356567383,-1.9750854969024658,0.3524833023548126,-3.8373963832855225,2
622,80.22042083740234,-25.085222244262695,17.592281341552734,-1.700798511505127,1.4015971422195435,-3.6702263355255127,2
623,89.86302185058594,-50.16432571411133,21.544153213500977,-1.0982590913772583,2.556652545928955,-3.4609580039978027,2
624,78.7627182006836,-61.80352783203125,24.75665855407715,-0.4205850660800934,3.331874132156372,-3.241503953933716,2
625,49.33262252807617,-62.043277740478516,29.50588035583496,0.2912262976169586,4.136812686920166,-2.994755744934082,2
626,7.064906597137451,-63.93217086791992,31.838890075683594,0.7701482176780701,4.415902614593506,-2.7656748294830322,2
627,-34.708011627197266,-64.59550476074219,31.916948318481445,1.593521237373352,4.10869026184082,-2.446094036102295,2
628,-66.82819366455078,-59.8924446105957,30.82217788696289,2.675309181213379,3.3308563232421875,-2.019526958465576,2
629,-90.37020874023438,-43.5275993347168,29.134174346923828,2.734006643295288,2.4524354934692383,-1.9090405702590942,2
630,-96.8454818725586,-20.798803329467773,29.088083267211914,3.1634058952331543,1.165435552597046,-1.5390151739120483,2
631,-88.4933853149414,3.970681667327881,27.304283142089844,3.0392472743988037,0.5598912239074707,-1.3957529067993164,2
632,-72.19449615478516,33.9678955078125,26.902969360351562,2.8508944511413574,-0.23601257801055908,-1.122435450553894,2
633,-52.9239501953125,66.32229614257812,26.776426315307617,2.185669422149658,-0.5727819800376892,-0.9735199213027954,2
634,-38.76200866699219,88.39839935302734,27.138202667236328,1.1412804126739502,-1.0811207294464111,-0.7935495972633362,2
635,-29.717315673828125,92.80776977539062,27.030332565307617,0.2369297295808792,-1.033755898475647,-0.6309159398078918,2
636,-16.5823974609375,78.48289489746094,24.186126708984375,-0.9005947709083557,-1.2872803211212158,-0.4664943814277649,2
637,11.050023078918457,40.548892974853516,22.424697875976562,-1.542136549949646,-1.1334195137023926,-0.29620060324668884,2
638,25.733835220336914,-7.100096225738525,24.775028228759766,-1.1341506242752075,-0.8579550385475159,0.058158691972494125,2
639,14.079852104187012,-45.349308013916016,26.842548370361328,-0.6385509371757507,-0.6221129894256592,0.36268964409828186,2
640,-20.70316505432129,-59.91446304321289,26.524003982543945,0.10029824823141098,-0.6833061575889587,0.6784713864326477,2
641,-62.86118698120117,-52.64078140258789,22.5357666015625,0.8969684839248657,-1.1699304580688477,0.9782761931419373,2
642,-89.47376251220703,-24.387666702270508,19.235198974609375,0.9653518795967102,-2.2294676303863525,1.1900842189788818,2
643,-92.45613861083984,13.480483055114746,14.347643852233887,0.7915515303611755,-3.0054681301116943,1.3172602653503418,2
644,-80.00985717773438,50.75037384033203,8.92098617553711,0.4605598449707031,-4.2375874519348145,1.464199185371399,2
645,-56.56281280517578,78.554443359375,2.3567094802856445,-0.4409768581390381,-4.7179484367370605,1.436286211013794,2
646,-31.468473434448242,84.30899810791016,-3.7859787940979004,-1.494854211807251,-5.306532859802246,1.3763959407806396,2
647,-12.650450706481934,65.44342803955078,-8.239673614501953,-2.38030743598938,-5.359058380126953,1.242236614227295,2
648,10.67824649810791,27.508146286010742,-11.864805221557617,-2.5184712409973145,-5.383694171905518,1.040200114250183,2
649,35.87738800048828,-17.877099990844727,-12.990638732910156,-2.4156289100646973,-5.13160514831543,0.872406542301178,2
650,55.289337158203125,-47.205352783203125,-12.060948371887207,-1.7875113487243652,-4.475057125091553,0.7010247111320496,2
651,68.12943267822266,-74.5209732055664,-10.368911743164062,-1.1652859449386597,-3.6881892681121826,0.6361336708068848,2
652,62.52666091918945,-88.54009246826172,-6.220962047576904,0.11891281604766846,-2.819871425628662,0.44711172580718994,2
653,41.81407165527344,-84.55653381347656,-2.2037079334259033,0.6028861999511719,-2.38657283782959,0.5966379642486572,2
654,12.595982551574707,-62.116798400878906,-3.5124871730804443,1.8347856998443604,-2.2845048904418945,0.41237881779670715,2
655,-2.8814823627471924,-6.7073516845703125,-5.896881580352783,1.618068814277649,-2.148742437362671,0.6233857274055481,2
656,-10.600869178771973,53.1430549621582,-5.9242777824401855,1.3032279014587402,-2.343597173690796,0.5799715518951416,2
657,-24.40885353088379,79.80216217041016,-0.18956243991851807,0.27601054310798645,-2.6678202152252197,0.6520821452140808,2
658,-40.623138427734375,77.87508392333984,5.1898016929626465,-0.5231771469116211,-3.0266733169555664,0.6277900338172913,2
659,-49.16144943237305,55.23419952392578,9.66260814666748,-1.3780674934387207,-3.6721408367156982,0.7225107550621033,2
660,-52.693077087402344,23.611026763916016,12.156539916992188,-1.5276517868041992,-3.8974251747131348,0.7002916932106018,2
661,-33.52788543701172,-0.4263612627983093,14.952305793762207,-1.503890872001648,-4.366140842437744,0.772103488445282,2
662,-5.400962829589844,-10.359430313110352,12.593657493591309,-1.3061381578445435,-4.706419467926025,0.8611999750137329,2
663,24.938011169433594,-18.724260330200195,6.1005449295043945,-1.0052502155303955,-4.491989612579346,0.9003790616989136,2
664,54.2086181640625,-30.61210823059082,1.037500262260437,-0.6758274435997009,-3.8796770572662354,0.929604709148407,2
665,60.02646255493164,-29.300029754638672,-1.560526967048645,-0.21850699186325073,-2.963927745819092,0.8986023664474487,2
666,43.63117599487305,-13.388201713562012,-3.1423914432525635,0.05420403182506561,-2.425809144973755,0.8607518076896667,2
667,39.87787628173828,6.918906211853027,-4.89138650894165,0.16949528455734253,-1.8606181144714355,0.7861655354499817,2
668,28.98453712463379,23.45242691040039,-6.378213882446289,-0.19613753259181976,-1.8318369388580322,0.800755500793457,2
669,17.252595901489258,41.97422409057617,-11.718229293823242,-0.628766655921936,-1.4764107465744019,0.7434571385383606,2
670,1.15713369846344,47.18013381958008,-17.281721115112305,-1.3453699350357056,-1.372253179550171,0.6880464553833008,2
671,-31.137615203857422,37.19645309448242,-22.471080780029297,-1.8412824869155884,-1.6451510190963745,0.48949679732322693,2
672,-64.96705627441406,19.205059051513672,-21.888465881347656,-2.2186977863311768,-2.299750566482544,0.2802383005619049,2
673,-82.88793182373047,-8.315237045288086,-18.665496826171875,-2.228224039077759,-3.541011095046997,-0.004118221811950207,2
674,-89.54560852050781,-39.07752227783203,-13.865334510803223,-1.9658945798873901,-3.687901020050049,-0.10538280755281448,2
675,-81.53251647949219,-66.42427062988281,-9.870182037353516,-0.6505516767501831,-4.467535972595215,-0.5476458072662354,2
676,-71.54804992675781,-63.449989318847656,-6.270417213439941,0.05074738711118698,-5.37364387512207,-0.6537179946899414,2
677,-53.74504852294922,-39.191864013671875,-3.95941162109375,1.1190680265426636,-5.852035999298096,-0.7697584629058838,2
678,-31.476320266723633,-14.971349716186523,-3.450849771499634,1.3814923763275146,-6.367937088012695,-0.6726780533790588,2
679,4.9722371101379395,7.445080280303955,-4.726264476776123,1.4954482316970825,-6.891311168670654,-0.629831850528717,2
680,56.420047760009766,31.514490127563477,-6.200345993041992,1.3658936023712158,-6.780379295349121,-0.6062623262405396,2
681,102.6026382446289,51.19673538208008,-8.511421203613281,0.9375662207603455,-6.066209316253662,-0.5935797095298767,2
682,126.84220886230469,71.22920227050781,-13.362351417541504,0.09000052511692047,-5.316493034362793,-0.48201286792755127,2
683,131.40420532226562,78.38822174072266,-17.699874877929688,-0.6399707794189453,-3.786210536956787,-0.5970538258552551,2
684,108.06620788574219,69.72511291503906,-19.270755767822266,-1.4072957038879395,-2.8534464836120605,-0.808459997177124,2
685,63.77488327026367,57.865840911865234,-13.662984848022461,-2.450937271118164,-1.3754782676696777,-0.8377550840377808,2
686,17.16373634338379,40.128326416015625,-5.834352493286133,-2.8095946311950684,-1.044023871421814,-1.18124520778656,2
687,-15.25090217590332,11.172574996948242,-0.5929117202758789,-3.436964273452759,-1.0392396450042725,-1.233718752861023,2
688,-28.35487937927246,-19.136760711669922,0.09946638345718384,-3.499541759490967,-1.182715654373169,-1.340360164642334,2
689,-18.745546340942383,-41.992496490478516,-0.40327784419059753,-3.4524412155151367,-1.2976051568984985,-1.2955750226974487,2
690,6.806243419647217,-64.49537658691406,1.2156466245651245,-2.751858949661255,-1.5189933776855469,-1.4092228412628174,2
691,41.37207794189453,-73.34711456298828,8.854944229125977,-2.11673641204834,-1.48410165309906,-1.4015791416168213,2
692,72.14772033691406,-78.39615631103516,14.685929298400879,-1.525632381439209,-0.7910622954368591,-1.1953017711639404,2
693,70.22334289550781,-75.11133575439453,18.772680282592773,-0.6048669815063477,-0.36888110637664795,-1.1494661569595337,2
694,55.19190979003906,-37.321231842041016,22.866241455078125,-0.03422198072075844,0.4042339324951172,-0.923175036907196,2
695,47.127864837646484,-0.3554135859012604,18.219589233398438,0.22493481636047363,0.6326006650924683,-0.7346005439758301,2
696,50.288028717041016,18.76455307006836,17.352466583251953,0.21834932267665863,1.1530095338821411,-0.5139597058296204,2
697,20.903579711914062,36.18360900878906,16.698759078979492,0.023214109241962433,1.6505848169326782,-0.33112457394599915,2
698,-22.967885971069336,50.14903259277344,16.848068237304688,-0.527327835559845,2.0133163928985596,-0.14193809032440186,2
699,-45.245384216308594,41.37794876098633,20.725162506103516,-1.1879048347473145,1.7714323997497559,0.010182234458625317,2
700,-50.85302734375,25.388980865478516,22.515684127807617,-1.58335280418396,1.1342360973358154,0.1833951473236084,2
701,-23.671648025512695,4.396821975708008,24.971521377563477,-1.8717461824417114,0.5202053785324097,0.3931204080581665,2
702,9.166817665100098,-19.572200775146484,24.715335845947266,-1.8149890899658203,0.22761577367782593,0.6718565821647644,2
703,32.38616180419922,-38.76982498168945,22.59878921508789,-1.596179723739624,0.46235233545303345,0.9833233952522278,2
704,58.90155792236328,-42.132347106933594,24.536924362182617,-1.0724918842315674,0.7063321471214294,1.2445569038391113,2
705,77.11367797851562,-47.09102249145508,27.162776947021484,0.39912569522857666,2.6212856769561768,1.9110387563705444,2
706,69.15996551513672,-36.73389434814453,23.359737396240234,1.2868635654449463,3.4651224613189697,2.259275197982788,2
707,36.949058532714844,-19.60759925842285,19.35402488708496,1.2965795993804932,4.477232933044434,2.3868041038513184,2
708,-7.8658013343811035,9.465800285339355,17.9261531829834,2.2165236473083496,5.417714595794678,2.809055805206299,2
709,-54.64539337158203,46.25468444824219,13.592459678649902,2.0596747398376465,5.205806255340576,2.9161698818206787,2
710,-96.8785400390625,81.53871154785156,10.235391616821289,1.4567360877990723,4.150537014007568,2.9870195388793945,2
711,-123.56822204589844,93.71507263183594,8.85990047454834,0.16377131640911102,2.444009780883789,2.8723456859588623,2
712,-138.75006103515625,88.54549407958984,9.666574478149414,-1.30827796459198,0.26084816455841064,2.7130753993988037,2
713,-131.63262939453125,73.21089172363281,9.678330421447754,-2.685638666152954,-1.3250696659088135,2.531693458557129,2
714,-104.75580596923828,47.6497688293457,11.29571533203125,-4.41932487487793,-3.6699001789093018,2.035585880279541,2
715,-63.666786193847656,17.398283004760742,16.313247680664062,-5.0121235847473145,-5.326862335205078,2.0434861183166504,2
716,-20.247350692749023,-25.863628387451172,18.05782699584961,-4.956128120422363,-6.174333572387695,2.303100824356079,2
717,42.931724548339844,-98.49087524414062,18.663599014282227,-3.1452066898345947,-5.9070892333984375,3.1465775966644287,2
718,98.24955749511719,-149.11984252929688,18.387067794799805,-1.7699949741363525,-5.294259071350098,3.627237558364868,2
719,137.92926025390625,-162.6787872314453,20.326854705810547,-0.370026558637619,-3.7193527221679688,4.086047172546387,2
720,161.66688537597656,-151.7609405517578,19.706653594970703,0.39637669920921326,-2.6285340785980225,4.292314529418945,2
721,170.81158447265625,-121.74856567382812,18.634977340698242,2.4005227088928223,-0.35136517882347107,4.650006294250488,2
722,147.0110321044922,-79.18482208251953,19.453968048095703,3.343101978302002,0.6067340970039368,4.77761697769165,2
723,96.76627349853516,-16.845420837402344,17.516347885131836,4.12931489944458,2.3228302001953125,4.936697483062744,2
724,31.87689971923828,47.88416290283203,9.974651336669922,4.014384746551514,2.926410675048828,5.108593940734863,2
725,-21.361270904541016,84.40479278564453,2.469663143157959,3.471553325653076,3.4326491355895996,5.218898296356201,2
726,-42.75700378417969,108.05225372314453,-2.159175157546997,2.509014844894409,3.273226737976074,5.294678211212158,2
727,-34.12736129760742,120.09765625,-7.5164384841918945,1.0640195608139038,2.920866012573242,5.218129634857178,2
728,-16.589750289916992,102.79422760009766,-4.987421989440918,0.16787800192832947,2.592099666595459,5.28770637512207,2
729,-6.875319480895996,52.14645767211914,-0.3460208475589752,-1.088982343673706,2.4395737648010254,5.210039138793945,2
730,3.79790997505188,6.227049827575684,-0.6195685863494873,-1.875626564025879,2.6109023094177246,5.149029731750488,2
731,4.5675859451293945,-33.42340850830078,-2.225874662399292,-1.874345064163208,2.553205966949463,5.247284412384033,2
732,13.064395904541016,-71.61869049072266,-1.5030993223190308,-1.3658696413040161,2.690319538116455,5.34205436706543,2
733,25.322660446166992,-91.9365234375,-2.045980930328369,-0.4068670868873596,2.859790563583374,5.446484565734863,2
734,28.162477493286133,-82.02214813232422,-5.1716156005859375,0.7375872731208801,3.2812564373016357,5.492965221405029,2
735,27.194406509399414,-41.485023498535156,-9.260077476501465,2.9061410427093506,4.027932167053223,5.966773509979248,2
736,25.40357780456543,16.186174392700195,-13.812495231628418,3.5583415031433105,4.312394618988037,5.890346050262451,2
737,13.70354175567627,71.68050384521484,-16.745649337768555,3.271522283554077,5.344623565673828,5.406404972076416,2
738,2.341721773147583,109.41783142089844,-20.926633834838867,2.168799877166748,5.292728900909424,5.031932830810547,2
739,-8.603663444519043,124.6425552368164,-24.454376220703125,0.5976549386978149,5.34158992767334,4.567550182342529,2
740,-5.087130069732666,107.8121337890625,-23.676921844482422,-2.348416328430176,3.7869374752044678,3.61120867729187,2
741,0.024646544829010963,71.92587280273438,-16.648780822753906,-3.713660717010498,3.7752578258514404,3.2900571823120117,2
742,-1.6133536100387573,20.83245849609375,-15.096233367919922,-4.561600208282471,3.8376593589782715,3.1498923301696777,2
743,-6.788712978363037,-35.82747268676758,-14.520176887512207,-4.7419233322143555,3.8172237873077393,3.184084415435791,2
744,-11.263768196105957,-77.28289031982422,-15.240102767944336,-4.244091510772705,3.786993980407715,3.2797694206237793,2
745,-15.859328269958496,-99.73017120361328,-15.456860542297363,-3.3528449535369873,3.671623945236206,3.2784299850463867,2
746,-21.373872756958008,-100.68817901611328,-14.333817481994629,-2.3768627643585205,3.47367000579834,3.096371650695801,2
747,-20.12104606628418,-90.50598907470703,-11.277132034301758,-0.988158106803894,3.267017364501953,3.1828205585479736,2
748,-15.173325538635254,-75.79254913330078,-9.025848388671875,-0.4313558042049408,3.2111706733703613,2.7499489784240723,2
749,-5.297645568847656,-51.9182014465332,-7.075523376464844,0.8696675896644592,3.135545253753662,2.995129108428955,2
750,9.392738342285156,-14.891331672668457,-6.522287845611572,1.2434905767440796,3.0810656547546387,2.7198829650878906,2
751,14.78316879272461,27.28818702697754,-7.249632358551025,1.3465263843536377,3.1647074222564697,2.501620292663574,2
752,-4.507260322570801,63.87579345703125,-10.572050094604492,1.144842505455017,3.4037845134735107,2.392181634902954,2
753,-31.633508682250977,84.8197021484375,-12.124246597290039,0.3391527533531189,3.305945634841919,2.126162528991699,2
754,-48.75001525878906,85.10437774658203,-8.77682876586914,-0.6637935042381287,2.9274098873138428,1.8935869932174683,2
755,-42.15570831298828,55.53477478027344,-5.763246536254883,-1.674153208732605,2.5547049045562744,1.7398301362991333,2
756,-15.736903190612793,12.975601196289062,-7.815827369689941,-2.324401617050171,1.8899236917495728,1.708965539932251,2
757,7.86014461517334,-30.9351806640625,-12.331022262573242,-2.431548595428467,1.6209182739257812,1.7698677778244019,2
758,26.248729705810547,-56.75557327270508,-17.205381393432617,-1.9971895217895508,1.872511863708496,1.8525865077972412,2
759,40.79218673706055,-76.87166595458984,-20.82826805114746,-1.3337814807891846,2.2039268016815186,1.8065341711044312,2
760,50.46368408203125,-79.69204711914062,-22.24240493774414,-0.5235602259635925,2.8327414989471436,1.6829556226730347,2
761,50.78007888793945,-68.05139923095703,-21.018047332763672,0.29169994592666626,3.315687417984009,1.4391118288040161,2
762,42.975311279296875,-56.641658782958984,-19.466569900512695,1.490066409111023,4.441227436065674,0.8738802671432495,2
763,31.611928939819336,-47.22313690185547,-18.142274856567383,1.5933924913406372,4.363770484924316,0.9256516098976135,2
764,18.984159469604492,-41.27143859863281,-15.378183364868164,2.5727477073669434,4.929345607757568,0.9754178524017334,2
765,3.316226005554199,-32.1046028137207,-11.980350494384766,2.408263921737671,4.860897541046143,0.4508536159992218,2
766,-19.307710647583008,-23.983469009399414,-7.296351909637451,2.8963756561279297,4.8935747146606445,0.3805656135082245,2
767,-48.284000396728516,-16.991973876953125,-8.703004837036133,3.253237009048462,4.778188228607178,0.3345998525619507,2
768,-67.38259887695312,-1.1662898063659668,-12.499534606933594,3.542541742324829,4.062742710113525,0.3561205267906189,2
769,-66.79000854492188,18.542930603027344,-15.001730918884277,3.2755653858184814,3.4962379932403564,0.02114633284509182,2
770,-53.908782958984375,31.936004638671875,-13.9384126663208,3.0875749588012695,2.5217485427856445,-0.08115299791097641,2
771,-45.53305435180664,32.00936508178711,-15.270237922668457,2.741286039352417,1.746968150138855,-0.1893501877784729,2
772,-41.75326919555664,21.46538543701172,-15.333770751953125,2.3825483322143555,1.6445595026016235,-0.4568500518798828,2
773,-39.93682098388672,7.597423076629639,-14.607948303222656,2.2099575996398926,1.2884281873703003,-0.578934907913208,2
774,-34.568763732910156,12.8912935256958,-13.829299926757812,2.2092249393463135,0.6668961644172668,-0.5951886773109436,2
775,-17.79728126525879,24.10548973083496,-11.037028312683105,2.079807996749878,0.08720843493938446,-0.6762776374816895,2
776,-4.8345160484313965,19.029958724975586,-5.021910190582275,1.8644816875457764,-0.0128342155367136,-0.8540953397750854,2
777,8.682297706604004,-2.984837770462036,2.6935982704162598,1.4859024286270142,0.17749181389808655,-1.0849262475967407,2
778,20.847200393676758,-22.97365379333496,8.023031234741211,1.6582506895065308,0.26235586404800415,-1.0255500078201294,2
779,23.833820343017578,-39.873714447021484,12.737733840942383,2.421190023422241,0.7689527273178101,-0.8258427977561951,2
780,18.97353172302246,-42.4378776550293,13.890436172485352,2.729374647140503,1.006179690361023,-0.7342948913574219,2
781,-5.5317277908325195,-33.24831771850586,11.906307220458984,3.431506395339966,1.1154173612594604,-0.558102548122406,2
782,-32.394012451171875,-12.57861614227295,8.612335205078125,3.2692553997039795,0.7377445101737976,-0.47487005591392517,2
783,-45.51105880737305,17.081016540527344,6.402156829833984,3.169034242630005,0.17669261991977692,-0.3517906367778778,2
784,-38.411739349365234,54.4471321105957,2.8101797103881836,2.5756282806396484,-0.20908549427986145,-0.35652780532836914,2
785,-16.736284255981445,66.8056411743164,2.841296672821045,1.7321627140045166,-0.5262801647186279,-0.34226134419441223,2
786,13.770676612854004,55.809783935546875,1.7092772722244263,1.1338443756103516,-0.5382019877433777,-0.314806193113327,2
787,33.018577575683594,42.111000061035156,0.9021099209785461,1.0283416509628296,-0.27902695536613464,-0.42850592732429504,2
788,31.369417190551758,39.51898956298828,-0.19127875566482544,0.5321539640426636,0.09058477729558945,-0.46026501059532166,2
789,22.607725143432617,23.787513732910156,-1.9004780054092407,0.28644973039627075,0.5501646399497986,-0.4996967315673828,2
790,8.533453941345215,-4.278453350067139,-0.6321878433227539,0.04045790806412697,0.627444326877594,-0.4523961544036865,2
791,-7.757397174835205,-37.04241180419922,2.4908761978149414,0.10314523428678513,0.716050922870636,-0.4530799984931946,2
792,-14.846312522888184,-55.65813064575195,3.0242700576782227,0.5164439082145691,0.5637509822845459,-0.41077613830566406,2
793,-30.662389755249023,-65.1711196899414,0.8776201009750366,1.3214257955551147,0.4820310175418854,-0.4060128629207611,2
794,-45.410587310791016,-56.897029876708984,-3.3148961067199707,1.7233846187591553,0.08620079606771469,-0.3442606031894684,2
795,-46.95417022705078,-35.745849609375,-8.812670707702637,2.475259304046631,-0.5374603271484375,-0.31064000725746155,2
796,-35.94419860839844,-20.27235984802246,-13.516387939453125,2.8722925186157227,-0.8707108497619629,-0.4128532409667969,2
797,-23.700908660888672,-5.863358497619629,-11.689971923828125,3.1478793621063232,-1.3457988500595093,-0.5089458227157593,2
798,-12.123074531555176,22.72504234313965,-9.048624992370605,2.793527126312256,-1.3956645727157593,-0.6475237011909485,2
799,1.3890798091888428,51.19036102294922,-8.213777542114258,2.5568690299987793,-1.560237169265747,-0.7293723225593567,2
800,3.2642581462860107,62.48154830932617,-8.756750106811523,2.031425714492798,-1.6025184392929077,-0.8034756779670715,2
801,14.991312026977539,66.69508361816406,-13.654891967773438,1.20206880569458,-1.5619885921478271,-0.8559595942497253,2
802,29.279788970947266,58.92774200439453,-16.81837272644043,0.4915449321269989,-1.3456075191497803,-1.0143237113952637,2
803,37.23789978027344,36.57960510253906,-15.66355037689209,-0.2853725552558899,-0.9629527926445007,-1.2054280042648315,2
804,25.437715530395508,7.914207935333252,-10.692118644714355,-0.6983382701873779,-0.5663229823112488,-1.3842819929122925,2
805,-10.928950309753418,-19.74988555908203,-4.2377777099609375,-0.3449980914592743,-0.4642183780670166,-1.6042593717575073,2
806,-46.99073791503906,-47.68064498901367,0.9715864658355713,-0.18458716571331024,-0.6955962181091309,-1.6368155479431152,2
807,-64.42584228515625,-69.50502014160156,3.437976121902466,0.5334450006484985,-1.1850486993789673,-1.7019035816192627,2
808,-58.651912689208984,-80.70465087890625,5.50438928604126,1.4227781295776367,-1.8659729957580566,-1.7119487524032593,2
809,-34.59663772583008,-82.70006561279297,7.582956314086914,2.544095754623413,-2.52152943611145,-1.727210521697998,2
810,0.9613481760025024,-70.23876953125,8.304070472717285,3.3510117530822754,-2.9165596961975098,-1.6195286512374878,2
811,29.634563446044922,-35.635955810546875,11.223779678344727,3.931506633758545,-2.8941211700439453,-1.4661884307861328,2
812,49.52400588989258,23.044944763183594,9.502168655395508,4.152292251586914,-2.3901255130767822,-1.3193798065185547,2
813,70.73214721679688,75.4965591430664,1.3101919889450073,3.7395565509796143,-1.8576816320419312,-1.106957197189331,2
814,63.480445861816406,107.64632415771484,-7.350452899932861,2.632589101791382,-0.8761065602302551,-0.9844045639038086,2
815,33.82893371582031,123.79539489746094,-13.239251136779785,1.6497704982757568,-0.661270797252655,-0.9219818115234375,2
816,10.612665176391602,117.9448013305664,-12.252228736877441,0.006426327396184206,-0.24436724185943604,-0.8670614361763,2
817,-0.5425406098365784,86.91326141357422,-8.121329307556152,-0.6966725587844849,-0.38311314582824707,-1.1304330825805664,2
818,-1.7731539011001587,47.18216323852539,-5.628368854522705,-1.7229440212249756,-0.36040571331977844,-1.2006809711456299,2
819,3.2918238639831543,7.6665191650390625,-4.499533653259277,-2.240039348602295,-0.44421738386154175,-1.2797120809555054,2
820,4.8665266036987305,-30.13593292236328,-5.974577903747559,-2.164048671722412,-0.37525099515914917,-1.41840398311615,2
821,15.000077247619629,-57.59619140625,-7.319916248321533,-1.6181460618972778,-0.25996583700180054,-1.5846747159957886,2
822,33.09511947631836,-71.69266510009766,-4.6212663650512695,-0.8741816878318787,0.01902158558368683,-1.7231205701828003,2
823,52.083518981933594,-79.61297607421875,0.502683699131012,-0.05508047342300415,0.2824634611606598,-1.8189902305603027,2
824,57.342185974121094,-64.62421417236328,2.4832472801208496,0.9211993217468262,0.8488966822624207,-1.8876951932907104,2
825,43.090660095214844,-31.353071212768555,1.4300628900527954,0.988088846206665,1.3231520652770996,-1.7074717283248901,2
826,11.608146667480469,3.2361223697662354,-1.4860018491744995,1.5053882598876953,1.6377865076065063,-1.7310512065887451,2
827,-34.36661148071289,29.397314071655273,-0.3849627375602722,1.4410672187805176,1.8142400979995728,-1.7194539308547974,2
828,-68.43830108642578,45.04270553588867,0.9797907471656799,1.0281556844711304,1.2528347969055176,-1.6906260251998901,2
829,-82.63150787353516,54.85147476196289,-1.2990580797195435,0.6737844347953796,0.5370514988899231,-1.684466004371643,2
830,-72.05146026611328,63.08110809326172,-3.86893630027771,-0.0937107652425766,-0.4787164032459259,-1.6615955829620361,2
831,-36.41688919067383,53.75462341308594,-3.1345174312591553,-0.5762001276016235,-1.3628214597702026,-1.7225971221923828,2
832,6.5243659019470215,15.15731143951416,-1.746746301651001,-1.028766393661499,-1.1835347414016724,-1.7576981782913208,2
833,49.941802978515625,-21.18227767944336,1.4267983436584473,-1.1901501417160034,-1.0274511575698853,-1.7806165218353271,2
834,72.93041229248047,-42.324432373046875,3.2961783409118652,-0.7707231044769287,-0.2718439996242523,-1.7848085165023804,2
835,79.49505615234375,-53.20433807373047,6.598956108093262,-0.3171122670173645,0.4639580249786377,-1.7639806270599365,2
836,71.30199432373047,-52.31047058105469,10.802207946777344,0.3849409222602844,1.1522704362869263,-1.757349967956543,2
837,51.59944152832031,-36.554386138916016,12.720215797424316,0.8951568603515625,1.8583285808563232,-1.673349142074585,2
838,22.819942474365234,-10.656776428222656,12.339821815490723,1.2218326330184937,2.5420970916748047,-1.543915867805481,2
839,-9.944902420043945,23.35961151123047,11.238476753234863,1.4276771545410156,2.6566531658172607,-1.4431017637252808,2
840,-25.938823699951172,55.01145553588867,8.537060737609863,1.0728524923324585,2.6355133056640625,-1.3129280805587769,2
841,-25.81843376159668,69.99590301513672,2.8330748081207275,0.45624592900276184,2.2814362049102783,-1.2061378955841064,2
842,-30.0078067779541,76.06583404541016,-0.5756784081459045,-0.27932989597320557,1.9769307374954224,-1.1450153589248657,2
843,-32.84497833251953,69.79562377929688,-2.128018379211426,-1.3269532918930054,1.537758469581604,-1.1520559787750244,2
844,-28.14487648010254,52.1346549987793,-3.4075276851654053,-2.1013004779815674,1.2263482809066772,-1.1547268629074097,2
845,-16.829803466796875,12.034781455993652,2.7260303497314453,-2.8412513732910156,0.9839163422584534,-1.182018756866455,2
846,2.83990740776062,-46.83325958251953,8.913655281066895,-2.734673023223877,1.0222128629684448,-1.0896884202957153,2
847,15.371124267578125,-97.48959350585938,15.58356761932373,-2.0019187927246094,0.8170190453529358,-1.024588942527771,2
848,13.730481147766113,-110.68054962158203,21.510881423950195,-0.7973273992538452,1.125327229499817,-0.8205978870391846,2
849,4.784960746765137,-97.65776824951172,22.47890853881836,0.6980627179145813,1.3228553533554077,-0.5892225503921509,2
850,-9.208013534545898,-67.5529556274414,20.922321319580078,1.2065030336380005,1.3581829071044922,-0.4511648714542389,2
851,-15.239472389221191,-27.260900497436523,18.069766998291016,2.2461929321289062,1.1109334230422974,-0.2598513066768646,2
852,-14.815884590148926,12.706216812133789,14.174250602722168,2.2142679691314697,0.9629918336868286,-0.11093061417341232,2
853,-3.17844820022583,52.250675201416016,11.837040901184082,1.9776766300201416,0.7673510313034058,0.010700118727982044,2
854,18.98886489868164,91.51329803466797,11.195060729980469,1.2888193130493164,0.7040727138519287,0.10972544550895691,2
855,43.00645065307617,121.16405487060547,12.8369722366333,0.06328107416629791,1.0872979164123535,0.20767609775066376,2
856,51.16872787475586,133.17596435546875,11.446101188659668,-0.9343519806861877,1.6129249334335327,0.38603541254997253,2
857,36.1954231262207,112.27483367919922,10.86112117767334,-2.694270133972168,2.3198471069335938,0.5169391632080078,2
858,5.468746662139893,64.0421371459961,12.43857479095459,-3.6410515308380127,2.538203001022339,0.6741848587989807,2
859,-29.623857498168945,7.884356498718262,13.647897720336914,-4.392819404602051,2.4056570529937744,0.7631224989891052,2
860,-63.252227783203125,-38.78096008300781,9.075596809387207,-4.364523410797119,2.3105106353759766,0.9791812896728516,2
861,-88.20956420898438,-65.70082092285156,3.2079293727874756,-3.8049001693725586,1.19839346408844,0.9197465181350708,2
862,-101.72187805175781,-66.90247344970703,-0.5269308686256409,-2.9916317462921143,0.6826901435852051,1.1205480098724365,2
863,-98.26878356933594,-67.24609375,-3.8293168544769287,-1.9220304489135742,-0.5936522483825684,1.080407977104187,2
864,-79.320556640625,-56.64589309692383,-3.002002477645874,-1.7166868448257446,-1.269549012184143,1.1112422943115234,2
865,-43.894248962402344,-27.046470642089844,-3.838332414627075,-0.9837682247161865,-2.526439666748047,0.9322924017906189,2
866,7.560002326965332,4.903567314147949,-6.182201862335205,-0.991953432559967,-2.334610939025879,1.171403408050537,2
867,61.26338195800781,41.46549606323242,-14.4588041305542,-0.9810094237327576,-2.2190451622009277,1.1580756902694702,2
868,92.76937103271484,55.02334213256836,-19.366619110107422,-1.5250179767608643,-1.5667728185653687,1.0697134733200073,2
869,96.44220733642578,48.07028579711914,-23.9006290435791,-2.2712998390197754,-0.18875715136528015,1.091206431388855,2
870,65.0669937133789,37.757911682128906,-22.405258178710938,-2.7551913261413574,0.7321360111236572,0.8438927531242371,2
871,18.969615936279297,13.146658897399902,-20.55014419555664,-2.9066779613494873,1.1364524364471436,0.4689491391181946,2
872,-28.73566436767578,-12.217813491821289,-15.305766105651855,-3.041318655014038,1.1046142578125,0.13337570428848267,2
873,-54.18241882324219,-35.59575653076172,-13.226577758789062,-2.831362247467041,0.7770142555236816,-0.0862903743982315,2
874,-56.95478820800781,-60.328399658203125,-11.92685317993164,-2.3148300647735596,-0.023174632340669632,-0.3709588944911957,2
875,-55.395423889160156,-91.45140075683594,-6.219176769256592,-1.9433825016021729,-0.487307608127594,-0.4241243600845337,2
876,-58.815914154052734,-104.39280700683594,-2.074545383453369,-0.6550158262252808,-1.2313886880874634,-0.5960286855697632,2
877,-56.546688079833984,-103.29756927490234,1.0774537324905396,0.3009277582168579,-1.8588621616363525,-0.6092603206634521,2
878,-36.26030731201172,-113.37825012207031,7.126369476318359,1.6286379098892212,-2.4963057041168213,-0.6199430227279663,2
879,-7.650877475738525,-123.33549499511719,15.742818832397461,2.4302163124084473,-2.6519064903259277,-0.3823927640914917,2
880,7.2051310539245605,-104.56324768066406,21.877695083618164,4.109413146972656,-2.817584753036499,-0.2784874737262726,2
881,22.55183219909668,-62.0888786315918,21.29482650756836,4.692418575286865,-2.619091510772705,0.12017909437417984,2
882,33.89834213256836,-0.7959026098251343,17.224411010742188,5.54362154006958,-2.369250774383545,0.3143901824951172,2
883,26.220155715942383,53.455997467041016,12.992073059082031,5.2377848625183105,-2.1702773571014404,0.6208719611167908,2
884,-0.2378179281949997,88.10206604003906,13.04336929321289,4.592602252960205,-1.9469928741455078,0.8054672479629517,2
885,-15.371576309204102,92.46983337402344,14.539847373962402,3.478966236114502,-1.9785810708999634,1.0138895511627197,2
886,-16.604724884033203,64.078857421875,16.85841941833496,2.3435237407684326,-2.175173044204712,1.2136889696121216,2
887,-21.502851486206055,35.58816146850586,21.206146240234375,1.5821588039398193,-2.2504119873046875,1.3409744501113892,2
888,-21.027999877929688,7.817277431488037,24.69086265563965,1.1596405506134033,-2.6110191345214844,1.5761159658432007,2
889,-4.350785255432129,-19.03290367126465,21.335189819335938,1.2560449838638306,-2.791160821914673,1.7129052877426147,2
890,28.026939392089844,-39.691162109375,16.67464828491211,1.6896260976791382,-2.8298401832580566,1.802239179611206,2
891,56.76902770996094,-43.239280700683594,14.454207420349121,2.1345632076263428,-2.497191905975342,1.921155333518982,2
892,73.31265258789062,-25.803918838500977,15.80662727355957,2.7658588886260986,-1.775255799293518,1.9289631843566895,2
893,73.00835418701172,3.1596741676330566,13.14380931854248,3.009833574295044,-1.4015811681747437,2.2231333255767822,2
894,58.56446075439453,17.824047088623047,9.755331993103027,3.076202869415283,-0.33941763639450073,2.220263719558716,2
895,37.87153625488281,28.92853546142578,6.747532367706299,2.7395172119140625,0.26616495847702026,2.3912651538848877,2
896,21.677766799926758,42.89584732055664,5.509162902832031,2.2519724369049072,0.2412766069173813,2.6959304809570312,2
897,11.391140937805176,41.55341720581055,6.3399481773376465,1.780788540840149,0.5246506929397583,2.7448196411132812,2
898,3.5468783378601074,41.047637939453125,6.112010955810547,1.2555464506149292,0.6393991112709045,2.8474013805389404,2
899,-4.003612995147705,34.92031478881836,5.035388469696045,0.8437520861625671,0.615373969078064,2.939899444580078,2
900,-3.919727325439453,29.745920181274414,6.5666399002075195,0.3771281838417053,0.5682957172393799,3.028369426727295,2
901,1.791845440864563,10.233725547790527,7.128320217132568,0.021345162764191628,0.5217652916908264,3.109449863433838,2
902,24.929588317871094,-0.7825449109077454,5.766988754272461,-0.04090435802936554,0.6392704248428345,3.142345428466797,2
903,34.69373321533203,-12.774969100952148,5.520346164703369,0.036018893122673035,1.1594384908676147,3.1155202388763428,2
904,27.476003646850586,-12.702188491821289,6.197086811065674,0.2719859480857849,1.418945074081421,3.170135498046875,2
905,6.657668590545654,-7.303338050842285,7.317059516906738,0.3480670750141144,1.8105744123458862,3.210676670074463,2
906,-11.529647827148438,2.850476026535034,10.591496467590332,0.4179496467113495,1.561630368232727,3.340932846069336,2
907,-23.561199188232422,14.766082763671875,13.341522216796875,0.31434351205825806,1.3400887250900269,3.4633328914642334,2
908,-21.780763626098633,12.782071113586426,14.73483657836914,0.1815280169248581,1.118858814239502,3.5984413623809814,2
909,-16.046964645385742,9.360674858093262,15.093753814697266,0.08137987554073334,0.8467149138450623,3.7527050971984863,2
910,-2.4247591495513916,8.723379135131836,12.670940399169922,0.027234317734837532,0.6903900504112244,3.902924060821533,2
911,13.759177207946777,-2.2181291580200195,11.073988914489746,-0.1408909410238266,0.6974993348121643,4.023375511169434,2
912,19.288707733154297,-15.326984405517578,11.300488471984863,0.09534244239330292,0.9361987113952637,4.1387505531311035,2
913,22.985090255737305,-35.00938034057617,10.081513404846191,0.4903302788734436,1.183855414390564,4.260626792907715,2
914,15.911643028259277,-43.496337890625,9.956796646118164,0.3585679829120636,1.3980748653411865,4.321710109710693,2
915,-4.227901458740234,-50.48994064331055,9.471850395202637,0.9093750715255737,1.4477472305297852,4.424556732177734,2
916,-24.740192413330078,-48.53485107421875,7.7564616203308105,1.18165123462677,1.3203951120376587,4.487335205078125,2
917,-41.44501876831055,-37.084896087646484,2.762939691543579,1.7672820091247559,0.8780691027641296,4.582941055297852,2
918,-39.6876220703125,-29.44644546508789,-0.03512461856007576,2.2555336952209473,0.5899780988693237,4.612509727478027,2
919,-21.951736450195312,-16.54370880126953,-0.8118029236793518,2.58716082572937,0.27570006251335144,4.605318069458008,2
920,1.152706503868103,-5.273792743682861,-2.2888081073760986,2.3953731060028076,-0.04283962398767471,4.565404891967773,2
921,23.87177276611328,10.353992462158203,-4.047755241394043,2.477856159210205,0.11517121642827988,4.5182318687438965,2
922,42.294246673583984,20.643991470336914,-9.4318265914917,2.3803367614746094,0.39465633034706116,4.46924352645874,2
923,50.637664794921875,27.105743408203125,-12.552458763122559,1.974482536315918,1.054539680480957,4.312078952789307,2
924,33.339141845703125,29.60546112060547,-12.404768943786621,1.7862907648086548,1.3767856359481812,4.242778778076172,2
925,-6.736281394958496,36.74277114868164,-11.965359687805176,1.4352912902832031,1.8043195009231567,4.101095676422119,2
926,-41.881202697753906,29.204795837402344,-11.466381072998047,0.9334948062896729,1.5768489837646484,4.015381336212158,2
927,-60.910194396972656,6.110480785369873,-10.197169303894043,0.6086704730987549,0.9606117606163025,3.947019577026367,2
928,-66.47459411621094,-15.32339859008789,-10.703299522399902,0.6424907445907593,0.3872647285461426,3.8596701622009277,2
929,-64.56782531738281,-21.806472778320312,-11.14850902557373,0.9550149440765381,-0.5850481390953064,3.830928325653076,2
930,-48.41594314575195,-23.40576171875,-9.86319351196289,1.2695693969726562,-1.313982605934143,3.7487995624542236,2
931,-18.518386840820312,-30.383758544921875,-7.242705345153809,1.566857099533081,-1.5563108921051025,3.6199066638946533,2
932,12.395673751831055,-22.84295654296875,-5.273950576782227,2.076714515686035,-1.7050304412841797,3.558624029159546,2
933,39.512298583984375,-4.909707546234131,-3.5263352394104004,2.1013967990875244,-1.4024403095245361,3.4732069969177246,2
934,44.48881912231445,20.019285202026367,-3.193190813064575,2.209462881088257,-0.7876649498939514,3.391756534576416,2
935,37.35668182373047,49.56523513793945,-7.547085285186768,1.8426638841629028,-0.4167289137840271,3.3837826251983643,2
936,23.661405563354492,75.63338470458984,-10.536747932434082,1.0039721727371216,0.03136490285396576,3.3127195835113525,2
937,1.5582022666931152,85.40129852294922,-11.265912055969238,0.08285687118768692,0.1293444037437439,3.244903564453125,2
938,-23.31957244873047,73.77039337158203,-10.072723388671875,-0.9909547567367554,0.09620633721351624,3.1541390419006348,2
939,-47.047969818115234,47.56387710571289,-9.415783882141113,-1.822090983390808,-0.21117433905601501,3.0641872882843018,2
940,-44.810176849365234,11.949295043945312,-9.766301155090332,-2.2468152046203613,-0.9952952265739441,2.9748849868774414,2
941,-31.995084762573242,-28.112424850463867,-7.17587423324585,-2.1903064250946045,-1.3005876541137695,2.871293306350708,2
942,-14.172574043273926,-56.784610748291016,-6.767258167266846,-1.6524807214736938,-1.622538685798645,2.789412021636963,2
943,10.069199562072754,-71.95420837402344,-6.181142807006836,-0.9336730241775513,-1.769321084022522,2.7235331535339355,2
944,33.29784393310547,-64.1978759765625,-2.4387154579162598,-0.032248545438051224,-1.4820092916488647,2.6822075843811035,2
945,41.927059173583984,-42.42661666870117,-3.192159652709961,0.1337210088968277,-1.0975781679153442,2.7390782833099365,2
946,33.1053466796875,-16.03911781311035,-7.08933162689209,0.632790744304657,-0.6382113695144653,2.7098472118377686,2
947,20.361225128173828,24.735450744628906,-10.837347030639648,0.6889538764953613,-0.3303895890712738,2.6579701900482178,2
948,12.256256103515625,50.208919525146484,-12.554774284362793,0.32044634222984314,-0.22604963183403015,2.562504768371582,2
949,11.5822172164917,57.2296142578125,-11.590227127075195,-0.34809768199920654,-0.32307520508766174,2.439467668533325,2
950,33.56981658935547,56.97141647338867,-11.527019500732422,-1.021934151649475,-0.1900532990694046,2.3368425369262695,2
951,47.711936950683594,48.00956344604492,-11.416095733642578,-1.570706844329834,0.15336142480373383,2.222668409347534,2
952,35.74290084838867,24.70146369934082,-11.431632041931152,-2.000900983810425,0.8275487422943115,2.141972303390503,2
953,11.091562271118164,-9.426648139953613,-8.948576927185059,-2.1695687770843506,1.1576457023620605,2.018937349319458,2
954,-6.96819543838501,-47.01276779174805,-7.232697486877441,-1.8207210302352905,1.0704108476638794,1.8591837882995605,2
955,-7.312579154968262,-66.75061798095703,-6.78761625289917,-1.2885414361953735,0.9943111538887024,1.7696279287338257,2
956,1.5517115592956543,-68.11898040771484,-6.8476386070251465,-0.23180191218852997,0.9319853186607361,1.6806633472442627,2
957,9.247354507446289,-59.46198272705078,-8.257219314575195,0.13696351647377014,0.7000748515129089,1.5466824769973755,2
958,8.345213890075684,-49.0219841003418,-10.476980209350586,1.0198538303375244,0.8363592624664307,1.4669972658157349,2
959,-0.29042109847068787,-39.72844314575195,-15.048381805419922,1.7112807035446167,1.012094259262085,1.3739979267120361,2
960,-12.800848960876465,-31.660083770751953,-21.795202255249023,1.7393436431884766,0.8625006079673767,1.1867622137069702,2
961,-24.192237854003906,-5.60886287689209,-24.03510284423828,2.1586108207702637,0.6798520088195801,0.9671401381492615,2
962,-34.53497314453125,20.52767562866211,-26.578248977661133,2.0538947582244873,0.3105340898036957,0.7100274562835693,2
963,-38.648956298828125,43.895416259765625,-28.619617462158203,1.7582162618637085,-0.047090623527765274,0.4420053958892822,2
964,-31.774999618530273,60.234432220458984,-29.737957000732422,1.16693115234375,-0.2929702699184418,0.15141133964061737,2
965,-8.3011474609375,59.988929748535156,-30.146203994750977,0.4351498484611511,-0.791236937046051,-0.15670251846313477,2
966,26.26392936706543,42.12984085083008,-27.825054168701172,-0.08503783494234085,-0.7707023024559021,-0.4609050452709198,2
967,63.87320327758789,15.197796821594238,-23.16655921936035,-0.527701199054718,-0.19856078922748566,-0.7344039082527161,2
968,79.44534301757812,-4.434139728546143,-20.402639389038086,-0.5977670550346375,0.8144950866699219,-0.9498113989830017,2
969,72.68942260742188,-18.40907096862793,-19.125530242919922,-0.36596664786338806,1.6909607648849487,-1.1489635705947876,2
970,67.36043548583984,-24.209196090698242,-18.802589416503906,-0.028793638572096825,2.5308144092559814,-1.3364956378936768,2
971,63.80720520019531,-28.502220153808594,-16.856760025024414,0.23931115865707397,3.0440192222595215,-1.542246699333191,2
972,50.66865158081055,-32.39616775512695,-15.869483947753906,0.5883619785308838,3.630082368850708,-1.7235113382339478,2
973,28.295543670654297,-21.194841384887695,-15.578742980957031,0.9534460306167603,4.282330513000488,-1.8882099390029907,2
974,1.1343064308166504,-0.42268145084381104,-15.220444679260254,1.127807378768921,4.330116271972656,-2.0768015384674072,2
975,-34.07219314575195,26.707820892333984,-9.813652992248535,1.135537028312683,4.288309097290039,-2.2313666343688965,2
