,timestamp_start,timestamp_end,acc.x,acc.y,acc.z,gyro.x,gyro.y,gyro.z,mag.x,mag.y,mag.z,stabilizer.pitch,stabilizer.roll,stabilizer.yaw
0,25881,25882,-0.004934277385473251,0.039057936519384384,1.1776862144470215,-25.453866958618164,-31.682331085205078,-20.1577205657959,0.9944502711296082,1.0994449853897095,0.16349181532859802,-0.9478199481964111,-1.4657180309295654,1.1172380447387695
1,25891,25892,-0.10183651000261307,-0.06266913563013077,1.0360685586929321,-2.7692620754241943,-33.52983093261719,-19.533668518066406,0.9974501132965088,1.1084445714950562,0.16349181532859802,-0.7883379459381104,-1.729253888130188,0.9292342662811279
2,25901,25902,-0.05720466002821922,0.03719369322061539,1.1195316314697266,27.77890396118164,-28.5588436126709,-17.0716495513916,1.0004500150680542,1.1024448871612549,0.18749062716960907,-0.20366106927394867,-1.6467779874801636,0.7363380789756775
3,25911,25912,-0.14581704139709473,0.05221395194530487,1.117195963859558,44.741241455078125,-26.589706420898438,-14.531140327453613,1.0079495906829834,1.1069446802139282,0.19199039041996002,0.018180718645453453,-0.9160882830619812,0.5586094856262207
4,25921,25922,-0.11259916424751282,-0.0007216763333417475,1.079661250114441,55.74872970581055,-16.3315372467041,-12.191145896911621,1.00344979763031,1.0934453010559082,0.18449077010154724,0.33934298157691956,-0.4227609932422638,0.41395801305770874
5,25931,25932,-0.031043484807014465,-0.03274888917803764,0.9717775583267212,51.41122817993164,-3.7757186889648438,-8.849413871765137,1.0064496994018555,1.0964452028274536,0.16949152946472168,0.464143306016922,-0.009264475665986538,0.3147164285182953
6,25941,25942,-0.08419181406497955,0.00153308582957834,1.0187318325042725,29.02550506591797,12.668787956237793,-9.185897827148438,1.0094494819641113,1.0904453992843628,0.17249137163162231,0.2722090184688568,0.5796638131141663,0.2204023152589798
7,25951,25952,-0.03531059995293617,-0.053907692432403564,0.9497868418693542,2.630343437194824,25.209712982177734,-9.96423053741455,1.0064496994018555,1.0784460306167603,0.16949152946472168,0.022846465930342674,0.649435818195343,0.1571938544511795
8,25961,25962,-0.11465347558259964,0.06600126624107361,1.0443265438079834,-21.739213943481445,34.03581619262695,-5.882011413574219,1.0109494924545288,1.0889455080032349,0.18299084901809692,-0.14415067434310913,0.5316694974899292,0.0758027508854866
9,25971,25972,-0.11122367531061172,0.11973012983798981,1.134137749671936,-41.30724334716797,32.92470169067383,-3.551269769668579,0.9929503202438354,1.1009448766708374,0.1619918942451477,-0.5700717568397522,0.371574342250824,0.007199434097856283
10,25981,25982,-0.0762929767370224,0.037813227623701096,1.0216888189315796,-51.24846267700195,21.869688034057617,-0.7567017674446106,0.9944502711296082,1.0964452028274536,0.17549122869968414,-1.0349962711334229,-0.2799686789512634,0.00970453955233097
11,25991,25992,0.05664648488163948,-0.14148658514022827,0.949099600315094,-42.37248992919922,0.7136271595954895,-0.9581605792045593,1.0064496994018555,1.0964452028274536,0.1814909279346466,-1.2560206651687622,-0.5257605314254761,-0.03548654913902283
12,26001,26002,0.07052703201770782,-0.24068349599838257,0.9450930953025818,-15.625296592712402,-23.150907516479492,1.693753719329834,1.0094494819641113,1.087445616722107,0.17549122869968414,-1.1001474857330322,-1.0913532972335815,-0.01037505641579628
13,26011,26012,0.0880538821220398,-0.08995142579078674,1.2071514129638672,8.12033748626709,-36.07632827758789,2.9560859203338623,1.0229488611221313,1.0679465532302856,0.1799909919500351,-1.0164014101028442,-1.0133916139602661,-0.009025665000081062
14,26021,26022,0.04944603517651558,-0.01969199627637863,1.1172983646392822,29.897459030151367,-44.02085876464844,9.739180564880371,1.0154491662979126,1.0754462480545044,0.18449077010154724,-0.6376946568489075,-0.8537821173667908,0.038230590522289276
15,26031,26032,-0.05085010826587677,0.0645674392580986,0.9608470797538757,34.482418060302734,-45.310455322265625,13.325908660888672,1.01694917678833,1.0649467706680298,0.170991450548172,0.0038002508226782084,-0.5359358787536621,0.14642497897148132
16,26041,26042,-0.09007201343774796,0.08911235630512238,0.9981248378753662,18.844316482543945,-31.998441696166992,16.063745498657227,1.0079495906829834,1.070946455001831,0.19199039041996002,0.31116983294487,-0.1629299372434616,0.28456032276153564
17,26051,26052,-0.036632996052503586,-0.008240480907261372,0.9362403154373169,1.3146357536315918,-14.526837348937988,14.823002815246582,1.0319483280181885,1.070946455001831,0.18599069118499756,0.3675526976585388,-0.0634075403213501,0.4561013877391815
18,26061,26062,0.023929538205266,0.07176965475082397,0.8855409622192383,-16.969436645507812,1.2797424793243408,13.026662826538086,1.033448338508606,1.072446346282959,0.17249137163162231,0.5999030470848083,-0.1914868950843811,0.6112470626831055
19,26071,26072,-0.10540391504764557,0.10670556128025055,0.8866713047027588,-36.05998229980469,16.92478370666504,13.787575721740723,1.0214488506317139,1.0604469776153564,0.1814909279346466,0.48129117488861084,-0.3358221650123596,0.7312770485877991
20,26081,26082,-0.12978695333003998,-0.028304029256105423,0.8285166025161743,-44.282493591308594,24.545854568481445,16.07624626159668,1.0079495906829834,1.0799460411071777,0.17399129271507263,0.2383049726486206,-1.0296555757522583,0.9164700508117676
21,26091,26092,-0.05666520074009895,-0.10031773149967194,0.8392866253852844,-41.50864028930664,26.42134666442871,18.65796661376953,1.0244487524032593,1.0844457149505615,0.18749062716960907,0.11010117083787918,-1.104300618171692,1.0143883228302002
22,26101,26102,-0.1145908311009407,-0.1561061441898346,0.9371389150619507,-27.97684669494629,25.28984260559082,21.077274322509766,1.0124493837356567,1.0844457149505615,0.17849107086658478,-0.1597924828529358,-1.4947394132614136,1.204026222229004
23,26111,26112,-0.09318280220031738,-0.1330806165933609,0.9273515939712524,-7.544086933135986,20.04584312438965,22.373504638671875,1.019948959350586,1.0949451923370361,0.17399129271507263,-0.4588499367237091,-1.72173273563385,1.411363124847412
24,26121,26122,-0.14165043830871582,-0.06828910112380981,0.9269921779632568,10.97904109954834,12.875914573669434,23.189611434936523,1.0139492750167847,1.0799460411071777,0.1799909919500351,-0.46937671303749084,-1.6741969585418701,1.6133520603179932
25,26131,26132,0.027320295572280884,-0.06984958052635193,0.7942317724227905,25.23941993713379,1.755922555923462,26.71808624267578,1.0109494924545288,1.0769461393356323,0.16799159348011017,-0.6478740572929382,-1.5621676445007324,1.86099374294281
26,26141,26142,-0.07345840334892273,0.1264844536781311,0.9715753197669983,27.70987319946289,-8.425536155700684,29.760848999023438,1.0274486541748047,1.0754462480545044,0.16949152946472168,-0.5644387602806091,-1.2573773860931396,2.1209158897399902
27,26151,26152,-0.11619441211223602,0.2508193254470825,1.0749346017837524,19.02818489074707,-15.764383316040039,29.93937873840332,1.0274486541748047,1.072446346282959,0.17249137163162231,-0.5821073651313782,-0.9725431203842163,2.42696475982666
28,26161,26162,0.036993298679590225,-0.045759085565805435,0.8387585282325745,4.406816482543945,-25.811782836914062,31.002573013305664,1.0319483280181885,1.0619468688964844,0.17399129271507263,-0.24803774058818817,-0.8688845038414001,2.726250171661377
29,26171,26172,0.10080257803201675,-0.11336718499660492,0.9328135848045349,-10.260470390319824,-25.78558921813965,31.657840728759766,1.01694917678833,1.055947184562683,0.17399129271507263,-0.10069714486598969,-0.918917715549469,3.0645506381988525
30,26181,26182,0.10328265279531479,-0.2124873399734497,1.0203909873962402,-20.4243221282959,-25.99091911315918,29.46101188659668,1.0229488611221313,1.0499475002288818,0.1619918942451477,0.11759692430496216,-1.1951767206192017,3.4091601371765137
31,26191,26192,0.09131187945604324,-0.17991377413272858,0.8617854118347168,-33.174591064453125,-10.55208969116211,28.477338790893555,1.0214488506317139,1.0544472932815552,0.16949152946472168,0.3260789215564728,-1.6189243793487549,3.7393136024475098
32,26201,26202,-0.044188015162944794,-0.002883159788325429,0.7949927449226379,-34.12308120727539,0.7317663431167603,27.575401306152344,1.0394480228424072,1.0544472932815552,0.16649167239665985,0.08085241913795471,-2.118682861328125,4.08033561706543
33,26211,26212,-0.113519586622715,0.08787238597869873,0.8700867295265198,-29.865230560302734,13.59913444519043,25.245637893676758,1.033448338508606,1.0664466619491577,0.17549122869968414,0.19101980328559875,-2.3090901374816895,4.311421871185303
34,26221,26222,-0.05475430563092232,0.055110227316617966,0.9556358456611633,-12.623292922973633,15.954840660095215,23.281131744384766,1.033448338508606,1.0694465637207031,0.17849107086658478,-0.05309261754155159,-2.6980011463165283,4.586361408233643
35,26231,26232,-0.05192728713154793,0.01541243214160204,0.9566553235054016,9.817116737365723,13.373461723327637,21.205730438232422,1.0364481210708618,1.0694465637207031,0.17849107086658478,-0.23477675020694733,-2.525956153869629,4.7728705406188965
36,26241,26242,-0.05984244495630264,-0.015241983346641064,0.8834570050239563,30.624649047851562,7.269508361816406,18.88892364501953,1.0349482297897339,1.0649467706680298,0.17399129271507263,-0.3361435532569885,-2.278974771499634,4.958710193634033
37,26251,26252,-0.06412243843078613,-0.01592894084751606,0.9230509400367737,37.968475341796875,-6.242166996002197,16.30192756652832,1.0274486541748047,1.057447075843811,0.17849107086658478,-0.47140827775001526,-2.0422585010528564,5.163144588470459
38,26261,26262,-0.07638963311910629,0.05264107882976532,0.9004672765731812,35.42548370361328,-18.730859756469727,12.951799392700195,1.0229488611221313,1.070946455001831,0.18299084901809692,-0.21772770583629608,-1.6431535482406616,5.286974906921387
39,26271,26272,-0.03260621428489685,0.0015085884369909763,0.8634878396987915,26.050312042236328,-30.687244415283203,9.894330024719238,1.0349482297897339,1.0619468688964844,0.18299084901809692,-0.051851850003004074,-1.3313621282577515,5.432311534881592
40,26281,26282,-0.03923290967941284,-0.04099729657173157,0.934971034526825,20.523502349853516,-37.26068878173828,7.435001373291016,1.0409479141235352,1.0589470863342285,0.1799909919500351,0.4731498062610626,-1.0896943807601929,5.493199825286865
41,26291,26292,-0.046953700482845306,-0.06407039612531662,0.9274418354034424,14.35853099822998,-38.98868179321289,5.961602687835693,1.0229488611221313,1.0679465532302856,0.18599069118499756,0.6011707782745361,-0.9287047386169434,5.621164321899414
42,26301,26302,-0.12046536803245544,0.05159657448530197,0.9152295589447021,12.192237854003906,-34.341766357421875,4.671762943267822,1.0274486541748047,1.0544472932815552,0.17849107086658478,0.9655072689056396,-0.7131937742233276,5.675642013549805
43,26311,26312,-0.06998296827077866,0.053256575018167496,0.9587838053703308,16.245702743530273,-28.093732833862305,6.665318489074707,1.0274486541748047,1.0634467601776123,0.17249137163162231,1.3312078714370728,-0.7146093845367432,5.7468366622924805
44,26321,26322,-0.05356844142079353,-0.0039630611427128315,0.9333217144012451,17.136798858642578,-19.598073959350586,7.9366912841796875,1.0349482297897339,1.0529472827911377,0.18599069118499756,1.6417242288589478,-0.5192304253578186,5.804078102111816
45,26331,26332,-0.04744939133524895,0.07696360349655151,0.9655494689941406,14.16679859161377,-4.789880275726318,5.67711877822876,1.0274486541748047,1.0694465637207031,0.17249137163162231,1.8387318849563599,-0.26903191208839417,5.862301826477051
46,26341,26342,-0.10952147096395493,0.08371435105800629,1.0518310070037842,8.026670455932617,1.3479493856430054,4.525195598602295,1.0289485454559326,1.0619468688964844,0.18299084901809692,1.812461256980896,-0.14480218291282654,5.929732799530029
47,26351,26352,-0.04739847779273987,0.11258864402770996,1.061385989189148,-2.7874245643615723,5.017668724060059,0.5141974091529846,1.0394480228424072,1.0694465637207031,0.1814909279346466,1.703542947769165,-0.14946304261684418,5.994900226593018
48,26361,26362,-0.10239124298095703,-0.017874419689178467,0.9757829308509827,-8.002964973449707,4.118636608123779,-0.4024599492549896,1.0379481315612793,1.0649467706680298,0.19199039041996002,1.4775906801223755,-0.2738024592399597,6.0316643714904785
49,26371,26372,-0.011645544320344925,-0.029436422511935234,1.0894087553024292,-6.7414069175720215,1.1184816360473633,-0.09942273795604706,1.0349482297897339,1.073946237564087,0.1799909919500351,1.5165568590164185,-0.32282575964927673,6.010349273681641
50,26381,26382,0.0134113235399127,-0.0926508679986,1.0756088495254517,-6.1211042404174805,1.7769744396209717,1.0100458860397339,1.0214488506317139,1.0664466619491577,0.17549122869968414,1.364195466041565,-0.4589584171772003,6.033627510070801
51,26391,26392,-0.04957922548055649,-0.06524743139743805,0.9601805210113525,-0.780775249004364,4.076891899108887,1.7928017377853394,1.0274486541748047,1.0784460306167603,0.16949152946472168,1.4226903915405273,-0.46408703923225403,6.026841640472412
52,26401,26402,-0.03534434735774994,0.035961881279945374,1.0313087701797485,1.6146994829177856,0.5654773712158203,2.181889772415161,1.033448338508606,1.0604469776153564,0.1814909279346466,1.3222346305847168,-0.39179727435112,6.029512405395508
53,26411,26412,-0.03453461453318596,-0.027864372357726097,1.0047199726104736,0.9986798763275146,-12.039650917053223,2.256312370300293,1.0379481315612793,1.0679465532302856,0.18599069118499756,1.462744951248169,-0.351180762052536,6.033625602722168
54,26421,26422,-0.06184501573443413,-0.023115960881114006,1.0157357454299927,-2.6258859634399414,-22.52458953857422,4.3416056632995605,1.0259486436843872,1.0619468688964844,0.1799909919500351,1.5659739971160889,-0.3479679226875305,6.066625118255615
55,26431,26432,-0.10890675336122513,0.0265228059142828,1.0336793661117554,-7.332470893859863,-27.541467666625977,4.951681613922119,1.0229488611221313,1.070946455001831,0.18299084901809692,1.7847765684127808,-0.4205447733402252,6.129300594329834
56,26441,26442,-0.1037592738866806,-0.011781789362430573,1.0258668661117554,-5.15413761138916,-22.609272003173828,5.434065818786621,1.0364481210708618,1.0694465637207031,0.18749062716960907,2.1542935371398926,-0.608518660068512,6.211968421936035
57,26451,26452,-0.1603722721338272,0.01758100464940071,0.8589445948600769,1.4351218938827515,-12.719969749450684,5.539619445800781,1.0439478158950806,1.0619468688964844,0.16799159348011017,2.325625419616699,-0.6661502718925476,6.278703689575195
58,26461,26462,-0.014475206844508648,0.011978305876255035,1.0788520574569702,5.450425624847412,-4.881092071533203,5.386444091796875,1.0379481315612793,1.055947184562683,0.170991450548172,2.1590752601623535,-0.5417989492416382,6.314703941345215
59,26471,26472,0.09464672207832336,-0.13029852509498596,1.125082015991211,4.65113639831543,1.67121160030365,6.56283712387085,1.0529472827911377,1.073946237564087,0.18299084901809692,2.2837579250335693,-0.28734248876571655,6.304195880889893
60,26481,26482,0.029179008677601814,-0.1370401680469513,1.1162209510803223,0.9155744910240173,2.970370292663574,3.4728617668151855,1.033448338508606,1.072446346282959,0.1904904693365097,2.3119778633117676,-0.24009652435779572,6.3546648025512695
61,26491,26492,-0.06083785369992256,-0.04713619127869606,1.0027475357055664,-4.917444229125977,6.2590484619140625,3.9752399921417236,1.0244487524032593,1.0754462480545044,0.1904904693365097,2.350560426712036,-0.21046897768974304,6.380699157714844
62,26501,26502,-0.14793141186237335,0.07583236694335938,0.9179707169532776,-15.50938892364502,7.864022731781006,2.768019914627075,1.0364481210708618,1.0664466619491577,0.18749062716960907,2.3689074516296387,-0.3513781428337097,6.442215919494629
63,26511,26512,-0.11399301141500473,0.06551232188940048,0.9301254749298096,-22.274097442626953,8.769477844238281,0.5961887240409851,1.0319483280181885,1.0589470863342285,0.18599069118499756,2.198171854019165,-0.5848032832145691,6.4846038818359375
64,26521,26522,-0.11830644309520721,0.10199135541915894,1.016710877418518,-20.491905212402344,7.818297386169434,-1.815861701965332,1.0454477071762085,1.0814459323883057,0.17549122869968414,2.144930839538574,-0.8226125836372375,6.488906383514404
65,26531,26532,-0.023564323782920837,-0.026727577671408653,1.0521236658096313,-16.18360137939453,0.3800748288631439,-5.223842144012451,1.0409479141235352,1.0619468688964844,0.19199039041996002,2.166407585144043,-1.0704710483551025,6.485607147216797
66,26541,26542,-0.013564013876020908,-0.05363253131508827,1.2148833274841309,-7.4071502685546875,-5.79103422164917,-6.473351955413818,1.033448338508606,1.0754462480545044,0.18449077010154724,1.9217814207077026,-1.097084641456604,6.375872611999512
67,26551,26552,0.012185397557914257,-0.011188903823494911,1.0258705615997314,5.5990471839904785,-3.8254473209381104,-6.757566928863525,1.0274486541748047,1.0694465637207031,0.17849107086658478,2.075892686843872,-1.0628550052642822,6.280915260314941
68,26561,26562,-0.09943945705890656,0.08242719620466232,0.9335355758666992,16.055965423583984,2.463399648666382,-7.251573085784912,1.0289485454559326,1.0619468688964844,0.18299084901809692,2.253497362136841,-0.9089234471321106,6.187428951263428
69,26571,26572,-0.14827440679073334,0.06121359393000603,1.0859798192977905,17.182340621948242,6.953962802886963,-6.960365295410156,1.0439478158950806,1.0619468688964844,0.17699114978313446,2.0619289875030518,-0.6837981343269348,6.085282325744629
70,26581,26582,-0.12873011827468872,0.06845562905073166,1.1351367235183716,13.534894943237305,11.440657615661621,-7.26058292388916,1.0319483280181885,1.0619468688964844,0.1799909919500351,1.9659180641174316,-0.6380742788314819,6.065834999084473
71,26591,26592,-0.0379638709127903,-0.0027416786178946495,1.0375276803970337,9.077829360961914,16.097366333007812,-10.016412734985352,1.0319483280181885,1.0679465532302856,0.18299084901809692,1.8136669397354126,-0.4989332854747772,5.985978603363037
72,26601,26602,0.04313169792294502,-0.052994199097156525,1.0629630088806152,-10.514344215393066,22.19952392578125,-13.308284759521484,1.0244487524032593,1.0604469776153564,0.16949152946472168,1.4943559169769287,-0.5635554194450378,5.926342010498047
73,26611,26612,-0.01879662089049816,-0.1012192964553833,0.874918520450592,-31.27208137512207,21.42657470703125,-14.28467845916748,1.033448338508606,1.072446346282959,0.1814909279346466,1.253286361694336,-0.8967649340629578,5.858334064483643
74,26621,26622,0.019879430532455444,-0.1976601481437683,0.9009768962860107,-46.57744598388672,20.170120239257812,-13.388437271118164,1.0214488506317139,1.0784460306167603,0.17849107086658478,0.9250892996788025,-0.9718378782272339,5.603679180145264
75,26631,26632,-0.05510776862502098,0.029720593243837357,1.0443676710128784,-48.2869987487793,15.41010856628418,-10.584907531738281,1.0364481210708618,1.0754462480545044,0.18449077010154724,1.0395257472991943,-1.6382436752319336,5.547563552856445
76,26641,26642,-0.2074764370918274,0.1536291539669037,1.0823267698287964,-29.909122467041016,10.248705863952637,-10.568267822265625,1.0154491662979126,1.0754462480545044,0.17249137163162231,0.9141903519630432,-1.9429285526275635,5.379718780517578
77,26651,26652,-0.16898827254772186,0.13166627287864685,1.045793890953064,1.4521000385284424,6.078298568725586,-10.693297386169434,1.0259486436843872,1.0829458236694336,0.1799909919500351,0.7871803641319275,-2.081268310546875,5.241829872131348
78,26661,26662,-0.036686111241579056,0.021142899990081787,1.03841233253479,30.771671295166016,-3.82159423828125,-11.698249816894531,1.033448338508606,1.0754462480545044,0.17549122869968414,0.7511732578277588,-1.9294182062149048,5.108682155609131
79,26671,26672,0.049904558807611465,-0.0436907522380352,0.9298602938652039,50.83570098876953,-10.175202369689941,-13.197693824768066,1.0469475984573364,1.073946237564087,0.18599069118499756,0.8519494533538818,-1.3975224494934082,4.93111515045166
80,26681,26682,-0.004845794755965471,-0.016436954960227013,0.7935526371002197,54.52863693237305,-5.311873912811279,-12.423710823059082,1.0214488506317139,1.0814459323883057,0.17849107086658478,0.9503298401832581,-1.1040899753570557,4.875567436218262
81,26691,26692,-0.005784741602838039,0.05418826639652252,0.9494145512580872,44.12779998779297,6.920301914215088,-14.240598678588867,1.042447805404663,1.0844457149505615,0.16649167239665985,0.9493951797485352,-0.37737327814102173,4.694861888885498
82,26701,26702,-0.08939018845558167,0.24360701441764832,0.9317024946212769,24.182178497314453,14.817452430725098,-17.00278091430664,1.0364481210708618,1.0664466619491577,0.18749062716960907,0.915916383266449,-0.24735133349895477,4.618061542510986
83,26711,26712,-0.07433366030454636,0.15201084315776825,0.907328724861145,2.383948802947998,22.015220642089844,-19.400779724121094,1.0319483280181885,1.0799460411071777,0.170991450548172,0.642207682132721,-0.09260473400354385,4.456559658050537
84,26721,26722,-0.07331886887550354,0.1537303775548935,1.0676908493041992,-9.896926879882812,26.751020431518555,-19.053224563598633,1.018449068069458,1.0844457149505615,0.1814909279346466,0.5240272283554077,-0.2385847121477127,4.291428565979004
85,26731,26732,-0.022026482969522476,0.04796741530299187,0.9340671300888062,-7.717611789703369,25.765132904052734,-17.129825592041016,1.0289485454559326,1.0679465532302856,0.18299084901809692,0.09521862119436264,-0.2431185096502304,4.089815616607666
86,26741,26742,-0.022602377459406853,-0.14598406851291656,0.8680744171142578,-1.5413787364959717,13.13127613067627,-15.182299613952637,1.0259486436843872,1.0799460411071777,0.18299084901809692,-0.26219993829727173,-0.3299548029899597,3.926548719406128
87,26751,26752,-0.034052662551403046,-0.2862682342529297,0.9904975891113281,-0.06974636763334274,-4.9476470947265625,-13.996288299560547,1.0274486541748047,1.0904453992843628,0.16649167239665985,-0.3895200788974762,-0.39766672253608704,3.787421226501465
88,26761,26762,-0.014349487610161304,-0.17910608649253845,1.1836655139923096,6.436434745788574,-18.02216148376465,-11.894207000732422,1.0139492750167847,1.0889455080032349,0.17399129271507263,-0.21991747617721558,-0.3451530933380127,3.6465792655944824
89,26771,26772,0.061722055077552795,-0.07205541431903839,1.1443921327590942,8.202306747436523,-24.480588912963867,-11.056989669799805,1.01694917678833,1.0799460411071777,0.18599069118499756,0.12550467252731323,-0.2175285518169403,3.513108015060425
90,26781,26782,0.05475616827607155,-0.11143811792135239,1.11683189868927,9.403124809265137,-25.333362579345703,-9.841541290283203,1.01694917678833,1.0829458236694336,0.170991450548172,0.20091724395751953,-0.18649594485759735,3.4145359992980957
91,26791,26792,0.12484800815582275,-0.1216309443116188,1.0870392322540283,8.203451156616211,-25.289716720581055,-9.536765098571777,1.0259486436843872,1.0649467706680298,0.17699114978313446,0.2861027717590332,-0.16029231250286102,3.3200769424438477
92,26801,26802,0.008017897605895996,-0.1191185936331749,0.8027045130729675,8.284398078918457,-25.768815994262695,-8.851889610290527,1.0304484367370605,1.0664466619491577,0.17549122869968414,0.5991851687431335,0.015694206580519676,3.220921039581299
93,26811,26812,-0.03949521481990814,-0.04301183298230171,0.8853859305381775,12.889050483703613,-20.322708129882812,-9.834216117858887,1.0259486436843872,1.055947184562683,0.1889905482530594,0.8865290284156799,0.19244533777236938,3.1169168949127197
94,26821,26822,-0.06339030712842941,0.057229992002248764,0.951574981212616,17.365463256835938,-12.8148193359375,-9.82786750793457,1.01694917678833,1.0589470863342285,0.17699114978313446,0.9859614372253418,0.3599631190299988,3.014192581176758
95,26831,26832,0.04818375036120415,0.08768221735954285,0.9369721412658691,16.83814239501953,2.204989433288574,-8.842522621154785,1.0244487524032593,1.0814459323883057,0.1814909279346466,0.9050732254981995,0.24229392409324646,2.9405977725982666
96,26841,26842,-0.07409975677728653,0.14579257369041443,0.8107436299324036,12.829715728759766,9.45474624633789,-7.607184886932373,1.0319483280181885,1.055947184562683,0.18599069118499756,0.9083780646324158,0.541010320186615,2.845999240875244
97,26851,26852,-0.14621789753437042,0.09339133650064468,0.8006024360656738,9.016480445861816,1.5316351652145386,-8.297293663024902,1.0229488611221313,1.070946455001831,0.19199039041996002,0.7271459102630615,0.6675775647163391,2.75830340385437
98,26861,26862,-0.12045064568519592,0.016810212284326553,0.8625820279121399,5.581509590148926,-15.704909324645996,-8.313396453857422,1.0259486436843872,1.0619468688964844,0.1619918942451477,0.8787052035331726,0.6344441771507263,2.6971776485443115
99,26871,26872,-0.17222951352596283,0.012361416593194008,1.0123246908187866,2.3956072330474854,-31.655385971069336,-10.402463912963867,1.0214488506317139,1.072446346282959,0.17549122869968414,1.2974227666854858,0.7470539808273315,2.6072120666503906
100,26881,26882,-0.14346250891685486,0.0007694001542404294,1.033237338066101,-1.7132691144943237,-41.89368438720703,-11.251300811767578,1.0214488506317139,1.0754462480545044,0.18749062716960907,1.687209963798523,0.8038244843482971,2.496565818786621
101,26891,26892,-0.011734562925994396,-0.1786351501941681,0.9662028551101685,-4.5873918533325195,-39.233116149902344,-12.169791221618652,1.0289485454559326,1.073946237564087,0.19199039041996002,2.093749523162842,0.733700692653656,2.382639169692993
102,26901,26902,-0.026781756430864334,0.08161909878253937,1.1351836919784546,-6.8819451332092285,-25.412973403930664,-11.386877059936523,1.0394480228424072,1.0694465637207031,0.18749062716960907,2.6627235412597656,0.6862797141075134,2.278301239013672
103,26911,26912,-0.05318707600235939,-0.01261256355792284,1.006073236465454,-6.066526889801025,-5.143515110015869,-12.568089485168457,1.0229488611221313,1.0799460411071777,0.17699114978313446,2.593355655670166,0.5901215076446533,2.123645067214966
104,26921,26922,-0.15517869591712952,-0.004415836650878191,1.1453635692596436,4.133800983428955,22.108247756958008,-10.7195405960083,1.0244487524032593,1.0844457149505615,0.18749062716960907,2.658184766769409,0.7113810181617737,1.9776490926742554
105,26931,26932,-0.09327580779790878,-0.06409817188978195,0.9940647482872009,23.4667911529541,46.783714294433594,-5.048037528991699,1.0244487524032593,1.087445616722107,0.18449077010154724,2.245525360107422,0.6468569040298462,1.883039951324463
106,26941,26942,-0.016623880714178085,-0.04840576648712158,0.938804566860199,34.630741119384766,62.94837188720703,-0.3888445198535919,1.0289485454559326,1.0919454097747803,0.19199039041996002,1.6957805156707764,0.8121265769004822,1.856756567955017
107,26951,26952,-0.09594978392124176,0.04870983958244324,0.9951809644699097,39.69235610961914,59.730125427246094,4.218029499053955,1.0154491662979126,1.087445616722107,0.1814909279346466,1.0289703607559204,1.4462907314300537,1.8130285739898682
108,26961,26962,-0.3095695376396179,-0.045096464455127716,0.9538561701774597,39.87808609008789,35.998565673828125,4.1164326667785645,1.01694917678833,1.0919454097747803,0.17699114978313446,0.7294177412986755,1.6213477849960327,1.9447184801101685
109,26971,26972,-0.12412018328905106,-0.14267700910568237,0.9754611253738403,25.199193954467773,1.7345151901245117,3.8956220149993896,1.0079495906829834,1.073946237564087,0.18599069118499756,0.3757855296134949,2.1992132663726807,1.9540280103683472
110,26981,26982,-0.09337716549634933,-0.019935300573706627,1.095362901687622,0.2665000259876251,-31.257476806640625,0.015113875269889832,1.0019499063491821,1.070946455001831,0.18599069118499756,0.5365636944770813,2.462010383605957,1.998535394668579
111,26991,26992,0.08775129914283752,0.04122357442975044,1.1083635091781616,-20.882661819458008,-53.95659255981445,-5.0916290283203125,1.0124493837356567,1.0604469776153564,0.17849107086658478,1.0955290794372559,2.2091665267944336,2.0606319904327393
112,27001,27002,-0.1017242819070816,-0.04656895250082016,1.1235932111740112,-39.21522903442383,-62.259681701660156,-12.154650688171387,1.018449068069458,1.072446346282959,0.18449077010154724,1.650908350944519,2.026775598526001,1.9657236337661743
113,27011,27012,-0.08775980770587921,-0.2426333725452423,1.0355523824691772,-44.70759963989258,-50.23310089111328,-15.845733642578125,1.01694917678833,1.070946455001831,0.17699114978313446,2.2606923580169678,1.4539504051208496,1.8469454050064087
114,27021,27022,-0.11721575260162354,-0.10953369736671448,1.1007505655288696,-38.921409606933594,-23.188232421875,-17.786724090576172,1.0259486436843872,1.0769461393356323,0.1889905482530594,2.6980104446411133,1.1881190538406372,1.636378288269043
115,27031,27032,-0.04329446330666542,-0.019623788073658943,1.0406720638275146,-24.083585739135742,9.320008277893066,-14.712010383605957,1.0214488506317139,1.072446346282959,0.19649016857147217,2.591792345046997,0.7687133550643921,1.3933242559432983
116,27041,27042,-0.1501345932483673,-0.08142458647489548,1.1241416931152344,-14.509883880615234,44.55281066894531,-13.914542198181152,1.0274486541748047,1.0694465637207031,0.18449077010154724,2.3442609310150146,0.7221015095710754,1.1890720129013062
117,27051,27052,-0.11213014274835587,-0.05548011139035225,1.0667228698730469,-6.4561262130737305,71.7237777709961,-15.00572395324707,1.0154491662979126,1.087445616722107,0.18749062716960907,1.7146320343017578,0.5948289632797241,1.0105128288269043
118,27061,27062,-0.059580784291028976,-0.0036881803534924984,0.9456872940063477,-0.8561468720436096,79.07048797607422,-19.087238311767578,1.0004500150680542,1.12644362449646,0.199490025639534,1.039780616760254,0.55803382396698,0.8729438185691833
119,27071,27072,-0.028026694431900978,0.009255864657461643,0.8747681379318237,1.7328499555587769,69.47637939453125,-20.47232437133789,1.0124493837356567,1.0934453010559082,0.19349032640457153,0.1041838601231575,0.6315295100212097,0.6412566304206848
120,27081,27082,0.018646713346242905,0.032634440809488297,0.9958385825157166,2.759092092514038,43.241920471191406,-17.619359970092773,1.0079495906829834,1.1039447784423828,0.18599069118499756,-0.5547557473182678,0.7897903919219971,0.4274677634239197
121,27091,27092,0.05442393943667412,-0.08965963125228882,0.8939118981361389,6.512274742126465,7.532790184020996,-14.823336601257324,1.004949688911438,1.0949451923370361,0.17399129271507263,-0.7853778600692749,0.7505777478218079,0.3082372844219208
122,27101,27102,-0.09447233378887177,-0.11979309469461441,0.9725927710533142,9.083102226257324,-28.17008399963379,-14.555126190185547,1.019948959350586,1.073946237564087,0.17699114978313446,-0.8710070252418518,0.8547641038894653,0.1402103751897812
123,27111,27112,-0.017856726422905922,0.07821182906627655,1.1465239524841309,4.819575309753418,-47.53440475463867,-13.926597595214844,1.0064496994018555,1.0844457149505615,0.18449077010154724,-0.3333783447742462,0.9703048467636108,0.04286498576402664
124,27121,27122,0.05952905863523483,-0.07978560775518417,1.0722931623458862,-3.8203306198120117,-53.58955764770508,-16.07183265686035,1.018449068069458,1.0814459323883057,0.1814909279346466,0.14585193991661072,1.0039714574813843,-0.10242155939340591
125,27131,27132,0.038724057376384735,-0.06019559130072594,0.9621820449829102,-9.646352767944336,-46.11872100830078,-16.283567428588867,1.01694917678833,1.0889455080032349,0.17699114978313446,0.7108868956565857,0.8967703580856323,-0.2577644884586334
126,27141,27142,-0.028926601633429527,-0.26666852831840515,1.010263442993164,-13.531508445739746,-26.970951080322266,-17.450294494628906,1.0214488506317139,1.087445616722107,0.17849107086658478,1.2938166856765747,0.7099230885505676,-0.39728447794914246
127,27151,27152,-0.058543093502521515,0.0509856715798378,1.0440261363983154,-11.637405395507812,-7.4726033210754395,-15.722990036010742,1.0289485454559326,1.0649467706680298,0.17399129271507263,1.385162115097046,0.6228518486022949,-0.6097736358642578
128,27161,27162,-0.0433165542781353,-0.05600276216864586,0.8602944612503052,-2.827841281890869,16.47908592224121,-13.494083404541016,1.0244487524032593,1.0814459323883057,0.17849107086658478,1.4177958965301514,0.6461410522460938,-0.7664505839347839
129,27171,27172,-0.1381520926952362,0.09431681036949158,1.0479223728179932,11.764405250549316,34.09853744506836,-9.812753677368164,1.0214488506317139,1.0754462480545044,0.1814909279346466,1.0848822593688965,0.6344005465507507,-0.9133666753768921
130,27181,27182,-0.029619967564940453,-0.04865812882781029,1.0723576545715332,24.229949951171875,43.53860855102539,-3.9871132373809814,1.0214488506317139,1.0784460306167603,0.19649016857147217,0.711970329284668,0.8562898635864258,-1.0032012462615967
131,27191,27192,-0.18822723627090454,-0.026349155232310295,1.018654704093933,27.356502532958984,49.385475158691406,-0.972789466381073,1.0319483280181885,1.0949451923370361,0.170991450548172,0.29981347918510437,1.028177261352539,-1.0308020114898682
132,27201,27202,-0.13419334590435028,-0.1674322932958603,0.9953331351280212,21.084251403808594,54.571998596191406,2.1687939167022705,1.0229488611221313,1.0829458236694336,0.18299084901809692,-0.27760493755340576,1.4140676259994507,-1.0389329195022583
133,27211,27212,-0.04336056113243103,-0.1606578528881073,0.8071134686470032,10.999349594116211,50.11168670654297,5.806029796600342,1.0124493837356567,1.0934453010559082,0.1814909279346466,-1.06458580493927,1.4589978456497192,-1.0352363586425781
134,27221,27222,-0.005154437385499477,-0.25203821063041687,0.8293978571891785,0.5990601778030396,30.802722930908203,9.241724014282227,1.00344979763031,1.0844457149505615,0.17549122869968414,-1.3763867616653442,1.6463477611541748,-0.9234811067581177
135,27231,27232,0.02363288402557373,-0.06332743912935257,1.0562537908554077,-10.188033103942871,4.005161285400391,10.796979904174805,1.0124493837356567,1.072446346282959,0.16949152946472168,-1.522719144821167,1.5768227577209473,-0.7998300194740295
136,27241,27242,-0.13825249671936035,0.09142552316188812,0.9693001508712769,-21.410734176635742,-19.5527400970459,12.268239974975586,1.004949688911438,1.0889455080032349,0.18299084901809692,-1.3609079122543335,1.3951095342636108,-0.6652596592903137
137,27251,27252,-0.24086721241474152,0.09496127814054489,1.0230916738510132,-31.564558029174805,-29.760562896728516,12.5897798538208,0.9989500045776367,1.073946237564087,0.17699114978313446,-1.0837643146514893,1.1607643365859985,-0.5381720662117004
138,27261,27262,-0.026692023500800133,-0.11382774263620377,1.0005199909210205,-36.501670837402344,-26.86441421508789,15.666327476501465,1.019948959350586,1.0799460411071777,0.18599069118499756,-0.8611617684364319,0.8599426746368408,-0.4160871207714081
139,27271,27272,-0.045647405087947845,-0.03629019856452942,1.0100715160369873,-34.61466598510742,-17.813705444335938,18.84752655029297,1.0094494819641113,1.0844457149505615,0.17549122869968414,-0.7509909272193909,0.44154518842697144,-0.2933467626571655
140,27281,27282,-0.16831445693969727,0.04280371591448784,1.0012906789779663,-28.692703247070312,-6.110952854156494,20.84189796447754,1.0019499063491821,1.0769461393356323,0.17399129271507263,-0.5774735808372498,0.20195628702640533,-0.08888028562068939
141,27291,27292,-0.20290760695934296,0.053767211735248566,0.9002907872200012,-21.928213119506836,8.026691436767578,22.01704978942871,1.0109494924545288,1.0919454097747803,0.17699114978313446,-0.5429583191871643,-0.15164728462696075,0.1148415133357048
142,27301,27302,-0.05221277102828026,-0.1243257150053978,0.926008939743042,-12.771774291992188,20.614971160888672,26.25235939025879,1.0064496994018555,1.0814459323883057,0.17849107086658478,-0.7446019053459167,-0.2882246971130371,0.3445500433444977
143,27311,27312,-0.19263136386871338,-0.17346349358558655,1.0826996564865112,-9.354364395141602,21.149633407592773,28.254499435424805,1.0064496994018555,1.0814459323883057,0.17849107086658478,-1.0183625221252441,-0.3362749218940735,0.598249077796936
144,27321,27322,-0.09920651465654373,-0.05216795578598976,1.0955400466918945,-11.63598918914795,18.61269760131836,26.605438232421875,1.004949688911438,1.0979450941085815,0.16799159348011017,-1.1160563230514526,-0.46562063694000244,0.8845977187156677
145,27331,27332,-0.006109514273703098,-0.11476865410804749,0.9895402789115906,-15.326642990112305,15.82970142364502,25.25185203552246,1.00344979763031,1.1084445714950562,0.1604919731616974,-1.4868930578231812,-0.625251054763794,1.1162105798721313
146,27341,27342,0.10781983286142349,-0.3106191158294678,1.0306187868118286,-13.060164451599121,6.860818862915039,21.380870819091797,1.0124493837356567,1.0934453010559082,0.16649167239665985,-1.4915715456008911,-0.5333940982818604,1.4236024618148804
147,27351,27352,-0.19593165814876556,-0.08035844564437866,1.0880539417266846,-8.004173278808594,-1.1516046524047852,18.060306549072266,0.9959501624107361,1.0949451923370361,0.1619918942451477,-1.515639066696167,-0.6307901740074158,1.6296851634979248
148,27361,27362,0.036640964448451996,-0.02246522344648838,1.0684183835983276,-5.117866039276123,-2.934635639190674,18.38772964477539,1.0109494924545288,1.0919454097747803,0.16799159348011017,-1.3520580530166626,-0.7198219895362854,1.818405032157898
149,27371,27372,0.08916126936674118,-0.201462522149086,0.949361264705658,0.6292867660522461,-11.974745750427246,20.613746643066406,1.004949688911438,1.0799460411071777,0.18299084901809692,-1.3925093412399292,-0.7883766293525696,1.9892174005508423
150,27381,27382,-0.0796554759144783,-0.013618974015116692,1.0273213386535645,2.522367000579834,-12.085575103759766,18.88590431213379,1.0274486541748047,1.0814459323883057,0.18449077010154724,-1.0985769033432007,-0.745207667350769,2.2084574699401855
151,27391,27392,-0.25586214661598206,0.015293609350919724,0.9200361371040344,1.4280003309249878,-7.713503837585449,16.20907974243164,1.0109494924545288,1.0799460411071777,0.1799909919500351,-1.044242262840271,-0.763441801071167,2.3778727054595947
152,27401,27402,-0.23699112236499786,0.11527641117572784,0.9053285121917725,-5.953215599060059,-6.276707172393799,14.425601959228516,1.0244487524032593,1.0814459323883057,0.18449077010154724,-0.9127500653266907,-0.7172291278839111,2.549896717071533
153,27411,27412,-0.23656368255615234,-0.05543283745646477,0.7418196797370911,-14.211736679077148,-2.564160108566284,10.08869743347168,1.0154491662979126,1.0814459323883057,0.17249137163162231,-0.8385170102119446,-0.9180319309234619,2.653489828109741
154,27421,27422,-0.28285834193229675,0.04788944870233536,0.7958883047103882,-13.581329345703125,-5.335709095001221,11.017377853393555,1.0154491662979126,1.0814459323883057,0.18749062716960907,-0.8270151019096375,-0.8302006721496582,2.8207762241363525
155,27431,27432,-0.12153621762990952,0.09064112603664398,0.9230241179466248,-8.240144729614258,-8.152229309082031,9.3231840133667,1.004949688911438,1.0829458236694336,0.17399129271507263,-0.7172876000404358,-0.9692495465278625,2.9260849952697754
156,27441,27442,-0.08461856842041016,0.09477502107620239,1.01094651222229,-0.4978930354118347,-4.719322681427002,13.44742488861084,1.0064496994018555,1.111444354057312,0.17849107086658478,-0.9009470343589783,-1.06541109085083,3.029663324356079
157,27451,27452,-0.015467018820345402,0.13688834011554718,1.0541815757751465,1.6383962631225586,-4.090301036834717,13.345516204833984,1.004949688911438,1.1039447784423828,0.18299084901809692,-0.7996984720230103,-1.1111770868301392,3.1510117053985596
158,27461,27462,-0.10199205577373505,0.09803951531648636,1.0281314849853516,-1.7350536584854126,-2.097794771194458,11.601284980773926,1.0019499063491821,1.0979450941085815,0.18599069118499756,-0.8541195392608643,-1.0895261764526367,3.2893359661102295
159,27471,27472,-0.09014671295881271,-0.07493516057729721,1.0298068523406982,-5.100013732910156,-8.670412063598633,10.730509757995605,0.9989500045776367,1.1039447784423828,0.17399129271507263,-0.8128252625465393,-1.1770124435424805,3.3872745037078857
160,27481,27482,-0.06700696796178818,-0.06386534869670868,1.065155029296875,-13.790719032287598,-20.778806686401367,8.834491729736328,1.0064496994018555,1.0904453992843628,0.17549122869968414,-0.8800446391105652,-1.1338534355163574,3.5339221954345703
161,27491,27492,-0.032645706087350845,-0.1156117171049118,0.8811453580856323,-18.121471405029297,-28.31498908996582,9.214570045471191,1.0139492750167847,1.085945725440979,0.18299084901809692,-0.6712691187858582,-1.4265984296798706,3.5880706310272217
162,27501,27502,-0.11050624400377274,0.05989321321249008,1.113391637802124,-19.583393096923828,-33.66856002807617,8.759431838989258,1.033448338508606,1.0814459323883057,0.18749062716960907,-0.5728054642677307,-1.489235520362854,3.7377426624298096
163,27511,27512,0.029386617243289948,-0.13710500299930573,1.0536019802093506,-18.692569732666016,-28.884986877441406,9.634202003479004,1.018449068069458,1.087445616722107,0.17249137163162231,-0.2563614249229431,-1.8127747774124146,3.798067331314087
164,27521,27522,0.038716331124305725,-0.10335175693035126,1.0798064470291138,-11.116162300109863,-24.994346618652344,10.851968765258789,1.0304484367370605,1.0904453992843628,0.18449077010154724,0.016458652913570404,-1.925437092781067,3.9202842712402344
165,27531,27532,0.014504412189126015,-0.006745979189872742,1.0772560834884644,-4.344628810882568,-15.135087013244629,11.653399467468262,1.0244487524032593,1.0904453992843628,0.17549122869968414,0.366379052400589,-2.0355448722839355,4.016689777374268
166,27541,27542,0.08706427365541458,-0.09716301411390305,1.1304012537002563,-7.842312812805176,6.404712200164795,11.5711669921875,1.0379481315612793,1.1069446802139282,0.19199039041996002,0.2800793945789337,-2.0879881381988525,4.165658473968506
167,27551,27552,0.1831740289926529,-0.3641151487827301,1.2346832752227783,-8.054871559143066,19.858184814453125,12.992785453796387,1.0274486541748047,1.0934453010559082,0.17249137163162231,0.12436307966709137,-2.2354018688201904,4.273388385772705
168,27561,27562,-0.031744156032800674,-0.13081680238246918,1.0183601379394531,-7.512024402618408,19.973758697509766,14.189949035644531,1.0214488506317139,1.1024448871612549,0.17849107086658478,-0.3636246621608734,-2.252302885055542,4.463469982147217
169,27571,27572,-0.057346586138010025,0.03359375521540642,1.0246132612228394,-1.7912824153900146,6.293147087097168,13.965510368347168,1.0304484367370605,1.087445616722107,0.1814909279346466,-0.2971022427082062,-2.2376198768615723,4.563962459564209
170,27581,27582,-0.10341975837945938,0.06329141557216644,1.0408753156661987,6.506218910217285,-16.431072235107422,12.155951499938965,1.0349482297897339,1.073946237564087,0.1889905482530594,-0.3209288716316223,-2.2680013179779053,4.695129871368408
171,27591,27592,-0.21770663559436798,0.12765994668006897,1.0440318584442139,15.031817436218262,-35.89706802368164,11.415940284729004,1.0259486436843872,1.073946237564087,0.1799909919500351,-0.07500416040420532,-2.175560235977173,4.814842224121094
172,27601,27602,-0.028785696253180504,0.05261427164077759,1.0550163984298706,23.261154174804688,-47.02589797973633,12.488127708435059,1.0289485454559326,1.0679465532302856,0.17699114978313446,0.1773146092891693,-1.9281247854232788,4.986412525177002
173,27611,27612,-0.060930997133255005,0.02852815017104149,1.0126533508300781,20.442228317260742,-47.7182502746582,13.318439483642578,1.0259486436843872,1.073946237564087,0.17699114978313446,0.8022792339324951,-1.7126859426498413,5.087020397186279
174,27621,27622,-0.028011590242385864,-0.08064132183790207,1.019073486328125,6.009772300720215,-43.54453659057617,12.112071990966797,1.042447805404663,1.0664466619491577,0.17549122869968414,1.046491026878357,-1.6469119787216187,5.270396709442139
175,27631,27632,0.010887344367802143,-0.07795513421297073,0.9475208520889282,-10.541333198547363,-41.75425338745117,8.880732536315918,1.0379481315612793,1.0529472827911377,0.18599069118499756,1.725383996963501,-1.572468876838684,5.3431525230407715
176,27641,27642,0.04204585403203964,-0.13397067785263062,0.8450793623924255,-28.37689208984375,-39.38947296142578,-0.12031900882720947,1.0499475002288818,1.0589470863342285,0.1889905482530594,2.0499322414398193,-1.7406599521636963,5.456872940063477
177,27651,27652,-0.07756300270557404,-0.08729793131351471,1.080176830291748,-35.26048278808594,-36.89433288574219,-5.703519344329834,1.0544472932815552,1.0664466619491577,0.18749062716960907,2.632673740386963,-2.218501567840576,5.403022766113281
178,27661,27662,-0.08428038656711578,-0.22720691561698914,0.8734986782073975,-30.090349197387695,-29.97237205505371,-10.879317283630371,1.0589470863342285,1.073946237564087,0.18299084901809692,2.956801414489746,-2.3438098430633545,5.374129772186279
179,27671,27672,-0.14897416532039642,-0.03474319726228714,0.677695631980896,-10.758321762084961,-18.850299835205078,-14.08431625366211,1.042447805404663,1.072446346282959,0.18749062716960907,3.2840046882629395,-2.708174228668213,5.2750983238220215
180,27681,27682,-0.19402693212032318,0.11694906651973724,0.6450344324111938,13.76794719696045,-6.316271781921387,-15.512786865234375,1.0454477071762085,1.0904453992843628,0.18449077010154724,3.5695090293884277,-2.7217235565185547,5.125162124633789
181,27691,27692,-0.23406976461410522,0.16321790218353271,0.7490366697311401,33.408973693847656,9.87387752532959,-19.080732345581055,1.0439478158950806,1.0949451923370361,0.20098994672298431,3.6585655212402344,-2.460273027420044,4.9509077072143555
182,27701,27702,-0.18094909191131592,0.06704902648925781,0.9443079233169556,54.07773971557617,24.426753997802734,-20.26300621032715,1.0274486541748047,1.0994449853897095,0.18449077010154724,3.4996705055236816,-2.070885181427002,4.770323753356934
183,27711,27712,-0.20602929592132568,-0.13457414507865906,0.9163895845413208,63.5653190612793,35.7064208984375,-25.28486442565918,1.0289485454559326,1.1189440488815308,0.1889905482530594,3.14241886138916,-1.611102819442749,4.593111991882324
184,27721,27722,-0.20963911712169647,0.024577347561717033,1.0894056558609009,62.873008728027344,33.14748764038086,-27.789945602416992,1.0289485454559326,1.1189440488815308,0.1889905482530594,2.737398862838745,-1.0351817607879639,4.360062122344971
185,27731,27732,-0.157108873128891,-0.10484354943037033,1.0671617984771729,51.29411697387695,25.476205825805664,-25.36631202697754,1.033448338508606,1.1144442558288574,0.20248986780643463,2.37872052192688,-0.2202250063419342,4.041996479034424
186,27741,27742,-0.028491493314504623,-0.15881112217903137,1.1034516096115112,29.653854370117188,15.17866325378418,-24.197628021240234,1.01694917678833,1.1189440488815308,0.19799008965492249,2.160876750946045,0.16373677551746368,3.810748338699341
187,27751,27752,-0.030283087864518166,-0.005001134239137173,1.0695371627807617,4.756553649902344,2.02748441696167,-22.071048736572266,1.01694917678833,1.1189440488815308,0.1889905482530594,2.163130283355713,0.3926883339881897,3.5470328330993652
188,27761,27762,-0.07067582756280899,-0.06877445429563522,1.0839154720306396,-9.442353248596191,-9.022905349731445,-16.995569229125977,1.0244487524032593,1.1024448871612549,0.19649016857147217,2.1731839179992676,0.4510011672973633,3.3237266540527344
189,27771,27772,-0.10616365075111389,-0.08005978912115097,1.0835515260696411,-10.604939460754395,-13.678566932678223,-12.163627624511719,1.0079495906829834,1.0949451923370361,0.19199039041996002,2.201564311981201,0.3154340088367462,3.1860594749450684
190,27781,27782,-0.12224946916103363,-0.014234142377972603,1.0558217763900757,-7.344355583190918,-10.829057693481445,-5.591554164886475,1.0289485454559326,1.0979450941085815,0.19199039041996002,2.3132286071777344,0.2213183343410492,3.0675933361053467
191,27791,27792,-0.09654372185468674,-0.14240702986717224,1.1066657304763794,2.25839900970459,-6.3895039558410645,3.359488010406494,1.0319483280181885,1.0979450941085815,0.17699114978313446,2.5050528049468994,0.22722245752811432,2.9875800609588623
192,27801,27802,-0.0762445405125618,-0.06979183852672577,1.1351115703582764,12.535684585571289,8.9073486328125,9.33819580078125,1.0244487524032593,1.0964452028274536,0.18749062716960907,2.59442138671875,0.3016214072704315,3.0094528198242188
193,27811,27812,-0.18753582239151,0.050348568707704544,1.0416816473007202,11.152918815612793,34.67882537841797,14.708052635192871,1.033448338508606,1.0814459323883057,0.18749062716960907,2.3486318588256836,0.36396610736846924,3.136381149291992
194,27821,27822,-0.10684799402952194,0.019771020859479904,1.0327643156051636,-1.3993579149246216,48.06621551513672,21.351547241210938,1.0379481315612793,1.0889455080032349,0.1889905482530594,1.8494458198547363,0.5164358019828796,3.290397882461548
195,27831,27832,0.04444574937224388,0.009104433469474316,1.027029275894165,-22.88589859008789,41.57301712036133,22.213207244873047,1.0289485454559326,1.0799460411071777,0.19799008965492249,1.436592698097229,0.4366183876991272,3.513516664505005
196,27841,27842,-0.06433504074811935,-0.017563719302415848,0.9954231977462769,-40.05318069458008,28.70655059814453,19.905324935913086,1.0244487524032593,1.087445616722107,0.1904904693365097,0.9463080167770386,0.0068497853353619576,3.7945587635040283
197,27851,27852,-0.06133698299527168,0.02057964913547039,1.015864610671997,-45.020694732666016,16.25269317626953,19.93156623840332,1.0274486541748047,1.0904453992843628,0.1904904693365097,0.7972270250320435,-0.37040841579437256,3.9805803298950195
198,27861,27862,-0.13796113431453705,0.029520967975258827,1.0951684713363647,-34.24766159057617,4.566078186035156,18.491804122924805,1.0124493837356567,1.0904453992843628,0.18449077010154724,0.5941019654273987,-1.0709871053695679,4.251911163330078
199,27871,27872,-0.5036735534667969,0.03639478608965874,1.0190985202789307,-17.283344268798828,-5.941139221191406,14.20975112915039,1.0229488611221313,1.0799460411071777,0.18599069118499756,0.7605805993080139,-1.145939588546753,4.351088523864746
200,27881,27882,-0.5065645575523376,0.014315417967736721,0.8780409693717957,6.327457427978516,-11.590031623840332,14.575053215026855,1.0154491662979126,1.0694465637207031,0.18749062716960907,0.8950836658477783,-1.2622239589691162,4.487311363220215
201,27891,27892,-0.1660403162240982,-0.23275592923164368,0.715536892414093,22.43459701538086,-11.753636360168457,13.673823356628418,1.0139492750167847,1.0829458236694336,0.1889905482530594,1.0556223392486572,-1.0319406986236572,4.600464344024658
202,27901,27902,-0.10031192749738693,-0.11849434673786163,0.9423552751541138,29.284626007080078,-10.671003341674805,12.865781784057617,1.0139492750167847,1.0889455080032349,0.17699114978313446,1.1508508920669556,-0.7687174677848816,4.732489585876465
203,27911,27912,-0.22402727603912354,0.07398509979248047,0.721813976764679,26.029441833496094,-7.397596836090088,13.753671646118164,1.0244487524032593,1.0904453992843628,0.1904904693365097,1.3331148624420166,-0.45088690519332886,4.851212978363037
204,27921,27922,-0.1573755294084549,0.08095533400774002,0.9612696766853333,17.17557144165039,2.4529762268066406,12.129119873046875,1.0319483280181885,1.0769461393356323,0.17699114978313446,1.4154052734375,-0.2646872401237488,4.9962687492370605
205,27931,27932,-0.14543241262435913,-0.0341700054705143,0.9736363887786865,9.96679973602295,22.312824249267578,10.521846771240234,1.018449068069458,1.0904453992843628,0.1814909279346466,1.3630815744400024,-0.16419555246829987,5.125452518463135
206,27941,27942,-0.15586677193641663,-0.1955428421497345,0.9440392255783081,9.325505256652832,36.691986083984375,10.870270729064941,1.0109494924545288,1.0769461393356323,0.18599069118499756,0.9598994851112366,0.006280676461756229,5.2190985679626465
207,27951,27952,-0.12356191873550415,-0.024202335625886917,1.0262682437896729,8.01716136932373,49.31120681762695,10.501294136047363,1.0154491662979126,1.0934453010559082,0.17249137163162231,0.43205782771110535,-0.046180859208106995,5.355498790740967
208,27961,27962,-0.15765897929668427,-0.06990302354097366,0.9379875063896179,9.019867897033691,50.94035339355469,11.57768440246582,1.0094494819641113,1.1054446697235107,0.17849107086658478,-0.07986718416213989,0.13796472549438477,5.445592880249023
209,27971,27972,-0.1140788123011589,-0.10509489476680756,0.8151986002922058,3.8754165172576904,45.83621597290039,11.910755157470703,1.004949688911438,1.0919454097747803,0.1889905482530594,-0.27553731203079224,0.17023348808288574,5.568374156951904
210,27981,27982,-0.05404346436262131,-0.0025001494213938713,0.9903848767280579,6.303981781005859,32.17962646484375,12.142666816711426,1.0244487524032593,1.072446346282959,0.16949152946472168,-0.9372345805168152,0.1903899759054184,5.6910505294799805
211,27991,27992,-0.0647520050406456,-0.03439059108495712,1.031685471534729,15.78288459777832,15.606001853942871,13.371025085449219,1.0064496994018555,1.0814459323883057,0.17549122869968414,-1.0684133768081665,0.278012216091156,5.815821647644043
212,28001,28002,-0.03670801594853401,-0.012938041239976883,1.0603538751602173,23.526792526245117,3.3737006187438965,13.377815246582031,1.018449068069458,1.0784460306167603,0.16649167239665985,-1.0257089138031006,0.6557046175003052,5.937952518463135
213,28011,28012,0.028527025133371353,-0.004577949643135071,1.0559799671173096,24.661405563354492,-8.26353645324707,12.610169410705566,1.018449068069458,1.0784460306167603,0.16649167239665985,-1.0695998668670654,0.9202753305435181,6.069600582122803
214,28021,28022,-0.19391348958015442,-0.06795916706323624,1.059876561164856,17.722251892089844,-12.900578498840332,11.01668930053711,1.0154491662979126,1.0664466619491577,0.17249137163162231,-0.9035677909851074,1.1696102619171143,6.198072910308838
215,28031,28032,-0.23382647335529327,-0.11378736048936844,0.9595409631729126,5.778141021728516,-9.379112243652344,10.280014991760254,1.0229488611221313,1.0589470863342285,0.1889905482530594,-0.7417581677436829,1.296809434890747,6.301358699798584
216,28041,28042,-0.0678606629371643,-0.04547054320573807,1.0159976482391357,-7.749035358428955,6.288131237030029,10.904223442077637,1.0274486541748047,1.0634467601776123,0.18449077010154724,-0.6910402178764343,1.3385577201843262,6.401331424713135
217,28051,28052,-0.01617627963423729,-0.17204420268535614,0.9597598314285278,-19.646223068237305,19.933761596679688,10.578402519226074,1.0094494819641113,1.057447075843811,0.16949152946472168,-0.8881435990333557,1.181810975074768,6.49484920501709
218,28061,28062,-0.05749010294675827,-0.2309255748987198,0.9838642477989197,-24.906919479370117,22.541118621826172,8.241650581359863,1.0124493837356567,1.0694465637207031,0.16649167239665985,-1.1804020404815674,0.8433752655982971,6.5781474113464355
219,28071,28072,-0.16194184124469757,-0.19737468659877777,0.9897470474243164,-18.39845848083496,12.54631519317627,7.863600730895996,1.0124493837356567,1.072446346282959,0.18749062716960907,-1.3524601459503174,0.6018683910369873,6.666152477264404
220,28081,28082,-0.07013032585382462,0.06655411422252655,1.1177693605422974,-18.46769905090332,-4.499386310577393,7.565596103668213,1.0229488611221313,1.0619468688964844,0.18299084901809692,-1.3890167474746704,0.458255410194397,6.7629852294921875
221,28091,28092,-0.19354040920734406,0.08945420384407043,0.7965876460075378,-19.88481903076172,-18.859004974365234,8.341487884521484,1.0109494924545288,1.0619468688964844,0.1799909919500351,-1.3119094371795654,0.36678609251976013,6.855921268463135
222,28101,28102,-0.052521903067827225,0.025176862254738808,0.969913899898529,-17.87368392944336,-19.700468063354492,9.1804780960083,1.01694917678833,1.0799460411071777,0.16799159348011017,-1.0359055995941162,0.035317376255989075,6.931399345397949
223,28111,28112,-0.03936305269598961,-0.0015939867589622736,1.1466690301895142,-14.492993354797363,-15.901189804077148,9.374981880187988,1.0019499063491821,1.073946237564087,0.1799909919500351,-0.9747157692909241,0.031206419691443443,7.035058498382568
224,28121,28122,-0.13179953396320343,-0.021868912503123283,0.9603630900382996,-10.94956111907959,-8.36058235168457,8.098986625671387,1.0289485454559326,1.0589470863342285,0.1889905482530594,-0.7674738168716431,0.005731967277824879,7.158134937286377
225,28131,28132,0.08847878873348236,-0.12153761833906174,1.048684000968933,-7.8897247314453125,-0.10330852121114731,6.876379013061523,1.0244487524032593,1.072446346282959,0.17849107086658478,-0.7433083057403564,-0.2365410476922989,7.200916290283203
226,28141,28142,-0.005808447487652302,0.014099061489105225,1.0357533693313599,-4.553928375244141,2.448540449142456,4.587909698486328,1.0259486436843872,1.0499475002288818,0.17399129271507263,-0.6408454775810242,-0.1396203488111496,7.316694736480713
227,28151,28152,-0.05932508781552315,-0.07741554826498032,0.9616275429725647,-4.180894374847412,5.030354976654053,1.283508062362671,1.033448338508606,1.0544472932815552,0.17249137163162231,-0.706945538520813,-0.21576952934265137,7.340205669403076
228,28161,28162,0.02100350148975849,0.001948655815795064,0.9521125555038452,-7.189698219299316,7.660663604736328,-1.7629503011703491,1.0244487524032593,1.0664466619491577,0.18749062716960907,-0.8244798183441162,-0.3773646354675293,7.312705993652344
229,28171,28172,-0.053844451904296875,0.03407560661435127,0.9912826418876648,-11.663562774658203,12.533171653747559,-3.4337520599365234,1.0124493837356567,1.0604469776153564,0.17549122869968414,-0.9959800243377686,-0.3827733099460602,7.297482967376709
230,28181,28182,-0.07865259796380997,0.02349160611629486,0.7295536398887634,-13.43361759185791,14.260119438171387,-3.6750242710113525,1.01694917678833,1.0649467706680298,0.17399129271507263,-1.2203537225723267,-0.584825336933136,7.231297492980957
231,28191,28192,-0.1587640643119812,0.06830126792192459,1.120938777923584,-13.398761749267578,19.38907241821289,-5.71312952041626,1.0274486541748047,1.0664466619491577,0.17549122869968414,-1.2880171537399292,-0.8159781098365784,7.181813716888428
232,28201,28202,-0.008725106716156006,-0.10745661705732346,1.0549798011779785,-4.765055179595947,22.377012252807617,-6.083754062652588,1.0154491662979126,1.0784460306167603,0.17549122869968414,-1.7538520097732544,-0.7939085364341736,7.131587028503418
233,28211,28212,-0.012361150234937668,-0.09368254244327545,1.0306735038757324,3.618217706680298,26.885257720947266,-9.065248489379883,1.0139492750167847,1.070946455001831,0.17399129271507263,-2.0413992404937744,-0.8586930632591248,7.047668933868408
234,28221,28222,0.053565554320812225,0.044788844883441925,0.9187934994697571,8.017586708068848,23.93242073059082,-10.01144790649414,1.0094494819641113,1.0664466619491577,0.16649167239665985,-2.305828094482422,-0.7232115268707275,6.980074882507324
235,28231,28232,0.04369064047932625,0.05059751123189926,0.8877210021018982,8.499246597290039,13.312110900878906,-13.012921333312988,1.018449068069458,1.0784460306167603,0.1814909279346466,-2.5101242065429688,-0.6075021624565125,6.8886308670043945
236,28241,28242,0.006203797180205584,0.030821913853287697,0.9590083360671997,5.336319923400879,4.469966411590576,-15.795166015625,1.018449068069458,1.0664466619491577,0.16649167239665985,-2.6885628700256348,-0.5014946460723877,6.760254859924316
237,28251,28252,0.07938913255929947,-0.05807367339730263,0.9560624957084656,3.491156578063965,-6.990869045257568,-18.58004379272461,1.0094494819641113,1.072446346282959,0.1814909279346466,-2.6860034465789795,-0.42203909158706665,6.611049652099609
238,28261,28262,0.09124129265546799,-0.0780506506562233,0.9508375525474548,-0.9211533069610596,-20.89855194091797,-21.013341903686523,1.01694917678833,1.0799460411071777,0.18299084901809692,-2.4949452877044678,-0.470473051071167,6.399724006652832
239,28271,28272,-0.19424457848072052,0.13157899677753448,0.8457531332969666,-7.023756980895996,-28.42325782775879,-22.269023895263672,1.0154491662979126,1.0754462480545044,0.1814909279346466,-2.3319437503814697,-0.5241478681564331,6.184082984924316
240,28281,28282,-0.018677184358239174,0.012861252762377262,0.8749237656593323,-11.185598373413086,-33.26183319091797,-23.907371520996094,1.0109494924545288,1.073946237564087,0.170991450548172,-1.8892364501953125,-0.6748677492141724,5.9427008628845215
241,28291,28292,-0.05530822277069092,0.0070943208411335945,0.9710597991943359,-13.850926399230957,-31.685815811157227,-26.410987854003906,1.018449068069458,1.0754462480545044,0.17549122869968414,-1.6785439252853394,-0.8714426755905151,5.669703483581543
242,28301,28302,-0.10499695688486099,0.08441698551177979,1.0392290353775024,-13.105317115783691,-27.06052589416504,-26.254497528076172,1.0214488506317139,1.0784460306167603,0.18449077010154724,-1.2781879901885986,-1.0265283584594727,5.40802001953125
243,28311,28312,0.02996167354285717,-0.12682192027568817,1.0831618309020996,-7.815927028656006,-18.147626876831055,-27.78055191040039,1.0124493837356567,1.0694465637207031,0.18449077010154724,-0.8168695569038391,-1.2200020551681519,5.121284008026123
244,28321,28322,0.04721539467573166,-0.036945100873708725,1.0358327627182007,-0.7325665354728699,-9.936019897460938,-27.749876022338867,1.0319483280181885,1.0769461393356323,0.1799909919500351,-1.2047092914581299,-1.2598035335540771,4.863775730133057
245,28331,28332,0.0010054128943011165,-0.11962708085775375,0.9795884490013123,12.181838035583496,-5.073762893676758,-28.133935928344727,1.0289485454559326,1.073946237564087,0.18599069118499756,-1.056777834892273,-1.2165149450302124,4.596502780914307
246,28341,28342,0.1624111831188202,-0.3401011526584625,1.0157097578048706,22.48224639892578,-5.363533973693848,-30.111492156982422,1.0244487524032593,1.0844457149505615,0.18449077010154724,-1.0952290296554565,-1.0513821840286255,4.329126358032227
247,28351,28352,0.12230603396892548,-0.00807386264204979,1.1926591396331787,26.397579193115234,-11.303062438964844,-31.36421012878418,1.0259486436843872,1.073946237564087,0.1799909919500351,-1.054120421409607,-0.888133704662323,4.011687278747559
248,28361,28362,0.020556986331939697,-0.053436197340488434,1.0661691427230835,28.077198028564453,-9.457764625549316,-34.46693420410156,1.0289485454559326,1.0769461393356323,0.20098994672298431,-0.8152722120285034,-0.5168485641479492,3.7324280738830566
249,28371,28372,0.14942418038845062,-0.14839303493499756,0.882243812084198,28.6796817779541,-3.1553807258605957,-38.482364654541016,1.0364481210708618,1.0694465637207031,0.18749062716960907,-0.6094692945480347,-0.1863386183977127,3.3961780071258545
250,28381,28382,0.00701936474069953,-0.01990954764187336,1.0283772945404053,25.428674697875977,-4.521962642669678,-38.38017654418945,1.0244487524032593,1.0814459323883057,0.1904904693365097,-0.48922786116600037,-0.0052750748582184315,2.9728469848632812
251,28391,28392,-0.11213606595993042,0.059054985642433167,0.9398897886276245,18.724767684936523,-2.973004102706909,-37.454627990722656,1.0229488611221313,1.0679465532302856,0.19199039041996002,-0.8677330017089844,0.11939631402492523,2.573504686355591
252,28401,28402,-0.16529011726379395,0.13697516918182373,0.9770040512084961,5.441164016723633,0.48538365960121155,-35.68208694458008,1.0214488506317139,1.072446346282959,0.18749062716960907,-0.7733214497566223,0.1971212923526764,2.1684072017669678
253,28411,28412,-0.0759984627366066,-0.29945510625839233,1.0689183473587036,-5.860180377960205,-2.9649136066436768,-34.5109977722168,1.0139492750167847,1.0829458236694336,0.19199039041996002,-0.8443134427070618,0.205009326338768,1.8081774711608887
254,28421,28422,0.02671576850116253,-0.582135796546936,0.9809803366661072,-9.116716384887695,-15.982787132263184,-33.70569610595703,1.00344979763031,1.0784460306167603,0.18449077010154724,-0.7617033123970032,0.1262502670288086,1.4588850736618042
255,28431,28432,0.16057121753692627,-0.295846164226532,0.9755143523216248,-5.3153581619262695,-31.374542236328125,-34.146060943603516,1.019948959350586,1.0919454097747803,0.19799008965492249,-0.45355024933815,0.011296615935862064,1.1109416484832764
256,28441,28442,0.2285308986902237,-0.08214493095874786,0.9037104249000549,1.6691815853118896,-36.041847229003906,-33.6303596496582,1.0094494819641113,1.0964452028274536,0.1814909279346466,-0.2777418792247772,-0.027688205242156982,0.7743812203407288
257,28451,28452,0.10817744582891464,0.024222776293754578,0.8978747129440308,10.890035629272461,-29.20384979248047,-31.213462829589844,1.0139492750167847,1.0979450941085815,0.1889905482530594,-0.17420461773872375,0.1250002235174179,0.4768836796283722
258,28461,28462,-0.023702574893832207,-0.044594790786504745,0.9021895527839661,11.29893684387207,-15.253071784973145,-29.122812271118164,1.0244487524032593,1.0934453010559082,0.18449077010154724,0.2425111085176468,0.2585581839084625,0.17092613875865936
259,28471,28472,0.0731460377573967,-0.14470632374286652,0.9998592138290405,6.212758541107178,-3.3815810680389404,-26.612686157226562,1.0109494924545288,1.0919454097747803,0.1889905482530594,0.5614692568778992,0.3156542479991913,-0.13128015398979187
260,28481,28482,-0.1392906904220581,-0.10489905625581741,1.032596468925476,0.860741138458252,5.980337619781494,-25.656448364257812,1.0274486541748047,1.0814459323883057,0.19349032640457153,0.5316565632820129,0.2882925271987915,-0.4180424213409424
261,28491,28492,-0.05193639174103737,0.09755764156579971,1.0294770002365112,-1.1279658079147339,12.826732635498047,-22.197193145751953,1.0214488506317139,1.0844457149505615,0.18749062716960907,0.21231117844581604,0.3337154686450958,-0.6667645573616028
262,28501,28502,-0.026182573288679123,-0.02944084070622921,1.0462548732757568,6.226384162902832,8.842292785644531,-20.752643585205078,1.0124493837356567,1.0964452028274536,0.1904904693365097,-0.03248513489961624,0.36391404271125793,-0.8864047527313232
263,28511,28512,-0.07070816308259964,-0.022389736026525497,1.0267269611358643,14.023335456848145,-3.732088088989258,-17.612154006958008,1.0229488611221313,1.1039447784423828,0.18299084901809692,-0.10628237575292587,0.5162963271141052,-1.0780619382858276
264,28521,28522,0.02794707380235195,-0.05781766399741173,0.9377731084823608,16.84309196472168,-21.217321395874023,-17.407272338867188,1.0229488611221313,1.1039447784423828,0.1889905482530594,0.11343113332986832,0.7082080841064453,-1.2412769794464111
265,28531,28532,-0.009600873105227947,0.1602747142314911,1.00965416431427,11.618731498718262,-30.872356414794922,-17.438676834106445,1.0154491662979126,1.111444354057312,0.18749062716960907,0.2873227596282959,0.9204489588737488,-1.4140620231628418
266,28541,28542,-0.09942444413900375,0.14390739798545837,1.1847172975540161,3.3992185592651367,-33.63459396362305,-16.980154037475586,1.01694917678833,1.0949451923370361,0.19199039041996002,0.8870022296905518,0.9577825665473938,-1.5828163623809814
267,28551,28552,-0.043854162096977234,-0.03604215011000633,0.9866998791694641,-6.969441890716553,-29.33034324645996,-17.789297103881836,1.018449068069458,1.0904453992843628,0.17549122869968414,0.9981673955917358,0.8685669898986816,-1.7829468250274658
268,28561,28562,-0.03442361205816269,-0.053357288241386414,0.9993769526481628,-15.80996322631836,-24.13608169555664,-16.17084503173828,1.0319483280181885,1.0979450941085815,0.1889905482530594,1.2508822679519653,0.7434948086738586,-1.9645394086837769
269,28571,28572,-0.06254445761442184,0.01689799316227436,1.1232043504714966,-18.511180877685547,-19.999351501464844,-16.402828216552734,1.0274486541748047,1.0964452028274536,0.18749062716960907,1.4366557598114014,0.6405984163284302,-2.133009433746338
270,28581,28582,-0.05982759967446327,0.0046006240881979465,1.0743205547332764,-14.960404396057129,-14.7686128616333,-14.556346893310547,1.0364481210708618,1.111444354057312,0.18749062716960907,1.767175316810608,0.37369635701179504,-2.281919002532959
271,28591,28592,-0.10789796710014343,0.10285704582929611,1.0564342737197876,-4.89603853225708,-10.491711616516113,-13.688736915588379,1.0304484367370605,1.0994449853897095,0.18449077010154724,1.7907878160476685,0.262470543384552,-2.4418880939483643
272,28601,28602,-0.20095928013324738,-0.03903700038790703,0.9769124388694763,7.787180423736572,-7.195772171020508,-11.786880493164062,1.0304484367370605,1.0994449853897095,0.199490025639534,2.035829782485962,0.31703871488571167,-2.5672261714935303
273,28611,28612,-0.07319130748510361,-0.1305447816848755,1.0347532033920288,18.157085418701172,4.426690578460693,-11.917441368103027,1.0259486436843872,1.0949451923370361,0.1799909919500351,1.6929948329925537,0.5107852220535278,-2.7386858463287354
274,28621,28622,-8.689433161634952e-05,-0.04347389563918114,1.0467326641082764,25.87126922607422,7.995706081390381,-11.686294555664062,1.0319483280181885,1.1069446802139282,0.18599069118499756,1.7044241428375244,0.710388720035553,-2.8513200283050537
275,28631,28632,-0.09485971927642822,-0.0672057643532753,1.086670994758606,28.298320770263672,6.540650367736816,-10.267199516296387,1.0364481210708618,1.0964452028274536,0.1904904693365097,1.5277096033096313,0.8809719681739807,-2.965416669845581
276,28641,28642,-0.00990378763526678,-0.01816142536699772,1.0843154191970825,25.695762634277344,4.601539134979248,-9.258872032165527,1.0319483280181885,1.1039447784423828,0.18299084901809692,1.5183196067810059,1.2174370288848877,-3.068392515182495
277,28651,28652,-0.016861572861671448,-0.002997669856995344,1.0589519739151,19.714216232299805,-0.9500226378440857,-8.939667701721191,1.0274486541748047,1.0814459323883057,0.18749062716960907,1.5523391962051392,1.4962489604949951,-3.1573901176452637
278,28661,28662,0.0059296987019479275,0.0007693251245655119,1.092411994934082,8.376907348632812,-4.951440334320068,-5.778405666351318,1.0364481210708618,1.0814459323883057,0.19349032640457153,1.5167195796966553,1.6577861309051514,-3.242475748062134
279,28671,28672,-0.06535212695598602,-0.0428936704993248,1.0433452129364014,-4.488094806671143,-6.708792686462402,-5.60243558883667,1.0349482297897339,1.0949451923370361,0.20398980379104614,1.542905569076538,1.6777654886245728,-3.3013336658477783
280,28681,28682,-0.028426378965377808,-0.09195706248283386,0.960227906703949,-12.118109703063965,-5.221499443054199,-4.528643608093262,1.0289485454559326,1.0829458236694336,0.18599069118499756,1.7332204580307007,1.5857454538345337,-3.3289742469787598
281,28691,28692,-0.01324046403169632,-0.15886692702770233,1.0293171405792236,-13.91157054901123,-4.5663323402404785,-4.879559516906738,1.0349482297897339,1.0919454097747803,0.1889905482530594,1.887032151222229,1.3935707807540894,-3.340395450592041
282,28701,28702,-0.0958559438586235,-0.07574580609798431,1.029175043106079,-11.652050018310547,-3.6204833984375,-5.397607803344727,1.0304484367370605,1.0934453010559082,0.18749062716960907,1.87265145778656,1.186385154724121,-3.3851065635681152
283,28711,28712,-0.014991230331361294,-0.054321978241205215,0.9762520790100098,-3.6248934268951416,-3.0261847972869873,-5.707104682922363,1.033448338508606,1.0964452028274536,0.18749062716960907,1.4982141256332397,1.1868292093276978,-3.547161340713501
284,28721,28722,-0.04518657922744751,0.039711471647024155,1.1321985721588135,7.087613105773926,-4.195198059082031,-5.011352062225342,1.0274486541748047,1.0904453992843628,0.1814909279346466,1.5693508386611938,1.1739612817764282,-3.596126079559326
285,28731,28732,-0.08449632674455643,-0.15489403903484344,1.0451633930206299,17.98309326171875,-8.249277114868164,-2.8127641677856445,1.0454477071762085,1.087445616722107,0.18749062716960907,1.735361099243164,1.269152283668518,-3.616802215576172
286,28741,28742,0.012563047930598259,-0.04229460656642914,1.0342004299163818,22.358863830566406,-10.215450286865234,-0.7626965641975403,1.0349482297897339,1.0889455080032349,0.19199039041996002,1.6718789339065552,1.5923523902893066,-3.7127723693847656
287,28751,28752,-0.1099909171462059,-0.07480554282665253,1.0611926317214966,18.050445556640625,-9.491341590881348,1.125035047531128,1.0319483280181885,1.085945725440979,0.18599069118499756,1.9228315353393555,1.8773198127746582,-3.7077014446258545
288,28761,28762,-0.10813376307487488,-0.09344669431447983,0.9854062795639038,6.052367210388184,-7.419261455535889,1.2409613132476807,1.0364481210708618,1.0964452028274536,0.1814909279346466,2.1405670642852783,2.1285228729248047,-3.697612762451172
289,28771,28772,-0.20589685440063477,0.04896523430943489,1.022421956062317,-8.560474395751953,-3.138828754425049,3.8397488594055176,1.0364481210708618,1.0964452028274536,0.1904904693365097,2.2378058433532715,2.166043281555176,-3.6730000972747803
290,28781,28782,-0.13738584518432617,-0.0986800566315651,0.9505283236503601,-26.5492000579834,10.311676025390625,2.354269504547119,1.0304484367370605,1.0934453010559082,0.18449077010154724,2.2275984287261963,1.9372658729553223,-3.608602523803711
291,28791,28792,0.07196501642465591,-0.15935753285884857,0.8752641677856445,-37.62960433959961,18.7645320892334,2.6664021015167236,1.0319483280181885,1.0979450941085815,0.19799008965492249,1.9600987434387207,1.523737907409668,-3.57962703704834
292,28801,28802,0.003942562732845545,-0.3296111822128296,0.9998308420181274,-38.003570556640625,16.366575241088867,4.36198091506958,1.033448338508606,1.0964452028274536,0.199490025639534,1.8123867511749268,1.1008141040802002,-3.51712703704834
293,28811,28812,-0.02162211760878563,-0.21957913041114807,1.095172643661499,-29.91924476623535,11.539658546447754,5.817674160003662,1.0214488506317139,1.0904453992843628,0.18749062716960907,1.1978874206542969,0.921399712562561,-3.661916971206665
294,28821,28822,0.13102595508098602,-0.2551157772541046,1.130386233329773,-20.015535354614258,3.892369508743286,5.829913139343262,1.0214488506317139,1.0994449853897095,0.18749062716960907,1.1161023378372192,0.5783677697181702,-3.576860189437866
295,28831,28832,0.0753905177116394,-0.11839859187602997,0.9671820998191833,-5.201537609100342,-13.890347480773926,6.287059307098389,1.0259486436843872,1.1129443645477295,0.18599069118499756,1.1234641075134277,0.41321149468421936,-3.5161049365997314
296,28841,28842,0.151132270693779,0.021977921947836876,1.0127067565917969,5.768252849578857,-27.305736541748047,7.400545120239258,1.0319483280181885,1.109944462776184,0.18299084901809692,1.4015108346939087,0.47931596636772156,-3.4534101486206055
297,28851,28852,0.0013257776154205203,-0.013704521581530571,1.0261437892913818,11.823323249816895,-36.59181594848633,6.310108184814453,1.0439478158950806,1.1009448766708374,0.1889905482530594,1.8104420900344849,0.5608563423156738,-3.3601267337799072
298,28861,28862,-0.037391070276498795,-0.17420516908168793,0.8952259421348572,11.312999725341797,-36.990779876708984,6.186804294586182,1.0379481315612793,1.0979450941085815,0.20398980379104614,2.1965811252593994,0.7245988845825195,-3.310253381729126
299,28871,28872,-0.07831922918558121,0.006702690850943327,1.0709558725357056,3.7005996704101562,-24.39472770690918,5.089392185211182,1.042447805404663,1.0904453992843628,0.1814909279346466,2.1832337379455566,0.7806459665298462,-3.317591905593872
300,28881,28882,0.06355448812246323,-0.21979328989982605,0.9840211272239685,-4.174722194671631,-9.817997932434082,4.00266170501709,1.0214488506317139,1.087445616722107,0.1904904693365097,2.6369388103485107,0.710174024105072,-3.1934571266174316
301,28891,28892,-0.14115837216377258,0.00986154843121767,1.110627293586731,-9.724699974060059,-7.38242769241333,2.9534096717834473,1.0274486541748047,1.1024448871612549,0.19349032640457153,2.6750736236572266,0.7400566935539246,-3.199153184890747
302,28901,28902,0.06584251672029495,-0.12076679617166519,0.9890317320823669,-7.847177505493164,4.194986820220947,5.3269734382629395,1.0379481315612793,1.0979450941085815,0.19199039041996002,2.776357650756836,0.6325297951698303,-3.153964042663574
303,28911,28912,0.10888180881738663,-0.09214988350868225,0.9044802784919739,-11.730569839477539,11.886567115783691,3.8327157497406006,1.0379481315612793,1.1039447784423828,0.20098994672298431,2.758636951446533,0.5952087640762329,-3.1153066158294678
304,28921,28922,-0.01983548142015934,-0.132216677069664,0.9247880578041077,-10.531693458557129,13.296784400939941,3.3459529876708984,1.0409479141235352,1.0919454097747803,0.20098994672298431,2.6037683486938477,0.4265165627002716,-3.061229705810547
305,28931,28932,-0.18256428837776184,-0.036562878638505936,1.0786360502243042,-6.653561115264893,15.475959777832031,3.3155548572540283,1.0274486541748047,1.1024448871612549,0.19649016857147217,2.4286060333251953,0.3724668025970459,-3.0505313873291016
306,28941,28942,-0.03480937331914902,0.024943672120571136,1.1081687211990356,-7.908150672912598,12.013092041015625,2.4523656368255615,1.0394480228424072,1.0964452028274536,0.19649016857147217,2.2535576820373535,0.28902214765548706,-3.016784906387329
307,28951,28952,-0.02766825258731842,0.0023316412698477507,0.8562154173851013,-11.612896919250488,7.9834184646606445,4.998966693878174,1.0289485454559326,1.0889455080032349,0.19199039041996002,2.1458723545074463,0.1929698884487152,-2.9771828651428223
308,28961,28962,-0.06736568361520767,0.020375654101371765,0.9984890222549438,-18.8792667388916,7.496306896209717,5.683919429779053,1.0439478158950806,1.0889455080032349,0.19199039041996002,2.0083067417144775,0.08029413223266602,-2.940316677093506
309,28971,28972,0.11778154224157333,-0.152715265750885,0.9612178802490234,-21.458810806274414,7.174880504608154,6.846743106842041,1.0244487524032593,1.087445616722107,0.18749062716960907,2.1478047370910645,0.004668340552598238,-2.8969874382019043
310,28981,28982,0.012393869459629059,-0.13229896128177643,1.0589845180511475,-21.749570846557617,5.349430561065674,7.662558555603027,1.0304484367370605,1.0934453010559082,0.1904904693365097,1.9908974170684814,-0.25854647159576416,-2.8226678371429443
311,28991,28992,0.09540760517120361,-0.0003372729988768697,1.1003793478012085,-17.628278732299805,6.334468841552734,8.237433433532715,1.0274486541748047,1.1024448871612549,0.19349032640457153,2.0065648555755615,-0.5063132643699646,-2.7216193675994873
312,29001,29002,-0.0911140963435173,0.07695537060499191,1.0561702251434326,-8.020625114440918,1.6241791248321533,9.74444580078125,1.033448338508606,1.0814459323883057,0.19349032640457153,2.0169239044189453,-0.6761800646781921,-2.6307809352874756
313,29011,29012,-0.2665720582008362,0.24406059086322784,1.1148028373718262,3.584033727645874,-0.055397678166627884,11.747543334960938,1.042447805404663,1.087445616722107,0.19349032640457153,2.0141284465789795,-0.6142911911010742,-2.580822467803955
314,29021,29022,-0.09988221526145935,-0.02952658385038376,0.9295033812522888,8.404525756835938,0.8684354424476624,10.136908531188965,1.0409479141235352,1.0919454097747803,0.18599069118499756,2.1094014644622803,-0.5975835919380188,-2.45393443107605
315,29031,29032,0.0002601559099275619,-0.0017614716198295355,1.0590271949768066,10.671793937683105,3.6014997959136963,12.806382179260254,1.0304484367370605,1.0784460306167603,0.18749062716960907,1.9774373769760132,-0.506184458732605,-2.354137897491455
316,29041,29042,0.10229134559631348,-0.25055980682373047,0.8599886298179626,5.132289886474609,11.722689628601074,11.932580947875977,1.0409479141235352,1.0829458236694336,0.1799909919500351,1.9179021120071411,-0.3989619314670563,-2.2315776348114014
317,29051,29052,0.1425309181213379,-0.060459982603788376,1.0683573484420776,-2.9844062328338623,14.51312255859375,11.091046333312988,1.0439478158950806,1.085945725440979,0.18299084901809692,1.813661813735962,-0.38459208607673645,-2.102536678314209
318,29061,29062,-0.03779355809092522,-0.028264405205845833,0.9926367998123169,-9.68920612335205,20.654661178588867,9.263816833496094,1.0499475002288818,1.0829458236694336,0.20098994672298431,1.6450269222259521,-0.3588815927505493,-2.0194942951202393
319,29071,29072,-0.03189195692539215,-0.046317167580127716,0.8129660487174988,-15.376057624816895,23.470836639404297,7.17042350769043,1.0454477071762085,1.0814459323883057,0.18449077010154724,1.3244435787200928,-0.583406925201416,-1.8895869255065918
320,29081,29082,-0.06283503770828247,-0.17537540197372437,0.7794744372367859,-18.144397735595703,18.313920974731445,7.35405158996582,1.0409479141235352,1.0829458236694336,0.18599069118499756,0.9699376225471497,-0.6140755414962769,-1.8578839302062988
321,29091,29092,-0.17753593623638153,-0.415596067905426,0.916831374168396,-18.461177825927734,11.574694633483887,6.370378017425537,1.0454477071762085,1.0844457149505615,0.19349032640457153,0.686657190322876,-0.7627009749412537,-1.7969955205917358
322,29101,29102,-0.02384481579065323,-0.18426083028316498,0.9332558512687683,-16.415313720703125,9.85283374786377,6.529545783996582,1.0469475984573364,1.070946455001831,0.1889905482530594,0.5872119069099426,-1.0445008277893066,-1.7104687690734863
323,29111,29112,-0.05840309336781502,-0.24345451593399048,0.7957736253738403,-12.163904190063477,2.377953290939331,5.41535758972168,1.0304484367370605,1.087445616722107,0.18749062716960907,0.5494735836982727,-1.207660436630249,-1.6527267694473267
324,29121,29122,-0.0057039107196033,-0.26243239641189575,0.8027055263519287,-7.127598285675049,-4.199165344238281,5.643345355987549,1.0409479141235352,1.0829458236694336,0.19199039041996002,0.6906021237373352,-1.3017089366912842,-1.6158971786499023
325,29131,29132,0.04239608719944954,-0.12326086312532425,0.9042229056358337,-7.793686866760254,-4.432277202606201,3.275778293609619,1.0379481315612793,1.0799460411071777,0.19199039041996002,0.6947374939918518,-1.3333028554916382,-1.5644406080245972
326,29141,29142,0.037187401205301285,-0.07857707887887955,0.8863130807876587,-5.771522045135498,-3.1705048084259033,1.3663201332092285,1.0229488611221313,1.0919454097747803,0.1799909919500351,0.7236339449882507,-1.491044044494629,-1.511843204498291
327,29151,29152,-0.055102378129959106,-0.2752205729484558,1.0602141618728638,-2.32470703125,-0.39971670508384705,1.5226455926895142,1.0289485454559326,1.0949451923370361,0.1799909919500351,0.6501839756965637,-1.4097700119018555,-1.508097767829895
328,29161,29162,0.17725369334220886,-0.36837640404701233,1.0685532093048096,1.588273286819458,6.244329452514648,0.1794898360967636,1.0259486436843872,1.1039447784423828,0.19199039041996002,0.6595545411109924,-1.4859040975570679,-1.4871498346328735
329,29171,29172,0.01747943088412285,-0.20420275628566742,0.8636176586151123,5.963008403778076,3.9096667766571045,-0.02071685530245304,1.0274486541748047,1.1204439401626587,0.19649016857147217,0.5887191295623779,-1.411995768547058,-1.489741563796997
330,29181,29182,0.03389812260866165,-0.11382219940423965,1.0135161876678467,3.5024492740631104,3.386009931564331,-0.4095037281513214,1.0229488611221313,1.1009448766708374,0.18599069118499756,0.5470656156539917,-1.3630396127700806,-1.489380121231079
331,29191,29192,-0.06902414560317993,0.013642937876284122,1.2227914333343506,-0.9055432677268982,6.904730796813965,-0.5885434746742249,1.0289485454559326,1.1009448766708374,0.19499024748802185,0.5006548166275024,-1.2863242626190186,-1.4985437393188477
332,29201,29202,-0.05925280973315239,-0.26400843262672424,0.8741427659988403,-3.5855605602264404,9.096548080444336,-0.8947402238845825,1.0409479141235352,1.0949451923370361,0.18599069118499756,0.5504671931266785,-1.279337763786316,-1.5367350578308105
333,29211,29212,0.08605919033288956,-0.1856885552406311,0.8294546604156494,-4.332931995391846,5.62371826171875,-1.0374560356140137,1.033448338508606,1.0994449853897095,0.1904904693365097,0.36904090642929077,-1.3848423957824707,-1.5218137502670288
334,29221,29222,-0.010350934229791164,-0.10533203929662704,0.8815371990203857,-4.474804878234863,3.1672332286834717,-1.0686562061309814,1.0259486436843872,1.0949451923370361,0.18599069118499756,0.22967806458473206,-1.497680902481079,-1.5078991651535034
335,29231,29232,-0.03396608307957649,-0.07821588963270187,1.000352144241333,-4.014312267303467,7.33847188949585,-0.6168937683105469,1.019948959350586,1.0949451923370361,0.19499024748802185,0.2081119418144226,-1.3812322616577148,-1.5282913446426392
336,29241,29242,-0.15657588839530945,-0.03419644385576248,1.0414862632751465,-1.3847078084945679,-1.5241276025772095,-1.2081315517425537,1.0229488611221313,1.1069446802139282,0.18299084901809692,0.18515925109386444,-1.4640969038009644,-1.5403022766113281
337,29251,29252,0.0459754504263401,-0.1822301149368286,0.9237980842590332,1.3804669380187988,-4.2900309562683105,-1.43702232837677,1.0349482297897339,1.1159441471099854,0.18599069118499756,0.24574629962444305,-1.5105459690093994,-1.561305284500122
338,29261,29262,-0.08883072435855865,-0.13657626509666443,0.8804559707641602,4.622217178344727,-5.447813510894775,-0.5836309194564819,1.018449068069458,1.1144442558288574,0.17849107086658478,0.33263257145881653,-1.511612892150879,-1.5856949090957642
339,29271,29272,-0.04484099894762039,0.040286727249622345,1.0733156204223633,7.7672119140625,-4.889762878417969,-2.320607900619507,1.0079495906829834,1.0979450941085815,0.18299084901809692,0.4274701178073883,-1.379947543144226,-1.6045217514038086
340,29281,29282,0.009500105865299702,-0.05373562499880791,0.9794656038284302,10.213505744934082,-2.809300422668457,-1.2030682563781738,1.0274486541748047,1.1054446697235107,0.1814909279346466,0.5088711380958557,-1.2725164890289307,-1.6281592845916748
341,29291,29292,-0.040238428860902786,0.0038177892565727234,1.023737907409668,7.91154146194458,-0.8349202275276184,-0.8798825740814209,1.0319483280181885,1.1069446802139282,0.19199039041996002,0.5603866577148438,-1.1472774744033813,-1.6445271968841553
342,29301,29302,-0.01165230106562376,-0.02613961137831211,1.0222164392471313,4.439676284790039,-0.6803264617919922,-0.1205175369977951,1.0364481210708618,1.1054446697235107,0.19349032640457153,0.5870382189750671,-1.0597869157791138,-1.6540637016296387
343,29311,29312,-0.00867354217916727,-0.07135099172592163,0.9514216780662537,0.279828816652298,1.7058659791946411,0.8440563678741455,1.0259486436843872,1.1009448766708374,0.18299084901809692,0.5308064818382263,-1.0993238687515259,-1.6358838081359863
344,29321,29322,0.08623138815164566,-0.04152292385697365,0.9299488663673401,-8.610947608947754,9.835944175720215,-0.5719706416130066,1.0274486541748047,1.0964452028274536,0.17849107086658478,0.348035603761673,-1.1436032056808472,-1.5926676988601685
345,29331,29332,0.01617095060646534,-0.016022033989429474,0.9668585658073425,-10.41287899017334,5.960319995880127,1.4333066940307617,1.0229488611221313,1.1069446802139282,0.17699114978313446,0.23769626021385193,-1.2996983528137207,-1.5887765884399414
346,29341,29342,0.049320075660943985,-0.19138748943805695,0.9033879041671753,-11.060771942138672,9.644527435302734,1.4939740896224976,1.0229488611221313,1.109944462776184,0.17699114978313446,0.23236820101737976,-1.416028380393982,-1.5868213176727295
347,29351,29352,-0.0002356894692638889,-0.050468336790800095,1.0285860300064087,-9.772796630859375,4.706648826599121,2.1916446685791016,1.0154491662979126,1.0934453010559082,0.18449077010154724,0.13305151462554932,-1.529037356376648,-1.5664006471633911
348,29361,29362,0.02489381656050682,-0.1944037228822708,1.0092049837112427,-5.820403575897217,2.9743621349334717,3.076350688934326,1.019948959350586,1.1159441471099854,0.19199039041996002,0.08454637229442596,-1.6088006496429443,-1.5433892011642456
349,29371,29372,-0.07589943706989288,-0.0633062869310379,1.0087658166885376,-2.996561050415039,1.7540924549102783,2.7512240409851074,1.0229488611221313,1.109944462776184,0.19499024748802185,0.12780515849590302,-1.6380654573440552,-1.5322481393814087
350,29381,29382,-0.004139820113778114,0.034362781792879105,1.0534310340881348,1.4382573366165161,0.9251186847686768,3.9555978775024414,1.0409479141235352,1.1039447784423828,0.19499024748802185,0.11433712393045425,-1.6844011545181274,-1.5079834461212158
351,29391,29392,0.049923621118068695,-8.02230424596928e-05,1.0088825225830078,6.871670722961426,-0.014449160546064377,3.944423198699951,1.0349482297897339,1.0979450941085815,0.18299084901809692,0.11033719033002853,-1.6466515064239502,-1.4701147079467773
352,29401,29402,0.04794163629412651,0.022158553823828697,0.8936517238616943,6.446395397186279,4.508351802825928,3.5256879329681396,1.0259486436843872,1.0889455080032349,0.1889905482530594,0.11475448310375214,-1.5356638431549072,-1.4305952787399292
353,29411,29412,-0.06079095974564552,-0.23802202939987183,0.8852770328521729,7.019891738891602,-2.92993426322937,3.3796122074127197,1.0454477071762085,1.1054446697235107,0.1904904693365097,0.09546598792076111,-1.4942256212234497,-1.4035438299179077
354,29421,29422,0.012618412263691425,-0.13464012742042542,1.0543432235717773,3.169696092605591,-2.6904189586639404,1.5714058876037598,1.0364481210708618,1.087445616722107,0.20248986780643463,0.004756448790431023,-1.3914836645126343,-1.3403393030166626
355,29431,29432,-0.04243229329586029,-0.022196421399712563,1.007513165473938,0.6782037019729614,-3.0677504539489746,1.483044147491455,1.0274486541748047,1.0934453010559082,0.1904904693365097,0.0676049143075943,-1.4199966192245483,-1.3385310173034668
356,29441,29442,0.12777061760425568,-0.12934811413288116,1.072298526763916,-2.205024242401123,1.654853105545044,0.827028214931488,1.0304484367370605,1.0964452028274536,0.18449077010154724,0.07038157433271408,-1.4149245023727417,-1.314575433731079
357,29451,29452,0.0371096096932888,-0.05338180810213089,1.0408741235733032,0.6319345831871033,-6.374623775482178,-0.46825841069221497,1.0379481315612793,1.1009448766708374,0.19799008965492249,0.05500689521431923,-1.4370970726013184,-1.3032491207122803
358,29461,29462,-0.08272623270750046,0.01443870272487402,0.9884681701660156,3.7175211906433105,-7.724715232849121,0.741089940071106,1.033448338508606,1.1024448871612549,0.18449077010154724,0.18925416469573975,-1.4104292392730713,-1.3195364475250244
359,29471,29472,0.009324796497821808,-0.038535211235284805,0.9437714219093323,7.5603108406066895,-8.481424331665039,0.45146486163139343,1.0259486436843872,1.0979450941085815,0.1889905482530594,0.19204632937908173,-1.4002444744110107,-1.3014535903930664
360,29481,29482,0.04856867343187332,-0.1446208953857422,0.9465486407279968,10.480711936950684,-4.563042640686035,-1.2149497270584106,1.0274486541748047,1.1054446697235107,0.17849107086658478,0.26786696910858154,-1.3218590021133423,-1.2988240718841553
361,29491,29492,-0.021525006741285324,-0.06491419672966003,1.0108157396316528,15.145096778869629,-8.964670181274414,-2.735578775405884,1.0259486436843872,1.1129443645477295,0.19499024748802185,0.38396355509757996,-1.1900283098220825,-1.3249512910842896
362,29501,29502,0.16632193326950073,-0.1624605804681778,0.9674727320671082,15.359769821166992,-5.097595691680908,-2.0719058513641357,1.0274486541748047,1.1024448871612549,0.18449077010154724,0.5342928171157837,-1.0012158155441284,-1.3616324663162231
363,29511,29512,0.012016325257718563,0.024996686726808548,1.0663353204727173,17.18902587890625,-6.921621322631836,-2.371706008911133,1.0304484367370605,1.0994449853897095,0.1904904693365097,0.5054072141647339,-0.8668844699859619,-1.3649144172668457
364,29521,29522,-0.18926496803760529,0.12377992272377014,1.0649784803390503,18.421112060546875,-9.11592960357666,-3.7520720958709717,1.0154491662979126,1.1024448871612549,0.199490025639534,0.6371808648109436,-0.7067524790763855,-1.4032564163208008
365,29531,29532,-0.19654494524002075,0.05433010309934616,1.087030053138733,15.407613754272461,-1.8984222412109375,-4.274348258972168,1.033448338508606,1.0784460306167603,0.18749062716960907,0.42101916670799255,-0.5299709439277649,-1.3707160949707031
366,29541,29542,-0.12991394102573395,0.000682137266267091,1.0692533254623413,12.644161224365234,4.38792610168457,-4.889522552490234,1.0364481210708618,1.0934453010559082,0.18449077010154724,0.46848344802856445,-0.2648342251777649,-1.4107383489608765
367,29551,29552,0.20658960938453674,-0.04395347833633423,0.9614178538322449,8.275701522827148,8.504945755004883,-4.44117546081543,1.0349482297897339,1.0919454097747803,0.19499024748802185,0.3519832491874695,-0.40609318017959595,-1.4726274013519287
368,29561,29562,0.02098601683974266,-0.1322079300880432,0.984330415725708,9.836358070373535,4.493727684020996,-3.909120798110962,1.0349482297897339,1.0769461393356323,0.20398980379104614,0.2707710564136505,-0.22697918117046356,-1.5020102262496948
369,29571,29572,-0.05235220119357109,-0.37575042247772217,0.9237263798713684,12.512065887451172,-1.6316368579864502,-3.3718857765197754,1.042447805404663,1.087445616722107,0.19349032640457153,0.24743039906024933,-0.10361390560865402,-1.539292573928833
370,29581,29582,-0.38166630268096924,-0.1273213028907776,0.9800946712493896,13.796704292297363,-6.545081615447998,-2.6293129920959473,1.0409479141235352,1.0919454097747803,0.19499024748802185,0.30614525079727173,0.04648611322045326,-1.576987385749817
371,29591,29592,-0.0975649282336235,-0.1996254026889801,1.0193986892700195,10.247241973876953,-4.548617362976074,-3.150933027267456,1.0364481210708618,1.0814459323883057,0.18749062716960907,0.421869158744812,0.1350158303976059,-1.6144353151321411
372,29601,29602,0.06790317595005035,-0.3211295008659363,0.884734034538269,7.681159019470215,-4.361754417419434,-0.5483492016792297,1.0244487524032593,1.087445616722107,0.19349032640457153,0.45794478058815,0.18344809114933014,-1.6460827589035034
373,29611,29612,0.2587187886238098,-0.15968690812587738,0.9583280682563782,-0.489388108253479,-4.283116817474365,-0.4156666398048401,1.0304484367370605,1.0784460306167603,0.1814909279346466,0.5634588599205017,0.3099491596221924,-1.6488845348358154
374,29621,29622,0.07318492233753204,0.03822912275791168,0.9670342803001404,-7.964206695556641,-2.1418299674987793,-0.26535648107528687,1.0364481210708618,1.0964452028274536,0.199490025639534,0.712524950504303,0.30265897512435913,-1.6614660024642944
375,29631,29632,-0.13280105590820312,0.21816912293434143,0.9658189415931702,-13.739439964294434,4.944277763366699,-0.5211492776870728,1.0319483280181885,1.0889455080032349,0.1889905482530594,0.5219245553016663,0.10704300552606583,-1.6607762575149536
376,29641,29642,-0.1970416009426117,0.21715638041496277,1.0420671701431274,-11.677123069763184,4.974340438842773,1.3999778032302856,1.0259486436843872,1.0949451923370361,0.1889905482530594,0.4597044587135315,-0.08164387196302414,-1.6662253141403198
377,29651,29652,-0.18782366812229156,-0.25064897537231445,0.8573555946350098,-0.15733365714550018,-2.580559253692627,1.5556379556655884,1.0229488611221313,1.1039447784423828,0.17699114978313446,0.5600371956825256,-0.13439591228961945,-1.651859998703003
378,29661,29662,-0.02669747732579708,-0.3929542601108551,0.8951221108436584,9.523756980895996,-2.8882651329040527,-1.6460559368133545,1.0289485454559326,1.0889455080032349,0.1889905482530594,0.547997772693634,-0.0785868763923645,-1.637087106704712
379,29671,29672,0.18921597301959991,-0.33186814188957214,0.8914218544960022,15.975322723388672,-4.04810094833374,-1.2343237400054932,1.0349482297897339,1.1039447784423828,0.17699114978313446,0.5519144535064697,0.05655616521835327,-1.6497397422790527
380,29681,29682,0.0832628458738327,-0.22747044265270233,1.0387239456176758,19.3051700592041,-5.19459867477417,-1.696478247642517,1.0244487524032593,1.0964452028274536,0.20548972487449646,0.5727073550224304,0.2195001095533371,-1.662049412727356
381,29691,29692,0.173091858625412,-0.06839068979024887,1.066184401512146,20.0089168548584,-6.353923797607422,-3.8406426906585693,1.018449068069458,1.0994449853897095,0.19349032640457153,0.689258337020874,0.3514876067638397,-1.6891846656799316
382,29701,29702,-0.059385236352682114,0.07916025817394257,1.1098076105117798,19.738176345825195,-15.437555313110352,-3.0743141174316406,1.0079495906829834,1.109944462776184,0.17699114978313446,0.6961609721183777,0.6453450322151184,-1.720979928970337
383,29711,29712,-0.25026118755340576,0.03127299249172211,1.0371606349945068,15.872129440307617,-19.313194274902344,-2.064715623855591,1.0259486436843872,1.1039447784423828,0.18599069118499756,1.0131738185882568,0.8415750861167908,-1.748291254043579
384,29721,29722,-0.12345311045646667,-0.018805989995598793,1.0558801889419556,8.708487510681152,-9.665721893310547,-0.1170157939195633,1.019948959350586,1.0889455080032349,0.18599069118499756,1.1570401191711426,0.9672729969024658,-1.7712098360061646
385,29731,29732,0.16613176465034485,-0.07580181211233139,0.9886179566383362,4.622602462768555,-9.312766075134277,0.3197527825832367,1.0304484367370605,1.0904453992843628,0.17549122869968414,1.3474191427230835,1.0485105514526367,-1.7719289064407349
386,29741,29742,0.05127650871872902,-0.08358023315668106,0.9850000143051147,3.5936245918273926,-15.796063423156738,-1.2579028606414795,1.0214488506317139,1.0844457149505615,0.19349032640457153,1.3814525604248047,1.128427505493164,-1.7815780639648438
387,29751,29752,-0.1361493319272995,-0.0702904611825943,1.1061193943023682,1.9702961444854736,-9.386917114257812,-1.3433173894882202,1.033448338508606,1.0964452028274536,0.18749062716960907,1.5472214221954346,1.1993077993392944,-1.793416142463684
388,29761,29762,-0.0966726765036583,-0.01919311285018921,1.0276648998260498,5.1766791343688965,-5.724820137023926,-0.5228783488273621,1.0214488506317139,1.0814459323883057,0.1904904693365097,1.6798800230026245,1.1085447072982788,-1.803127408027649
389,29771,29772,-0.035071950405836105,-0.021557806059718132,1.0688238143920898,8.840152740478516,-6.620327949523926,4.131191730499268,1.0289485454559326,1.1129443645477295,0.18599069118499756,1.7751330137252808,1.2297645807266235,-1.79866623878479
390,29781,29782,0.03634721785783768,-0.1558980792760849,1.1927521228790283,9.360419273376465,-5.233085632324219,9.223793983459473,1.0244487524032593,1.1024448871612549,0.18749062716960907,1.7452762126922607,1.3272284269332886,-1.7711906433105469
391,29791,29792,-0.020479056984186172,-0.06722505390644073,1.102691411972046,-6.519283771514893,6.246591567993164,14.397241592407227,1.042447805404663,1.0904453992843628,0.1904904693365097,1.7838002443313599,1.4399980306625366,-1.670096755027771
392,29801,29802,-0.022846536710858345,0.0029984470456838608,1.0387048721313477,-32.21830749511719,16.04505157470703,15.918039321899414,1.019948959350586,1.0919454097747803,0.19199039041996002,1.4889029264450073,1.2568650245666504,-1.5479989051818848
393,29811,29812,-0.01402236893773079,-0.04258681461215019,0.9443193078041077,-57.9063835144043,13.555255889892578,16.094192504882812,1.0139492750167847,1.1009448766708374,0.18299084901809692,1.3068475723266602,0.6554703712463379,-1.3712542057037354
394,29821,29822,-0.041671477258205414,0.03392048552632332,1.0678495168685913,-70.73053741455078,2.676699161529541,13.859216690063477,1.0094494819641113,1.111444354057312,0.19349032640457153,1.2666305303573608,0.09592416882514954,-1.2034658193588257
395,29831,29832,-0.021045563742518425,-0.07327888906002045,0.9597896933555603,-61.34458923339844,-14.80893325805664,12.324512481689453,1.0244487524032593,1.111444354057312,0.18449077010154724,1.2733750343322754,-0.8118031620979309,-1.0424840450286865
396,29841,29842,-0.17788368463516235,0.08352456986904144,1.099261999130249,-36.39097213745117,-31.233522415161133,7.4215803146362305,1.0274486541748047,1.111444354057312,0.19349032640457153,1.5522232055664062,-1.0007046461105347,-0.9372295141220093
397,29851,29852,-0.2784091830253601,0.20565392076969147,1.0165890455245972,-7.182097911834717,-39.59518051147461,4.672436714172363,1.018449068069458,1.111444354057312,0.18749062716960907,1.9859877824783325,-1.3483858108520508,-0.8328964710235596
398,29861,29862,-0.2669578790664673,0.12962625920772552,0.9398165345191956,12.856595993041992,-32.93852996826172,0.20966461300849915,1.0304484367370605,1.0904453992843628,0.20248986780643463,2.561413526535034,-1.2588094472885132,-0.7680889368057251
399,29871,29872,-0.287690132856369,-0.08334840089082718,0.9966888427734375,18.03548240661621,-10.252714157104492,-3.5659658908843994,1.0304484367370605,1.1054446697235107,0.18449077010154724,2.8305883407592773,-1.0391700267791748,-0.7774844765663147
400,29881,29882,-0.12099810689687729,-0.2881985306739807,0.9556874632835388,15.0881929397583,19.022754669189453,-5.301906585693359,1.0544472932815552,1.0904453992843628,0.19649016857147217,2.7382469177246094,-0.7416394948959351,-0.8489225506782532
401,29891,29892,0.16207510232925415,-0.31551340222358704,0.8346042037010193,6.956718444824219,29.84150505065918,-7.988530158996582,1.033448338508606,1.0994449853897095,0.18749062716960907,2.394333600997925,-0.6723613142967224,-0.9110977649688721
402,29901,29902,0.026577336713671684,-0.24025382101535797,0.9137868881225586,-6.370518207550049,26.08579444885254,-11.44468879699707,1.0394480228424072,1.111444354057312,0.19349032640457153,2.084399461746216,-0.7627180814743042,-0.9728990197181702
403,29911,29912,-0.35941335558891296,0.01379740796983242,1.1018118858337402,-13.305276870727539,25.442461013793945,-11.374537467956543,1.0364481210708618,1.1084445714950562,0.19649016857147217,1.6125320196151733,-0.8842331171035767,-1.093994379043579
404,29921,29922,-0.17855031788349152,-0.05010225623846054,1.059564471244812,-1.1630206108093262,25.66822624206543,-5.6320390701293945,1.0349482297897339,1.1069446802139282,0.19199039041996002,1.4645662307739258,-0.8568639159202576,-1.2275766134262085
405,29931,29932,0.04126935079693794,-0.04636741802096367,1.143096685409546,13.603487014770508,33.00990676879883,-1.6589430570602417,1.0304484367370605,1.1024448871612549,0.1904904693365097,1.1494975090026855,-0.8398322463035583,-1.2933775186538696
406,29941,29942,0.009409330785274506,-0.1669490933418274,1.051722764968872,29.2253360748291,42.37405776977539,1.2528046369552612,1.0259486436843872,1.1159441471099854,0.18299084901809692,0.7310066223144531,-0.7560760378837585,-1.2974098920822144
407,29951,29952,0.03762960433959961,-0.08299548178911209,0.9156196117401123,32.78257751464844,43.36623001098633,2.5015740394592285,1.019948959350586,1.1039447784423828,0.17699114978313446,0.32185056805610657,-0.4566965699195862,-1.2873926162719727
408,29961,29962,-0.019801223650574684,-0.1056782677769661,0.9226039052009583,28.581998825073242,35.9802131652832,3.468336582183838,1.0244487524032593,1.1054446697235107,0.1814909279346466,0.1820271760225296,0.004719364456832409,-1.282593011856079
409,29971,29972,0.038498956710100174,-0.01335914060473442,0.9655619263648987,16.75200653076172,27.321557998657227,2.8495168685913086,1.0229488611221313,1.0919454097747803,0.19199039041996002,-0.4926277995109558,0.2186659574508667,-1.2395468950271606
410,29981,29982,-0.05462546646595001,-0.14086976647377014,0.94609135389328,6.6717424392700195,7.003647327423096,3.165992021560669,1.0259486436843872,1.1039447784423828,0.17699114978313446,-0.7551406025886536,0.11027693003416061,-1.1780425310134888
411,29991,29992,0.048226840794086456,-0.08618985861539841,0.9819660782814026,2.360374689102173,-9.715232849121094,6.434780597686768,1.0154491662979126,1.0964452028274536,0.17849107086658478,-0.7730733752250671,0.218044251203537,-1.1470071077346802
412,30001,30002,-0.0937301367521286,0.10953839123249054,1.100148320198059,2.536168336868286,-15.95779800415039,6.083764553070068,1.01694917678833,1.0889455080032349,0.18299084901809692,-0.6171743869781494,0.27612918615341187,-1.0870885848999023
413,30011,30012,-0.123517706990242,0.11073034256696701,1.1526128053665161,4.033470630645752,-18.91929817199707,8.580387115478516,1.0274486541748047,1.0934453010559082,0.1814909279346466,-0.3612546920776367,0.26802030205726624,-1.0178463459014893
414,30021,30022,-0.07818982005119324,-0.0635763481259346,0.9543032050132751,5.95147180557251,-7.648268222808838,11.021549224853516,1.0289485454559326,1.0979450941085815,0.20098994672298431,-0.10833580046892166,0.3576412796974182,-0.9264293909072876
415,30031,30032,-0.0003123071219306439,-0.13487139344215393,1.0684164762496948,4.20419454574585,0.9484633207321167,15.049257278442383,1.0244487524032593,1.087445616722107,0.17849107086658478,-0.038231685757637024,0.3293014466762543,-0.8129433989524841
416,30041,30042,-0.05530081316828728,-0.04625614732503891,1.0723096132278442,-4.220462799072266,14.298039436340332,17.936382293701172,1.019948959350586,1.085945725440979,0.18299084901809692,-0.1541743129491806,0.3821694552898407,-0.6654875874519348
417,30051,30052,-0.05702915042638779,0.025311700999736786,1.0273470878601074,-13.207674026489258,22.749540328979492,21.074420928955078,1.0289485454559326,1.0979450941085815,0.19499024748802185,-0.46521884202957153,0.3004435896873474,-0.49244236946105957
418,30061,30062,0.04319550469517708,-0.04797430709004402,0.8986071944236755,-16.42363166809082,22.153806686401367,24.750141143798828,1.0094494819641113,1.0994449853897095,0.17549122869968414,-0.278344988822937,0.1666257679462433,-0.25061070919036865
419,30071,30072,-0.06724587827920914,0.09449518471956253,0.9935376644134521,-17.868249893188477,10.953330039978027,25.577035903930664,1.0139492750167847,1.0949451923370361,0.19199039041996002,-0.6334273219108582,-0.09123515337705612,-0.018273403868079185
420,30081,30082,-0.20762521028518677,0.2628385126590729,0.932557225227356,-17.99747085571289,1.5515546798706055,23.30872344970703,1.019948959350586,1.0949451923370361,0.1889905482530594,-0.6999419927597046,-0.2850017845630646,0.23643651604652405
421,30091,30092,-0.19181464612483978,0.25588592886924744,0.9035618305206299,-14.415464401245117,4.344504356384277,21.69426155090332,1.0244487524032593,1.0964452028274536,0.1904904693365097,-0.5782522559165955,-0.38579824566841125,0.4846493899822235
422,30101,30102,0.08822286874055862,-0.02149232104420662,0.8391205668449402,1.2662180662155151,2.4986155033111572,19.56406593322754,1.0229488611221313,1.1039447784423828,0.1799909919500351,-0.6621891856193542,-0.4503580927848816,0.7011141180992126
423,30111,30112,0.12879587709903717,-0.06335194408893585,1.0299358367919922,13.328100204467773,-3.66219425201416,17.665142059326172,1.0229488611221313,1.0889455080032349,0.17399129271507263,-0.7113564014434814,-0.3665377199649811,0.89832603931427
424,30121,30122,-0.0907793939113617,0.11398772150278091,1.2259894609451294,24.528064727783203,2.9884824752807617,13.674182891845703,1.0289485454559326,1.109944462776184,0.18299084901809692,-0.7117248177528381,-0.21536770462989807,1.0662212371826172
425,30131,30132,0.05514821782708168,0.08782663196325302,1.1393437385559082,31.7249698638916,9.54843807220459,12.392145156860352,1.018449068069458,1.0934453010559082,0.17549122869968414,-0.7084882855415344,0.10811696946620941,1.214936375617981
426,30141,30142,0.1778586208820343,-0.028597991913557053,1.2070173025131226,28.188066482543945,10.993203163146973,7.869498252868652,1.0124493837356567,1.0844457149505615,0.1904904693365097,-0.8485248684883118,0.3069104552268982,1.3034828901290894
427,30151,30152,0.00011718252062564716,-0.013856759294867516,1.0931191444396973,19.125333786010742,11.585875511169434,4.8769145011901855,1.018449068069458,1.087445616722107,0.18449077010154724,-1.0520930290222168,0.6427094340324402,1.3885338306427002
428,30161,30162,0.08853781223297119,-0.07033928483724594,0.9149329662322998,5.080204486846924,15.589465141296387,1.7760767936706543,1.0214488506317139,1.0844457149505615,0.18749062716960907,-1.2768431901931763,0.860268235206604,1.4372316598892212
429,30171,30172,0.019024159759283066,0.014144300483167171,0.9989259839057922,-7.933017253875732,7.9565749168396,-2.2725889682769775,1.0244487524032593,1.0934453010559082,0.17549122869968414,-1.5021872520446777,0.7805563807487488,1.4176899194717407
430,30181,30182,-0.019639164209365845,-0.008766492828726768,0.9831022620201111,-21.93572998046875,5.851155757904053,-2.165461301803589,1.0244487524032593,1.072446346282959,0.1814909279346466,-1.4845951795578003,0.704870879650116,1.4109110832214355
431,30191,30192,0.009355809539556503,0.04915196821093559,1.0896791219711304,-19.95758628845215,-2.5065696239471436,-0.09154273569583893,1.01694917678833,1.085945725440979,0.170991450548172,-1.525437593460083,0.383196622133255,1.3606287240982056
432,30201,30202,0.1148185059428215,-0.05784047394990921,1.009000539779663,-14.900147438049316,-13.10123348236084,-0.638869047164917,1.0379481315612793,1.0799460411071777,0.1799909919500351,-1.4272822141647339,0.23575352132320404,1.3704354763031006
433,30211,30212,-0.11799586564302444,0.10708037763834,1.137216567993164,-4.318960666656494,-15.304450988769531,-1.538699984550476,1.018449068069458,1.087445616722107,0.19349032640457153,-1.1465343236923218,0.13192252814769745,1.377855658531189
434,30221,30222,-0.041758257895708084,0.05628399923443794,1.1186391115188599,2.7334890365600586,-8.016363143920898,-1.2701071500778198,1.01694917678833,1.0769461393356323,0.20098994672298431,-1.06351637840271,0.12213866412639618,1.3636749982833862
435,30231,30232,0.08754622936248779,-0.042588040232658386,1.0719022750854492,11.593877792358398,-0.14610286056995392,-1.7539455890655518,1.0274486541748047,1.0784460306167603,0.18449077010154724,-0.9241644740104675,0.24341535568237305,1.3769181966781616
436,30241,30242,0.24227038025856018,-0.2727113962173462,0.9436144828796387,14.447476387023926,-2.781822919845581,-2.0250167846679688,1.0319483280181885,1.0769461393356323,0.18299084901809692,-0.9361522793769836,0.4021835923194885,1.361142873764038
437,30251,30252,0.03561285883188248,-0.004469885956496,1.0094324350357056,10.957409858703613,2.165818214416504,-4.198578834533691,1.0229488611221313,1.0799460411071777,0.18599069118499756,-0.8390632271766663,0.6468818187713623,1.3739819526672363
438,30261,30262,-0.06598348915576935,0.14910979568958282,0.9111031889915466,-1.250964641571045,10.713842391967773,-5.554991245269775,1.0349482297897339,1.0799460411071777,0.1889905482530594,-0.8951013088226318,0.603444516658783,1.281149983406067
439,30271,30272,0.03110234998166561,0.16978836059570312,1.0085259675979614,-6.6513214111328125,11.31751823425293,-6.3165154457092285,1.018449068069458,1.0754462480545044,0.18749062716960907,-1.0922400951385498,0.5994527339935303,1.212533950805664
440,30281,30282,0.01562744937837124,-0.0633360967040062,0.8832943439483643,-11.911535263061523,5.9551496505737305,-7.981283664703369,1.0259486436843872,1.0829458236694336,0.1799909919500351,-1.232078194618225,0.5474541783332825,1.1455129384994507
441,30291,30292,-0.17273634672164917,0.11962426453828812,0.9665916562080383,-9.68330192565918,-0.8802569508552551,-9.262506484985352,1.019948959350586,1.0919454097747803,0.18599069118499756,-1.251610279083252,0.30073386430740356,1.0221692323684692
442,30301,30302,-0.2070399671792984,0.15798629820346832,0.8693841695785522,-3.8813514709472656,0.31038472056388855,-10.292235374450684,1.0244487524032593,1.0934453010559082,0.1814909279346466,-1.251455545425415,0.19154104590415955,0.9177455902099609
443,30311,30312,-0.13040612637996674,0.21191363036632538,1.0100948810577393,4.156366348266602,-4.865112781524658,-8.254088401794434,1.0094494819641113,1.0784460306167603,0.18449077010154724,-1.209816336631775,0.25749513506889343,0.8521490693092346
444,30321,30322,-0.15090800821781158,-0.015467877499759197,0.881945788860321,13.363100051879883,-4.697893142700195,-10.064339637756348,1.0094494819641113,1.0844457149505615,0.19349032640457153,-1.0932689905166626,0.3999590575695038,0.7903589010238647
445,30331,30332,-0.011848168447613716,-0.18553753197193146,0.8593029975891113,18.158918380737305,-10.586297035217285,-10.10731029510498,1.0214488506317139,1.0994449853897095,0.1904904693365097,-1.0298850536346436,0.66190105676651,0.7260076999664307
446,30341,30342,-0.1155497133731842,-0.16021506488323212,0.9221649765968323,20.61526870727539,-15.442553520202637,-10.042187690734863,1.019948959350586,1.0979450941085815,0.18299084901809692,-0.8478224277496338,0.9043826460838318,0.6498229503631592
447,30351,30352,-0.05907114967703819,-0.020521726459264755,1.0412647724151611,9.5492582321167,-7.328401565551758,-11.322659492492676,1.018449068069458,1.0964452028274536,0.19349032640457153,-0.7968689203262329,0.8976571559906006,0.47108250856399536
448,30361,30362,-0.0014276334550231695,-0.04067729413509369,0.9636578559875488,1.4134535789489746,-3.8369357585906982,-11.291316032409668,1.01694917678833,1.1009448766708374,0.18599069118499756,-0.6907913684844971,0.8910371661186218,0.3318299651145935
449,30371,30372,-0.06594709306955338,-0.10329043865203857,1.009092926979065,-3.8472483158111572,-1.7732442617416382,-10.34030818939209,1.0139492750167847,1.109944462776184,0.18299084901809692,-0.6300132870674133,0.9046396017074585,0.23093099892139435
450,30381,30382,-0.07424642145633698,-0.2001619040966034,1.1137676239013672,-6.139535903930664,-1.9853359460830688,-11.291777610778809,1.0109494924545288,1.0919454097747803,0.18599069118499756,-0.6652190685272217,0.8373658657073975,0.10862668603658676
451,30391,30392,0.005717156920582056,-0.10014943033456802,1.0095535516738892,-3.6830999851226807,-4.494017124176025,-9.997907638549805,1.0124493837356567,1.1024448871612549,0.1814909279346466,-0.6138566136360168,0.8198972344398499,0.01138580497354269
452,30401,30402,0.09077264368534088,-0.13053053617477417,1.0367138385772705,-0.632878303527832,0.153959259390831,-10.160611152648926,1.018449068069458,1.1024448871612549,0.19349032640457153,-0.5962697863578796,0.919705331325531,-0.05558164790272713
453,30411,30412,0.19359484314918518,-0.08824807405471802,1.044432520866394,4.244115352630615,-8.85169792175293,-8.75360107421875,1.0154491662979126,1.0994449853897095,0.20248986780643463,-0.6549432873725891,0.8693456649780273,-0.1937583088874817
454,30421,30422,0.1619279384613037,-0.05076273903250694,1.006801962852478,5.753786563873291,-15.581367492675781,-9.78079605102539,1.0079495906829834,1.0919454097747803,0.19199039041996002,-0.5316521525382996,0.9429699778556824,-0.27734801173210144
455,30431,30432,0.03885490074753761,-0.1335058957338333,1.058961033821106,5.25499963760376,-16.667821884155273,-9.23106861114502,1.00344979763031,1.0964452028274536,0.18449077010154724,-0.26510459184646606,1.106389045715332,-0.32788899540901184
456,30441,30442,0.022669142112135887,-0.29352232813835144,0.9833069443702698,2.2714977264404297,-18.5252685546875,-8.567268371582031,1.01694917678833,1.1069446802139282,0.1799909919500351,-0.05880700424313545,1.1049816608428955,-0.42856553196907043
457,30451,30452,-0.0126149021089077,-0.10968194156885147,1.0657838582992554,-7.938529014587402,-13.71349048614502,-8.553914070129395,1.0079495906829834,1.1009448766708374,0.19199039041996002,0.20704369246959686,1.0841342210769653,-0.5075617432594299
458,30461,30462,-0.08028022199869156,0.07884334772825241,1.20270836353302,-15.566414833068848,-10.084152221679688,-7.87547492980957,1.0229488611221313,1.1009448766708374,0.1889905482530594,0.2643353343009949,0.9859423637390137,-0.6069473028182983
459,30471,30472,-0.05881955847144127,0.0711151584982872,1.0613421201705933,-18.403688430786133,-3.78859281539917,-6.432480812072754,1.0304484367370605,1.1054446697235107,0.18749062716960907,0.47591081261634827,0.7042232751846313,-0.6874175071716309
460,30481,30482,-0.06114907190203667,0.061787061393260956,1.019002914428711,-17.808605194091797,1.4833909273147583,-6.840370178222656,1.0259486436843872,1.0979450941085815,0.1799909919500351,0.4334215521812439,0.5434385538101196,-0.7599900960922241
461,30491,30492,-0.14299024641513824,0.08017696440219879,1.171063780784607,-12.176795959472656,12.741726875305176,-6.147273540496826,1.0394480228424072,1.1084445714950562,0.20248986780643463,0.36875298619270325,0.5554488301277161,-0.7971051335334778
462,30501,30502,0.00941472314298153,0.056539732962846756,1.1371740102767944,-8.121919631958008,21.330686569213867,-5.513675212860107,1.0274486541748047,1.1144442558288574,0.17849107086658478,0.22380760312080383,0.49758362770080566,-0.850671648979187
463,30511,30512,0.012330403551459312,-0.07732869684696198,0.9544057250022888,0.6471912264823914,16.327404022216797,-7.209540843963623,1.0244487524032593,1.1024448871612549,0.19649016857147217,-0.07861386239528656,0.452316552400589,-0.9274423122406006
464,30521,30522,-0.0905643031001091,-0.03051191009581089,1.0853943824768066,4.788787841796875,7.775528430938721,-6.799793243408203,1.0259486436843872,1.0979450941085815,0.19499024748802185,-0.3193505108356476,0.5220699310302734,-1.0043597221374512
465,30531,30532,-0.058311477303504944,-0.15922126173973083,0.9764559268951416,2.365675210952759,-4.499873161315918,-6.794650077819824,1.0289485454559326,1.0949451923370361,0.19199039041996002,-0.37686100602149963,0.5676559805870056,-1.0704345703125
466,30541,30542,0.08714771270751953,0.00324545637704432,0.9893750548362732,-9.2420654296875,-18.243446350097656,-6.4766387939453125,1.0349482297897339,1.0979450941085815,0.1799909919500351,-0.22242332994937897,0.5427359342575073,-1.129217505455017
467,30551,30552,0.0058325063437223434,0.14464621245861053,1.0430022478103638,-23.701244354248047,-31.953081130981445,-10.056665420532227,1.0289485454559326,1.0769461393356323,0.18299084901809692,0.17885567247867584,0.3273738920688629,-1.1892578601837158
468,30561,30562,0.10182679444551468,-0.06510482728481293,0.9504664540290833,-28.460241317749023,-44.953433990478516,-9.053645133972168,1.033448338508606,1.0904453992843628,0.18749062716960907,0.43450260162353516,0.25703880190849304,-1.287968635559082
469,30571,30572,0.019125187769532204,-0.07743176817893982,0.9394063949584961,-26.87517738342285,-41.02063751220703,-4.957735061645508,1.0244487524032593,1.0964452028274536,0.1814909279346466,0.9605827331542969,-0.1591627597808838,-1.3779125213623047
470,30581,30582,0.06548339128494263,-0.09756695479154587,0.9211942553520203,-21.39061164855957,-42.557979583740234,0.1062055379152298,1.0409479141235352,1.0889455080032349,0.18599069118499756,1.427154541015625,-0.25953131914138794,-1.4016709327697754
471,30591,30592,-0.10540133714675903,-0.027107490226626396,1.054571509361267,-15.011889457702637,-23.490833282470703,2.634554147720337,1.0319483280181885,1.0949451923370361,0.19499024748802185,1.6001497507095337,-0.352336049079895,-1.4185360670089722
472,30601,30602,-0.15109051764011383,0.009251195937395096,1.055413842201233,-7.758540153503418,4.474602222442627,10.185894012451172,1.0349482297897339,1.0769461393356323,0.19199039041996002,1.8099884986877441,-0.4879888594150543,-1.3713746070861816
473,30611,30612,-0.08939355611801147,-0.06704510748386383,0.8957235813140869,-7.748319625854492,30.22346305847168,11.540271759033203,1.033448338508606,1.0994449853897095,0.1904904693365097,1.6840277910232544,-0.5171159505844116,-1.2789828777313232
474,30621,30622,-0.012702090665698051,-0.10721823573112488,0.8164949417114258,-9.105703353881836,35.16814041137695,13.095291137695312,1.0274486541748047,1.1024448871612549,0.1904904693365097,1.2001057863235474,-0.5578873753547668,-1.1845046281814575
475,30631,30632,-0.0002502253046259284,-0.12280268222093582,0.9959880113601685,-17.968591690063477,44.288795471191406,12.28917121887207,1.0304484367370605,1.1174441576004028,0.19349032640457153,0.6610212922096252,-0.8016594052314758,-1.063118815422058
476,30641,30642,-0.047507528215646744,-0.1699138581752777,0.9256047606468201,-20.199565887451172,36.97541046142578,12.3439302444458,1.018449068069458,1.123443841934204,0.18449077010154724,0.17702244222164154,-1.0149420499801636,-0.9454307556152344
477,30651,30652,-0.0920848399400711,-0.18639475107192993,1.110614538192749,-17.110137939453125,33.69068908691406,11.953712463378906,1.0289485454559326,1.1069446802139282,0.19499024748802185,-0.265704870223999,-1.2441067695617676,-0.8271904587745667
478,30661,30662,0.015514993108808994,-0.015590626746416092,1.1460214853286743,-9.03127670288086,15.212311744689941,11.806096076965332,1.0274486541748047,1.111444354057312,0.17249137163162231,-0.7060016989707947,-1.464842438697815,-0.7070989012718201
479,30671,30672,0.05086168274283409,0.056832071393728256,1.1810078620910645,-0.8768856525421143,-1.1748586893081665,9.050230026245117,1.0229488611221313,1.0949451923370361,0.17399129271507263,-0.4251726269721985,-1.6168171167373657,-0.6012052893638611
480,30681,30682,-0.0711076557636261,0.01889697276055813,1.1078510284423828,6.615383625030518,-26.6051082611084,9.52774715423584,1.0229488611221313,1.1009448766708374,0.20098994672298431,-0.14678101241588593,-1.3561267852783203,-0.5290047526359558
481,30691,30692,0.044078633189201355,-0.030438698828220367,1.0896466970443726,12.627388000488281,-29.82084846496582,9.527052879333496,1.0229488611221313,1.1039447784423828,0.18599069118499756,0.11319684982299805,-1.2652099132537842,-0.4235784113407135
