,timestamp_start,timestamp_end,acc.x,acc.y,acc.z,gyro.x,gyro.y,gyro.z,mag.x,mag.y,mag.z,stabilizer.pitch,stabilizer.roll,stabilizer.yaw
0,155528,155529,-0.022435637190937996,-0.02272104285657406,0.6342452168464661,39.14719772338867,2.707275152206421,7.964372634887695,0.9419528841972351,0.9539523124694824,0.026998650282621384,-20.12329864501953,0.6233486533164978,-2.8162500858306885
1,155538,155539,-0.02399623394012451,-0.02105455845594406,0.6359463930130005,34.108943939208984,-20.540355682373047,7.441911697387695,0.9284535646438599,0.9734513163566589,0.016499174758791924,-20.268381118774414,0.636745810508728,-3.353101968765259
2,155548,155549,-0.039511047303676605,-0.011312142945826054,0.638746440410614,27.997177124023438,-39.29514694213867,11.414167404174805,0.9224538803100586,0.9854506850242615,0.010499474592506886,-20.194053649902344,1.092038869857788,-3.1401147842407227
3,155558,155559,-0.03782551363110542,-0.012359353713691235,0.6481082439422607,20.5336856842041,-53.88273620605469,11.688715934753418,0.9329533576965332,0.9629518389701843,0.02099894918501377,-19.797727584838867,1.1108418703079224,-3.5263168811798096
4,155568,155569,-0.05562413111329079,-0.031836673617362976,0.634418249130249,14.430750846862793,-61.619686126708984,14.39254379272461,0.9269536137580872,0.9779511094093323,0.0029998498503118753,-19.228050231933594,1.4253199100494385,-3.3022923469543457
5,155578,155579,-0.04080531373620033,-0.014813708141446114,0.6419675946235657,6.291253089904785,-62.9590950012207,14.355657577514648,0.9329533576965332,0.9539523124694824,0.0029998498503118753,-18.802656173706055,1.7083998918533325,-3.0072782039642334
6,155588,155589,-0.06982611119747162,0.047563809901475906,0.6715606451034546,-0.19165664911270142,-60.18824768066406,13.502678871154785,0.9239537715911865,0.9749512076377869,0.01799909956753254,-18.314964294433594,1.7373861074447632,-3.027745485305786
7,155598,155599,-0.06004958599805832,0.018554145470261574,0.6892632842063904,-1.527429223060608,-48.616981506347656,14.12087631225586,0.9224538803100586,0.9704514741897583,0.007499624975025654,-17.80898094177246,1.6704343557357788,-3.099513530731201
8,155608,155609,-0.02770395018160343,-0.10101926326751709,0.785594642162323,0.07036671042442322,-35.28207015991211,15.069541931152344,0.9389530420303345,0.9779511094093323,0.029998499900102615,-17.533430099487305,1.6078763008117676,-3.1367242336273193
9,155618,155619,0.06053825467824936,-0.07019297778606415,0.6623547673225403,4.632140636444092,-30.46904754638672,17.99752426147461,0.9314534068107605,0.9944502711296082,0.025498725473880768,-17.31098175048828,1.6846405267715454,-2.943401575088501
10,155628,155629,-0.08549814671278,0.05324362963438034,0.6657602787017822,12.094974517822266,-31.296260833740234,18.140897750854492,0.9344532489776611,1.0154491662979126,0.028498575091362,-17.004432678222656,1.5380206108093262,-3.193024158477783
11,155638,155639,-0.030735604465007782,0.014442957937717438,0.7285588979721069,20.79668617248535,-35.786720275878906,20.95731544494629,0.9224538803100586,1.0124493837356567,0.03449827432632446,-16.6729679107666,1.7877084016799927,-2.8624658584594727
12,155648,155649,-0.23365993797779083,0.033047858625650406,0.8317200541496277,27.364395141601562,-40.96109390258789,19.9099063873291,0.9164541363716125,1.0124493837356567,0.019499024376273155,-16.620149612426758,1.8534244298934937,-3.0205955505371094
13,155658,155659,-0.04231783002614975,-0.04794023931026459,0.8534548282623291,31.373952865600586,-50.49079895019531,20.95120620727539,0.9299534559249878,1.0139492750167847,0.02099894918501377,-16.28636932373047,2.274768590927124,-2.649092197418213
14,155668,155669,0.0011944641591981053,0.09465306252241135,1.0209312438964844,31.092792510986328,-61.886173248291016,19.002004623413086,0.919454038143158,1.0304484367370605,0.03449827432632446,-16.04212760925293,2.3973422050476074,-2.9138710498809814
15,155678,155679,0.1576039344072342,-0.16042792797088623,0.8228135108947754,27.629730224609375,-74.52831268310547,21.209070205688477,0.9269536137580872,1.0229488611221313,0.023998798802495003,-15.332728385925293,2.9555394649505615,-2.3697469234466553
16,155688,155689,-0.08296585828065872,-0.1007944643497467,1.04787015914917,18.02409553527832,-83.79267120361328,19.847129821777344,0.9104544520378113,1.0394480228424072,0.037498123943805695,-14.960036277770996,3.0816259384155273,-2.5956966876983643
17,155698,155699,-0.0022066901437938213,-0.2011716216802597,0.8508298397064209,7.9011664390563965,-91.63665008544922,23.603288650512695,0.9089545607566833,1.0319483280181885,0.03599819913506508,-13.943224906921387,3.3575892448425293,-2.340625762939453
18,155708,155709,-0.09492645412683487,-0.1113937646150589,0.8144204020500183,-3.4222652912139893,-98.50428771972656,23.22416877746582,0.9254537224769592,1.0364481210708618,0.04949752241373062,-13.411528587341309,3.2902705669403076,-2.5727498531341553
19,155718,155719,0.07083810120820999,-0.0729595273733139,0.840445339679718,-9.077679634094238,-104.27352142333984,26.772642135620117,0.9164541363716125,1.048447608947754,0.040497973561286926,-12.316473007202148,3.3669514656066895,-2.2728822231292725
20,155728,155729,-0.10519334673881531,-0.007490308023989201,0.9146495461463928,-10.05086612701416,-108.47257995605469,25.081701278686523,0.9029548168182373,1.0499475002288818,0.047997597604990005,-11.711966514587402,3.328674077987671,-2.1272923946380615
21,155738,155739,-0.20043575763702393,0.15115971863269806,0.9423824548721313,-12.998477935791016,-98.30513763427734,24.667835235595703,0.9269536137580872,1.0409479141235352,0.05999699980020523,-10.428506851196289,3.2660672664642334,-1.9019500017166138
22,155748,155749,-0.07072612643241882,0.031132565811276436,0.9914271235466003,-9.945587158203125,-87.03030395507812,22.191179275512695,0.9209539294242859,1.0649467706680298,0.047997597604990005,-9.933188438415527,3.140249013900757,-1.8642494678497314
23,155758,155759,-0.0881023034453392,-0.07096483558416367,1.016058325767517,-2.7996301651000977,-77.58901977539062,22.67337417602539,0.9299534559249878,1.055947184562683,0.05999699980020523,-8.8794527053833,3.1025047302246094,-1.5836514234542847
24,155768,155769,-0.07844455540180206,-0.010257928632199764,1.0689911842346191,6.141908645629883,-77.83892059326172,19.153905868530273,0.919454038143158,1.072446346282959,0.06449677050113678,-8.539052963256836,2.9866397380828857,-1.679518699645996
25,155778,155779,0.007596977055072784,-0.24560429155826569,0.8799744248390198,11.402332305908203,-83.132080078125,20.722816467285156,0.9374530911445618,1.0694465637207031,0.07049647718667984,-7.5250725746154785,3.2115111351013184,-1.2162936925888062
26,155788,155789,-0.11294415593147278,0.02803235687315464,1.1616343259811401,11.60752010345459,-94.56074523925781,18.448787689208984,0.9389530420303345,1.085945725440979,0.07499624788761139,-7.123608589172363,3.457509756088257,-0.9685253500938416
27,155798,155799,-0.10130484402179718,0.10559507459402084,1.1502506732940674,2.7394349575042725,-106.83766174316406,17.052865982055664,0.9344532489776611,1.0784460306167603,0.07349632680416107,-5.89937686920166,3.5075905323028564,-0.8768426179885864
28,155808,155809,-0.10350614041090012,-0.030899329110980034,1.0940349102020264,-9.826494216918945,-113.3102798461914,15.28672981262207,0.9359531998634338,1.0919454097747803,0.07799609750509262,-5.201972007751465,3.4460606575012207,-1.0179789066314697
29,155818,155819,-0.049216680228710175,-0.08083131164312363,1.0810571908950806,-16.628570556640625,-110.4716567993164,18.901384353637695,0.9569521546363831,1.0889455080032349,0.08699564635753632,-4.581966400146484,3.283527135848999,-1.1838054656982422
30,155828,155829,-0.15441147983074188,-0.28066131472587585,1.0963505506515503,-19.775371551513672,-98.1249008178711,20.181306838989258,0.9464526772499084,1.0994449853897095,0.07349632680416107,-3.1262900829315186,3.1149566173553467,-0.9933172464370728
31,155838,155839,-0.03497622162103653,-0.0011799988569691777,1.2550702095031738,-17.58191680908203,-85.96508026123047,21.169212341308594,0.9644517302513123,1.1054446697235107,0.085495725274086,-2.4348647594451904,3.051084280014038,-0.7704383134841919
32,155848,155849,-0.17693781852722168,-0.05983550846576691,1.13974928855896,-12.186631202697754,-70.29658508300781,18.900205612182617,0.958452045917511,1.1174441576004028,0.08849557489156723,-1.2234727144241333,2.8098301887512207,-0.6028770804405212
33,155858,155859,-0.26894494891166687,-0.032920271158218384,1.3819891214370728,-3.3198513984680176,-61.9775276184082,16.567134857177734,0.9734513163566589,1.1084445714950562,0.10049497336149216,-0.9155145287513733,2.566373109817505,-0.7063948512077332
34,155868,155869,-0.08916151523590088,-0.09337907284498215,1.1775883436203003,-3.014150381088257,-55.64813232421875,19.05437660217285,0.9914504289627075,1.1054446697235107,0.085495725274086,0.058367859572172165,2.6059443950653076,-0.37952184677124023
35,155878,155879,-0.10105625540018082,-0.1349812150001526,1.2807667255401611,-10.014427185058594,-59.02851867675781,18.526552200317383,0.9914504289627075,1.0994449853897095,0.10649467259645462,0.21343667805194855,2.530529499053955,-0.3746928870677948
36,155888,155889,-0.12820157408714294,0.1017657071352005,1.1137452125549316,-19.907838821411133,-64.37332153320312,20.070310592651367,0.9914504289627075,1.0844457149505615,0.11249437183141708,0.9993053078651428,2.50579571723938,-0.09842529147863388
37,155898,155899,-0.1655186116695404,0.03178854659199715,1.2244271039962769,-29.808788299560547,-66.67278289794922,18.744670867919922,0.9959501624107361,1.0919454097747803,0.10799460113048553,1.3438308238983154,2.344857931137085,0.01971682719886303
38,155908,155909,-0.1850060671567917,-0.13184857368469238,1.3711096048355103,-26.542512893676758,-67.06114959716797,18.63182258605957,1.0064496994018555,1.0694465637207031,0.11849407106637955,2.3153889179229736,2.060987710952759,0.2761807441711426
39,155918,155919,-0.20901614427566528,-0.19395925104618073,1.2853409051895142,-17.97385025024414,-64.58576965332031,18.5142822265625,0.9929503202438354,1.0949451923370361,0.10199490189552307,2.419290065765381,1.7586125135421753,0.26934126019477844
40,155928,155929,-0.09064225107431412,-0.03589745983481407,1.263528823852539,-13.91295051574707,-63.45338821411133,18.979576110839844,0.9974501132965088,1.087445616722107,0.10049497336149216,3.3093464374542236,1.4621222019195557,0.4704328179359436
41,155938,155939,-0.0969342514872551,-0.056297868490219116,1.2930790185928345,-15.48898696899414,-60.53030014038086,15.693352699279785,1.0154491662979126,1.0814459323883057,0.11549422144889832,3.5225069522857666,1.3461052179336548,0.5496780276298523
42,155948,155949,-0.12968239188194275,-0.029393453150987625,1.2417261600494385,-18.818979263305664,-58.116397857666016,12.641691207885742,1.01694917678833,1.0889455080032349,0.113994300365448,4.38141393661499,1.2018847465515137,0.7575039267539978
43,155958,155959,-0.06042413040995598,0.013492533005774021,1.295491099357605,-17.484960556030273,-58.7414436340332,8.679265022277832,1.0274486541748047,1.0844457149505615,0.11249437183141708,4.679879188537598,1.013830542564392,0.8134040236473083
44,155968,155969,-0.11034226417541504,-0.17674216628074646,1.2633229494094849,-8.95335578918457,-60.232513427734375,7.370362758636475,1.0319483280181885,1.073946237564087,0.1049947515130043,5.514158248901367,0.8005803227424622,0.9484123587608337
45,155978,155979,-0.050811950117349625,-0.11070004105567932,1.1855275630950928,-6.132217884063721,-60.96238708496094,5.921241760253906,1.0454477071762085,1.0784460306167603,0.11549422144889832,5.787224292755127,0.6950684785842896,0.956872284412384
46,155988,155989,-0.16368843615055084,-0.14246955513954163,1.398013949394226,-9.144697189331055,-51.546958923339844,6.795917510986328,1.0454477071762085,1.0664466619491577,0.12149392068386078,6.8475661277771,0.6806516051292419,1.0797374248504639
47,155998,155999,-0.11245793104171753,-0.31682735681533813,1.3527356386184692,-16.714479446411133,-38.306156158447266,5.009230613708496,1.0499475002288818,1.0799460411071777,0.113994300365448,7.1137166023254395,0.5301836729049683,1.1166884899139404
48,156008,156009,-0.11670077592134476,-0.02658916264772415,1.3378396034240723,-24.127113342285156,-17.289636611938477,3.6322529315948486,1.042447805404663,1.0694465637207031,0.12749361991882324,7.890347003936768,0.6258237957954407,1.1407129764556885
49,156018,156019,-0.23908689618110657,-0.14571689069271088,1.3082493543624878,-27.412919998168945,-0.904768168926239,4.449542999267578,1.0394480228424072,1.0814459323883057,0.11849407106637955,7.889858245849609,0.5316603779792786,1.1121346950531006
50,156028,156029,-0.14436526596546173,-0.12971635162830353,1.1928303241729736,-28.682594299316406,10.099867820739746,5.590202331542969,1.0529472827911377,1.0589470863342285,0.11999399960041046,7.868175983428955,0.01520215068012476,1.2482138872146606
51,156038,156039,-0.1622147113084793,-0.07915330678224564,1.1617642641067505,-21.969196319580078,13.54714298248291,2.8333113193511963,1.0604469776153564,1.0664466619491577,0.12149392068386078,7.939113616943359,0.018734212964773178,1.169092059135437
52,156048,156049,-0.034605856984853745,-0.052652593702077866,1.1717032194137573,-8.613300323486328,8.232905387878418,5.747984886169434,1.0499475002288818,1.0589470863342285,0.11699414998292923,7.618218421936035,-0.3796546757221222,1.282065987586975
53,156058,156059,-0.1327115297317505,0.061549894511699677,1.2893973588943481,3.930075168609619,0.6774379014968872,7.000699520111084,1.070946455001831,1.0379481315612793,0.12899354100227356,7.5254411697387695,-0.5554690957069397,1.3782670497894287
54,156068,156069,-0.010430749505758286,-0.12935662269592285,1.2207435369491577,22.04523468017578,-4.884190082550049,11.605087280273438,1.0604469776153564,1.0514473915100098,0.11249437183141708,7.71451473236084,-0.5190157294273376,1.4418234825134277
55,156078,156079,-0.1301971822977066,-0.10271056741476059,1.1199030876159668,36.899322509765625,-10.233723640441895,10.904335021972656,1.0694465637207031,1.0364481210708618,0.12449377030134201,7.588181018829346,-0.11293506622314453,1.397776484489441
56,156088,156089,-0.08734625577926636,-0.05478709936141968,1.1004384756088257,39.82948303222656,-7.3944525718688965,14.479013442993164,1.0814459323883057,1.0244487524032593,0.11549422144889832,7.912996768951416,0.5674008727073669,1.275860071182251
57,156098,156099,-0.038807447999715805,-0.07591806352138519,1.0320119857788086,24.02082633972168,0.06192348524928093,18.58951759338379,1.073946237564087,1.0289485454559326,0.113994300365448,7.892384052276611,0.6934800148010254,1.6005550622940063
58,156108,156109,-0.04198029264807701,-0.06389342248439789,0.9857367277145386,-1.3356366157531738,10.079032897949219,18.396526336669922,1.0814459323883057,1.0274486541748047,0.10649467259645462,8.136548042297363,1.0499382019042969,1.6794750690460205
59,156118,156119,-0.06128210201859474,-0.08473855257034302,0.9809269309043884,-35.321388244628906,17.13044548034668,20.653369903564453,1.0799460411071777,1.0079495906829834,0.113994300365448,7.741084098815918,0.7151816487312317,2.1121468544006348
60,156128,156129,-0.10545561462640762,-0.03201991319656372,1.0227512121200562,-64.81464385986328,26.350881576538086,20.68496322631836,1.0784460306167603,0.9974501132965088,0.11549422144889832,7.677569389343262,0.21513479948043823,2.4220492839813232
61,156138,156139,-0.11234381049871445,0.0979168489575386,1.067953109741211,-81.04542541503906,28.512638092041016,21.414926528930664,1.0679465532302856,1.01694917678833,0.11999399960041046,7.546206951141357,-0.18835681676864624,2.4342849254608154
62,156148,156149,-0.1424269825220108,-0.14492939412593842,0.9914159774780273,-85.05316162109375,27.918712615966797,23.741443634033203,1.0694465637207031,1.033448338508606,0.10649467259645462,7.291912078857422,-1.2839374542236328,2.866363763809204
63,156158,156159,-0.036300644278526306,-0.18801213800907135,0.9653530120849609,-70.88704681396484,24.560400009155273,24.10280990600586,1.0634467601776123,1.0304484367370605,0.10949452221393585,7.053173065185547,-1.8554821014404297,2.841256618499756
64,156168,156169,-0.06570213288068771,-0.12070825695991516,1.1058632135391235,-48.71694564819336,16.950817108154297,21.684471130371094,1.0769461393356323,1.0439478158950806,0.11099445074796677,6.866352558135986,-2.7292792797088623,3.1709096431732178
65,156178,156179,-0.10264980047941208,-0.01580175571143627,1.2404470443725586,-18.789737701416016,22.39026641845703,19.426006317138672,1.070946455001831,1.0319483280181885,0.1229938492178917,6.6551737785339355,-3.0700347423553467,3.214276075363159
66,156188,156189,-0.016692666336894035,0.024581076577305794,1.0705136060714722,10.661137580871582,32.20234680175781,18.214181900024414,1.0814459323883057,1.018449068069458,0.12749361991882324,6.3463826179504395,-3.3761887550354004,3.468487024307251
67,156198,156199,-0.11176513135433197,-0.15752124786376953,1.0423859357833862,29.641494750976562,42.37268829345703,15.225248336791992,1.0814459323883057,1.0154491662979126,0.11249437183141708,6.06982946395874,-3.235563278198242,3.568016290664673
68,156208,156209,-0.00683022104203701,-0.29377251863479614,1.000266194343567,40.02568054199219,43.38032913208008,13.423810005187988,1.0679465532302856,1.0109494924545288,0.11699414998292923,5.598767280578613,-2.816352605819702,3.5760061740875244
69,156218,156219,-0.10797445476055145,-0.25248947739601135,0.9943252205848694,37.30816650390625,41.432167053222656,10.997952461242676,1.0754462480545044,1.0154491662979126,0.11549422144889832,5.219629287719727,-2.4059057235717773,3.660007953643799
70,156228,156229,-0.10549916326999664,-0.0758356899023056,0.9094789028167725,25.896669387817383,28.616008758544922,8.122989654541016,1.070946455001831,1.0139492750167847,0.10799460113048553,4.707036018371582,-2.1415305137634277,3.8461689949035645
71,156238,156239,-0.1761046200990677,-0.09032781422138214,1.0334585905075073,8.865249633789062,16.308313369750977,2.6234066486358643,1.057447075843811,0.9974501132965088,0.11249437183141708,4.708043098449707,-1.5651999711990356,3.6012306213378906
72,156248,156249,-0.060675375163555145,-0.1796112209558487,0.7771229147911072,-10.372376441955566,7.494863986968994,2.4210169315338135,1.072446346282959,0.9704514741897583,0.11549422144889832,4.500143527984619,-1.5478776693344116,3.6975128650665283
73,156258,156259,-0.06968501955270767,-0.07309494912624359,0.7959818243980408,-29.22117042541504,7.839184761047363,0.4711693227291107,1.070946455001831,0.9899504780769348,0.11999399960041046,4.306695938110352,-1.9173548221588135,3.9548351764678955
74,156268,156269,-0.013047819025814533,-0.08940955251455307,0.7785916328430176,-41.89932632446289,5.580995559692383,-5.073260307312012,1.0604469776153564,0.9884505867958069,0.10949452221393585,4.222604751586914,-2.403799533843994,4.104374408721924
75,156278,156279,-0.1349899172782898,0.06058173254132271,0.8644958138465881,-45.11899185180664,12.847657203674316,-8.510039329528809,1.073946237564087,0.9989500045776367,0.11699414998292923,4.325108528137207,-2.15972900390625,3.588500499725342
76,156288,156289,-0.25550007820129395,0.06809239834547043,0.7482905387878418,-39.750308990478516,19.008251190185547,-5.163972854614258,1.072446346282959,1.0064496994018555,0.11249437183141708,4.3240556716918945,-2.811005115509033,3.6063079833984375
77,156298,156299,-0.20484408736228943,0.19151853024959564,0.8444377779960632,-30.876953125,37.528846740722656,-6.630828857421875,1.0694465637207031,1.0154491662979126,0.12749361991882324,4.140132427215576,-3.0855460166931152,3.4694502353668213
78,156308,156309,-0.12110740691423416,0.16184258460998535,0.9178286194801331,-16.76089859008789,52.045257568359375,-6.919674396514893,1.0694465637207031,1.0124493837356567,0.10649467259645462,3.8260834217071533,-3.340668201446533,3.339838743209839
79,156318,156319,-0.08967916667461395,-0.013916783034801483,0.8257518410682678,-1.8193280696868896,61.87144088745117,-7.01222038269043,1.0649467706680298,1.004949688911438,0.113994300365448,3.410431146621704,-3.431596517562866,3.1710121631622314
80,156328,156329,0.01677233912050724,-0.022576259449124336,1.049037218093872,13.480011940002441,62.17832946777344,-7.260002613067627,1.0514473915100098,1.0244487524032593,0.11549422144889832,2.6373093128204346,-3.5582480430603027,3.1722400188446045
81,156338,156339,-0.003909560386091471,-0.24957405030727386,0.8176900744438171,22.550386428833008,53.42570495605469,-11.343667030334473,1.0454477071762085,1.0214488506317139,0.12149392068386078,1.9013981819152832,-3.5188653469085693,3.1351113319396973
82,156348,156349,-0.032858144491910934,-0.0651019886136055,0.8522462248802185,23.130704879760742,44.69281768798828,-12.423776626586914,1.055947184562683,1.019948959350586,0.1049947515130043,1.5020041465759277,-2.9993953704833984,2.8045053482055664
83,156358,156359,-0.10966342687606812,-0.06236979737877846,0.8298666477203369,19.11549949645996,35.030677795410156,-11.115588188171387,1.057447075843811,1.018449068069458,0.10349482297897339,1.0824846029281616,-2.9683635234832764,2.741938829421997
84,156368,156369,-0.06345614045858383,0.07424578070640564,0.7600398659706116,13.667882919311523,25.561891555786133,-10.848832130432129,1.0439478158950806,1.019948959350586,0.11699414998292923,0.7046647071838379,-2.7165000438690186,2.5968410968780518
85,156378,156379,-0.058214034885168076,0.18418265879154205,0.8333946466445923,5.2347002029418945,23.194061279296875,-10.854012489318848,1.0364481210708618,1.0244487524032593,0.11249437183141708,0.5082873106002808,-2.5033018589019775,2.4302005767822266
86,156388,156389,-0.0229325033724308,0.05614408850669861,0.9225025177001953,1.7441487312316895,20.775028228759766,-8.96886920928955,1.0454477071762085,1.0094494819641113,0.10949452221393585,0.17012590169906616,-2.5390024185180664,2.387084722518921
87,156398,156399,-0.024208564311265945,-0.11791786551475525,0.8873521089553833,-0.505081295967102,20.194604873657227,-7.93520975112915,1.0304484367370605,1.00344979763031,0.10949452221393585,-0.01375520508736372,-2.56179141998291,2.2917871475219727
88,156408,156409,-0.05633154511451721,-0.05767393484711647,0.8661202192306519,0.013157800771296024,22.05449867248535,-7.346241474151611,1.0319483280181885,1.0139492750167847,0.10199490189552307,-0.19527235627174377,-2.602260112762451,2.2088661193847656
89,156418,156419,-0.025305818766355515,-0.053863558918237686,0.806371808052063,1.6715689897537231,23.21723175048828,-6.377917289733887,1.0349482297897339,1.0109494924545288,0.11099445074796677,-0.3889778256416321,-2.754610776901245,2.1585493087768555
90,156428,156429,-0.08259172737598419,0.025630636140704155,0.9541352987289429,1.3631861209869385,22.98900032043457,-5.499479293823242,1.019948959350586,1.019948959350586,0.1049947515130043,-0.673583447933197,-2.748358726501465,2.105025291442871
91,156438,156439,-0.02742447890341282,-0.0810018852353096,0.8728275895118713,2.028193712234497,24.603534698486328,-4.7593770027160645,1.0274486541748047,1.018449068069458,0.10949452221393585,-1.0379688739776611,-3.005903482437134,2.1318535804748535
92,156448,156449,-0.034028906375169754,-0.0611383281648159,0.8508231043815613,5.212239742279053,23.724733352661133,-4.753746032714844,1.01694917678833,1.0259486436843872,0.09599519520998001,-1.3428219556808472,-2.9490156173706055,2.090263605117798
93,156458,156459,-0.039741043001413345,-0.13515114784240723,0.92167729139328,8.56690788269043,20.278667449951172,-5.779829978942871,1.0274486541748047,1.0274486541748047,0.10649467259645462,-1.4945118427276611,-2.9189178943634033,2.004943609237671
94,156468,156469,0.05345045402646065,-0.1411001831293106,0.8056538105010986,12.238157272338867,13.231696128845215,-6.107194423675537,1.0154491662979126,1.0244487524032593,0.09749512374401093,-1.7661421298980713,-2.8265879154205322,1.9531896114349365
95,156478,156479,-0.037763774394989014,-0.03674831986427307,0.8614703416824341,22.02781105041504,2.577744722366333,-8.988809585571289,1.0379481315612793,1.0139492750167847,0.10799460113048553,-1.8664528131484985,-2.5891053676605225,1.8685864210128784
96,156488,156489,-0.04385843500494957,-0.02593574859201908,0.8449869751930237,36.52906799316406,-9.926057815551758,-10.042943954467773,1.042447805404663,1.0214488506317139,0.09149542450904846,-1.7732007503509521,-2.1775624752044678,1.7372044324874878
97,156498,156499,-0.13892319798469543,0.1224915161728859,0.949847936630249,45.78769302368164,-16.480724334716797,-12.04906177520752,1.019948959350586,1.0319483280181885,0.113994300365448,-1.730962872505188,-2.2556583881378174,1.653430700302124
98,156508,156509,0.07550838589668274,-0.02777429297566414,0.8715888857841492,47.53464126586914,-21.821060180664062,-12.940396308898926,1.0139492750167847,1.0289485454559326,0.09599519520998001,-1.4243289232254028,-1.618274211883545,1.5045415163040161
99,156518,156519,-0.08378302305936813,-0.11119488626718521,0.7789210081100464,40.305294036865234,-18.853910446166992,-15.018416404724121,1.01694917678833,1.0259486436843872,0.11099445074796677,-1.747924566268921,-1.599242091178894,1.5163638591766357
100,156528,156529,-0.1329343616962433,0.1938331127166748,1.074614405632019,30.197237014770508,-8.353726387023926,-18.292705535888672,1.0259486436843872,1.0109494924545288,0.10799460113048553,-1.406172275543213,-0.9968796372413635,1.343963384628296
101,156538,156539,-0.12182284146547318,-0.027941178530454636,0.8854130506515503,19.808547973632812,4.0618462562561035,-19.492624282836914,1.0349482297897339,1.01694917678833,0.1049947515130043,-1.4660087823867798,-0.8374985456466675,1.1956318616867065
102,156548,156549,-0.04741648957133293,0.002700744429603219,0.9695327281951904,12.728363037109375,11.279234886169434,-19.801424026489258,1.0244487524032593,1.033448338508606,0.09749512374401093,-1.639610767364502,-0.6260566115379333,1.040663480758667
103,156558,156559,-0.05159095674753189,-0.05202307179570198,0.9107663035392761,16.94295883178711,12.855424880981445,-19.14818572998047,1.0139492750167847,1.0289485454559326,0.1049947515130043,-1.5393198728561401,-0.35743972659111023,0.8108001947402954
104,156568,156569,0.01833958737552166,-0.08310331404209137,0.824840247631073,28.114578247070312,11.227910041809082,-19.93778419494629,1.0139492750167847,1.0469475984573364,0.09899504482746124,-1.6345182657241821,-0.2957504689693451,0.5971111059188843
105,156578,156579,-0.13989192247390747,-0.43714791536331177,0.7813374400138855,41.38905334472656,1.1522979736328125,-17.157798767089844,1.01694917678833,1.0319483280181885,0.1049947515130043,-1.801612138748169,-0.03064771741628647,0.4122847318649292
106,156588,156589,-0.06705556809902191,-0.22049014270305634,0.9194590449333191,42.49024200439453,-9.319595336914062,-14.763684272766113,0.9944502711296082,1.0304484367370605,0.10049497336149216,-1.789510726928711,0.33993420004844666,0.2297900766134262
107,156598,156599,-0.04234495386481285,-0.16465796530246735,0.8664567470550537,38.08670425415039,-14.874420166015625,-13.945465087890625,1.0094494819641113,1.0214488506317139,0.10349482297897339,-1.8408526182174683,0.5831342339515686,0.07336437702178955
108,156608,156609,-0.10249321907758713,-0.047980986535549164,0.918178379535675,30.510709762573242,-17.112720489501953,-12.827978134155273,1.0079495906829834,1.0229488611221313,0.10799460113048553,-1.5742851495742798,1.1725143194198608,-0.04512200504541397
109,156618,156619,-0.023170076310634613,-0.09675002843141556,0.9064015746116638,22.238061904907227,-15.709513664245605,-11.951897621154785,1.0124493837356567,1.0394480228424072,0.10049497336149216,-1.7035802602767944,1.4172351360321045,-0.14039573073387146
110,156628,156629,-0.10704867541790009,-0.2156134396791458,0.8825979232788086,13.54871654510498,-14.525960922241211,-11.790581703186035,1.0124493837356567,1.018449068069458,0.11249437183141708,-1.359170913696289,1.7395286560058594,-0.26242324709892273
111,156638,156639,0.02162805385887623,-0.19904188811779022,0.7791333198547363,8.526302337646484,-15.583980560302734,-9.042374610900879,1.004949688911438,1.0349482297897339,0.10799460113048553,-1.3247226476669312,1.9119619131088257,-0.3602001667022705
112,156648,156649,-0.12735942006111145,0.044777628034353256,1.050620436668396,5.4872307777404785,-13.884429931640625,-7.511965274810791,1.0109494924545288,1.0409479141235352,0.10199490189552307,-1.288084864616394,1.9275362491607666,-0.46275457739830017
113,156658,156659,-0.05258694663643837,-0.05306245759129524,0.9464603066444397,4.640604496002197,-19.14806365966797,-2.541797161102295,0.9944502711296082,1.0394480228424072,0.10649467259645462,-1.2985419034957886,1.918749451637268,-0.5441491603851318
114,156668,156669,-0.032245319336652756,-0.055481892079114914,0.9800673723220825,-2.5638461112976074,-27.131080627441406,-1.9051177501678467,1.00344979763031,1.0394480228424072,0.10349482297897339,-0.916374921798706,1.932134747505188,-0.5926913022994995
115,156678,156679,-0.053473543375730515,-0.20614762604236603,0.913320004940033,-9.918244361877441,-32.1599235534668,0.06557831913232803,1.0109494924545288,1.0469475984573364,0.11699414998292923,-0.7718054056167603,2.0548598766326904,-0.583516001701355
116,156688,156689,-0.04652608931064606,-0.12094777822494507,1.0083656311035156,-16.823068618774414,-33.571258544921875,0.8766235709190369,1.0004500150680542,1.048447608947754,0.10049497336149216,-0.3383558690547943,1.907263159751892,-0.6037284731864929
117,156698,156699,-0.030252333730459213,-0.11838213354349136,1.0835362672805786,-27.411571502685547,-30.62055015563965,1.7618523836135864,1.0019499063491821,1.0529472827911377,0.09899504482746124,-0.3325951099395752,1.7804350852966309,-0.6030248403549194
118,156708,156709,-0.04228193312883377,0.07023957371711731,1.091025948524475,-37.16316604614258,-23.278133392333984,0.27023524045944214,1.0079495906829834,1.0529472827911377,0.09899504482746124,0.19205455482006073,1.4093295335769653,-0.6072607636451721
119,156718,156719,0.002045572269707918,0.01876339130103588,1.049553394317627,-40.19680404663086,-15.33130931854248,-0.6206962466239929,1.0079495906829834,1.0529472827911377,0.11699414998292923,0.2376251220703125,1.3191895484924316,-0.5666706562042236
120,156728,156729,0.014033644460141659,0.014850926585495472,1.0806106328964233,-31.166011810302734,-8.179125785827637,-2.536022424697876,1.0094494819641113,1.0454477071762085,0.11249437183141708,0.4415287375450134,0.7847391963005066,-0.599246084690094
121,156738,156739,-0.031477440148591995,0.034017257392406464,1.063048005104065,-21.18752098083496,-4.1294097900390625,-3.7703826427459717,1.0064496994018555,1.0694465637207031,0.10649467259645462,0.3900998830795288,0.4647538363933563,-0.6323145627975464
122,156748,156749,-0.15275712311267853,0.049710433930158615,1.2182141542434692,-4.355283737182617,-1.8312493562698364,-5.465066909790039,1.0094494819641113,1.0544472932815552,0.10649467259645462,0.35805174708366394,0.33466508984565735,-0.6609436869621277
123,156758,156759,-0.12935884296894073,-0.10970582067966461,1.1382397413253784,16.28666114807129,-10.956603050231934,-6.358835697174072,1.01694917678833,1.055947184562683,0.1049947515130043,0.40425384044647217,0.34803733229637146,-0.7024385929107666
124,156768,156769,-0.11666253954172134,-0.037442583590745926,1.1074334383010864,39.871856689453125,-24.347105026245117,-9.581769943237305,1.019948959350586,1.070946455001831,0.11099445074796677,0.7582875490188599,0.7003554701805115,-0.7208579778671265
125,156778,156779,-0.1613275706768036,-0.16163304448127747,1.0397577285766602,56.262516021728516,-34.84242630004883,-16.119977951049805,1.0259486436843872,1.0289485454559326,0.1229938492178917,0.8054664731025696,1.0605782270431519,-0.8382303714752197
126,156788,156789,-0.02030222676694393,-0.3146088719367981,0.9067976474761963,61.73352813720703,-43.29559326171875,-17.773771286010742,1.0274486541748047,1.0364481210708618,0.10349482297897339,1.1791495084762573,1.6546728610992432,-0.9984092712402344
127,156798,156799,-0.13985520601272583,-0.1985403448343277,1.002565622329712,53.17081069946289,-40.79616928100586,-19.594335556030273,1.0274486541748047,1.0304484367370605,0.11549422144889832,1.4378308057785034,2.1619696617126465,-1.2166237831115723
128,156808,156809,-0.12774181365966797,-0.07836831361055374,0.9687578082084656,32.12060546875,-29.906095504760742,-16.173181533813477,1.0304484367370605,1.033448338508606,0.11549422144889832,2.05090069770813,2.9693965911865234,-1.3859763145446777
129,156818,156819,-0.23550067842006683,-0.09869562834501266,1.0028566122055054,1.7962124347686768,-14.0070219039917,-15.954530715942383,1.0379481315612793,1.0289485454559326,0.11699414998292923,2.1006851196289062,3.050645589828491,-1.6061819791793823
130,156828,156829,-0.24880173802375793,-0.20613716542720795,0.9549878835678101,-34.67119598388672,-1.8829333782196045,-13.353071212768555,1.0349482297897339,1.019948959350586,0.11099445074796677,2.357668161392212,3.0002312660217285,-1.7636022567749023
131,156838,156839,0.12055199593305588,-0.12461492419242859,0.9838243126869202,-61.61627197265625,11.311177253723145,-9.820709228515625,1.0379481315612793,1.0319483280181885,0.11699414998292923,2.2467939853668213,2.9590320587158203,-1.9075720310211182
132,156848,156849,0.03254624828696251,-0.16413499414920807,1.04204261302948,-69.09001159667969,16.03724479675293,-7.750570774078369,1.033448338508606,1.048447608947754,0.11549422144889832,2.035501480102539,2.212545394897461,-2.019634246826172
133,156858,156859,0.007982361130416393,-0.14678221940994263,0.9645425081253052,-52.26057434082031,10.53975772857666,-6.4634246826171875,1.01694917678833,1.0679465532302856,0.11999399960041046,1.9343043565750122,1.6934995651245117,-2.08548641204834
134,156868,156869,-0.0671267956495285,-0.11983846127986908,0.9793875217437744,-20.75981330871582,-1.8924849033355713,-2.4590072631835938,1.0139492750167847,1.0589470863342285,0.1229938492178917,1.9270011186599731,1.1708600521087646,-2.129718065261841
135,156878,156879,0.05172182247042656,-0.010954816825687885,1.06413996219635,10.73196792602539,-10.715752601623535,3.8217010498046875,1.0274486541748047,1.048447608947754,0.11549422144889832,1.7357515096664429,1.0163497924804688,-2.196181058883667
136,156888,156889,-0.08755269646644592,-0.0017844006652012467,1.1635740995407104,25.388383865356445,-17.746273040771484,8.846144676208496,1.019948959350586,1.0259486436843872,0.11999399960041046,2.060807228088379,1.1818877458572388,-2.1340134143829346
137,156898,156899,-0.06318309158086777,-0.01811082661151886,1.1025044918060303,22.48735237121582,-19.862430572509766,12.142901420593262,1.033448338508606,1.0304484367370605,0.11549422144889832,2.109358549118042,1.4707974195480347,-2.0772552490234375
138,156908,156909,0.02674296125769615,0.06876737624406815,0.9988502860069275,6.584664344787598,-19.590394973754883,16.018354415893555,1.033448338508606,1.048447608947754,0.11849407106637955,2.5465385913848877,1.7410204410552979,-1.93413507938385
139,156918,156919,-0.012999478727579117,-0.03462929651141167,1.060957670211792,-18.082921981811523,-11.233599662780762,18.691070556640625,1.033448338508606,1.033448338508606,0.11549422144889832,2.4551243782043457,1.8800063133239746,-1.8348491191864014
140,156928,156929,-0.030244264751672745,-0.15400895476341248,1.0343838930130005,-43.92339324951172,5.630857467651367,19.297622680664062,1.0364481210708618,1.018449068069458,0.11249437183141708,2.7008180618286133,1.6528587341308594,-1.6303942203521729
141,156938,156939,-0.1276879906654358,-0.07330113649368286,1.0866777896881104,-61.11207962036133,19.880542755126953,17.237791061401367,1.0469475984573364,1.019948959350586,0.09599519520998001,2.3380463123321533,1.1107776165008545,-1.4848631620407104
142,156948,156949,-0.1405678242444992,-0.00564161129295826,1.0568033456802368,-61.262229919433594,24.571992874145508,18.68194580078125,1.048447608947754,1.0364481210708618,0.10649467259645462,2.2081644535064697,0.34950926899909973,-1.2854647636413574
143,156958,156959,-0.10563801974058151,0.09362733364105225,1.101289987564087,-48.664085388183594,17.24394989013672,19.403324127197266,1.0409479141235352,1.0439478158950806,0.1049947515130043,2.017659902572632,-0.10146567970514297,-1.112993836402893
144,156968,156969,-0.06728405505418777,0.0890563353896141,1.065253734588623,-28.787921905517578,6.92091703414917,20.332101821899414,1.0259486436843872,1.0379481315612793,0.113994300365448,1.8679178953170776,-0.8233438730239868,-0.8934507966041565
145,156978,156979,-0.1403195559978485,0.10716260969638824,0.9297024607658386,-9.600306510925293,-3.814802885055542,18.846237182617188,1.048447608947754,1.0304484367370605,0.12449377030134201,1.9459689855575562,-0.9416850805282593,-0.6957082748413086
146,156988,156989,-0.15576107800006866,0.14136919379234314,0.9712017774581909,1.700006127357483,-9.153878211975098,16.857078552246094,1.042447805404663,1.0304484367370605,0.11249437183141708,2.0265471935272217,-1.1290408372879028,-0.49132904410362244
147,156998,156999,-0.17849712073802948,0.07776691019535065,1.0496435165405273,7.7719926834106445,-10.007787704467773,15.727706909179688,1.0409479141235352,1.0259486436843872,0.11099445074796677,2.244163990020752,-1.139958143234253,-0.3045843839645386
148,157008,157009,-0.2542943060398102,-0.10308408737182617,0.9372754096984863,7.95194673538208,-1.6754200458526611,14.989236831665039,1.0454477071762085,1.033448338508606,0.10949452221393585,2.031618356704712,-1.0648213624954224,-0.17264685034751892
149,157018,157019,-0.15422388911247253,-0.04712411016225815,0.9307700991630554,2.7581069469451904,6.467730522155762,14.45942211151123,1.0544472932815552,1.018449068069458,0.11549422144889832,2.0543553829193115,-0.924015998840332,-0.031084515154361725
150,157028,157029,-0.27455568313598633,-0.09836380928754807,0.8766376376152039,-2.511732816696167,-1.0991771221160889,12.416162490844727,1.0439478158950806,1.0319483280181885,0.113994300365448,2.047161817550659,-0.9385526776313782,0.11963745206594467
151,157038,157039,-0.21048656105995178,-0.09383152425289154,0.8662360906600952,-21.806453704833984,11.983818054199219,11.003867149353027,1.0469475984573364,1.019948959350586,0.113994300365448,2.029447078704834,-1.1146371364593506,0.2636784613132477
152,157048,157049,-0.0829983502626419,-0.1994442194700241,0.7959365844726562,-27.798782348632812,10.343507766723633,10.090010643005371,1.033448338508606,1.0394480228424072,0.10949452221393585,1.8517301082611084,-1.2389309406280518,0.35830262303352356
153,157058,157059,0.002676130970939994,-0.2279871106147766,0.9045474529266357,-19.17940330505371,4.698899745941162,10.506341934204102,1.042447805404663,1.0274486541748047,0.11249437183141708,1.785703182220459,-1.415523886680603,0.4449537694454193
154,157068,157069,0.03639453649520874,-0.3527274429798126,0.9039687514305115,-10.904698371887207,0.8688085079193115,7.4944329261779785,1.0409479141235352,1.0349482297897339,0.113994300365448,1.7335680723190308,-1.4738198518753052,0.5276309251785278
155,157078,157079,-0.10205557197332382,-0.3948279917240143,0.7544310092926025,-0.4426822364330292,-4.281503200531006,5.724761009216309,1.0349482297897339,1.0259486436843872,0.113994300365448,1.8218544721603394,-1.672910213470459,0.6170865893363953
156,157088,157089,-0.08514346182346344,-0.13156786561012268,0.8888377547264099,3.9052817821502686,-4.408470630645752,5.390974044799805,1.0454477071762085,1.0454477071762085,0.10949452221393585,1.9490159749984741,-1.6544032096862793,0.6717920303344727
157,157098,157099,-0.019541731104254723,-0.29743194580078125,0.8895898461341858,8.84636116027832,-3.9774763584136963,5.360517978668213,1.0364481210708618,1.0364481210708618,0.11249437183141708,1.864005208015442,-1.6249768733978271,0.7316453456878662
158,157108,157109,0.026046130806207657,-0.3482455015182495,0.969608724117279,9.73499584197998,-4.037698268890381,5.863096714019775,1.0409479141235352,1.0409479141235352,0.11699414998292923,1.8675025701522827,-1.5195106267929077,0.7860739827156067
159,157118,157119,0.0034379062708467245,-0.22496916353702545,1.0631932020187378,9.12665843963623,-2.3539772033691406,5.514265537261963,1.0319483280181885,1.0409479141235352,0.11699414998292923,1.7239669561386108,-1.5440138578414917,0.8733420372009277
160,157128,157129,0.0327470600605011,0.009088482707738876,1.1716362237930298,4.028414249420166,1.7834625244140625,3.799929618835449,1.042447805404663,1.0454477071762085,0.10949452221393585,1.8138319253921509,-1.451939582824707,0.9228116273880005
161,157138,157139,0.03345395252108574,-0.031918346881866455,0.9614933133125305,2.7944934368133545,2.187248706817627,4.387123107910156,1.0304484367370605,1.0394480228424072,0.11249437183141708,1.7963827848434448,-1.4092884063720703,0.9610984921455383
162,157148,157149,0.021599838510155678,0.007544450927525759,1.046454906463623,-0.6598888039588928,-1.9358185529708862,2.7810826301574707,1.0319483280181885,1.0529472827911377,0.11099445074796677,1.8496642112731934,-1.4096941947937012,0.995464026927948
163,157158,157159,-0.049061983823776245,-0.09725771844387054,1.0130362510681152,-4.927976131439209,-3.6948797702789307,0.7441228032112122,1.033448338508606,1.0394480228424072,0.10949452221393585,1.9442996978759766,-1.4765764474868774,1.0180397033691406
164,157168,157169,-0.12404436618089676,-0.1590072363615036,0.9438450336456299,-5.332657337188721,-3.394054889678955,-0.498115211725235,1.0589470863342285,1.0379481315612793,0.10799460113048553,2.048663854598999,-1.5129719972610474,1.0170178413391113
165,157178,157179,-0.10053680837154388,-0.14142878353595734,0.920004665851593,-4.9489569664001465,-6.871490478515625,2.525073528289795,1.0379481315612793,1.0319483280181885,0.11999399960041046,2.101301908493042,-1.6189833879470825,1.0268207788467407
166,157188,157189,-0.07020630687475204,-0.07787661254405975,1.0358880758285522,-5.0586371421813965,-5.9148430824279785,2.116755247116089,1.042447805404663,1.0154491662979126,0.11249437183141708,2.1213786602020264,-1.7074905633926392,1.0634324550628662
167,157198,157199,-0.019910985603928566,-0.021388057619333267,1.0282390117645264,-9.436477661132812,-3.071848154067993,2.156731605529785,1.0454477071762085,1.033448338508606,0.12449377030134201,2.1148602962493896,-1.8130804300308228,1.1021932363510132
168,157208,157209,-0.06081307306885719,-0.005776293575763702,1.014246940612793,-12.47836685180664,1.245129108428955,1.5050585269927979,1.0364481210708618,1.0394480228424072,0.12149392068386078,2.1825082302093506,-1.9795212745666504,1.130189061164856
169,157218,157219,-0.09767059981822968,0.01182990986853838,1.0489003658294678,-11.040226936340332,7.331161975860596,0.3747670650482178,1.0469475984573364,1.0409479141235352,0.11099445074796677,2.100126028060913,-1.8994778394699097,1.1251193284988403
170,157228,157229,0.06363053619861603,-0.19667547941207886,1.0504971742630005,-4.586306571960449,14.823413848876953,-0.0393979512155056,1.0514473915100098,1.0274486541748047,0.11849407106637955,2.1020257472991943,-2.064664602279663,1.1215555667877197
171,157238,157239,0.02035888470709324,-0.029171787202358246,1.1002209186553955,6.468456268310547,6.511393070220947,-0.7845927476882935,1.0289485454559326,1.0379481315612793,0.1229938492178917,1.9898266792297363,-2.0900344848632812,1.1138756275177002
172,157248,157249,-0.07665892690420151,0.0033559983130544424,1.0371659994125366,14.141810417175293,10.07589054107666,-0.3813875913619995,1.0499475002288818,1.0409479141235352,0.1229938492178917,1.9012428522109985,-2.033093214035034,1.1078104972839355
173,157258,157259,-0.11774977296590805,-0.04491415619850159,0.9625880718231201,18.926624298095703,13.550580978393555,-0.8035856485366821,1.0364481210708618,1.0244487524032593,0.11249437183141708,1.7534561157226562,-1.8647010326385498,1.1040045022964478
174,157268,157269,-0.07463538646697998,0.03984713554382324,1.089811086654663,28.977251052856445,13.100529670715332,-0.5574709177017212,1.0544472932815552,1.0304484367370605,0.10349482297897339,1.503744125366211,-1.7961657047271729,1.1286760568618774
175,157278,157279,-0.09212181717157364,-0.033037588000297546,1.0438565015792847,35.74173355102539,9.724973678588867,0.35757073760032654,1.0439478158950806,1.0229488611221313,0.1319933980703354,1.424275517463684,-1.437090277671814,1.1028050184249878
176,157288,157289,-0.08581965416669846,-0.13386966288089752,0.9178740978240967,45.87321853637695,5.395498275756836,2.148498058319092,1.042447805404663,1.0244487524032593,0.10949452221393585,1.3208330869674683,-1.3029519319534302,1.129355549812317
177,157298,157299,-0.0462954081594944,-0.04660668596625328,0.9797786474227905,52.161590576171875,7.758480548858643,6.021190643310547,1.0469475984573364,1.0139492750167847,0.113994300365448,1.2497762441635132,-0.7948899269104004,1.1444913148880005
178,157308,157309,-0.1334245651960373,-0.04991354048252106,1.0428049564361572,52.20061492919922,11.175270080566406,9.40066146850586,1.0544472932815552,1.0094494819641113,0.10949452221393585,1.1575390100479126,-0.34201550483703613,1.2123457193374634
179,157318,157319,-0.08390983939170837,0.060899730771780014,1.064095139503479,39.64044952392578,11.654061317443848,9.773669242858887,1.048447608947754,1.0124493837356567,0.10949452221393585,1.020833969116211,0.28704750537872314,1.295987844467163
180,157328,157329,-0.0968971699476242,-0.05939750745892525,0.7915064692497253,23.99707794189453,1.0843186378479004,12.206950187683105,1.0349482297897339,1.0139492750167847,0.09899504482746124,0.9119873046875,0.33879923820495605,1.4268171787261963
181,157338,157339,-0.1614229828119278,0.05207661911845207,1.033854603767395,5.240568161010742,-14.575699806213379,12.992382049560547,1.042447805404663,1.0064496994018555,0.11549422144889832,0.9858322143554688,0.4763180911540985,1.5472372770309448
182,157348,157349,-0.042799368500709534,-0.13203054666519165,0.7810721397399902,-9.555327415466309,-28.142316818237305,9.468964576721191,1.0364481210708618,0.9974501132965088,0.10949452221393585,1.2875447273254395,0.5543091297149658,1.6526193618774414
183,157358,157359,-0.012124007567763329,0.006460144650191069,0.9410654306411743,-14.112627029418945,-36.274662017822266,7.2989420890808105,1.0364481210708618,1.0094494819641113,0.11849407106637955,1.5907280445098877,0.36601898074150085,1.7516840696334839
184,157368,157369,-0.11455093324184418,-0.010488124564290047,0.9409648180007935,-11.794744491577148,-34.04707336425781,6.8780388832092285,1.0469475984573364,1.004949688911438,0.1229938492178917,1.8348802328109741,0.1882149577140808,1.8375065326690674
185,157378,157379,-0.06522513926029205,-0.04059939086437225,0.921872615814209,-3.909015417098999,-20.090192794799805,5.703730583190918,1.0454477071762085,1.00344979763031,0.10649467259645462,2.288442373275757,0.21906772255897522,1.8802305459976196
186,157388,157389,-0.0378512442111969,0.012632572092115879,0.9944719672203064,6.4373555183410645,1.2721843719482422,7.382251739501953,1.0379481315612793,1.0079495906829834,0.10799460113048553,2.2659859657287598,0.23111754655838013,1.946789264678955
187,157398,157399,-0.16216690838336945,0.03391043096780777,0.9483572244644165,16.74357032775879,20.393291473388672,6.827981948852539,1.048447608947754,1.0094494819641113,0.11849407106637955,2.196941614151001,0.40304338932037354,2.011704683303833
188,157408,157409,-0.06993243843317032,-0.006077222526073456,0.9066678881645203,23.598709106445312,45.19272994995117,10.548079490661621,1.0514473915100098,1.0094494819641113,0.10949452221393585,1.8384430408477783,0.44535893201828003,2.102731227874756
189,157418,157419,-0.027581652626395226,0.059634141623973846,0.9954386353492737,21.246055603027344,55.42108154296875,12.118752479553223,1.0439478158950806,1.0259486436843872,0.11699414998292923,1.376142144203186,0.8554480671882629,2.19213604927063
190,157428,157429,0.07323811203241348,0.05350940674543381,0.9217641353607178,9.981654167175293,61.70364761352539,13.968450546264648,1.0289485454559326,1.0289485454559326,0.10799460113048553,0.851922333240509,0.8397009968757629,2.33474063873291
191,157438,157439,0.00614128727465868,0.0966702401638031,1.033650517463684,1.8001539707183838,43.28554153442383,15.251632690429688,1.0394480228424072,1.0304484367370605,0.10949452221393585,0.261404424905777,0.9032263159751892,2.4843993186950684
192,157448,157449,-0.0029736317228525877,0.152101531624794,1.0070832967758179,-7.485634803771973,24.330875396728516,16.23468017578125,1.033448338508606,1.0124493837356567,0.10049497336149216,-0.015337827615439892,0.9400774240493774,2.6382639408111572
193,157458,157459,-0.07885938882827759,0.06644213944673538,1.0325582027435303,-12.642435073852539,-0.45200619101524353,17.202728271484375,1.033448338508606,1.0244487524032593,0.11549422144889832,-0.23140837252140045,0.8488746881484985,2.801710367202759
194,157468,157469,-0.07810203731060028,-0.03466394171118736,0.8983750343322754,-14.298927307128906,-21.516347885131836,17.52918815612793,1.0379481315612793,1.004949688911438,0.1049947515130043,-0.12247327715158463,0.6051204800605774,2.973015785217285
195,157478,157479,-0.09320951253175735,0.16486798226833344,1.1017135381698608,-15.797290802001953,-32.20766830444336,15.411808013916016,1.0289485454559326,1.0079495906829834,0.1049947515130043,0.20320981740951538,0.41850143671035767,3.144742488861084
196,157488,157489,-0.035606302320957184,0.13869671523571014,1.045227289199829,-17.307302474975586,-32.52726364135742,14.220099449157715,1.019948959350586,1.01694917678833,0.113994300365448,0.4673810601234436,0.29936325550079346,3.2988383769989014
197,157498,157499,-0.07373237609863281,0.07547540217638016,1.0273915529251099,-12.486241340637207,-30.418941497802734,8.980830192565918,1.0244487524032593,1.0214488506317139,0.10949452221393585,0.9503938555717468,0.39243805408477783,3.442523717880249
198,157508,157509,-0.07736891508102417,-0.051207900047302246,0.8968514204025269,-15.708535194396973,-15.174454689025879,2.2657880783081055,1.0289485454559326,1.0439478158950806,0.10799460113048553,1.0988056659698486,0.13052621483802795,3.522736072540283
199,157518,157519,0.005265232175588608,-0.08406079560518265,0.7875276207923889,-18.265113830566406,2.3005685806274414,-0.6797619462013245,1.0289485454559326,1.01694917678833,0.10799460113048553,1.005611777305603,-0.09739673882722855,3.5411839485168457
200,157528,157529,-0.20433810353279114,0.03021853044629097,0.949633002281189,-17.65564727783203,14.574567794799805,-9.57603645324707,1.042447805404663,1.018449068069458,0.10349482297897339,0.941572368144989,-0.2760372459888458,3.5259857177734375
201,157538,157539,-0.19557510316371918,0.13777503371238708,0.8627635836601257,-9.03212833404541,29.252307891845703,-13.803359985351562,1.0289485454559326,1.0409479141235352,0.1049947515130043,0.8600102066993713,-0.3426614999771118,3.4389071464538574
202,157548,157549,-0.09499254077672958,0.11897691339254379,0.8311541676521301,8.809765815734863,30.348752975463867,-16.663869857788086,1.0319483280181885,1.0409479141235352,0.10799460113048553,0.6789553761482239,-0.39300337433815,3.3052661418914795
203,157558,157559,-0.03203926980495453,0.030406344681978226,0.9476697444915771,22.750579833984375,26.005613327026367,-18.65697479248047,1.0289485454559326,1.0439478158950806,0.113994300365448,0.19651339948177338,-0.17120245099067688,3.1339004039764404
204,157568,157569,-0.1543029248714447,0.01645859330892563,0.9070925712585449,29.60904312133789,9.869361877441406,-18.7991886138916,1.0139492750167847,1.0379481315612793,0.12599369883537292,0.03702200949192047,-0.04859984293580055,2.9471209049224854
205,157578,157579,-0.2088954895734787,-0.18465115129947662,0.9510085582733154,33.14998245239258,-12.485260009765625,-19.179067611694336,1.018449068069458,1.048447608947754,0.10949452221393585,-0.0061346604488790035,0.33116674423217773,2.763709783554077
206,157588,157589,-0.29901349544525146,-0.054887253791093826,1.1162046194076538,30.32558822631836,-26.690561294555664,-15.84257698059082,1.0109494924545288,1.0319483280181885,0.10799460113048553,0.15474073588848114,0.5373694896697998,2.5737252235412598
207,157598,157599,-0.11449795216321945,-0.08213648200035095,1.0654486417770386,14.960899353027344,-26.144886016845703,-14.207427978515625,1.01694917678833,1.0499475002288818,0.11099445074796677,0.5852339863777161,0.9990173578262329,2.4275755882263184
208,157608,157609,-0.08041860163211823,-0.21948660910129547,0.9662340879440308,-4.937435150146484,-20.918838500976562,-13.57018756866455,1.0244487524032593,1.0244487524032593,0.11849407106637955,0.7211108803749084,1.195154070854187,2.281338691711426
209,157618,157619,0.041631653904914856,-0.23700697720050812,1.026078701019287,-23.537126541137695,-6.581707000732422,-9.352721214294434,1.0139492750167847,1.0439478158950806,0.10799460113048553,0.883063554763794,1.0525777339935303,2.142946720123291
210,157628,157629,-0.013701964169740677,-0.3633762300014496,0.9974245429039001,-30.783924102783203,0.4737061858177185,-8.265870094299316,1.019948959350586,1.0499475002288818,0.11099445074796677,0.9617994427680969,0.7218570113182068,2.043323516845703
211,157638,157639,-0.060666389763355255,-0.1721952259540558,1.1435036659240723,-29.923999786376953,-1.156571626663208,-6.328907489776611,1.01694917678833,1.0529472827911377,0.113994300365448,0.9301599860191345,0.23616056144237518,1.9533734321594238
212,157648,157649,-0.07778355479240417,-0.0884854719042778,1.0284234285354614,-19.846540451049805,-1.5553395748138428,-5.939863204956055,1.0124493837356567,1.048447608947754,0.10949452221393585,0.917435348033905,-0.10002913326025009,1.8858693838119507
213,157658,157659,-0.07068691402673721,0.07467637956142426,1.1624797582626343,-2.750154495239258,0.6403318643569946,-5.157721996307373,1.0304484367370605,1.0454477071762085,0.12449377030134201,0.8516411185264587,-0.10583318024873734,1.8307241201400757
214,157668,157669,-0.10132879763841629,-0.024791918694972992,1.0739707946777344,15.2705078125,0.994269847869873,-5.053303241729736,1.033448338508606,1.0544472932815552,0.11549422144889832,0.828406572341919,-0.14415276050567627,1.7772349119186401
215,157678,157679,-0.13954032957553864,0.01398259587585926,1.05458664894104,29.2742862701416,4.487295150756836,-4.747480869293213,1.0229488611221313,1.0469475984573364,0.113994300365448,0.7698273062705994,0.18078728020191193,1.7314218282699585
216,157688,157689,-0.1951485574245453,0.06953921914100647,1.1964733600616455,40.782562255859375,13.242859840393066,-5.975504398345947,1.0364481210708618,1.033448338508606,0.11549422144889832,0.6391237378120422,0.5975949764251709,1.684479832649231
217,157698,157699,-0.19770732522010803,-0.0012344687711447477,1.0712391138076782,42.22283172607422,23.56507682800293,-3.224114179611206,1.0124493837356567,1.0454477071762085,0.10949452221393585,0.380545049905777,1.1350305080413818,1.6340240240097046
218,157708,157709,-0.10233543813228607,0.031724974513053894,1.0548076629638672,34.34774398803711,25.484703063964844,-6.334139347076416,1.018449068069458,1.042447805404663,0.10649467259645462,0.08983135223388672,1.4402227401733398,1.591657280921936
219,157718,157719,-0.09036199748516083,-0.1147431954741478,1.0540921688079834,17.912899017333984,22.73096466064453,-5.291392803192139,1.0349482297897339,1.0409479141235352,0.10799460113048553,0.310722678899765,1.8018718957901,1.566110372543335
220,157728,157729,-0.09412753582000732,-0.058668363839387894,1.1777719259262085,-5.490324020385742,9.14138126373291,-6.364834785461426,1.0094494819641113,1.0364481210708618,0.10949452221393585,-0.11989067494869232,1.7204009294509888,1.4840574264526367
221,157738,157739,-0.11834108829498291,-0.051083166152238846,1.0922393798828125,-19.22715187072754,-3.215876579284668,-6.01566219329834,1.018449068069458,1.0394480228424072,0.10049497336149216,-0.2380424290895462,1.532230019569397,1.4131755828857422
222,157748,157749,-0.05164206400513649,-0.08089663833379745,1.074191689491272,-32.7587776184082,-4.998083591461182,-5.5104546546936035,1.0244487524032593,1.0304484367370605,0.11249437183141708,-0.20752838253974915,1.323777198791504,1.3568847179412842
223,157758,157759,-0.09840437024831772,0.15330687165260315,1.1883467435836792,-37.375308990478516,-15.34743595123291,-4.097854137420654,1.0094494819641113,1.0364481210708618,0.11549422144889832,-0.16813111305236816,1.0764241218566895,1.3075474500656128
224,157768,157769,-0.3209342062473297,0.10289710760116577,1.194741129875183,-34.42273712158203,-13.935835838317871,-7.259965419769287,1.0229488611221313,1.0319483280181885,0.11099445074796677,0.03826088830828667,0.5641230344772339,1.2561438083648682
225,157778,157779,-0.15672025084495544,-0.07250093668699265,1.0483944416046143,-19.722515106201172,-8.777780532836914,-6.155211925506592,1.0379481315612793,1.0289485454559326,0.11999399960041046,0.23028424382209778,0.37297213077545166,1.2125113010406494
226,157788,157789,-0.1214480921626091,0.028609540313482285,1.1677396297454834,-0.15296898782253265,3.3896515369415283,-5.319120407104492,1.0364481210708618,1.0244487524032593,0.10949452221393585,0.1929427683353424,0.4180896580219269,1.159748911857605
227,157798,157799,-0.06693015247583389,-0.22787906229496002,1.0622658729553223,19.029787063598633,19.23282814025879,-4.277407169342041,1.0304484367370605,1.0154491662979126,0.11249437183141708,0.09614961594343185,0.4800070524215698,1.1075667142868042
228,157808,157809,-0.11057260632514954,-0.08886335045099258,1.1467164754867554,31.89966583251953,29.436433792114258,-2.8383471965789795,1.033448338508606,1.0214488506317139,0.12149392068386078,-0.09972736984491348,0.6273283362388611,1.0633760690689087
229,157818,157819,-0.0998665913939476,-0.05864739790558815,1.0272774696350098,36.16999816894531,31.01597785949707,-4.225030899047852,1.0304484367370605,1.0304484367370605,0.11549422144889832,-0.35344627499580383,1.1604703664779663,1.0629146099090576
230,157828,157829,-0.05266883969306946,-0.11215194314718246,1.1186678409576416,34.92718505859375,23.44918441772461,-5.694272518157959,1.0289485454559326,1.01694917678833,0.1049947515130043,-0.6061340570449829,1.3762341737747192,1.0163213014602661
231,157838,157839,-0.08783494681119919,-0.3973763585090637,0.9779087901115417,26.845149993896484,4.757837772369385,-7.090417861938477,1.0319483280181885,1.01694917678833,0.10799460113048553,-0.8735682964324951,1.7574621438980103,0.9654077887535095
232,157848,157849,-0.167812317609787,-0.1879534125328064,1.0697541236877441,6.683676242828369,-0.17844443023204803,-9.01112174987793,1.0409479141235352,1.0079495906829834,0.11099445074796677,-0.8391301035881042,1.8052481412887573,0.8808690309524536
233,157858,157859,-0.1047346442937851,-0.1784459948539734,1.064987063407898,-10.840241432189941,-3.703185796737671,-11.283660888671875,1.01694917678833,1.004949688911438,0.1049947515130043,-0.8249837756156921,1.8508676290512085,0.7885147333145142
234,157868,157869,-0.1293376386165619,-0.08577287942171097,1.0438497066497803,-20.40207862854004,-5.779363632202148,-10.900364875793457,1.0349482297897339,1.004949688911438,0.10799460113048553,-0.7512179613113403,1.7136470079421997,0.6760955452919006
235,157878,157879,-0.1076907142996788,-0.11576319485902786,0.9693734049797058,-23.106657028198242,-14.086163520812988,-11.272098541259766,1.0319483280181885,1.01694917678833,0.113994300365448,-0.7382197976112366,1.4352710247039795,0.5524616837501526
236,157888,157889,-0.14998523890972137,-0.09871676564216614,1.0937950611114502,-26.584360122680664,-6.371232509613037,-9.385998725891113,1.0259486436843872,0.9959501624107361,0.10799460113048553,-0.6151441335678101,1.2421436309814453,0.45624417066574097
237,157898,157899,-0.045829981565475464,-0.10663449764251709,1.0485116243362427,-29.07814598083496,1.0171589851379395,-7.905645847320557,1.0349482297897339,1.004949688911438,0.10799460113048553,-0.6499524116516113,0.8825336694717407,0.3351418972015381
238,157908,157909,-0.03866532817482948,-0.09253394603729248,0.9671847820281982,-24.489978790283203,-8.349200248718262,-7.102394104003906,1.0319483280181885,1.0139492750167847,0.12599369883537292,-0.5567067265510559,0.8576417565345764,0.30448707938194275
239,157918,157919,-0.18223749101161957,-0.004990082234144211,1.0619434118270874,-11.887373924255371,-15.844599723815918,-9.276220321655273,1.0274486541748047,1.0004500150680542,0.11249437183141708,-0.36443018913269043,0.6166225671768188,0.24714192748069763
240,157928,157929,-0.10573948174715042,-0.02262101136147976,1.0100066661834717,2.153744697570801,2.5961735248565674,-11.61767578125,1.0319483280181885,0.9989500045776367,0.09899504482746124,-0.24847173690795898,0.5909219980239868,0.17422494292259216
241,157938,157939,-0.05591340363025665,-0.06845105439424515,0.8969164490699768,13.478429794311523,15.16149616241455,-12.190728187561035,1.0364481210708618,1.0124493837356567,0.11249437183141708,-0.3319052457809448,0.6343862414360046,0.05999044328927994
242,157948,157949,0.026089420542120934,-0.09720288217067719,0.7796781659126282,21.055177688598633,17.407791137695312,-12.659292221069336,1.0364481210708618,1.0154491662979126,0.10049497336149216,-0.5780736207962036,0.775006115436554,-0.07008163630962372
243,157958,157959,-0.1207762062549591,0.10266482084989548,0.8889942765235901,17.234506607055664,14.076539993286133,-17.572050094604492,1.019948959350586,1.0019499063491821,0.1049947515130043,-0.7486282587051392,1.1363732814788818,-0.17167025804519653
244,157968,157969,-0.15321701765060425,0.13342967629432678,0.9887241721153259,-0.26126062870025635,22.38840103149414,-19.765348434448242,1.0304484367370605,1.0094494819641113,0.10649467259645462,-0.891350507736206,1.2485312223434448,-0.3418915271759033
245,157978,157979,0.061033498495817184,-0.05214126408100128,0.9946821331977844,-18.293855667114258,24.50223159790039,-17.98770523071289,1.0319483280181885,1.0109494924545288,0.10199490189552307,-1.1274597644805908,1.1567351818084717,-0.5474692583084106
246,157988,157989,0.1030762791633606,-0.1638200730085373,0.841916561126709,-30.097089767456055,14.141054153442383,-16.235132217407227,1.0304484367370605,1.0154491662979126,0.0944952741265297,-1.2133896350860596,1.0459305047988892,-0.6987419128417969
247,157998,157999,-0.06398724764585495,-0.1441684067249298,0.9910286068916321,-39.73002243041992,8.847219467163086,-13.482906341552734,1.0304484367370605,1.0154491662979126,0.10049497336149216,-1.3549433946609497,0.5262764692306519,-0.8944343328475952
248,158008,158009,-0.20393475890159607,-0.2191949188709259,0.8281194567680359,-36.12424850463867,5.914462566375732,-11.827637672424316,1.0304484367370605,1.0214488506317139,0.10349482297897339,-1.4800904989242554,0.48021551966667175,-0.9615001678466797
249,158018,158019,-0.160684734582901,-0.16060492396354675,0.7921241521835327,-30.491880416870117,-4.6699066162109375,-10.221261024475098,1.0094494819641113,1.0214488506317139,0.10649467259645462,-1.5953246355056763,0.18297982215881348,-1.0659699440002441
250,158028,158029,-0.06767340004444122,0.037601105868816376,1.0332525968551636,-15.943207740783691,-16.982688903808594,-5.58534574508667,1.0244487524032593,1.018449068069458,0.10949452221393585,-1.4611331224441528,-0.26496338844299316,-1.1847714185714722
251,158038,158039,0.01916438527405262,-0.049903713166713715,0.8780279755592346,-3.5653603076934814,-18.99736785888672,-0.7667403817176819,1.0304484367370605,1.0214488506317139,0.10649467259645462,-1.2112611532211304,-0.2572323679924011,-1.1937392950057983
252,158048,158049,0.0025535409804433584,0.08643484860658646,1.0002795457839966,2.3655362129211426,-22.86212921142578,1.3980188369750977,1.018449068069458,1.018449068069458,0.10949452221393585,-1.0507861375808716,-0.35084429383277893,-1.2208530902862549
253,158058,158059,-0.004825511481612921,-0.0043590860441327095,0.8744251132011414,4.642805576324463,-25.3626766204834,2.429659605026245,1.0124493837356567,1.0304484367370605,0.09149542450904846,-0.7917490005493164,-0.3504897952079773,-1.2143685817718506
254,158068,158069,-0.04024772718548775,-0.07753778994083405,0.9549204707145691,3.597059488296509,-17.844043731689453,4.160880088806152,1.019948959350586,1.0289485454559326,0.1049947515130043,-0.6070295572280884,-0.1844683587551117,-1.1637321710586548
255,158078,158079,-0.12030529230833054,0.026648813858628273,1.0608165264129639,-4.571286201477051,-2.5589447021484375,5.289618968963623,1.0229488611221313,1.0079495906829834,0.10799460113048553,-0.4163549542427063,-0.2728886008262634,-1.1433162689208984
256,158088,158089,-0.0986795574426651,-0.004940913524478674,0.913790225982666,-17.133516311645508,10.126302719116211,6.328715801239014,1.0394480228424072,1.0304484367370605,0.11849407106637955,-0.3998934328556061,-0.3043387234210968,-1.0886945724487305
257,158098,158099,-0.013190743513405323,-0.06715716421604156,0.9315237402915955,-26.02997398376465,17.255983352661133,4.115490913391113,1.0259486436843872,1.019948959350586,0.10799460113048553,-0.6129487156867981,-0.6132979393005371,-1.0624568462371826
258,158108,158109,-0.12080080062150955,0.01726316660642624,1.1008964776992798,-28.274188995361328,22.3585147857666,0.48586001992225647,1.0304484367370605,1.0364481210708618,0.10949452221393585,-0.9274999499320984,-0.749052107334137,-1.0029058456420898
259,158118,158119,-0.01812075823545456,0.05766812711954117,1.0675938129425049,-19.050743103027344,16.64345359802246,1.4375144243240356,1.0289485454559326,1.0469475984573364,0.1049947515130043,-1.0754945278167725,-1.2232881784439087,-1.031934380531311
260,158128,158129,-0.03995682671666145,-0.03413291648030281,0.9070196747779846,-5.216475009918213,-3.693021297454834,1.2324689626693726,1.0229488611221313,1.0499475002288818,0.10199490189552307,-1.2380950450897217,-1.4427188634872437,-1.026790976524353
261,158138,158139,-0.04162553697824478,-0.01790367066860199,0.844937801361084,12.6245756149292,-27.221763610839844,2.4134249687194824,1.0079495906829834,1.0409479141235352,0.11699414998292923,-0.9257895946502686,-1.4123127460479736,-1.0056568384170532
262,158148,158149,0.027277275919914246,0.08624989539384842,0.8777933716773987,18.92265510559082,-42.687171936035156,1.7318861484527588,1.0214488506317139,1.0304484367370605,0.10649467259645462,-0.5243270993232727,-1.20999014377594,-0.9730013608932495
263,158158,158159,-0.05784348025918007,0.08505664020776749,1.0322214365005493,14.458301544189453,-46.18942642211914,0.6466992497444153,1.0229488611221313,1.0289485454559326,0.1229938492178917,-0.10126163065433502,-0.9511775374412537,-0.9383878707885742
264,158168,158169,-0.1275528073310852,-0.029301000759005547,0.9704121947288513,2.925248146057129,-30.478111267089844,2.2696774005889893,1.0274486541748047,1.0274486541748047,0.10649467259645462,0.231440469622612,-0.8001934885978699,-0.9115617871284485
265,158178,158179,-0.045878637582063675,-0.11903524398803711,0.7882486581802368,-8.902198791503906,-13.525931358337402,2.8621044158935547,1.0244487524032593,1.0304484367370605,0.09749512374401093,0.7033644914627075,-0.8438361287117004,-0.9076371192932129
266,158188,158189,-0.06757301837205887,-0.045217160135507584,0.9396435618400574,-22.49050521850586,6.862311363220215,-0.33396705985069275,1.033448338508606,1.033448338508606,0.09749512374401093,0.779715359210968,-0.9462280869483948,-0.8775953054428101
267,158198,158199,-0.06851290911436081,0.03774307668209076,0.9977293014526367,-33.4374885559082,30.987319946289062,-0.17985686659812927,1.0109494924545288,1.0469475984573364,0.09899504482746124,0.5783439874649048,-1.2469899654388428,-0.8746850490570068
268,158208,158209,-0.028301628306508064,0.053651630878448486,0.9711505770683289,-35.35689163208008,45.992733001708984,2.0576953887939453,1.0139492750167847,1.0589470863342285,0.1049947515130043,0.06564341485500336,-1.7462148666381836,-0.8880628943443298
269,158218,158219,0.045037366449832916,-0.025442037731409073,0.8981155157089233,-33.94484329223633,41.43292999267578,-0.5480650067329407,1.00344979763031,1.0664466619491577,0.11549422144889832,-0.472553014755249,-2.05085825920105,-0.8762262463569641
270,158228,158229,-0.04224833473563194,-0.05299818515777588,0.8851161599159241,-21.511974334716797,20.124277114868164,-2.938184976577759,1.01694917678833,1.0619468688964844,0.1049947515130043,-0.6878188848495483,-2.295792579650879,-0.907543957233429
271,158238,158239,-0.07396979629993439,-0.03436453267931938,0.9092907309532166,-5.7654032707214355,-3.5076279640197754,-7.933350086212158,1.004949688911438,1.0619468688964844,0.1049947515130043,-0.9217732548713684,-2.6149702072143555,-0.9578094482421875
272,158248,158249,0.014722201973199844,-0.06846145540475845,0.9272041916847229,12.034430503845215,-24.668947219848633,-9.039222717285156,1.0139492750167847,1.0589470863342285,0.10799460113048553,-0.8328020572662354,-2.6533639430999756,-1.0331276655197144
273,158258,158259,0.04604794830083847,-0.12864789366722107,0.9610604047775269,31.380834579467773,-36.99556350708008,-9.374992370605469,1.0109494924545288,1.0529472827911377,0.11099445074796677,-0.41290000081062317,-2.377380847930908,-1.1175618171691895
274,158268,158269,0.15512746572494507,-0.10370805114507675,1.0373114347457886,44.887229919433594,-33.950904846191406,-9.967166900634766,1.0109494924545288,1.055947184562683,0.1229938492178917,-0.27884358167648315,-2.1701407432556152,-1.1755311489105225
275,158278,158279,0.09680481255054474,-0.09637462347745895,1.020612120628357,52.311187744140625,-37.27421569824219,-9.18258285522461,1.0229488611221313,1.055947184562683,0.1049947515130043,0.3510740101337433,-1.4802510738372803,-1.2866675853729248
276,158288,158289,0.016856832429766655,-0.08308164775371552,0.9901440143585205,50.38983917236328,-23.128135681152344,-6.658813953399658,1.018449068069458,1.0514473915100098,0.12149392068386078,0.6737921833992004,-1.220981478691101,-1.392931580543518
277,158298,158299,-0.04848237708210945,-0.028250576928257942,1.0066167116165161,40.008697509765625,-10.459030151367188,-5.264668941497803,1.0304484367370605,1.0514473915100098,0.10649467259645462,0.7706445455551147,-0.653714656829834,-1.4292967319488525
278,158308,158309,-0.10480815172195435,0.04862874001264572,0.9576907753944397,28.73550033569336,9.61886978149414,1.753757357597351,1.0214488506317139,1.0544472932815552,0.13049347698688507,0.8568983674049377,-0.33675774931907654,-1.4759461879730225
279,158318,158319,-0.09687834233045578,-0.0061935000121593475,0.9762670397758484,18.91130256652832,22.80921745300293,3.9977424144744873,1.0214488506317139,1.0454477071762085,0.10649467259645462,0.614611804485321,0.0900488868355751,-1.4288278818130493
280,158328,158329,-0.01567915454506874,-0.11804670840501785,0.9205412268638611,10.437152862548828,25.347801208496094,8.250509262084961,1.0259486436843872,1.0529472827911377,0.11099445074796677,0.26527684926986694,0.05966636911034584,-1.373563289642334
281,158338,158339,0.03046282008290291,-0.12456130236387253,0.8352735638618469,-1.122097134590149,21.031951904296875,12.398571014404297,1.0214488506317139,1.0544472932815552,0.09749512374401093,0.04138262942433357,0.17355941236019135,-1.2984938621520996
282,158348,158349,-0.12434811890125275,0.011319778859615326,1.0691304206848145,0.47868502140045166,5.408405303955078,15.984427452087402,1.0109494924545288,1.0499475002288818,0.11099445074796677,-0.06945329904556274,0.08506148308515549,-1.1971060037612915
283,158358,158359,-0.2093995064496994,0.02469509094953537,1.0673398971557617,-1.1467796564102173,-7.844665050506592,17.47404670715332,1.01694917678833,1.0409479141235352,0.1049947515130043,-0.07735129445791245,0.08009126037359238,-1.0476791858673096
284,158368,158369,-0.23151446878910065,0.018250005319714546,1.1352649927139282,-0.3516843020915985,-22.645965576171875,20.29273796081543,1.0094494819641113,1.0514473915100098,0.11849407106637955,0.013722922652959824,0.0760662630200386,-0.869992733001709
285,158378,158379,-0.07414042204618454,-0.08486308157444,0.9733589291572571,-2.6059820652008057,-25.73367691040039,19.76352882385254,1.0214488506317139,1.0544472932815552,0.10349482297897339,0.4359886348247528,0.07724476605653763,-0.6886054277420044
286,158388,158389,-0.01749313250184059,-0.11748999357223511,0.9596295952796936,-4.197510719299316,-22.779823303222656,20.297012329101562,1.0109494924545288,1.0469475984573364,0.09899504482746124,0.7831921577453613,-0.10513228923082352,-0.5028409361839294
287,158398,158399,0.03250359743833542,-0.11508218199014664,0.9305441975593567,-10.35488224029541,-11.916350364685059,17.205236434936523,1.0139492750167847,1.0409479141235352,0.10799460113048553,0.8258399367332458,-0.10380896925926208,-0.28574836254119873
288,158408,158409,-0.0467880442738533,-0.07661498337984085,0.9349457025527954,-12.184245109558105,5.792661190032959,15.966713905334473,1.01694917678833,1.0649467706680298,0.113994300365448,0.839275062084198,-0.259330689907074,-0.10758022964000702
289,158418,158419,-0.06409197300672531,-0.0036326544359326363,1.0304617881774902,-7.619143962860107,21.93195152282715,16.8802547454834,1.018449068069458,1.0514473915100098,0.11249437183141708,0.7157264947891235,-0.4173167645931244,0.05373105779290199
290,158428,158429,-0.08498213440179825,-0.07497809082269669,1.0194498300552368,-0.7720776200294495,27.909500122070312,17.060087203979492,1.01694917678833,1.0589470863342285,0.11699414998292923,0.42884987592697144,-0.4229218363761902,0.22486819326877594
291,158438,158439,-0.08157157152891159,-0.015272212214767933,1.0447295904159546,4.9658522605896,23.076705932617188,17.963531494140625,1.019948959350586,1.0529472827911377,0.11999399960041046,0.30605751276016235,-0.3960605263710022,0.3817313611507416
292,158448,158449,-0.060310933738946915,-0.07673682272434235,0.9828789830207825,9.164472579956055,15.482217788696289,16.4896297454834,1.0094494819641113,1.0544472932815552,0.10349482297897339,0.04782423749566078,-0.21789509057998657,0.5597658753395081
293,158458,158459,-0.04909293353557587,-0.09009896963834763,1.0026177167892456,10.721327781677246,6.971755027770996,14.711854934692383,1.0019499063491821,1.0619468688964844,0.10799460113048553,-0.0808342695236206,-0.05842703580856323,0.7190824151039124
294,158468,158469,-0.04007050395011902,-0.002385447034612298,1.0485759973526,6.148504734039307,-5.309170722961426,13.030340194702148,1.0259486436843872,1.0409479141235352,0.11099445074796677,-0.11565180867910385,0.02876380644738674,0.8665079474449158
295,158478,158479,-0.020878558978438377,-0.04390033707022667,1.0695362091064453,-2.018493175506592,-17.313859939575195,12.327021598815918,1.0154491662979126,1.0394480228424072,0.10649467259645462,-0.1592399626970291,-0.46154358983039856,1.0032047033309937
296,158488,158489,-0.032026346772909164,-0.023383915424346924,0.9796566367149353,-11.931791305541992,-19.929706573486328,10.432035446166992,1.0079495906829834,1.0529472827911377,0.09299534559249878,0.018619107082486153,-0.42316991090774536,1.1247304677963257
297,158498,158499,0.00014864512195345014,0.020667167380452156,0.9381107091903687,-16.10202407836914,-21.258378982543945,8.190232276916504,1.0139492750167847,1.0409479141235352,0.10199490189552307,0.37767788767814636,-0.388333797454834,1.2226251363754272
298,158508,158509,-0.05947894975543022,-0.16393189132213593,1.0772569179534912,-15.297892570495605,-15.497564315795898,4.926238059997559,1.0229488611221313,1.0499475002288818,0.09899504482746124,0.3629523515701294,-0.906131386756897,1.3188542127609253
299,158518,158519,0.02056303806602955,-0.23392990231513977,1.024025797843933,-7.2381792068481445,-4.255138397216797,2.681683301925659,1.0304484367370605,1.0544472932815552,0.10949452221393585,0.5182967185974121,-0.7818610072135925,1.3675456047058105
300,158528,158529,-0.012760934419929981,0.03821803629398346,1.118079423904419,11.151606559753418,-0.021504461765289307,1.5262227058410645,1.0289485454559326,1.0529472827911377,0.11099445074796677,0.4702933430671692,-0.7892449498176575,1.4014078378677368
301,158538,158539,-0.03808792307972908,-0.08168758451938629,1.00960373878479,28.557235717773438,1.804046630859375,1.6048762798309326,1.019948959350586,1.0469475984573364,0.11699414998292923,0.3668142855167389,-0.5123626589775085,1.422871708869934
302,158548,158549,-0.0391455739736557,-0.16344647109508514,1.0474069118499756,40.08131790161133,0.9356366991996765,1.7378724813461304,1.019948959350586,1.055947184562683,0.1049947515130043,0.38443198800086975,-0.2717464566230774,1.4357413053512573
303,158558,158559,-0.020806511864066124,-0.06099826470017433,1.0564695596694946,40.33455276489258,-0.06468084454536438,1.338491439819336,1.0379481315612793,1.0319483280181885,0.113994300365448,0.4008479714393616,0.1241416409611702,1.450964093208313
304,158568,158569,-0.08373972773551941,-0.08534756302833557,0.9893192052841187,31.088695526123047,-1.5482455492019653,4.837149620056152,1.0259486436843872,1.0439478158950806,0.1049947515130043,0.504402756690979,0.695581316947937,1.4583203792572021
305,158578,158579,-0.08684088289737701,-0.01792575605213642,1.0833027362823486,12.529193878173828,-3.000002145767212,5.415740966796875,1.019948959350586,1.0319483280181885,0.09899504482746124,0.49883708357810974,0.9269964098930359,1.5041884183883667
306,158588,158589,-0.06264901906251907,-0.07210569083690643,1.0051625967025757,-9.47789478302002,-3.522731065750122,5.705772399902344,1.0274486541748047,1.042447805404663,0.10049497336149216,0.4501268267631531,0.9938908815383911,1.5627729892730713
307,158598,158599,-0.03989333659410477,-0.047644954174757004,1.0151729583740234,-24.828771591186523,-2.896679639816284,8.446356773376465,1.01694917678833,1.0409479141235352,0.10199490189552307,0.3972261846065521,0.9355979561805725,1.619495153427124
308,158608,158609,-0.011628296226263046,0.012335310690104961,1.1034706830978394,-33.05320739746094,-0.7425745129585266,11.166869163513184,1.0229488611221313,1.0379481315612793,0.11099445074796677,0.5400262475013733,0.6499146223068237,1.7044780254364014
309,158618,158619,-0.0780632272362709,0.02832852117717266,1.0723766088485718,-24.9047794342041,5.074583053588867,14.50954532623291,1.042447805404663,1.0394480228424072,0.10649467259645462,0.4881609082221985,0.43676209449768066,1.8139457702636719
310,158628,158629,-0.17476287484169006,-0.010298775508999825,1.0408854484558105,-6.842930793762207,6.042364120483398,15.012839317321777,1.0229488611221313,1.0439478158950806,0.09899504482746124,0.3460766077041626,0.6004332304000854,1.939336895942688
311,158638,158639,-0.19763357937335968,-0.23846329748630524,1.0414835214614868,12.382241249084473,17.65514373779297,16.86009979248047,1.0319483280181885,1.0349482297897339,0.1049947515130043,0.21655480563640594,0.479634165763855,2.0969600677490234
312,158648,158649,-0.12888191640377045,-0.1825045645236969,1.098074197769165,21.050809860229492,22.07750129699707,20.783552169799805,1.0124493837356567,1.0394480228424072,0.11249437183141708,-0.027998371049761772,0.623657763004303,2.2682642936706543
313,158658,158659,0.04639643803238869,-0.07248008996248245,0.9817175269126892,16.837778091430664,22.542625427246094,20.26660919189453,1.033448338508606,1.0244487524032593,0.10649467259645462,-0.29738649725914,0.6505335569381714,2.4717581272125244
314,158668,158669,0.03173046559095383,0.0036467297468334436,0.9481363892555237,9.116774559020996,12.855531692504883,21.01970100402832,1.0289485454559326,1.0349482297897339,0.11699414998292923,-0.46614572405815125,0.8164831399917603,2.676196575164795
315,158678,158679,-0.06819433718919754,-0.10704366117715836,1.0366923809051514,-5.232141494750977,0.02633821591734886,19.194705963134766,1.0259486436843872,1.0379481315612793,0.10199490189552307,-0.5947055816650391,0.8862353563308716,2.8871259689331055
316,158688,158689,-0.17950215935707092,-0.08195777982473373,1.133884072303772,-22.694766998291016,-7.8164591789245605,17.37399673461914,1.0139492750167847,1.0319483280181885,0.113994300365448,-0.47110480070114136,0.705600380897522,3.08949875831604
317,158698,158699,-0.1275096833705902,-0.12625575065612793,1.0247429609298706,-41.23146057128906,-23.04088020324707,17.366703033447266,1.0079495906829834,1.0229488611221313,0.11099445074796677,-0.3644418716430664,0.5236207842826843,3.2670841217041016
318,158708,158709,0.07448407262563705,-0.24378128349781036,1.098405122756958,-49.08298873901367,-37.82548904418945,14.472025871276855,1.0124493837356567,1.042447805404663,0.11549422144889832,-0.12149311602115631,0.018542317673563957,3.436598300933838
319,158718,158719,0.09850482642650604,-0.16021287441253662,1.1952306032180786,-40.55205154418945,-55.323463439941406,11.630066871643066,1.0259486436843872,1.0349482297897339,0.10799460113048553,0.36586543917655945,-0.5450702905654907,3.5876681804656982
320,158728,158729,0.050148312002420425,-0.07614997029304504,1.0438534021377563,-27.156648635864258,-53.960018157958984,12.033506393432617,1.0214488506317139,1.0274486541748047,0.10649467259645462,0.7442719340324402,-1.0266485214233398,3.7028281688690186
321,158738,158739,-0.002238901797682047,0.053106967359781265,1.0327140092849731,-17.76705551147461,-43.079246520996094,11.597821235656738,1.0364481210708618,1.042447805404663,0.10949452221393585,1.5090889930725098,-1.05500328540802,3.839796781539917
322,158748,158749,0.08054763823747635,-0.015922173857688904,1.0077250003814697,-6.486842155456543,-30.299699783325195,10.679248809814453,1.0349482297897339,1.0319483280181885,0.11699414998292923,1.571572184562683,-1.2679626941680908,3.9508373737335205
323,158758,158759,-0.078973688185215,-0.22767074406147003,1.2037874460220337,2.799872875213623,-11.26168155670166,7.080145835876465,1.0304484367370605,1.0394480228424072,0.12149392068386078,2.0053372383117676,-1.3055174350738525,4.065193176269531
324,158768,158769,-0.15763351321220398,-0.20923162996768951,1.151281714439392,6.367224216461182,15.234179496765137,6.200870990753174,1.0499475002288818,1.0349482297897339,0.1229938492178917,2.102332592010498,-1.230934977531433,4.140750408172607
325,158778,158779,-0.03537697345018387,-0.23589752614498138,1.0637494325637817,4.691215515136719,34.7099723815918,3.4601023197174072,1.0394480228424072,1.033448338508606,0.11249437183141708,1.8330492973327637,-1.1459412574768066,4.197237014770508
326,158788,158789,0.03542065620422363,-0.05903583765029907,1.08803391456604,-3.60221266746521,38.93295669555664,0.48622259497642517,1.0409479141235352,1.0439478158950806,0.113994300365448,1.4319466352462769,-1.4961864948272705,4.263988018035889
327,158798,158799,0.10663857311010361,0.07478852570056915,1.0518015623092651,-14.187134742736816,37.10824203491211,-0.4497632384300232,1.0439478158950806,1.0499475002288818,0.11999399960041046,0.9885389804840088,-1.5126971006393433,4.260053634643555
328,158808,158809,0.057408884167671204,0.06204666569828987,1.2582809925079346,-11.080092430114746,29.566726684570312,-2.3744585514068604,1.0454477071762085,1.0514473915100098,0.10349482297897339,0.6492775678634644,-0.5721476674079895,4.140449523925781
329,158818,158819,0.06371830403804779,-0.09195990115404129,1.1910452842712402,5.541042804718018,9.068312644958496,-1.1778022050857544,1.0469475984573364,1.0289485454559326,0.11099445074796677,0.4396952986717224,-0.7123711109161377,4.122470378875732
330,158828,158829,0.22372443974018097,-0.06316728889942169,1.1925572156906128,16.152565002441406,-11.921438217163086,-4.956810474395752,1.0454477071762085,1.0124493837356567,0.10349482297897339,0.4161164164543152,-0.7002400159835815,4.103663444519043
331,158838,158839,0.327921986579895,-0.1613839864730835,1.1721936464309692,24.252920150756836,-30.2288875579834,-7.158895969390869,1.0409479141235352,1.0289485454559326,0.11999399960041046,0.7750505805015564,-0.6561864018440247,4.052704334259033
332,158848,158849,0.021302247419953346,-0.030693601816892624,1.241851568222046,26.07563591003418,-40.98677062988281,-5.902710437774658,1.0304484367370605,1.0244487524032593,0.10949452221393585,0.9038336277008057,-1.0549033880233765,4.0546488761901855
333,158858,158859,-0.008371186442673206,0.09173689037561417,1.1242355108261108,20.672372817993164,-35.85536575317383,-8.70927619934082,1.0454477071762085,1.0064496994018555,0.11249437183141708,1.5224380493164062,-0.7110481858253479,3.9737231731414795
334,158868,158869,-0.10987654328346252,0.0881359800696373,1.027086615562439,12.228964805603027,-16.027074813842773,-10.825169563293457,1.055947184562683,1.0019499063491821,0.1049947515130043,1.4363586902618408,-0.8026820421218872,3.9451558589935303
335,158878,158879,-0.12095529586076736,-0.059086911380290985,0.9882227778434753,4.577553749084473,5.037904739379883,-11.307036399841309,1.0469475984573364,1.01694917678833,0.1229938492178917,1.674697756767273,-0.5907776355743408,3.82826828956604
336,158888,158889,-0.01395855750888586,-0.12202902138233185,0.9783639907836914,-3.323071241378784,26.492496490478516,-9.23068618774414,1.0529472827911377,0.9989500045776367,0.09299534559249878,1.6875627040863037,-0.5206078290939331,3.7117862701416016
337,158898,158899,-0.09978701919317245,-0.10029609501361847,0.9445769786834717,-4.467524528503418,29.9987850189209,-10.013420104980469,1.0694465637207031,1.018449068069458,0.0944952741265297,1.339146614074707,-0.5585631728172302,3.619868516921997
338,158908,158909,-0.022626753896474838,0.0099878441542387,0.9981207847595215,-1.3481507301330566,24.82627296447754,-11.329550743103027,1.0589470863342285,0.9989500045776367,0.113994300365448,1.249910831451416,-0.5181134939193726,3.4910495281219482
339,158918,158919,-0.061385251581668854,-0.1941715031862259,0.9085510969161987,1.8662492036819458,15.842199325561523,-14.360974311828613,1.057447075843811,0.9974501132965088,0.11249437183141708,0.9112966060638428,-0.5023993253707886,3.3792338371276855
340,158928,158929,-0.10048128664493561,-0.11050353199243546,0.8950785398483276,8.86142635345459,0.38006940484046936,-16.900400161743164,1.0694465637207031,0.9854506850242615,0.10049497336149216,0.7708582282066345,-0.40932244062423706,3.2293248176574707
341,158938,158939,-0.1353706419467926,-0.07137970626354218,0.9061928391456604,12.766932487487793,-9.91447639465332,-19.222015380859375,1.0529472827911377,0.9959501624107361,0.11099445074796677,0.8199250102043152,-0.23679672181606293,3.052377939224243
342,158948,158949,-0.12886953353881836,-0.1533382087945938,0.8566385507583618,21.47638702392578,-12.203032493591309,-19.135896682739258,1.057447075843811,1.00344979763031,0.11849407106637955,0.8159474730491638,-0.4573346674442291,2.9128756523132324
343,158958,158959,-0.0357544831931591,-0.3323034942150116,0.9189667701721191,26.81208038330078,-9.661123275756836,-18.33899688720703,1.0454477071762085,0.9914504289627075,0.09749512374401093,1.1060795783996582,-0.18866471946239471,2.705808401107788
344,158968,158969,-0.01821243390440941,-0.43832895159721375,0.8685185313224792,26.248334884643555,-7.379807949066162,-17.375396728515625,1.0529472827911377,0.9929503202438354,0.11099445074796677,1.2595776319503784,0.2083725482225418,2.5044493675231934
345,158978,158979,-0.03592204675078392,-0.24357230961322784,0.857189953327179,18.207998275756836,-1.43825101852417,-14.97980785369873,1.0439478158950806,1.0019499063491821,0.09599519520998001,1.2826242446899414,0.3534000515937805,2.3490817546844482
346,158988,158989,-0.06578163802623749,0.006745937280356884,0.9230242967605591,7.7770280838012695,4.644257545471191,-12.850255012512207,1.0409479141235352,1.0079495906829834,0.11099445074796677,1.2843248844146729,0.578629195690155,2.1912052631378174
347,158998,158999,-0.03917457163333893,-0.025317901745438576,0.9220634698867798,1.514970064163208,7.432298183441162,-10.146007537841797,1.0514473915100098,1.0124493837356567,0.10949452221393585,1.2683899402618408,0.5814749002456665,2.0756068229675293
348,159008,159009,-0.07693321257829666,-0.13547709584236145,0.9399534463882446,-10.427713394165039,14.676949501037598,-8.188568115234375,1.0439478158950806,1.019948959350586,0.11699414998292923,1.051081657409668,0.5235440135002136,1.9893162250518799
349,159018,159019,-0.039793115109205246,0.005007502622902393,0.9536718130111694,-14.667506217956543,30.41993522644043,-7.409674644470215,1.033448338508606,1.0304484367370605,0.11849407106637955,0.9026394486427307,0.31708499789237976,1.9245933294296265
350,159028,159029,0.02023904398083687,0.014643080532550812,0.9110115170478821,-10.896291732788086,36.254268646240234,-8.02895736694336,1.033448338508606,1.0454477071762085,0.11549422144889832,0.7299283146858215,0.35124874114990234,1.8316243886947632
351,159038,159039,0.044671010226011276,0.11232568323612213,0.9939736127853394,0.2521372139453888,30.716724395751953,-11.131505966186523,1.0409479141235352,1.0319483280181885,0.11099445074796677,0.2956860661506653,0.25503793358802795,1.7508126497268677
352,159048,159049,-0.13153043389320374,0.08082936704158783,0.9179667830467224,14.233363151550293,20.396942138671875,-12.812761306762695,1.0349482297897339,1.0439478158950806,0.11699414998292923,-0.08689500391483307,0.2180657982826233,1.6491931676864624
353,159058,159059,-0.21991319954395294,0.009724829345941544,0.9164199829101562,30.911922454833984,0.10986338555812836,-13.024616241455078,1.033448338508606,1.0244487524032593,0.10349482297897339,-0.24722759425640106,0.4828476011753082,1.5163264274597168
354,159068,159069,-0.26705479621887207,-0.2104761004447937,1.0048052072525024,45.700843811035156,-19.951078414916992,-10.857499122619629,1.01694917678833,1.0349482297897339,0.1049947515130043,-0.2800091803073883,0.593880832195282,1.4013679027557373
355,159078,159079,-0.17242009937763214,-0.2465258538722992,1.0409759283065796,50.7887077331543,-23.920671463012695,-9.576184272766113,1.0229488611221313,1.0289485454559326,0.113994300365448,0.0939236655831337,1.1259777545928955,1.288295865058899
356,159088,159089,-0.043569814413785934,-0.0991557314991951,0.9894272089004517,44.52014923095703,-24.790149688720703,-10.037257194519043,1.0259486436843872,1.01694917678833,0.11999399960041046,0.28791314363479614,1.8236479759216309,1.1752526760101318
357,159098,159099,-0.020054509863257408,-0.19938044250011444,0.8518036007881165,27.102460861206055,-24.754255294799805,-8.987430572509766,1.0229488611221313,1.0139492750167847,0.10199490189552307,0.671078622341156,1.9326934814453125,1.0894057750701904
358,159108,159109,-0.10525442659854889,-0.05645962432026863,1.0297391414642334,-4.467813491821289,-15.280829429626465,-6.3575758934021,1.0349482297897339,1.0229488611221313,0.11099445074796677,0.8684793710708618,2.3368377685546875,0.9843845367431641
359,159118,159119,-0.1705441027879715,0.006234800908714533,1.0378663539886475,-35.64360809326172,2.15478777885437,-3.9089877605438232,1.0319483280181885,1.0139492750167847,0.11099445074796677,1.0397589206695557,2.1475040912628174,0.9280526638031006
360,159128,159129,-0.08436316251754761,-0.1307855248451233,0.9769458770751953,-56.826759338378906,14.261879920959473,-3.5291690826416016,1.0214488506317139,1.0394480228424072,0.12149392068386078,0.9241309762001038,1.7692210674285889,0.8792726993560791
361,159138,159139,-0.010792173445224762,-0.06654630601406097,0.9676433205604553,-61.830345153808594,21.896326065063477,-4.232567310333252,1.019948959350586,1.0529472827911377,0.113994300365448,0.636077344417572,0.8497541546821594,0.8512514233589172
362,159148,159149,-0.14041641354560852,0.01687641814351082,1.1122108697891235,-44.74516296386719,33.10702896118164,-3.8847973346710205,1.0124493837356567,1.0604469776153564,0.10049497336149216,0.3656732141971588,0.6038878560066223,0.7924705147743225
363,159158,159159,-0.2203577607870102,-0.0586322546005249,1.1146272420883179,-7.54110050201416,38.892311096191406,-2.7294464111328125,1.0244487524032593,1.057447075843811,0.12449377030134201,-0.12027831375598907,0.1459110826253891,0.7394164800643921
364,159168,159169,-0.20282255113124847,-0.24046646058559418,1.120204210281372,29.458837509155273,28.654254913330078,-4.278262615203857,1.0259486436843872,1.0499475002288818,0.11699414998292923,-0.13908244669437408,0.4871366024017334,0.7429925203323364
365,159178,159179,-0.11821889877319336,-0.23400911688804626,1.1104917526245117,65.71216583251953,5.245070457458496,-4.425175189971924,1.0214488506317139,1.042447805404663,0.10949452221393585,-0.4440627098083496,0.7874603867530823,0.7000254392623901
366,159188,159189,-0.035212695598602295,-0.18776974081993103,0.987601101398468,80.19017791748047,-14.90274429321289,-3.0852174758911133,1.0244487524032593,1.033448338508606,0.11549422144889832,-0.44702303409576416,1.373425841331482,0.6662189364433289
367,159198,159199,-0.12215178459882736,-0.13534769415855408,0.9485914707183838,73.06101989746094,-25.588451385498047,-3.8233611583709717,1.0214488506317139,1.0214488506317139,0.11249437183141708,-0.167339026927948,2.2321527004241943,0.6453359723091125
368,159208,159209,-0.17833030223846436,-0.10758816450834274,0.9983584880828857,49.64326858520508,-22.888885498046875,-1.9665840864181519,1.0244487524032593,1.0124493837356567,0.11549422144889832,0.09846717864274979,2.8959527015686035,0.593874454498291
369,159218,159219,-0.08955245465040207,-0.09407325834035873,0.9437650442123413,17.273242950439453,-14.027938842773438,-1.7239649295806885,1.033448338508606,1.00344979763031,0.11549422144889832,0.2788810431957245,3.2803261280059814,0.5530930757522583
370,159228,159229,-0.0519569106400013,-0.04794535040855408,0.9826211929321289,-15.81568717956543,4.750888824462891,0.5071271061897278,1.0319483280181885,0.9989500045776367,0.11099445074796677,0.47496140003204346,3.409597873687744,0.5423061847686768
371,159238,159239,-0.08736146241426468,-0.017362041398882866,0.9413529634475708,-39.64030838012695,26.11717987060547,3.0266611576080322,1.033448338508606,0.9884505867958069,0.10049497336149216,0.21743305027484894,3.1297314167022705,0.510461151599884
372,159248,159249,-0.19652222096920013,-0.032695841044187546,0.9813292622566223,-54.95068359375,41.33224105834961,7.5409955978393555,1.019948959350586,1.0139492750167847,0.1049947515130043,-0.0672864019870758,2.716758966445923,0.5487237572669983
373,159258,159259,-0.08029601722955704,-0.023238850757479668,0.992393434047699,-60.721275329589844,39.32185363769531,11.661320686340332,1.0274486541748047,1.0124493837356567,0.10949452221393585,-0.37580588459968567,2.091432571411133,0.6567742228507996
374,159268,159269,-0.106398805975914,0.06738043576478958,1.0844106674194336,-57.08070755004883,27.993764877319336,12.493598937988281,1.0139492750167847,1.0439478158950806,0.113994300365448,-0.6919580698013306,1.8250879049301147,0.8085700273513794
375,159278,159279,-0.250759482383728,0.07891172915697098,0.91266268491745,-40.07667541503906,9.291463851928711,11.086602210998535,1.019948959350586,1.0139492750167847,0.113994300365448,-0.9925609230995178,1.029014229774475,0.9165362119674683
376,159288,159289,-0.37465184926986694,-0.20685191452503204,0.75751131772995,-18.04804229736328,-4.635254859924316,9.933405876159668,1.0319483280181885,1.019948959350586,0.09599519520998001,-1.0625566244125366,0.7647074460983276,1.0340497493743896
377,159298,159299,-0.34240180253982544,-0.1208275705575943,0.8126351237297058,9.058586120605469,-9.745100975036621,9.604244232177734,1.0349482297897339,1.0109494924545288,0.10199490189552307,-0.9516688585281372,0.7289924621582031,1.1512466669082642
378,159308,159309,-0.22196386754512787,-0.09756331145763397,0.8525992035865784,31.55552864074707,-9.367948532104492,9.854813575744629,1.0349482297897339,1.0109494924545288,0.11099445074796677,-0.7826170325279236,0.9675145745277405,1.2675083875656128
379,159318,159319,-0.15446577966213226,-0.11976302415132523,0.8568217754364014,39.25179672241211,-10.479684829711914,9.515396118164062,1.0259486436843872,1.0289485454559326,0.1049947515130043,-0.6335039138793945,1.4874509572982788,1.3883988857269287
380,159328,159329,-0.14217616617679596,0.06652949005365372,1.0793471336364746,33.70853042602539,-9.587409973144531,7.669356346130371,1.0274486541748047,1.0274486541748047,0.10049497336149216,-0.4724594056606293,1.7143622636795044,1.4751613140106201
381,159338,159339,-0.054744068533182144,0.06415876001119614,1.013805627822876,18.266157150268555,-4.60308313369751,7.613473415374756,1.0229488611221313,1.0109494924545288,0.1049947515130043,-0.2786214053630829,2.0963289737701416,1.5728051662445068
382,159348,159349,-0.045490946620702744,-0.033823806792497635,0.8994471430778503,-5.388753414154053,1.0157948732376099,5.53644323348999,1.019948959350586,1.01694917678833,0.08999549597501755,-0.2601126730442047,2.242802143096924,1.6330798864364624
383,159358,159359,-0.08675899356603622,-0.11004998534917831,0.9327359199523926,-34.471588134765625,6.106491565704346,5.870084285736084,1.019948959350586,1.0109494924545288,0.11099445074796677,-0.31769296526908875,1.9841444492340088,1.6622445583343506
384,159368,159369,-0.03727862611413002,-0.00563488295301795,1.0054669380187988,-55.58485412597656,12.83856201171875,5.918295860290527,1.0304484367370605,1.0154491662979126,0.10349482297897339,-0.4617055058479309,1.5745744705200195,1.69948410987854
385,159378,159379,0.09523048996925354,0.0038221238646656275,0.8938270211219788,-65.5959243774414,5.677877426147461,5.117130756378174,1.0229488611221313,1.0319483280181885,0.11099445074796677,-0.6664759516716003,0.9330291748046875,1.736633062362671
386,159388,159389,-0.15721002221107483,0.0760718435049057,0.9030714631080627,-61.707462310791016,0.0005584249156527221,3.436007022857666,1.0214488506317139,1.0394480228424072,0.11849407106637955,-0.7370535731315613,0.346027672290802,1.7936543226242065
387,159398,159399,-0.33630669116973877,0.1953822672367096,1.0729198455810547,-46.11190414428711,-8.008724212646484,-0.4896465241909027,1.0244487524032593,1.0214488506317139,0.09749512374401093,-0.672295093536377,-0.32113614678382874,1.8223872184753418
388,159408,159409,-0.2192661613225937,0.1296747475862503,1.0859318971633911,-24.24794578552246,-14.813216209411621,-3.570180892944336,1.0214488506317139,1.0274486541748047,0.10949452221393585,-0.49787530303001404,-0.5818422436714172,1.8524705171585083
389,159418,159419,-0.1682950109243393,-0.009317970834672451,1.0503342151641846,2.2830402851104736,-12.955065727233887,-6.405422687530518,1.01694917678833,1.0469475984573364,0.1049947515130043,-0.297345906496048,-0.8892858028411865,1.8163243532180786
390,159428,159429,-0.007885065861046314,-0.1834072470664978,0.9203402996063232,18.00126838684082,-8.380812644958496,-7.31480598449707,1.018449068069458,1.0454477071762085,0.10349482297897339,-0.11432094871997833,-0.8086603283882141,1.768325686454773
391,159438,159439,0.008959788829088211,-0.16736558079719543,1.0701743364334106,20.520771026611328,0.6275060176849365,-8.489818572998047,1.0379481315612793,1.0379481315612793,0.10799460113048553,-0.11015482991933823,-0.5383405685424805,1.6961653232574463
392,159448,159449,-0.023650145158171654,0.03171294927597046,1.045380711555481,20.53070068359375,8.309518814086914,-11.899943351745605,1.0259486436843872,1.0109494924545288,0.10799460113048553,-0.14401857554912567,-0.24568605422973633,1.6144556999206543
393,159458,159459,-0.18563398718833923,0.06422831863164902,1.073563814163208,17.23963737487793,8.924552917480469,-10.329225540161133,1.0304484367370605,1.0244487524032593,0.10049497336149216,-0.32180076837539673,0.0031469552777707577,1.496728539466858
394,159468,159469,-0.07065806537866592,-0.1152995154261589,0.8812437653541565,8.732503890991211,2.5177762508392334,-8.654008865356445,1.0214488506317139,1.0124493837356567,0.11249437183141708,-0.43845441937446594,-0.013188321143388748,1.3727433681488037
395,159478,159479,-0.10577396303415298,-0.09677039831876755,1.0607298612594604,-2.218472957611084,-1.403952717781067,-3.742357015609741,1.057447075843811,0.9944502711296082,0.09149542450904846,-0.4025074243545532,-0.09513899683952332,1.27391517162323
396,159488,159489,-0.14431262016296387,-0.0973937138915062,0.999164879322052,-13.397068977355957,-6.417108535766602,2.3244521617889404,1.0229488611221313,1.019948959350586,0.11999399960041046,-0.3805612623691559,0.05711472034454346,1.2559657096862793
397,159498,159499,-0.048909734934568405,0.0004524919204413891,0.9873915314674377,-28.34262466430664,0.3635193705558777,7.911325931549072,1.0439478158950806,1.0139492750167847,0.09899504482746124,-0.31357553601264954,-0.24269619584083557,1.2582494020462036
398,159508,159509,-0.09694477170705795,0.04108414053916931,1.0283517837524414,-51.5837287902832,5.620057106018066,9.831812858581543,1.0244487524032593,1.0304484367370605,0.10649467259645462,-0.2887192964553833,-0.6861780285835266,1.3166134357452393
399,159518,159519,-0.07172910124063492,-0.01947326771914959,0.9456743597984314,-62.94834518432617,1.1939992904663086,10.19132137298584,1.0109494924545288,1.0379481315612793,0.1049947515130043,-0.44341418147087097,-1.0092322826385498,1.429725170135498
400,159528,159529,-0.09212663024663925,0.02672644704580307,1.040777564048767,-61.12752151489258,-3.5077359676361084,10.924468040466309,1.0139492750167847,1.0289485454559326,0.10799460113048553,-0.4340686798095703,-1.564988136291504,1.5359081029891968
401,159538,159539,-0.1780862957239151,-0.07025237381458282,1.0481773614883423,-45.39156723022461,1.0138239860534668,11.14842700958252,1.0259486436843872,1.0289485454559326,0.10799460113048553,-0.3184293806552887,-2.3265023231506348,1.628502368927002
402,159548,159549,-0.09398727118968964,-0.015343921259045601,1.0486810207366943,-16.546018600463867,10.298234939575195,14.550252914428711,1.0274486541748047,1.0274486541748047,0.11849407106637955,-0.39044487476348877,-2.622349500656128,1.7605382204055786
403,159558,159559,-0.057709697633981705,0.022982966154813766,1.147046685218811,18.52863311767578,10.971212387084961,16.622591018676758,1.0349482297897339,1.0259486436843872,0.10199490189552307,-0.5814341902732849,-2.7785189151763916,1.90591299533844
404,159568,159569,-0.0540691576898098,0.0893089771270752,1.2231581211090088,45.98948669433594,8.450304985046387,13.441657066345215,1.0469475984573364,1.0349482297897339,0.10199490189552307,-0.800815761089325,-2.6081762313842773,2.0642333030700684
405,159578,159579,0.011862381361424923,-0.019249554723501205,0.9837464690208435,58.476341247558594,-1.8426728248596191,10.619402885437012,1.0469475984573364,1.0139492750167847,0.10799460113048553,-0.8215823173522949,-1.9192875623703003,2.20979905128479
406,159588,159589,-0.045696426182985306,-0.0783274918794632,0.7980848550796509,54.23780059814453,-11.829615592956543,10.31544303894043,1.0514473915100098,1.0274486541748047,0.10649467259645462,-0.7438680529594421,-1.7103023529052734,2.2686164379119873
407,159598,159599,0.04144631326198578,-0.1262027770280838,0.790228009223938,32.77107620239258,-25.14281463623047,5.085784435272217,1.057447075843811,0.9944502711296082,0.0944952741265297,-0.5407495498657227,-1.0533111095428467,2.3711788654327393
408,159608,159609,-0.1465788036584854,0.024885274469852448,0.9941767454147339,17.18532371520996,-31.159242630004883,0.2855886220932007,1.0409479141235352,0.9959501624107361,0.11099445074796677,-0.17996157705783844,-0.7915076017379761,2.396620988845825
409,159618,159619,-0.13650071620941162,-0.053852763026952744,1.0952060222625732,6.891157150268555,-27.486862182617188,-3.2510886192321777,1.0499475002288818,0.9929503202438354,0.1049947515130043,0.10664422065019608,-0.5681375861167908,2.4078309535980225
410,159628,159629,-0.05538572743535042,-0.11311598867177963,1.0340769290924072,1.67619788646698,-12.983845710754395,-4.9035162925720215,1.0649467706680298,0.9809509515762329,0.10199490189552307,0.4237658977508545,-0.6274029612541199,2.360548257827759
411,159638,159639,0.06476432085037231,-0.05830956622958183,1.0589531660079956,1.629807472229004,5.704036712646484,-3.392918825149536,1.0619468688964844,0.9869506359100342,0.113994300365448,0.5234719514846802,-0.5266425609588623,2.323075532913208
412,159648,159649,0.07200141996145248,-0.10801290720701218,0.9604503512382507,-1.6660587787628174,24.118947982788086,1.257550835609436,1.057447075843811,0.9644517302513123,0.10349482297897339,0.3296283781528473,-0.5900716781616211,2.3069472312927246
413,159658,159659,-0.003782661398872733,-0.0022034402936697006,0.9864209294319153,-7.246342182159424,38.79487991333008,7.149530410766602,1.0544472932815552,0.9884505867958069,0.0944952741265297,0.06291817873716354,-0.6481543779373169,2.3177762031555176
414,159668,159669,-0.0010863204952329397,0.06435442715883255,1.1367369890213013,-15.401081085205078,47.75696563720703,11.632431030273438,1.0469475984573364,1.004949688911438,0.09899504482746124,-0.5090641379356384,-0.8116804957389832,2.400317907333374
415,159678,159679,0.07075279206037521,-0.18736447393894196,0.9687156081199646,-21.547338485717773,39.20940017700195,17.784385681152344,1.048447608947754,0.9944502711296082,0.09149542450904846,-0.9337610602378845,-1.0252618789672852,2.494795083999634
416,159688,159689,0.09020538628101349,-0.19249498844146729,0.9402305483818054,-26.68510627746582,16.692638397216797,23.775440216064453,1.0319483280181885,0.9839507937431335,0.09599519520998001,-1.1865911483764648,-1.3648439645767212,2.635831356048584
417,159698,159699,-0.0038372778799384832,-0.011589638888835907,0.9150561094284058,-33.81874465942383,-17.08003807067871,21.903165817260742,1.0454477071762085,0.9884505867958069,0.10049497336149216,-1.315083384513855,-1.714827060699463,2.8468692302703857
418,159708,159709,-0.020698845386505127,0.02103937231004238,0.8728936314582825,-35.480186462402344,-48.45810317993164,16.418190002441406,1.0409479141235352,0.9929503202438354,0.10799460113048553,-1.1429378986358643,-1.8224217891693115,3.0840868949890137
419,159718,159719,-0.05145958065986633,0.04028830677270889,0.867711067199707,-22.38399314880371,-67.95399475097656,13.296233177185059,1.0349482297897339,0.9869506359100342,0.11699414998292923,-0.5121594667434692,-2.1840362548828125,3.2380943298339844
420,159728,159729,-0.042277991771698,0.06315846741199493,0.8963657021522522,-1.3692882061004639,-77.3366928100586,8.458151817321777,1.055947184562683,1.004949688911438,0.11099445074796677,0.04438820481300354,-2.427227020263672,3.4070699214935303
421,159738,159739,-0.04742354154586792,0.12892697751522064,0.8998510241508484,19.68613052368164,-75.6334457397461,4.616830348968506,1.0499475002288818,1.0019499063491821,0.1049947515130043,1.0249111652374268,-2.458212375640869,3.48466420173645
422,159748,159749,-0.09679501503705978,0.01700550690293312,1.0053861141204834,36.19978713989258,-61.44051742553711,-1.0070544481277466,1.057447075843811,1.0004500150680542,0.10649467259645462,1.737209677696228,-2.346200942993164,3.5581769943237305
423,159758,159759,-0.053494445979595184,0.031261030584573746,1.0205997228622437,52.882896423339844,-41.50336837768555,-8.35987377166748,1.057447075843811,1.0004500150680542,0.11549422144889832,2.642037868499756,-1.947243094444275,3.5130836963653564
424,159768,159769,0.009993117302656174,-0.034661516547203064,0.9823783040046692,58.46942901611328,-14.891826629638672,-12.626137733459473,1.0694465637207031,0.9884505867958069,0.11249437183141708,2.82273530960083,-1.5989500284194946,3.505688428878784
425,159778,159779,0.047966666519641876,-0.09384500235319138,1.0490784645080566,50.69091796875,32.100006103515625,-18.577404022216797,1.0754462480545044,0.9764511585235596,0.10649467259645462,2.8094558715820312,-0.998396098613739,3.4092342853546143
426,159788,159789,-0.06698643416166306,0.024204211309552193,0.9887367486953735,43.780635833740234,62.925453186035156,-23.585865020751953,1.0619468688964844,1.004949688911438,0.1049947515130043,2.4464781284332275,-0.4105518162250519,3.2336127758026123
427,159798,159799,-0.0349125936627388,0.07559651881456375,0.9704663753509521,35.64139175415039,75.09571075439453,-28.54078483581543,1.0439478158950806,1.019948959350586,0.12599369883537292,1.7217458486557007,-0.08819075673818588,3.035356283187866
428,159808,159809,-0.10424431413412094,0.11037971824407578,0.9502706527709961,29.82215118408203,73.86835479736328,-31.382076263427734,1.0544472932815552,1.0064496994018555,0.11549422144889832,1.1264457702636719,0.17633774876594543,2.7322309017181396
429,159818,159819,-0.15939736366271973,0.03132610023021698,1.0050976276397705,31.703937530517578,48.174095153808594,-28.395729064941406,1.055947184562683,1.01694917678833,0.1049947515130043,0.38167911767959595,0.3897516429424286,2.4427289962768555
430,159828,159829,-0.15203121304512024,-0.05494191125035286,0.8075640797615051,33.8137092590332,12.297568321228027,-24.88008689880371,1.0409479141235352,0.9929503202438354,0.11099445074796677,0.10407478362321854,0.5760430693626404,2.141842842102051
431,159838,159839,-0.25513720512390137,-0.16468849778175354,0.844171941280365,18.794767379760742,-14.897204399108887,-23.731979370117188,1.0394480228424072,0.9944502711296082,0.10349482297897339,0.013586349785327911,1.0013375282287598,1.8866535425186157
432,159848,159849,-0.057515569031238556,-0.10650771856307983,0.8145282864570618,7.0240607261657715,-33.02613830566406,-23.103981018066406,1.0379481315612793,0.9779511094093323,0.10199490189552307,0.2204326093196869,1.0583266019821167,1.6531329154968262
433,159858,159859,-0.08161842077970505,-0.008427268825471401,0.9864907264709473,-14.378914833068848,-44.07499694824219,-21.73345375061035,1.0469475984573364,0.9719513654708862,0.09899504482746124,0.7860790491104126,1.127984642982483,1.3929184675216675
434,159868,159869,-0.0661892294883728,-0.03074094094336033,1.0364024639129639,-31.66082763671875,-36.568092346191406,-23.0892391204834,1.0349482297897339,1.004949688911438,0.11999399960041046,1.2482718229293823,1.0312883853912354,1.1582396030426025
435,159878,159879,-0.0421663336455822,-0.021606475114822388,0.9061577320098877,-37.70530700683594,-25.547624588012695,-24.392030715942383,1.0439478158950806,1.0109494924545288,0.11699414998292923,1.7105661630630493,0.7515382766723633,0.9134939908981323
436,159888,159889,-0.11352735012769699,0.07217886298894882,0.9389621615409851,-29.782833099365234,-10.50990104675293,-26.744895935058594,1.0499475002288818,1.019948959350586,0.113994300365448,1.7879600524902344,0.32443341612815857,0.6845540404319763
437,159898,159899,-0.15152856707572937,-0.07262138277292252,0.9335764646530151,-14.974228858947754,11.186774253845215,-25.668684005737305,1.033448338508606,1.0064496994018555,0.12449377030134201,1.845564365386963,0.04138801246881485,0.4143621325492859
438,159908,159909,-0.08499880135059357,-0.061092011630535126,0.9515438675880432,11.653074264526367,35.84339141845703,-21.97186279296875,1.0394480228424072,1.0124493837356567,0.12149392068386078,1.7509374618530273,-0.0015187041135504842,0.1483747959136963
439,159918,159919,-0.03925148770213127,0.06866813451051712,1.0166867971420288,38.02454376220703,53.50784683227539,-15.528447151184082,1.018449068069458,1.0274486541748047,0.11549422144889832,1.2350932359695435,0.3916875422000885,-0.09447658061981201
440,159928,159929,-0.11431978642940521,0.1412784904241562,0.9691774845123291,52.67485427856445,62.429901123046875,-17.15652084350586,1.0379481315612793,1.0439478158950806,0.1049947515130043,0.9690922498703003,0.5466626882553101,-0.23182335495948792
441,159938,159939,-0.01996481418609619,-0.13272777199745178,0.9709265828132629,53.2738037109375,60.29475021362305,-14.724905967712402,1.0289485454559326,1.0229488611221313,0.09599519520998001,0.26913732290267944,1.2665627002716064,-0.4166449010372162
442,159948,159949,0.007438498083502054,-0.1782725751399994,0.9036378860473633,34.41240310668945,53.139976501464844,-13.78869915008545,1.01694917678833,1.0289485454559326,0.10799460113048553,-0.4870234727859497,1.5357846021652222,-0.517437219619751
443,159958,159959,-0.1434868425130844,-0.019504472613334656,0.9561226963996887,12.969616889953613,34.4693717956543,-9.911376953125,1.0244487524032593,1.033448338508606,0.10949452221393585,-0.8178619742393494,1.9974550008773804,-0.6464352011680603
444,159968,159969,-0.18630729615688324,0.16290521621704102,1.0606471300125122,-6.51108980178833,6.180952548980713,-6.1957197189331055,1.0289485454559326,1.0229488611221313,0.1049947515130043,-1.072821855545044,2.1822903156280518,-0.7388700842857361
445,159978,159979,-0.023004107177257538,-0.02776218205690384,1.0779573917388916,-23.710256576538086,-20.724714279174805,-5.072492599487305,1.0109494924545288,1.0139492750167847,0.11099445074796677,-1.0495344400405884,2.045280694961548,-0.7949028015136719
446,159988,159989,0.03139687329530716,-0.18486496806144714,0.8941917419433594,-36.40110778808594,-25.190685272216797,-6.213708877563477,1.0109494924545288,1.0319483280181885,0.10199490189552307,-1.1142802238464355,1.6867027282714844,-0.8607238531112671
447,159998,159999,-0.10805492103099823,0.0519108809530735,0.9362084865570068,-46.20120620727539,-18.249338150024414,-10.631680488586426,1.00344979763031,1.0304484367370605,0.10349482297897339,-0.91660076379776,1.413598656654358,-0.9289261698722839
448,160008,160009,-0.2023935467004776,0.01503116637468338,1.0040010213851929,-38.42244338989258,0.6333875060081482,-15.330612182617188,1.019948959350586,1.0379481315612793,0.09299534559249878,-0.4596264064311981,1.079453468322754,-1.0123231410980225
449,160018,160019,-0.15028288960456848,-0.031028497964143753,1.0557750463485718,-11.647848129272461,18.85249900817871,-16.80461311340332,1.0139492750167847,1.0229488611221313,0.10799460113048553,-0.5521247386932373,0.6359946131706238,-1.1728969812393188
450,160028,160029,0.0008289118413813412,-0.024564526975154877,1.0979962348937988,20.936044692993164,28.709550857543945,-14.11009693145752,1.00344979763031,1.0454477071762085,0.11549422144889832,-0.919757068157196,0.5809429883956909,-1.3523420095443726
451,160038,160039,-0.11380106955766678,-0.016398318111896515,0.9891684651374817,46.028961181640625,37.665199279785156,-11.710053443908691,1.0214488506317139,1.048447608947754,0.10949452221393585,-1.2081588506698608,0.7416780591011047,-1.4904942512512207
452,160048,160049,-0.05038643255829811,-0.12863968312740326,0.9824516177177429,63.36753845214844,43.297691345214844,-10.245684623718262,1.0079495906829834,1.0379481315612793,0.09299534559249878,-1.342469573020935,1.2055447101593018,-1.5760618448257446
453,160058,160059,-0.058379098773002625,-3.275334893260151e-05,1.0362013578414917,64.42675018310547,44.08538055419922,-10.687658309936523,0.9974501132965088,1.0514473915100098,0.09749512374401093,-1.9284253120422363,1.9919519424438477,-1.6727933883666992
454,160068,160069,-0.11400038748979568,-0.25536662340164185,0.9809166193008423,45.92451477050781,39.06437683105469,-13.967750549316406,1.00344979763031,1.042447805404663,0.09749512374401093,-2.1396219730377197,2.56830096244812,-1.740931510925293
455,160078,160079,-0.10688064247369766,-0.21596603095531464,0.9702780246734619,18.657604217529297,24.343612670898438,-14.823379516601562,1.0004500150680542,1.018449068069458,0.10049497336149216,-2.5898256301879883,2.959468126296997,-1.8730891942977905
456,160088,160089,-0.1622381955385208,-0.1394640952348709,1.0168468952178955,-10.676877975463867,5.036804676055908,-15.208524703979492,0.9869506359100342,1.0289485454559326,0.10799460113048553,-2.764784574508667,3.188891887664795,-1.9924036264419556
457,160098,160099,-0.0983630046248436,-0.060616668313741684,0.9667006731033325,-27.43766975402832,-5.07519006729126,-13.488269805908203,0.9884505867958069,1.0364481210708618,0.08849557489156723,-2.9096524715423584,3.06205677986145,-2.1533803939819336
458,160108,160109,-0.08764023333787918,-0.05514984950423241,0.9872103333473206,-33.532569885253906,-8.550836563110352,-11.7090425491333,0.9809509515762329,1.0289485454559326,0.09599519520998001,-2.6902084350585938,2.8161072731018066,-2.2452776432037354
459,160118,160119,-0.002031533280387521,-0.07682296633720398,0.9880571365356445,-28.356138229370117,-8.116540908813477,-9.740440368652344,0.9944502711296082,1.0394480228424072,0.10049497336149216,-2.601300001144409,2.42228102684021,-2.3671884536743164
460,160128,160129,-0.10783007740974426,-0.08654013276100159,0.9658972024917603,-17.102506637573242,2.0361340045928955,-7.536480903625488,0.9989500045776367,1.0499475002288818,0.07799609750509262,-2.640021324157715,2.134727954864502,-2.4901108741760254
461,160138,160139,-0.13874699175357819,-0.0003263076941948384,1.0977674722671509,-1.3816348314285278,16.8381290435791,-3.6591053009033203,1.0019499063491821,1.0469475984573364,0.09899504482746124,-2.798593282699585,1.9786574840545654,-2.591586112976074
462,160148,160149,-0.07896032929420471,-0.017716946080327034,1.0713162422180176,17.6270751953125,21.16364097595215,2.805199146270752,0.9869506359100342,1.0409479141235352,0.09899504482746124,-2.9146430492401123,2.0033938884735107,-2.603278160095215
463,160158,160159,-0.039969995617866516,-0.07251530140638351,0.9629354476928711,29.777666091918945,22.415376663208008,6.566018104553223,0.9899504780769348,1.0349482297897339,0.08699564635753632,-3.248197555541992,2.328314781188965,-2.554422378540039
464,160168,160169,-0.13823266327381134,-0.11715851724147797,1.0000028610229492,25.08451271057129,16.507198333740234,10.449919700622559,1.0019499063491821,1.0259486436843872,0.09899504482746124,-3.4251160621643066,2.5640218257904053,-2.4858622550964355
465,160178,160179,-0.06483159959316254,-0.09515374898910522,0.9817460775375366,6.771611213684082,7.182353496551514,9.063405990600586,0.9989500045776367,1.019948959350586,0.113994300365448,-3.556823492050171,2.8929057121276855,-2.347487211227417
466,160188,160189,-0.04093151539564133,-0.035261355340480804,0.9338415861129761,-13.178441047668457,-11.691733360290527,10.357890129089355,0.9929503202438354,1.019948959350586,0.09899504482746124,-3.635568618774414,2.924095630645752,-2.275160551071167
467,160198,160199,-0.19262942671775818,-0.1033545434474945,0.9871464371681213,-25.056459426879883,-32.54208755493164,13.726517677307129,0.9989500045776367,1.0319483280181885,0.09599519520998001,-3.390641212463379,2.668482780456543,-2.1987645626068115
468,160208,160209,-0.00047560399980284274,-0.05346619710326195,0.8979762196540833,-39.42945861816406,-42.26841735839844,17.823726654052734,0.9854506850242615,1.0244487524032593,0.0944952741265297,-3.090325355529785,2.571692943572998,-2.03018856048584
469,160218,160219,-0.057227469980716705,-0.16264685988426208,0.926619827747345,-54.48361587524414,-38.83294677734375,21.41510772705078,0.9989500045776367,1.0289485454559326,0.1049947515130043,-2.677595853805542,2.004985809326172,-1.9463542699813843
470,160228,160229,-0.040749676525592804,-0.02690659649670124,1.0383856296539307,-63.44741439819336,-29.13566017150879,24.99566078186035,0.9899504780769348,1.0439478158950806,0.09599519520998001,-2.5176587104797363,1.6449459791183472,-1.7549198865890503
471,160238,160239,-0.12867113947868347,0.0977485328912735,1.1370322704315186,-61.00229263305664,-17.49559211730957,23.570629119873047,0.9929503202438354,1.0409479141235352,0.08399579674005508,-2.090089797973633,1.015700101852417,-1.4861215353012085
472,160248,160249,-0.11150774359703064,0.02804584428668022,1.0752160549163818,-44.46559143066406,-8.897512435913086,21.601001739501953,0.9944502711296082,1.0514473915100098,0.10649467259645462,-1.879065990447998,0.5655271410942078,-1.1915324926376343
473,160258,160259,0.144069105386734,-0.12294965237379074,1.0453543663024902,-24.883302688598633,0.13930100202560425,16.254650115966797,1.004949688911438,1.0499475002288818,0.10199490189552307,-1.8202602863311768,0.02968299388885498,-1.01667058467865
474,160268,160269,0.025000950321555138,-0.19781875610351562,1.0130101442337036,-5.748915672302246,3.1170477867126465,10.45638656616211,0.9944502711296082,1.042447805404663,0.11849407106637955,-1.998758316040039,-0.12712174654006958,-0.8668383359909058
475,160278,160279,-0.2086278349161148,0.018769463524222374,1.1711105108261108,13.719521522521973,0.45680543780326843,9.094640731811523,1.0154491662979126,1.042447805404663,0.10349482297897339,-1.9290192127227783,-0.09608644992113113,-0.7170122861862183
476,160288,160289,-0.1823238730430603,-0.02550533413887024,1.035288691520691,19.260896682739258,9.586466789245605,6.6320295333862305,0.9959501624107361,1.0499475002288818,0.1049947515130043,-1.956453800201416,0.1260068416595459,-0.6102359890937805
477,160298,160299,-0.13580182194709778,-0.02568007819354534,1.013592004776001,6.8665666580200195,17.606727600097656,3.840712070465088,0.9974501132965088,1.042447805404663,0.0944952741265297,-2.1596858501434326,0.31565096974372864,-0.5635229349136353
