,gyro.x,gyro.y,gyro.z,stabilizer.pitch,stabilizer.roll,stabilizer.yaw,label
0,-0.015170494094491005,0.11073269695043564,0.0072797490283846855,-0.48606494069099426,-1.4876447916030884,0.006055815611034632,0
1,0.01558643113821745,-0.14834362268447876,0.04291936010122299,-0.48936691880226135,-1.2107179164886475,0.005996364168822765,0
2,0.05953662097454071,0.07151298224925995,0.02641293779015541,-0.49028855562210083,-1.2538247108459473,0.0067129251547157764,0
3,0.11051835119724274,0.06739133596420288,0.09311278164386749,-0.4925398528575897,-1.2867343425750732,0.006860927678644657,0
4,-0.049740541726350784,0.03583676367998123,0.015925804153084755,-0.49472376704216003,-1.31183660030365,0.00724474573507905,0
5,-0.041603270918130875,0.008838312700390816,0.015812700614333153,-0.5596950650215149,-1.3323564529418945,0.0058591109700500965,0
6,-0.06720607727766037,0.015137584879994392,0.08366451412439346,-0.5455114245414734,-1.789527416229248,0.0036169050727039576,0
7,-0.015156696550548077,-0.022096095606684685,-0.039977435022592545,-0.5358531475067139,-1.2551827430725098,0.008189857006072998,0
8,-0.002213313477113843,0.027545597404241562,0.027240829542279243,-0.5272516012191772,-1.2892558574676514,0.008219999261200428,0
9,0.05939232185482979,0.006452207453548908,-0.04291427880525589,-0.4579243063926697,-1.31558358669281,0.00936900358647108,0
10,0.03676457330584526,-0.04021942615509033,-0.029022816568613052,-0.4688743054866791,-1.335340976715088,0.008674397133290768,0
11,0.017870759591460228,0.03404814004898071,0.07391753792762756,-0.47666192054748535,-1.3502819538116455,0.008394947275519371,0
12,-0.014418967999517918,0.0116938017308712,0.06004524976015091,-0.4832806885242462,-1.3616198301315308,0.008516903035342693,0
13,0.08512138575315475,-0.10387697070837021,-0.02700357884168625,-0.4879748821258545,-1.5598416328430176,0.008576182648539543,0
14,-0.010314792394638062,-0.00024672431754879653,-0.04750101640820503,-0.4905150234699249,-1.5198523998260498,0.008957132697105408,0
15,0.012995367869734764,0.052017468959093094,-0.06700830161571503,-0.493438720703125,-1.3000317811965942,0.008870192803442478,0
16,0.05258262902498245,0.023375587537884712,0.021333804354071617,-0.4966590404510498,-1.5756064653396606,0.007956726476550102,0
17,0.013891278766095638,-0.057464875280857086,0.06309206783771515,-0.4987751245498657,-1.530124306678772,0.008130364120006561,0
18,-0.001025147270411253,0.027258623391389847,-0.010463651269674301,-0.49931594729423523,-1.2436821460723877,0.00950583815574646,0
19,-0.05199242755770683,-0.06299467384815216,0.008364135399460793,-0.4366743266582489,-1.2799466848373413,0.009842542000114918,0
20,0.07716331630945206,-0.049286458641290665,-0.004781261086463928,-0.5146969556808472,-1.4349771738052368,0.008895687758922577,0
21,-0.10573684424161911,-0.12029078602790833,-0.02921306900680065,-0.5103962421417236,-1.2992961406707764,0.009041771292686462,0
22,0.07101394236087799,0.13352559506893158,0.03686138987541199,-0.5061050653457642,-1.3247278928756714,0.008815442211925983,0
23,-0.048308659344911575,0.0011524849105626345,0.10787813365459442,-0.5052604079246521,-1.3426182270050049,0.009107286110520363,0
24,-0.022775931283831596,-0.01613309048116207,0.007152486592531204,-0.5666810274124146,-1.5461214780807495,0.00737219350412488,0
25,0.04725327342748642,0.03703879192471504,-0.03197360038757324,-0.5488870739936829,-1.5107566118240356,0.00835704430937767,0
26,0.016852132976055145,-0.02839605323970318,-0.0038012859877198935,-0.5353306531906128,-1.293744683265686,0.010094077326357365,0
27,0.06583316624164581,-0.023486800491809845,-0.001443909597583115,-0.5880148410797119,-1.6348105669021606,0.006005850154906511,0
28,0.011254742741584778,-0.024203075096011162,0.022840246558189392,-0.4393309950828552,-1.2614651918411255,0.011121757328510284,0
29,-0.008263143710792065,-0.04368254914879799,0.03799176961183548,-0.45220765471458435,-1.735345482826233,0.007373160682618618,0
30,0.05513329058885574,-0.022420840337872505,0.04074480012059212,-0.46251380443573,-1.2130554914474487,0.009981739334762096,0
31,0.09538023173809052,0.02196272648870945,0.07610202580690384,-0.47034749388694763,-1.2557528018951416,0.010137371718883514,0
32,0.07565134763717651,0.05263147130608559,0.029507094994187355,-0.4769095480442047,-1.477217674255371,0.010290789417922497,0
33,-0.00403930339962244,0.03526515141129494,-0.06098227575421333,-0.4826149046421051,-1.2658478021621704,0.00989654753357172,0
34,-0.04058162868022919,0.009354423731565475,-0.028729137033224106,-0.48700660467147827,-1.296072244644165,0.009640838019549847,0
35,0.06439303606748581,0.0875525251030922,0.007818884216248989,-0.4898192584514618,-1.3197516202926636,0.009350834414362907,0
36,-0.016679169610142708,0.054426707327365875,-0.06524597853422165,-0.49230924248695374,-1.3365529775619507,0.009383552707731724,0
37,0.050941262394189835,-0.06591635942459106,-0.00996824074536562,-0.4946003258228302,-1.350284457206726,0.008893514052033424,0
38,-0.014646091498434544,0.007200251799076796,0.10927862673997879,-0.5587873458862305,-1.5495364665985107,0.0073256841860711575,0
39,-0.036637287586927414,-0.06444720178842545,0.07209470123052597,-0.5442834496498108,-1.3215328454971313,0.008659061044454575,0
40,0.1285243034362793,0.031238608062267303,0.0952366292476654,-0.5325142741203308,-1.528093934059143,0.007845292799174786,0
41,-0.06083190441131592,-0.028174713253974915,0.018763909116387367,-0.46185827255249023,-1.304253101348877,0.011543125845491886,0
42,0.11676941812038422,0.12414667010307312,0.012034534476697445,-0.47075140476226807,-1.5148324966430664,0.010254524648189545,0
43,0.04143712669610977,-0.018909305334091187,-0.002682202961295843,-0.47921431064605713,-1.2934602499008179,0.010781444609165192,0
44,-0.07025646418333054,0.03248932585120201,0.05222877115011215,-0.4851915240287781,-1.315684199333191,0.010309151373803616,0
45,0.03259877488017082,0.06562946736812592,0.04286173731088638,-0.48973044753074646,-1.3342002630233765,0.010821926407516003,0
46,0.023706063628196716,0.027671365067362785,-0.036326248198747635,-0.5568860173225403,-1.3477394580841064,0.009510992094874382,0
47,0.07703141868114471,0.02459905855357647,-0.09313825517892838,-0.5436050891876221,-1.6105707883834839,0.008427347987890244,0
48,-0.022479956969618797,-8.04375231382437e-05,-0.007026455365121365,-0.5334559679031372,-1.5554910898208618,0.008272952400147915,0
49,-0.01103900745511055,0.05895623937249184,0.011115127243101597,-0.5257409811019897,-1.2612574100494385,0.010571397840976715,0
50,0.005831921938806772,-0.053039442747831345,0.06002780422568321,-0.5201764702796936,-1.2912039756774902,0.010554671287536621,0
51,0.01877177320420742,0.027946369722485542,-0.0007842113845981658,-0.515172004699707,-1.3147656917572021,0.01095505803823471,0
52,-0.03715337812900543,0.04186839982867241,-0.0032588632311671972,-0.5122320652008057,-1.7746998071670532,0.0073185996152460575,0
53,0.03582271933555603,-0.042175520211458206,-0.08446120470762253,-0.5110633373260498,-1.2420119047164917,0.011438622139394283,0
54,-0.07363613694906235,-0.0057122716680169106,-0.06603027880191803,-0.5089153051376343,-1.2772409915924072,0.010681623592972755,0
55,-0.0538826510310173,0.013430917635560036,-0.03495972976088524,-0.5071984529495239,-1.3057653903961182,0.009696339257061481,0
56,0.04309958592057228,-0.0832427591085434,-0.09537328034639359,-0.505521833896637,-1.5172256231307983,0.007875089533627033,0
57,-0.005413245875388384,0.051372088491916656,0.010858263820409775,-0.5035271048545837,-1.2974048852920532,0.008977127261459827,0
58,-0.06037662550806999,-0.05730370059609413,0.027318524196743965,-0.4399334490299225,-1.320765733718872,0.009979580529034138,0
59,0.09960400313138962,0.12213590741157532,0.014449162408709526,-0.45452338457107544,-1.339698076248169,0.010032019577920437,0
60,0.034349314868450165,-0.0007027725805528462,-0.0546933151781559,-0.4675334692001343,-1.353124976158142,0.009540919214487076,0
61,0.040977515280246735,-0.06219116225838661,-0.055609479546546936,-0.47594010829925537,-1.3635445833206177,0.009554911404848099,0
62,0.002233245177194476,0.022826779633760452,-0.02016700804233551,-0.5442811846733093,-1.6241202354431152,0.007546816021203995,0
63,0.036250967532396317,-0.026575282216072083,0.07603563368320465,-0.5337288975715637,-1.3165276050567627,0.00827698688954115,0
64,0.10068661719560623,0.10940112918615341,0.012197326868772507,0.0,0.0,0.0,0
65,-0.009542339481413364,-0.06945859640836716,0.02453412115573883,-0.00014402761007659137,0.0008650796953588724,4.0365554013988e-05,0
66,-0.03662417456507683,-0.06380528956651688,-0.07623245567083359,0.0004831721307709813,0.0009916536509990692,0.0002324865199625492,0
67,0.06092700734734535,-0.05405227839946747,-0.02905450202524662,0.2709217667579651,-0.06679093092679977,-5.7869958254741505e-05,0
68,-0.04428945109248161,-0.09356144070625305,-0.023910146206617355,0.2685258388519287,-0.07644897699356079,-0.00041553599294275045,0
69,0.0041844542138278484,-0.08889364451169968,0.04039552062749863,-0.2967953383922577,-1.7437341213226318,-0.0017104954458773136,0
70,-0.09570815414190292,0.015313217416405678,0.0066220141015946865,-0.14176344871520996,0.44106486439704895,0.002977065509185195,0
71,0.06254300475120544,-0.042209193110466,-0.01581014320254326,-0.051042817533016205,0.1792207807302475,0.0022272539790719748,0
72,-0.06033859774470329,-0.02755431830883026,0.0822146087884903,-0.013030118308961391,-0.048756636679172516,0.0021056148689240217,0
73,-0.002494256477802992,0.11636362969875336,0.05780930817127228,0.4843581020832062,-1.712376594543457,0.008878764696419239,0
74,0.05940760672092438,-0.06490082293748856,0.016812214627861977,0.759469747543335,-0.0182125736027956,-0.0027187522500753403,0
75,-0.05013458430767059,-0.0993318185210228,-0.006130558904260397,0.05882759019732475,-0.25780847668647766,0.0021450414787977934,0
76,-0.007802802138030529,0.038782864809036255,0.029642971232533455,-0.01003483310341835,-0.4459145665168762,0.003234288189560175,0
77,-0.009462102316319942,-0.020043635740876198,0.12613098323345184,-0.06901814043521881,-0.5914356708526611,0.004113202448934317,0
78,-0.06602684408426285,-0.013729837723076344,-0.012642193585634232,-0.11739779263734818,-0.7026309370994568,0.0049517168663442135,0
79,-0.052905693650245667,-0.10073503851890564,-0.028000429272651672,-0.1585676074028015,-1.7048707008361816,0.002677076030522585,0
80,-0.09581946581602097,-0.04443882778286934,0.025721516460180283,-0.18784262239933014,-0.6516241431236267,0.0069011542946100235,0
81,0.007631170097738504,0.003609028412029147,-0.04166672006249428,-0.2135971635580063,-0.7677590847015381,0.006809485610574484,0
82,0.04754956066608429,-0.03985612094402313,0.006209753453731537,-0.23725703358650208,-0.855480432510376,0.005749074276536703,0
83,0.0019005431095138192,0.061822500079870224,-0.05853205919265747,-0.2566162049770355,-0.9240092039108276,0.005467738024890423,0
84,0.023317508399486542,-0.032399047166109085,-0.014231309294700623,-0.2743181586265564,-0.9767650365829468,0.00435070414096117,0
85,-0.018062517046928406,-0.0063226111233234406,-0.03279011324048042,-0.2889999747276306,-1.017297625541687,0.003961147274821997,0
86,0.08179700374603271,0.06679533421993256,-0.04314263164997101,-0.30129575729370117,-1.0521150827407837,0.003561669494956732,0
87,-0.0038998425006866455,-0.022372962906956673,0.10400186479091644,-0.3144133687019348,-1.0780750513076782,0.0034287350717931986,0
88,-0.07076674699783325,0.023164037615060806,0.04087913781404495,-0.5025724768638611,-1.6324472427368164,-0.002556828549131751,0
89,0.09701406955718994,0.06392131745815277,-0.11778639256954193,-0.4641149640083313,-1.5091919898986816,-0.0010421073529869318,0
90,0.03409913182258606,-0.07338707149028778,-0.00384911079891026,-0.4390760362148285,-1.4210516214370728,-0.00038602264248766005,0
91,0.03770606592297554,-0.012044751085340977,-0.01537954993546009,-0.4215611517429352,-0.8900240659713745,0.011930063366889954,0
92,-0.11169634014368057,0.041471052914857864,-0.06068188324570656,-0.409921795129776,-0.9698883295059204,0.009072834625840187,0
93,0.0173350740224123,-0.04278499633073807,0.040988434106111526,-0.25915879011154175,-1.0325969457626343,0.0033689674455672503,0
94,0.018156953155994415,-0.07480552047491074,-0.023556983098387718,-0.29231059551239014,-1.0792078971862793,0.0029540143441408873,0
95,0.08090774714946747,0.11774234473705292,-0.05276189371943474,-0.3177942633628845,-1.1156429052352905,0.002207790035754442,0
96,0.07073605805635452,-0.06600086390972137,-0.01180933229625225,-0.34022900462150574,-1.1433508396148682,0.0017578013939782977,0
97,0.012307894416153431,0.05079604685306549,-0.026390979066491127,-0.3579801023006439,-1.7990702390670776,-0.011617148295044899,0
98,-0.03527143970131874,0.04558488354086876,0.006410805508494377,-0.37146294116973877,-1.0416162014007568,0.004732717294245958,0
99,-0.10817854851484299,0.026384813711047173,0.11252668499946594,-0.38548997044563293,-1.093540072441101,0.004128658678382635,0
100,-0.07057895511388779,-0.02234015427529812,-0.15161938965320587,-0.3957057297229767,-1.6018799543380737,-0.007069109473377466,0
101,0.0014624164905399084,-0.002862913766875863,0.02611515298485756,-0.40313681960105896,-1.5148146152496338,-0.0057158321142196655,0
102,-0.16292937099933624,-0.04575100913643837,-0.07361754029989243,-0.4086630046367645,-1.0054062604904175,0.006553388200700283,0
103,0.08396521955728531,0.06413857638835907,0.03587280586361885,-0.4143619239330292,-1.0721675157546997,0.004711529705673456,0
104,-0.05344903841614723,-0.026118887588381767,-0.07569675147533417,-0.5260652303695679,-1.1195273399353027,0.006884962785989046,0
105,0.12317673861980438,-0.0007205741130746901,0.011045923456549644,-0.5025631189346313,-1.4706507921218872,-0.004199113231152296,0
106,0.005650038830935955,0.021166905760765076,0.03699500486254692,-0.3842984139919281,-1.114435076713562,0.0032006993424147367,0
107,0.001553241745568812,0.008596617728471756,0.004370687995105982,-0.4987874925136566,-1.4563642740249634,-0.003747892566025257,0
108,0.03662502393126488,-0.033506546169519424,-0.01425391435623169,-0.4839215874671936,-1.8052551746368408,-0.014903753995895386,0
109,-0.0749576985836029,-0.1040133386850357,-0.026157747954130173,-0.47437742352485657,-1.4820636510849,-0.005800382234156132,0
110,-0.018703246489167213,0.11181236058473587,-0.08261208981275558,-0.46598348021507263,-0.9590916037559509,0.00974709540605545,0
111,-0.040621764957904816,-0.09028942883014679,0.059258513152599335,-0.4621891677379608,-1.0427552461624146,0.00729219289496541,0
112,-0.034542154520750046,-0.053524572402238846,0.010040278546512127,-0.45794403553009033,-1.381059169769287,-0.0027680150233209133,0
113,0.009467415511608124,0.023943809792399406,-0.09001564234495163,-0.4552844762802124,-1.36101496219635,-0.002254911232739687,0
114,0.10625842958688736,0.1170908585190773,-0.0930427685379982,-0.3657742738723755,-1.4345170259475708,-0.008109643124043941,0
115,0.04212326928973198,0.015017551369965076,-0.028833387419581413,-0.3894365131855011,-1.3993306159973145,-0.006641837302595377,0
116,-0.050503917038440704,-0.002247939817607403,-0.06818526983261108,-0.406236857175827,-1.0274306535720825,0.002281962428241968,0
117,-0.009638876654207706,0.06253326684236526,0.01613830402493477,-0.41967570781707764,-1.0980149507522583,0.0006981363403610885,0
118,0.021338310092687607,-0.13810904324054718,-0.002442255849018693,-0.4290592074394226,-1.1507827043533325,0.00010146076965611428,0
119,-0.09089803695678711,0.03921636939048767,-0.01857406459748745,-0.4354955554008484,-1.4436756372451782,-0.006574282888323069,0
120,0.13198761641979218,0.011467987671494484,-0.09318824857473373,-0.5246602296829224,-1.1660311222076416,0.002039061626419425,0
121,-0.053521864116191864,-0.07600068300962448,-0.06969388574361801,-0.5088409781455994,-1.2031100988388062,-0.0004543856193777174,0
122,-0.026075899600982666,-0.01543257012963295,-0.009302429854869843,-0.49632859230041504,-1.2340575456619263,-0.001967353979125619,0
123,0.07148198038339615,-0.026605749502778053,0.04960284382104874,-0.5667511820793152,-1.2578117847442627,-0.0011917116353288293,0
124,-0.01948240026831627,0.05066885054111481,0.06635290384292603,-0.45973488688468933,-1.5122041702270508,-0.010905472561717033,0
125,-0.10221390426158905,-0.020193971693515778,-0.020091736689209938,-0.30333155393600464,-1.2309000492095947,-0.006049524061381817,0
126,-0.030843498185276985,-0.05732344835996628,-0.10214176028966904,-0.42062345147132874,-1.257355809211731,-0.00435673026368022,0
127,-0.002692232374101877,0.02090246044099331,0.029149819165468216,-0.4310648739337921,-1.2771339416503906,-0.005058754701167345,0
128,-0.08218664675951004,0.0018093461403623223,0.04681096971035004,-0.44004160165786743,-1.5229490995407104,-0.00999379437416792,0
129,-0.08357735723257065,-0.05268435552716255,-0.047233305871486664,-0.4464721381664276,-1.4774417877197266,-0.008795990608632565,0
130,-0.07798818498849869,0.06926531344652176,-0.06024967506527901,-0.4519711434841156,-1.7473812103271484,-0.014993565157055855,0
131,0.02750765159726143,-0.03574809804558754,-0.05105161666870117,-0.4576455354690552,-1.4208279848098755,-0.007393489126116037,0
132,-0.019778341054916382,-0.019008349627256393,-0.0550849549472332,-0.46192023158073425,-1.3980529308319092,-0.0077088153921067715,0
133,-0.056271713227033615,0.03607718646526337,-0.09727214276790619,-0.539035975933075,-1.0851267576217651,0.0022776310797780752,0
134,-0.061457179486751556,0.04581531137228012,-0.02735631726682186,-0.4504950940608978,-1.1471076011657715,-0.002580651780590415,0
135,0.01614716276526451,0.124958336353302,-0.12214777618646622,-0.45775914192199707,-1.1945537328720093,-0.0038187960162758827,0
136,-0.08174283802509308,-0.08355140686035156,-0.039333563297986984,-0.46534278988838196,-1.2315096855163574,-0.005723150912672281,0
137,-0.03506550192832947,-0.07748839259147644,0.0585661344230175,-0.4678211808204651,-1.2601680755615234,-0.0063528441824018955,0
138,-0.01991490088403225,0.0006458167335949838,-0.015977006405591965,-0.541958749294281,-1.2831753492355347,-0.00581795908510685,0
139,0.0833636149764061,0.033822450786828995,0.06269340962171555,-0.5276405215263367,-1.3003385066986084,-0.006778155919164419,0
140,0.03147975355386734,0.0014391946606338024,0.04538000747561455,-0.5162538290023804,-1.3117244243621826,-0.006904160138219595,0
141,0.12436814606189728,-0.01875223219394684,0.014300846494734287,-0.5074324011802673,-1.3218820095062256,-0.007364190649241209,0
142,0.023287231102585793,0.0047675627283751965,-0.009022904559969902,-0.5008175373077393,-1.3286899328231812,-0.007325468584895134,0
143,-0.0015535601414740086,-0.040837593376636505,-0.048950161784887314,-0.4257354736328125,-1.3352525234222412,-0.008963260799646378,0
144,-0.09226799756288528,0.023128768429160118,0.015883909538388252,-0.4388192594051361,-1.3406798839569092,-0.009143154136836529,0
145,0.029815727844834328,0.04083496704697609,-0.0065674069337546825,-0.4497844874858856,-1.5547114610671997,-0.013406108133494854,0
146,-0.04894440248608589,-0.01380166132003069,0.06422270089387894,-0.4584037959575653,-1.2984390258789062,-0.007994409650564194,0
147,-0.03470339998602867,0.01961175911128521,-0.02340351603925228,-0.4639040231704712,-1.313484787940979,-0.008019695058465004,0
148,0.024399209767580032,0.005697723478078842,0.02821868471801281,-0.46834075450897217,-1.5327589511871338,-0.012339943088591099,0
149,0.002066045068204403,-0.12667903304100037,-0.004293112084269524,-0.4717462658882141,-1.2838550806045532,-0.007416947279125452,0
150,0.06793681532144547,-0.004545704461634159,0.03836820274591446,-0.4742070436477661,-1.3024296760559082,-0.007564924191683531,0
151,-0.09288879483938217,-0.024380259215831757,0.011701037175953388,-0.47585898637771606,-1.3163845539093018,-0.007375216577202082,0
152,0.07957319915294647,-0.04654620215296745,0.034671600908041,-0.4776586890220642,-1.8731647729873657,-0.018325714394450188,0
153,-0.042399127036333084,0.09800617396831512,0.03236645087599754,-0.5471153855323792,-1.211422085762024,-0.002431507222354412,0
154,0.009741299785673618,0.030909383669495583,0.038680341094732285,-0.5324938297271729,-1.2474976778030396,-0.003141503082588315,0
155,0.0524236299097538,-0.10670957714319229,-0.03734596446156502,-0.5208285450935364,-1.2757455110549927,-0.004191469866782427,0
156,0.05692790821194649,-0.053091585636138916,-0.04358129948377609,-0.5097343921661377,-1.2971501350402832,-0.005126831587404013,0
157,-0.012971630319952965,0.0326051227748394,-0.02051590569317341,-0.502834677696228,-1.3137781620025635,-0.006078863982111216,0
158,-0.0308819767087698,-0.10011878609657288,-0.09612912684679031,-0.49748682975769043,-1.3270395994186401,-0.006673404015600681,0
159,0.037702057510614395,-0.011595705524086952,0.010748696513473988,-0.4925314784049988,-1.5384588241577148,-0.012436908669769764,0
160,0.04257096350193024,-0.05521073564887047,0.0857577845454216,-0.4901083707809448,-1.297634243965149,-0.007076941896229982,0
161,0.14026223123073578,-0.15062597393989563,-0.009073848836123943,-0.4871251583099365,-1.3129949569702148,-0.006601493339985609,0
162,-0.009422029368579388,0.1313961297273636,0.024137282744050026,-0.48471036553382874,-1.3250147104263306,-0.006881440058350563,0
163,-0.00618296442553401,0.09165205806493759,-0.05039874091744423,-0.352119117975235,-1.3360165357589722,-0.009137588553130627,0
164,0.0975012257695198,-0.05280771106481552,-0.04295876994729042,-0.4516085088253021,-1.54230535030365,-0.011531950905919075,0
165,-0.021187331527471542,-0.032206401228904724,-0.0044436100870370865,-0.4595545828342438,-1.3011101484298706,-0.00823388434946537,0
166,-0.08254506438970566,-0.04884646460413933,-0.048758070915937424,-0.4651763439178467,-1.58246910572052,-0.011984690092504025,0
167,0.05455842241644859,-0.02001507766544819,-0.13617552816867828,-0.4699401557445526,-1.2669315338134766,-0.008185758255422115,0
168,-0.07253514230251312,-0.011642522178590298,-0.057960521429777145,-0.4737209379673004,-1.2912551164627075,-0.00960817001760006,0
169,0.07922304421663284,0.05909183993935585,-0.012120816856622696,-0.4121937155723572,-1.3108415603637695,-0.010810397565364838,0
170,0.06180906295776367,-0.023303771391510963,-0.03284640610218048,-0.4963228106498718,-1.3244609832763672,-0.0102780656889081,0
171,0.02960304729640484,0.00014432462921831757,-0.04813000559806824,-0.4946630895137787,-1.5306402444839478,-0.013350280933082104,0
172,0.0685112401843071,0.016035333275794983,-0.07896709442138672,-0.4921988248825073,-1.2947500944137573,-0.01042279601097107,0
173,-0.09924565255641937,-0.05736590549349785,0.0277125034481287,-0.49179527163505554,-1.3123753070831299,-0.010981513187289238,0
174,-0.044648103415966034,0.018727289512753487,-0.02750554122030735,-0.49080994725227356,-1.3272933959960938,-0.011591598391532898,0
175,0.07780063152313232,0.03930744528770447,0.013023928739130497,-0.49112045764923096,-1.338291883468628,-0.01151928212493658,0
176,-0.03715876489877701,-0.017001060768961906,0.13288576900959015,-0.49066540598869324,-1.3455458879470825,-0.010965383611619473,0
177,-0.01039142906665802,0.017616791650652885,0.036332327872514725,-0.4897586405277252,-1.3525396585464478,-0.010546400211751461,0
178,0.007567852269858122,-0.008060083724558353,0.024458806961774826,-0.48911553621292114,-1.8120661973953247,-0.01707691140472889,0
179,0.04206511378288269,-0.057192835956811905,0.06757655739784241,-0.48941418528556824,-1.2557657957077026,-0.007900387980043888,0
180,-0.052602995187044144,-0.0569952167570591,0.01700112409889698,-0.4886099398136139,-1.478356957435608,-0.011221162974834442,0
181,0.06256125867366791,-0.05187611281871796,-0.019031928852200508,-0.5525287389755249,-1.2591025829315186,-0.006440233904868364,0
182,0.038998618721961975,0.059734322130680084,0.1207815632224083,-0.4722374975681305,-1.2860368490219116,-0.0076383440755307674,0
183,-0.01502236071974039,0.014563728123903275,-0.06755080074071884,-0.5408302545547485,-1.3067407608032227,-0.006920805666595697,0
184,0.004831212572753429,-0.06266491860151291,0.000450350547907874,-0.5282014608383179,-1.7741734981536865,-0.015611802227795124,0
185,0.022098807618021965,-0.03474979102611542,0.0737040713429451,-0.5185487866401672,-1.2289910316467285,-0.0052339257672429085,0
186,0.06051645427942276,-0.024224866181612015,0.0616900734603405,-0.510138750076294,-1.2629811763763428,-0.004979470744729042,0
187,0.1345546990633011,-0.07905076444149017,-0.08146827667951584,-0.503832995891571,-1.2896816730499268,-0.005229935050010681,0
188,0.021463803946971893,0.06543822586536407,-0.05498950928449631,-0.4989517629146576,-1.5027559995651245,-0.009896396659314632,0
189,-0.12951277196407318,-0.04827691242098808,-0.007979732938110828,-0.49598273634910583,-1.2787619829177856,-0.006285109091550112,0
190,0.030553212389349937,-0.03144150599837303,0.10992565751075745,-0.4282073974609375,-1.4965064525604248,-0.009820472449064255,0
191,0.04570135474205017,-0.04647255688905716,-0.0026846870314329863,-0.5062543153762817,-1.5311604738235474,-0.009427965618669987,0
192,0.036673031747341156,0.07359850406646729,-0.07195840030908585,-0.5008988380432129,-1.2363582849502563,-0.005393709521740675,0
193,-0.10237660259008408,-0.04276159778237343,-0.008820148184895515,-0.43455949425697327,-1.2698814868927002,-0.006140993908047676,0
194,0.030898863449692726,-0.016003277152776718,0.019208604469895363,-0.44758179783821106,-1.489449381828308,-0.00883251428604126,0
195,0.021150441840291023,-0.0462736152112484,-0.025349419564008713,-0.4572698175907135,-1.2699792385101318,-0.006429397966712713,0
196,0.006264793686568737,-0.09043952822685242,0.01562841422855854,-0.5283600091934204,-1.2960772514343262,-0.00644796434789896,0
197,-0.03583483397960663,0.00958475936204195,-0.03252588212490082,-0.5169678926467896,-1.5080888271331787,-0.008526435121893883,0
198,-0.0009257098427042365,-0.04136393219232559,0.007246794179081917,-0.509033739566803,-1.731924295425415,-0.011487899348139763,0
199,-0.11388930678367615,-0.08011645823717117,0.0029574567452073097,-0.5035818219184875,-1.2020349502563477,-0.004578291904181242,0
200,0.029617611318826675,0.09921248257160187,-0.0532783567905426,-0.4985353648662567,-1.2469907999038696,-0.005364671815186739,0
201,0.02796025574207306,-0.08277321606874466,0.03705275431275368,-0.49624180793762207,-1.4717073440551758,-0.008773026056587696,0
202,-0.07236509770154953,-0.06259448826313019,0.01058209128677845,-0.4928353726863861,-1.2586607933044434,-0.005792911164462566,0
203,0.02673305757343769,0.033630140125751495,-0.028296176344156265,-0.42622795701026917,-1.2908753156661987,-0.005905219819396734,0
204,0.03845441713929176,-0.027879375964403152,0.013814163394272327,-0.4400290846824646,-1.759669542312622,-0.010390913113951683,0
205,0.037593740969896317,-0.0006968951784074306,-0.0008432333124801517,-0.4500234127044678,-1.4778636693954468,-0.008297550491988659,0
206,-0.0013398537412285805,0.06439515948295593,-0.047360021620988846,-0.5222633481025696,-1.3906989097595215,-0.007292528171092272,0
207,0.05593794584274292,0.05739889666438103,-0.02986045926809311,-0.5139609575271606,-1.643833875656128,-0.009739498607814312,0
208,-0.1437942534685135,-0.04453578591346741,-0.07499999552965164,-0.5080214142799377,-1.3898578882217407,-0.007273965049535036,0
209,0.09194180369377136,-0.007595678325742483,0.0901910588145256,-0.5017639994621277,-1.1345484256744385,-0.004844808019697666,0
210,0.027912748977541924,-0.002704668790102005,-0.05290767922997475,-0.4975458085536957,-1.1952604055404663,-0.0053377216681838036,0
211,-0.029687264934182167,-0.1051863580942154,-0.019525522366166115,-0.4945756196975708,-1.242506742477417,-0.00604877807199955,0
212,-0.30809488892555237,0.12122562527656555,-0.46305179595947266,-0.4286573827266693,-1.4726117849349976,-0.008031243458390236,0
213,-0.0892631784081459,-0.3970626890659332,0.2730148732662201,-0.567768394947052,-1.4530359506607056,-0.01110863871872425,0
214,-0.9269019961357117,-0.5607884526252747,-0.07996871322393417,-0.4783289432525635,-1.238182544708252,-0.008763149380683899,0
215,-0.12333005666732788,0.8221119046211243,-0.14242605865001678,-0.40028607845306396,-1.2660681009292603,-0.006917757913470268,0
216,-0.6612666845321655,-0.029549479484558105,0.5148134231567383,-0.41293978691101074,-1.4677700996398926,-0.014683703891932964,0
217,-0.012781097553670406,-0.0230733510106802,-0.8568238615989685,-0.41609424352645874,-1.4306144714355469,-0.010889186523854733,0
218,-1.08046293258667,-1.7473158836364746,0.40110403299331665,-0.4215620160102844,-1.1944966316223145,-0.012271459214389324,0
219,1.111351490020752,0.377788245677948,-0.34080857038497925,-0.46587294340133667,-1.6692800521850586,-0.009392212145030499,0
220,1.7920329570770264,1.4684416055679321,0.10095849633216858,-0.4655066132545471,-1.1057103872299194,-0.009399309754371643,0
221,1.4821354150772095,-1.536588191986084,1.5119833946228027,-0.48415690660476685,-1.0895378589630127,-0.01045175176113844,0
222,-3.6709182262420654,-3.0493621826171875,-3.3378541469573975,-0.42564132809638977,-1.1150468587875366,-0.004581630229949951,0
223,-1.3759510517120361,0.5077743530273438,-1.7158737182617188,-0.43919843435287476,-1.1586045026779175,-0.03798773139715195,0
224,2.6215715408325195,3.2452447414398193,2.029482126235962,-0.5730838775634766,-1.28109610080719,-0.05409380793571472,0
225,-1.5886039733886719,-2.397120237350464,1.4135284423828125,-0.4841885566711426,-1.0825228691101074,-0.03132006525993347,0
226,-1.9227954149246216,-9.480948448181152,1.6627748012542725,-0.37360793352127075,-1.1151256561279297,-0.012475426308810711,0
227,-0.8888126611709595,11.632296562194824,1.513179063796997,-0.3677205741405487,-1.020599365234375,-0.0020074418280273676,0
228,21.57024383544922,11.897665023803711,1.1671853065490723,-0.5648928880691528,-0.9071570634841919,0.008916649967432022,0
229,-5.801598072052002,-0.01538887433707714,0.9042636156082153,-0.6463136076927185,-0.516972541809082,0.017492061480879784,0
230,0.014696548692882061,-9.008105278015137,2.7683441638946533,-0.5820257067680359,-0.3570106625556946,0.03672952204942703,0
231,-14.99903678894043,-3.47253155708313,5.354015827178955,-0.45397624373435974,-0.1998508721590042,0.0766097754240036,0
232,3.9010045528411865,-8.556883811950684,7.575353145599365,-0.472683310508728,-0.24257712066173553,0.13024772703647614,0
233,1.0701442956924438,2.853860378265381,9.274150848388672,-0.3081859350204468,0.2803717851638794,0.23828469216823578,0
234,-1.4789958000183105,-6.905087947845459,7.723995685577393,-0.417091429233551,-0.002210197038948536,0.30578845739364624,0
235,-11.486865997314453,-15.261163711547852,7.486577987670898,-0.3426392078399658,0.3710682988166809,0.3772382140159607,0
236,-17.960906982421875,-26.302230834960938,6.7835469245910645,-0.2631283700466156,0.14109589159488678,0.42609429359436035,0
237,-24.17657470703125,-25.03175926208496,6.944575309753418,-0.33089321851730347,0.17389005422592163,0.4147217273712158,0
238,-23.61183738708496,-22.315332412719727,6.785837650299072,-0.10336719453334808,-0.21152080595493317,0.47875043749809265,0
239,-21.969493865966797,-18.066503524780273,5.046764850616455,0.07389780133962631,-0.12758436799049377,0.5341395735740662,0
240,-24.03558349609375,-13.55834674835205,5.074915885925293,0.43445971608161926,-0.5008458495140076,0.6372557878494263,0
241,-36.35994338989258,-21.63957405090332,3.408182144165039,0.5573713183403015,-0.32845091819763184,0.6544752717018127,0
242,-43.45689010620117,-22.386938095092773,2.858969211578369,0.6895138025283813,-1.0419551134109497,0.6993555426597595,0
243,-47.2508430480957,-25.11061668395996,1.6617326736450195,2.053546190261841,-2.0347211360931396,1.009702205657959,0
244,-37.597373962402344,-28.100587844848633,0.059025004506111145,0.8038864731788635,-2.368577241897583,0.8467733860015869,0
245,-14.724106788635254,-17.039379119873047,1.4176212549209595,-0.5137063264846802,-2.4039721488952637,0.6811036467552185,0
246,3.762312889099121,-12.120460510253906,2.2057762145996094,0.08004233241081238,-2.634525775909424,0.7256353497505188,0
247,21.454547882080078,-13.593542098999023,2.027294397354126,0.3676379919052124,-2.8625471591949463,0.7756882309913635,0
248,30.90827751159668,-19.321081161499023,1.0019657611846924,1.2698776721954346,-2.774905204772949,0.7131118774414062,0
249,37.175411224365234,-28.626195907592773,2.1510629653930664,2.463955879211426,-2.1923828125,0.52195805311203,0
250,41.28095245361328,-26.400978088378906,4.349670886993408,1.00853431224823,-1.7295094728469849,0.8787216544151306,0
251,36.6144905090332,-18.422197341918945,3.592190980911255,2.06386661529541,-1.5692561864852905,0.8151249289512634,0
252,24.085269927978516,-17.49750328063965,3.6882481575012207,2.732557773590088,-1.3915637731552124,0.8059407472610474,0
253,8.391189575195312,-12.281685829162598,3.8780393600463867,1.9017888307571411,0.29049718379974365,0.5047096610069275,0
254,-8.751394271850586,-7.681112289428711,4.369907855987549,2.6350526809692383,-0.1739911139011383,0.6972975730895996,0
255,-31.919828414916992,-7.894563674926758,2.5456907749176025,3.4751274585723877,-1.0181913375854492,0.9590930938720703,0
256,-48.246395111083984,-6.5329694747924805,0.05073883384466171,2.5859503746032715,-2.0424821376800537,1.2874332666397095,0
257,-52.215972900390625,0.7929674983024597,-1.5606627464294434,2.268251657485962,-3.2965660095214844,1.625789761543274,0
258,-44.954185485839844,3.2054266929626465,-2.289163589477539,2.6729631423950195,-3.85082745552063,1.6098747253417969,0
259,-27.052011489868164,9.002721786499023,-1.2706032991409302,3.760134696960449,-4.511516571044922,1.5432504415512085,0
260,0.5174139142036438,12.929733276367188,-0.45446228981018066,4.083035945892334,-4.596019744873047,1.3766964673995972,0
261,31.642410278320312,21.183380126953125,0.5817338228225708,4.607969284057617,-4.45911979675293,1.1416685581207275,0
262,60.00104904174805,36.214935302734375,2.905932903289795,4.249658584594727,-3.919860363006592,1.0896614789962769,0
263,77.22695922851562,55.500343322753906,3.3835034370422363,4.359116077423096,-3.6719279289245605,1.1772137880325317,0
264,81.0517807006836,75.49955749511719,3.550421953201294,3.5675976276397705,-2.557102918624878,1.0292662382125854,0
265,72.25542449951172,88.70401763916016,3.5136313438415527,3.353489398956299,-2.0579333305358887,0.9957090616226196,0
266,55.38715362548828,92.7303695678711,3.523430824279785,2.2107324600219727,-1.3656389713287354,1.0651640892028809,0
267,35.13473892211914,86.5403823852539,3.343670129776001,1.9183058738708496,-1.1111180782318115,1.0450572967529297,0
268,19.828523635864258,73.79558563232422,3.482517957687378,0.8411658406257629,-0.7656874656677246,1.0880354642868042,0
269,11.828659057617188,59.94697952270508,3.4212851524353027,0.3710634410381317,-0.6786349415779114,1.1365407705307007,0
270,12.821634292602539,45.68907928466797,3.073580026626587,-0.5862908363342285,-0.4047888219356537,1.1301517486572266,0
271,19.557167053222656,32.92082595825195,3.32177472114563,-0.877831220626831,-0.4502583146095276,1.217362642288208,0
272,28.15345001220703,24.269163131713867,2.5724799633026123,-1.5438857078552246,0.09684155136346817,1.1858934164047241,0
273,36.14287185668945,24.810009002685547,2.7163052558898926,-1.5931910276412964,0.5717787146568298,1.2211107015609741,0
274,40.40088653564453,30.364086151123047,2.520949363708496,-2.3660731315612793,1.2520160675048828,1.2058560848236084,0
275,35.960445404052734,36.49404525756836,1.6290751695632935,-2.5052661895751953,1.9730534553527832,1.3457753658294678,0
276,20.822662353515625,35.84435272216797,0.43305709958076477,-3.6465280055999756,2.552186965942383,1.2380768060684204,0
277,-1.1685069799423218,27.22073745727539,0.3561137020587921,-3.7730040550231934,2.1099369525909424,1.067941427230835,0
278,-24.23666000366211,15.117734909057617,1.039021611213684,-4.2905988693237305,2.2433345317840576,1.082861304283142,0
279,-34.124237060546875,2.84322452545166,0.6813231110572815,-3.9324069023132324,1.9186184406280518,1.3051791191101074,0
280,-34.785743713378906,-10.274246215820312,-0.8814888596534729,-4.311220645904541,1.7458512783050537,1.216484785079956,0
281,-28.555282592773438,-15.176583290100098,-0.7091501951217651,-4.46551513671875,1.4786717891693115,1.1016614437103271,0
282,-14.7294921875,-16.93423080444336,-0.35926303267478943,-3.746032953262329,1.202829360961914,1.356704831123352,0
283,2.154423236846924,-17.162433624267578,-1.384974479675293,-3.6276063919067383,1.2218918800354004,1.3959192037582397,0
284,13.983261108398438,-14.879302978515625,-0.9556536674499512,-3.5671024322509766,1.5871922969818115,1.5653654336929321,0
285,18.649818420410156,-12.262436866760254,-1.1120816469192505,-3.160479784011841,1.836614966392517,1.7643482685089111,0
286,13.609946250915527,-9.219843864440918,-1.7743531465530396,-2.963390588760376,2.206939458847046,1.9473625421524048,0
287,1.972898244857788,-3.6293065547943115,-1.9259098768234253,-3.1914000511169434,2.517683744430542,1.938767433166504,0
288,-14.476923942565918,2.4699032306671143,-2.4878721237182617,-2.667121171951294,2.581604480743408,2.2545597553253174,0
289,-31.25406837463379,2.2886157035827637,-3.801325559616089,-2.923093795776367,2.107414722442627,1.9160897731781006,0
290,-45.46793746948242,1.2359464168548584,-2.1398019790649414,-2.5701491832733154,1.4286143779754639,1.8943575620651245,0
291,-50.1151008605957,0.003789300099015236,-1.5622977018356323,-2.9059031009674072,1.0081567764282227,1.7386020421981812,0
292,-44.256771087646484,2.040926218032837,0.475332647562027,-2.9444515705108643,0.4018389582633972,1.655339241027832,0
293,-31.24156951904297,3.240432024002075,1.8724778890609741,-3.278562545776367,-0.6304978728294373,1.1737890243530273,0
294,-13.165091514587402,1.7440088987350464,3.713898181915283,-3.1191577911376953,-0.6217873096466064,1.4213464260101318,0
295,9.047607421875,-4.517559051513672,1.9616403579711914,-3.2104151248931885,-0.5755478143692017,1.4805387258529663,0
296,27.761930465698242,-5.673439979553223,1.1129306554794312,-3.1767590045928955,-0.3449150621891022,1.530924916267395,0
297,37.080665588378906,-7.182784557342529,0.1780213862657547,-2.033085823059082,-0.8763150572776794,1.2550472021102905,0
298,36.649723052978516,-6.011392116546631,-0.14143531024456024,-2.4912054538726807,-0.03541126847267151,1.4702723026275635,0
299,32.644325256347656,1.066997766494751,-1.9486972093582153,-2.652677536010742,0.5408612489700317,1.5500134229660034,0
300,22.29385757446289,4.346161365509033,-3.6800537109375,-1.9997620582580566,1.297093391418457,1.7743430137634277,0
301,6.926118850708008,5.501332759857178,-4.126499652862549,-2.2261030673980713,1.515509843826294,1.7296884059906006,0
302,-11.01397705078125,8.846014022827148,-3.7966160774230957,-2.8009490966796875,1.7288068532943726,1.6784430742263794,0
303,-28.363197326660156,9.649435043334961,-3.9768431186676025,-3.158766031265259,1.4956037998199463,1.557750940322876,0
304,-40.54547882080078,3.7297563552856445,-3.030799388885498,-4.139378070831299,1.3205857276916504,1.3485561609268188,0
305,-45.18089294433594,-7.575895309448242,-1.6446614265441895,-4.294549942016602,0.7361804246902466,1.205418348312378,0
306,-42.194725036621094,-24.178144454956055,-1.3039895296096802,-4.330883502960205,0.7159470319747925,1.3660426139831543,0
307,-33.07654571533203,-42.80236053466797,-2.0498554706573486,-3.8157174587249756,0.24727490544319153,1.3651422262191772,0
308,-22.42087745666504,-56.7806510925293,-2.6651251316070557,-3.4978415966033936,0.16558000445365906,1.4282737970352173,0
309,-13.320805549621582,-63.710819244384766,-3.1494381427764893,-2.6961586475372314,-0.01310645043849945,1.450749397277832,0
310,-7.319596767425537,-62.1317253112793,-2.525845527648926,-2.2897562980651855,-0.13948971033096313,1.3644311428070068,0
311,-4.981013298034668,-52.61091995239258,-1.8549848794937134,-1.3823643922805786,-0.2822367548942566,1.3522950410842896,0
312,-6.971462249755859,-38.33576202392578,-1.7998857498168945,-1.2556161880493164,-0.22099243104457855,1.3345955610275269,0
313,-11.544271469116211,-24.530149459838867,-2.2340309619903564,-0.595705509185791,-0.4730279743671417,1.2904095649719238,0
314,-17.459897994995117,-11.134673118591309,-2.523979425430298,-0.8545526266098022,-0.5902636647224426,1.240652084350586,0
315,-19.441959381103516,-4.414799690246582,-2.132385492324829,-0.498960018157959,-0.9076673984527588,1.207887887954712,0
316,-18.1742000579834,-5.393088340759277,-1.5414915084838867,-0.7150225043296814,-1.0872794389724731,1.1838568449020386,0
317,-14.109980583190918,-12.489583969116211,-1.2484607696533203,-0.3644798696041107,-1.2891048192977905,1.1693655252456665,0
318,-8.038945198059082,-21.880870819091797,-1.720091700553894,-0.19714321196079254,-1.3386784791946411,1.1640609502792358,0
319,-2.01421856880188,-29.463613510131836,-1.9404823780059814,-0.01170147955417633,-1.547692894935608,1.1595014333724976,0
320,1.724332332611084,-34.099090576171875,-1.988086223602295,0.3435557186603546,-1.382254719734192,1.139146327972412,0
321,3.5276198387145996,-35.42184829711914,-1.7318910360336304,1.0077069997787476,-1.507678747177124,1.107909083366394,0
322,2.5157017707824707,-31.80677604675293,-1.7684764862060547,0.9606690406799316,-1.2608275413513184,1.1267348527908325,0
323,0.2037879377603531,-24.393280029296875,-1.9226735830307007,1.529069423675537,-1.27102530002594,1.0793012380599976,0
324,-2.942713499069214,-17.168010711669922,-1.9483078718185425,1.789732575416565,-1.3004578351974487,1.0633718967437744,0
325,-6.74459981918335,-9.203108787536621,-1.6339848041534424,2.0255496501922607,-1.2514195442199707,1.0021820068359375,0
326,-9.069507598876953,-3.0984230041503906,-1.375936508178711,2.196749687194824,-1.4068695306777954,0.9973064661026001,0
327,-9.820180892944336,3.2946970462799072,-0.9159249663352966,2.280811071395874,-1.707618236541748,1.0514496564865112,0
328,-8.082950592041016,6.50132942199707,-1.1943855285644531,2.346574306488037,-1.979465365409851,1.0932881832122803,0
329,-2.6470983028411865,8.031245231628418,-1.3435510396957397,2.4935503005981445,-2.2305259704589844,1.125811219215393,0
330,5.455503940582275,9.803215980529785,-1.31777822971344,2.6477441787719727,-2.2910690307617188,1.0833079814910889,0
331,14.106718063354492,11.62608528137207,-1.6467859745025635,2.5188820362091064,-2.787541389465332,1.3899965286254883,0
332,22.20555305480957,13.901261329650879,-3.243558645248413,2.4078738689422607,-2.7179017066955566,1.409711480140686,0
333,31.338077545166016,15.512290000915527,-1.9462543725967407,2.5100111961364746,-1.1026581525802612,0.4828360676765442,0
334,35.34280776977539,17.306102752685547,2.2437546253204346,2.1941258907318115,-0.8970499038696289,0.5817435383796692,0
335,26.178255081176758,19.254688262939453,2.4219818115234375,1.861290454864502,-0.4580112099647522,0.5599353313446045,0
336,10.249829292297363,19.411087036132812,2.216268539428711,1.529516339302063,-0.20047587156295776,0.5818292498588562,0
337,-6.9683732986450195,16.70551300048828,2.22133469581604,1.230259656906128,-0.39605194330215454,0.7651122808456421,0
338,-21.430593490600586,11.216232299804688,1.5475833415985107,1.2035331726074219,-0.48402735590934753,0.7510708570480347,0
339,-28.79924201965332,5.120757579803467,1.3074816465377808,1.3202142715454102,-0.8557100892066956,0.806591808795929,0
340,-27.225778579711914,0.9575297236442566,1.0869933366775513,1.4317779541015625,-1.2294172048568726,0.8429023027420044,0
341,-17.622819900512695,0.5752689242362976,0.7099330425262451,1.3108242750167847,-1.4093650579452515,0.8242993354797363,0
342,-2.8837201595306396,4.738210201263428,0.7841921448707581,1.2490439414978027,-1.6251226663589478,0.8650420308113098,0
343,10.991101264953613,9.607146263122559,0.1963774710893631,1.0419015884399414,-1.6529723405838013,0.8958626389503479,0
344,22.226476669311523,13.773969650268555,-0.11957142502069473,0.9564461708068848,-1.3195918798446655,0.8084050416946411,0
345,27.59859275817871,15.823307037353516,0.2692292332649231,0.6581634879112244,-1.0466086864471436,0.8091748952865601,0
346,24.155344009399414,14.048234939575195,0.19809789955615997,0.43978190422058105,-0.6435917615890503,0.7698285579681396,0
347,16.267301559448242,11.636322975158691,0.47058823704719543,0.37910425662994385,-0.32259616255760193,0.7336510419845581,0
348,2.810940742492676,6.587981224060059,0.9738964438438416,0.16484540700912476,-0.16015885770320892,0.7440094947814941,0
349,-11.175111770629883,1.6640757322311401,2.2871217727661133,0.5672104954719543,1.4229037761688232,0.27598464488983154,0
350,-25.07164192199707,-1.9614474773406982,4.426807403564453,0.4679940640926361,0.9703813791275024,0.39037251472473145,0
351,-42.27658462524414,-0.7931216955184937,3.4986941814422607,0.3500795364379883,0.5250588059425354,0.46771201491355896,0
352,-53.34576416015625,2.7587459087371826,2.547753095626831,0.22319099307060242,-0.3587816655635834,0.5867270231246948,0
353,-52.57408142089844,6.021234512329102,2.25348162651062,0.06109612062573433,-0.7948592305183411,0.5790186524391174,0
354,-39.626190185546875,8.08705997467041,2.2841997146606445,-0.06328537315130234,-1.5221067667007446,0.6365211606025696,0
355,-20.98720359802246,6.549502372741699,2.350301742553711,-0.1937464475631714,-2.1316869258880615,0.6900820136070251,0
356,-0.04350156709551811,3.075352430343628,2.0484719276428223,-0.28986236453056335,-2.441812753677368,0.7269440293312073,0
357,18.511751174926758,-0.3819497227668762,2.6940197944641113,-0.32459473609924316,-2.0601725578308105,0.7125105261802673,0
358,29.542633056640625,-3.495303153991699,3.0644383430480957,-0.29372110962867737,-1.9996083974838257,0.7525758147239685,0
359,28.19443702697754,-4.984029293060303,3.347768783569336,-0.1564233899116516,-2.0925683975219727,0.8035292029380798,0
360,20.356712341308594,-4.729318618774414,2.9020707607269287,0.052554626017808914,-1.6412209272384644,0.8092763423919678,0
361,9.870156288146973,-2.527592182159424,2.281235456466675,0.24313139915466309,-0.6697878241539001,0.7815585732460022,0
362,-3.668975353240967,2.8578968048095703,2.068737030029297,0.22647209465503693,-0.7266269326210022,0.8158145546913147,0
363,-19.006717681884766,7.7623677253723145,1.3741703033447266,0.12652041018009186,-0.9924598336219788,0.8514694571495056,0
364,-29.694059371948242,10.557504653930664,1.021732211112976,-0.09984569996595383,-1.3191100358963013,0.8814886212348938,0
365,-30.539783477783203,10.52747631072998,1.0215109586715698,-0.35628271102905273,-1.707736611366272,0.9054022431373596,0
366,-22.196226119995117,6.779826641082764,1.1571929454803467,-0.5156023502349854,-2.190598249435425,0.9231452941894531,0
367,-6.491001605987549,-0.16827411949634552,1.356804370880127,-0.5199267268180847,-2.5478148460388184,0.9306049942970276,0
368,11.981791496276855,-6.835666656494141,0.8883451223373413,-0.3458072543144226,-2.6783339977264404,0.9256975054740906,0
369,27.150827407836914,-10.676039695739746,0.8826115131378174,-0.09848464280366898,-2.428924798965454,0.9133625030517578,0
370,35.92985153198242,-8.481151580810547,1.4922295808792114,0.16285257041454315,-1.9012120962142944,0.8992292284965515,0
371,35.50829315185547,-2.666677951812744,1.8508538007736206,0.21719476580619812,-1.3531767129898071,0.9206011295318604,0
372,25.22804832458496,5.080521106719971,1.6169588565826416,0.17199569940567017,-1.854174017906189,0.9503700733184814,0
373,11.385628700256348,12.520015716552734,1.1669089794158936,0.08082345873117447,-1.1178109645843506,0.9634754061698914,0
374,1.8435205221176147,16.564180374145508,0.7449342012405396,-0.16229119896888733,-1.028936505317688,0.9951267838478088,0
375,-4.557328701019287,16.24363136291504,0.21259328722953796,-0.4417775571346283,-0.6911354660987854,1.0182056427001953,0
376,-7.218165874481201,11.967247009277344,0.052165668457746506,-0.3077138662338257,-0.7510280013084412,0.9749689102172852,0
377,-8.348072052001953,5.749127388000488,0.06959391385316849,-0.3350279927253723,-1.0379170179367065,0.9634767770767212,0
378,-5.922693729400635,-0.08779294043779373,-0.1439090073108673,-0.5309187769889832,-1.2395191192626953,0.9784675240516663,0
379,-0.30177223682403564,-3.2076752185821533,-0.6797821521759033,-0.5719007849693298,-1.3180512189865112,0.9793579578399658,0
380,8.531367301940918,-5.742610454559326,-0.9723995327949524,-0.6869468688964844,-1.4227062463760376,0.9837175011634827,0
381,16.35001564025879,-5.992112636566162,-1.3531713485717773,-0.6752395629882812,-1.2402422428131104,0.9839584827423096,0
382,21.98125457763672,-4.575380325317383,-1.3055094480514526,-0.5802677869796753,-1.1435033082962036,0.964851438999176,0
383,23.20391082763672,-2.4338839054107666,-1.6042193174362183,-0.23482778668403625,-0.5626209378242493,0.9480962753295898,0
384,20.300275802612305,0.6746565699577332,-2.1271071434020996,-0.08280458301305771,0.18709620833396912,0.9497753381729126,0
385,9.123828887939453,6.133149147033691,-1.826384425163269,-0.13904236257076263,0.14660491049289703,0.9163291454315186,0
386,-5.9479265213012695,11.55335807800293,-1.1263762712478638,-0.15560045838356018,0.003840784775093198,0.8866609930992126,0
387,-17.241010665893555,14.098810195922852,-1.43089759349823,-0.40484359860420227,-0.09413613379001617,0.8741860389709473,0
388,-20.612564086914062,13.490861892700195,-1.4995346069335938,-0.5340033173561096,-0.1438935399055481,0.8668332695960999,0
389,-18.23373794555664,9.048273086547852,-2.0045130252838135,-1.0359007120132446,-0.5095121264457703,0.8289726972579956,0
390,-10.614569664001465,2.558417558670044,-1.4895260334014893,-0.35742616653442383,-1.257821798324585,0.8133921027183533,0
391,0.5237073302268982,-4.345861434936523,-2.303879499435425,-0.45235657691955566,-1.4189883470535278,0.7895959615707397,0
392,15.441267967224121,-6.060648441314697,-2.67171573638916,-0.6393567323684692,-1.3180487155914307,0.7610417008399963,0
393,29.06808090209961,-4.603034019470215,-2.154940366744995,-0.6596941351890564,-1.122579574584961,0.7333906292915344,0
394,36.33457565307617,-2.8211004734039307,-1.98008394241333,-0.6264300346374512,-0.7926724553108215,0.7111788392066956,0
395,37.056209564208984,-0.539186954498291,-1.901815414428711,-0.617375910282135,-0.16662494838237762,0.7101158499717712,0
396,30.15785026550293,1.8702895641326904,-2.2210922241210938,-0.6419984698295593,1.474285364151001,0.7946125864982605,0
397,14.334728240966797,3.6823298931121826,-3.2016496658325195,-0.7037563323974609,1.5554558038711548,0.7512324452400208,0
398,-9.795801162719727,4.1953630447387695,-3.360520362854004,-0.5897135138511658,1.6422547101974487,0.7310047745704651,0
399,-32.44291305541992,3.238039493560791,-4.044198513031006,-0.29950180649757385,1.3363924026489258,0.7205845713615417,0
400,-48.77968215942383,2.73822283744812,-4.935202598571777,-0.021317992359399796,2.306868314743042,0.8288115859031677,0
401,-58.363651275634766,5.831599235534668,-5.20459508895874,-0.17665106058120728,1.4238407611846924,0.7340766191482544,0
402,-65.23329162597656,10.42072868347168,-4.551736831665039,-0.4142380952835083,0.501448929309845,0.6250623464584351,0
403,-62.51624298095703,13.252192497253418,-3.772759437561035,-0.6231226921081543,-0.5372130274772644,0.5261423587799072,0
404,-48.603511810302734,13.758976936340332,-2.795029640197754,-1.0095564126968384,-1.000331997871399,0.4312227666378021,0
405,-27.222610473632812,10.950800895690918,-1.576744556427002,-1.2982832193374634,-1.7638802528381348,0.33731913566589355,0
406,-4.652478218078613,3.6097230911254883,-1.077594518661499,-1.4358090162277222,-1.9605504274368286,0.3059418201446533,0
407,14.003808975219727,-5.046186447143555,-1.1915315389633179,-1.5612033605575562,-2.071049928665161,0.25632646679878235,0
408,26.52878761291504,-13.040221214294434,-0.9246578216552734,-1.5348000526428223,-2.2798101902008057,0.18844342231750488,0
409,31.075130462646484,-18.086137771606445,-0.3873613178730011,-1.2653194665908813,-1.866706371307373,0.21418042480945587,0
410,30.01788902282715,-22.493263244628906,-0.0009428238263353705,-1.7197984457015991,-1.0787179470062256,0.2497604787349701,0
411,20.471065521240234,-21.71445655822754,0.9653054475784302,-1.3429038524627686,-0.9005133509635925,0.2406352013349533,0
412,4.578657150268555,-11.22140884399414,1.5045465230941772,-1.231035828590393,-0.7673189640045166,0.24783633649349213,0
413,-11.717942237854004,1.4785758256912231,1.2791541814804077,-1.021363615989685,-1.0028892755508423,0.22140617668628693,0
414,-22.68287467956543,5.109241485595703,0.549390971660614,-1.0439869165420532,-1.1352684497833252,0.23385728895664215,0
415,-26.820114135742188,11.94592571258545,-0.29459378123283386,-1.0758367776870728,-1.565501093864441,0.2000001072883606,0
416,-22.2213134765625,17.89824867248535,-0.009794593788683414,-1.1610792875289917,-2.0095431804656982,0.16060630977153778,0
417,-10.330687522888184,20.85629653930664,0.493115097284317,-0.8208099603652954,-2.141831636428833,0.15616483986377716,0
418,6.36981201171875,22.07135581970215,0.848015308380127,-1.1098270416259766,-2.2748630046844482,0.14430652558803558,0
419,21.430404663085938,23.807796478271484,1.4710195064544678,-1.4771490097045898,-2.2620956897735596,0.13720488548278809,0
420,32.55574417114258,22.418659210205078,1.2045336961746216,-1.1820656061172485,-1.4788135290145874,0.18805983662605286,0
421,36.89774703979492,12.533135414123535,0.8351194262504578,-1.539259910583496,-1.185163140296936,0.1983131319284439,0
422,31.57022476196289,7.772985935211182,1.3147982358932495,-1.7966935634613037,-0.7738072276115417,0.22732344269752502,0
423,18.780410766601562,5.417747974395752,1.5823982954025269,-2.0403614044189453,-0.6715517640113831,0.22211945056915283,0
424,4.149485111236572,-3.8724000453948975,1.3278357982635498,-2.138975143432617,-1.0319044589996338,0.14309008419513702,0
425,-5.444820880889893,-16.599872589111328,1.601599931716919,-2.1342873573303223,-1.0296891927719116,0.16136153042316437,0
426,-7.592490196228027,-28.988176345825195,1.0138704776763916,-1.8429840803146362,-1.0925724506378174,0.17207607626914978,0
427,-3.13114857673645,-35.7718391418457,0.5564442873001099,-1.6326617002487183,-1.2313179969787598,0.18012402951717377,0
428,4.528798580169678,-30.189563751220703,0.5552150011062622,-1.135763168334961,-1.216798186302185,0.19028273224830627,0
429,12.596314430236816,-15.761364936828613,0.7581581473350525,-1.2542647123336792,-1.1463212966918945,0.2341320961713791,0
430,19.92694664001465,3.2703840732574463,0.6802693605422974,-1.1420965194702148,-0.9382508397102356,0.2573440372943878,0
431,24.464324951171875,18.654924392700195,0.9041715860366821,-1.1849340200424194,-0.8335895538330078,0.23949289321899414,0
432,25.796905517578125,17.564584732055664,0.7505558729171753,-1.411505103111267,-0.38991275429725647,0.29070815443992615,0
433,25.07543182373047,9.730828285217285,0.20133909583091736,-2.0718677043914795,-0.6205332279205322,0.2243613749742508,0
434,22.421907424926758,-8.020054817199707,0.005374928470700979,-2.182331085205078,-0.28824371099472046,0.24742481112480164,0
435,19.890209197998047,-30.202959060668945,0.49173229932785034,-1.9818328619003296,-0.06914106756448746,0.2442110776901245,0
436,16.41571044921875,-51.082881927490234,1.230303168296814,-1.4162598848342896,0.10588666051626205,0.23642978072166443,0
437,13.082590103149414,-63.74413299560547,2.016301393508911,-1.0832397937774658,-0.24488310515880585,0.1402469128370285,0
438,10.331589698791504,-59.4948844909668,2.4084880352020264,-0.17497515678405762,-0.062177348881959915,0.16918130218982697,0
439,12.122989654541016,-42.2923583984375,1.8803786039352417,0.12463032454252243,0.08051776140928268,0.19866594672203064,0
440,14.198651313781738,-16.700096130371094,1.7810394763946533,0.6021462082862854,0.2541266977787018,0.2259570062160492,0
441,18.44520378112793,8.507923126220703,1.9237462282180786,0.46433544158935547,0.4046330153942108,0.23915451765060425,0
442,21.646982192993164,28.291776657104492,2.0859789848327637,0.3496950566768646,0.47361841797828674,0.2457769513130188,0
443,23.027406692504883,38.82501983642578,1.7428051233291626,-0.13808594644069672,0.8586060404777527,0.27640995383262634,0
444,23.484664916992188,37.542877197265625,1.2510838508605957,-0.6707871556282043,1.0448455810546875,0.2870139479637146,0
445,23.200082778930664,19.341922760009766,0.6514186263084412,-0.9045705795288086,0.903727650642395,0.2860346734523773,0
446,21.992727279663086,-7.291592121124268,0.6494214534759521,-0.9476152658462524,1.403782844543457,0.3201468586921692,0
447,20.953983306884766,-25.898056030273438,1.063422679901123,-0.7917211055755615,1.796227216720581,0.33580079674720764,0
448,16.537961959838867,-36.43112564086914,1.8108222484588623,-0.2626107633113861,1.9450774192810059,0.35807862877845764,0
449,10.207924842834473,-36.94070816040039,2.0640714168548584,0.24414093792438507,1.8862212896347046,0.36493322253227234,0
450,4.131911754608154,-27.41268539428711,1.3985655307769775,0.6722054481506348,2.0690574645996094,0.3884022533893585,0
451,-0.16317640244960785,-12.0034818649292,0.9936323165893555,1.0441991090774536,2.144036293029785,0.42273563146591187,0
452,-1.2366057634353638,7.436812400817871,0.9101626873016357,1.0752921104431152,2.0366733074188232,0.4305788576602936,0
453,-1.7254949808120728,21.986440658569336,0.9658491611480713,0.684076189994812,2.0386626720428467,0.37209513783454895,0
454,0.6000142097473145,22.672719955444336,1.356170415878296,0.47614142298698425,2.1028289794921875,0.3856504559516907,0
455,5.56843900680542,11.535222053527832,0.8659597635269165,0.28667089343070984,2.064793825149536,0.40577733516693115,0
456,9.144627571105957,-5.417474746704102,0.31320470571517944,0.2824290692806244,2.1059253215789795,0.4364438056945801,0
457,11.693986892700195,-14.938141822814941,0.29270875453948975,0.16919922828674316,2.2023305892944336,0.37981483340263367,0
458,12.708967208862305,-19.321880340576172,0.7846574783325195,0.5523535013198853,2.407146692276001,0.4480192959308624,0
459,10.602755546569824,-26.566673278808594,0.5668684840202332,0.9862658381462097,2.6791365146636963,0.5150160193443298,0
460,5.507584571838379,-23.775672912597656,1.6727961301803589,0.7363963723182678,2.5548670291900635,0.36744800209999084,0
461,-2.1427652835845947,-14.61245346069336,2.247939109802246,0.8669570088386536,2.620276927947998,0.3500068783760071,0
462,-8.283740043640137,-4.167939186096191,1.7545416355133057,1.1347408294677734,2.6233696937561035,0.4204449951648712,0
463,-11.248785018920898,7.979617595672607,1.3679755926132202,1.0744822025299072,2.454408884048462,0.42711567878723145,0
464,-12.131890296936035,14.863519668579102,1.1727904081344604,0.7193598747253418,2.324505567550659,0.34257298707962036,0
465,-9.772757530212402,11.98000431060791,1.8965564966201782,0.5829797983169556,2.190598726272583,0.36096349358558655,0
466,-7.121852397918701,10.580771446228027,0.965158998966217,0.5430607199668884,2.0946412086486816,0.4153556227684021,0
467,-2.5801148414611816,0.01086797658354044,0.44609710574150085,0.2801007032394409,2.0463786125183105,0.3464648425579071,0
468,1.1154212951660156,-15.849823951721191,0.2430914342403412,0.5294869542121887,2.066012382507324,0.4200323224067688,0
469,2.613179922103882,-23.13238525390625,-0.1494140475988388,0.9113191962242126,2.1301584243774414,0.487816721200943,0
470,2.689063310623169,-31.994831085205078,-0.4450683891773224,1.2589842081069946,2.207859754562378,0.4985436499118805,0
471,1.0938720703125,-27.958251953125,0.32111066579818726,1.2688096761703491,2.2822370529174805,0.34705206751823425,0
472,-5.211901664733887,-17.282424926757812,0.7219172716140747,1.6388641595840454,2.2364754676818848,0.3868978023529053,0
473,-11.588886260986328,3.006399154663086,0.7331722974777222,1.7434217929840088,2.154123067855835,0.3901923596858978,0
474,-16.613054275512695,19.878999710083008,0.45261600613594055,1.7557891607284546,2.0391786098480225,0.4335656464099884,0
475,-18.458831787109375,31.93720245361328,-0.10308100283145905,1.588960886001587,1.7789816856384277,0.48913702368736267,0
476,-18.2360897064209,35.46787643432617,-0.33666977286338806,1.1828348636627197,1.570816993713379,0.46826520562171936,0
477,-13.873531341552734,24.609525680541992,0.42549028992652893,0.7709268927574158,1.519603967666626,0.40890181064605713,0
478,-7.2216386795043945,4.62762975692749,0.7448704838752747,0.5763101577758789,1.3328791856765747,0.43628397583961487,0
479,-1.3868608474731445,-19.093965530395508,-0.05888098105788231,0.7266910672187805,1.2576264142990112,0.4968176484107971,0
480,1.6710835695266724,-30.28742218017578,0.550519585609436,0.5954343676567078,1.4010577201843262,0.32033464312553406,0
481,1.3103938102722168,-29.797426223754883,1.5484309196472168,1.1085487604141235,1.4993705749511719,0.36926478147506714,0
482,-1.7419034242630005,-21.31247901916504,1.339105486869812,1.4172890186309814,1.508575677871704,0.3861224353313446,0
483,-7.853137493133545,-7.095970630645752,1.0006746053695679,1.6300455331802368,1.4517309665679932,0.4070656895637512,0
484,-13.894593238830566,1.2313600778579712,0.8347199559211731,1.3996154069900513,1.367132306098938,0.326381117105484,0
485,-18.00320816040039,1.7808473110198975,0.691612720489502,1.4416459798812866,1.181854248046875,0.36088699102401733,0
486,-19.315073013305664,-1.5439181327819824,0.2889402210712433,1.5543138980865479,1.0113084316253662,0.399727463722229,0
487,-17.71100616455078,-7.808821678161621,0.09628204256296158,1.6519209146499634,0.8322300910949707,0.424421489238739,0
488,-15.254162788391113,-18.157005310058594,-0.09618794918060303,1.8308629989624023,0.6757532954216003,0.4309194087982178,0
489,-12.327949523925781,-15.605317115783691,0.12539725005626678,2.1825358867645264,0.4910936653614044,0.48205646872520447,0
490,-9.337303161621094,-8.151128768920898,-0.07386226207017899,2.313612937927246,0.42415010929107666,0.4599054157733917,0
491,-6.1699395179748535,-2.226449966430664,-0.20453862845897675,2.1703782081604004,0.3395157754421234,0.40834057331085205,0
492,-4.335842132568359,11.262323379516602,-0.10673155635595322,2.044431209564209,0.3025892674922943,0.3794081211090088,0
493,-3.2775444984436035,22.613941192626953,-0.10754265636205673,2.003328323364258,0.4283939599990845,0.34510937333106995,0
494,-4.896369457244873,22.624258041381836,-0.08924960345029831,1.7411892414093018,0.26681333780288696,0.38043904304504395,0
495,-7.058651924133301,15.798428535461426,0.11373921483755112,1.4980659484863281,0.22498618066310883,0.37339580059051514,0
496,-10.375771522521973,2.238962411880493,0.19896219670772552,1.411497950553894,0.13881565630435944,0.38117676973342896,0
497,-12.384458541870117,-2.5977847576141357,0.1912396103143692,1.5017513036727905,-0.06259854882955551,0.4256886839866638,0
498,-12.096490859985352,-0.7031376957893372,-0.2669724225997925,1.418937087059021,-0.07197409123182297,0.37943482398986816,0
499,-10.452322006225586,7.227834701538086,-0.17570045590400696,1.4904171228408813,-0.2870894968509674,0.41881507635116577,0
500,-8.279356956481934,16.763525009155273,-0.30334708094596863,1.4227900505065918,-0.3269161581993103,0.40013012290000916,0
501,-5.019649505615234,26.387306213378906,-0.3393673002719879,1.2018405199050903,-0.4773455560207367,0.41695263981819153,0
502,-2.0742123126983643,32.8045768737793,-0.13902214169502258,0.8428850173950195,-0.4282010793685913,0.3787892162799835,0
503,1.0440400838851929,34.02387237548828,-0.13116788864135742,0.40205493569374084,-0.40747901797294617,0.3621289134025574,0
504,2.6145060062408447,28.72075843811035,-0.9884530305862427,0.10903439670801163,-0.3465360701084137,0.3416539430618286,0
505,1.420465350151062,20.13590431213379,-1.34251070022583,-0.1665835827589035,-0.19955956935882568,0.29926812648773193,0
506,-1.0746264457702637,2.082345962524414,-1.584594488143921,-0.3401634097099304,-0.22686824202537537,0.2926124632358551,0
507,-4.61972713470459,-16.852201461791992,-1.3882806301116943,-0.06614041328430176,-0.2962183654308319,0.28005340695381165,0
508,-7.895346164703369,-25.567317962646484,-0.9124061465263367,0.18518929183483124,-0.34519079327583313,0.26504483819007874,0
509,-11.213153839111328,-30.927013397216797,-0.3356861472129822,0.4942112863063812,-0.3094308376312256,0.2369937002658844,0
510,-13.913990020751953,-23.665651321411133,-0.3965418338775635,0.7743920683860779,-0.5420005321502686,0.2559448778629303,0
511,-15.369016647338867,-6.776562690734863,-0.8880795836448669,1.174264669418335,-0.7327834963798523,0.24870645999908447,0
512,-13.98002815246582,15.102513313293457,-0.9340111017227173,0.9835180640220642,-0.8632952570915222,0.25326260924339294,0
513,-9.990657806396484,35.391265869140625,-0.5248185396194458,0.7971863150596619,-0.9685649275779724,0.2359197437763214,0
514,-4.823470115661621,48.05513381958008,-0.14280030131340027,0.37132373452186584,-1.1468287706375122,0.23986093699932098,0
515,0.8449128270149231,51.20108413696289,-0.1589091569185257,-0.3674364984035492,-1.1603035926818848,0.2512732148170471,0
516,5.374134063720703,37.70729446411133,-0.67900151014328,-0.7318187355995178,-1.1553350687026978,0.22389991581439972,0
517,8.82158374786377,13.781243324279785,-0.7226267457008362,-1.1165231466293335,-1.0023850202560425,0.21159295737743378,0
518,10.146824836730957,-4.332740306854248,-0.6639472842216492,-1.118401050567627,-0.9502377510070801,0.19117580354213715,0
519,8.184765815734863,-14.949589729309082,0.11371369659900665,-0.8571106791496277,-0.816698431968689,0.15475839376449585,0
520,3.8969762325286865,-17.276424407958984,0.5069646239280701,-0.7395172715187073,-0.9977778792381287,0.171003520488739,0
521,-1.4372360706329346,-10.641496658325195,0.9373666048049927,-0.5567864179611206,-0.8200815320014954,0.17528951168060303,0
522,-4.089119911193848,-0.2208213061094284,0.48028817772865295,-0.42293378710746765,-0.7944495677947998,0.17554377019405365,0
523,-5.489622592926025,13.711456298828125,0.5215862989425659,-0.5044599771499634,-0.882735013961792,0.1857694685459137,0
524,-4.726041316986084,24.24713134765625,0.6067397594451904,-0.7242180109024048,-0.9091123342514038,0.1989981085062027,0
525,-2.3465640544891357,29.237674713134766,0.710591733455658,-1.0911740064620972,-0.9187284708023071,0.2228550761938095,0
526,1.714158296585083,20.336214065551758,0.741093099117279,-1.4710420370101929,-0.9594995975494385,0.24362699687480927,0
527,5.889455318450928,1.1321767568588257,0.4439240097999573,-1.5094221830368042,-0.6513468027114868,0.25090348720550537,0
528,8.84827709197998,-22.497804641723633,0.5942789316177368,-1.363931655883789,-0.5772640705108643,0.23653656244277954,0
529,7.22285270690918,-41.176902770996094,1.0184292793273926,-0.8550497889518738,-0.470848947763443,0.20124490559101105,0
530,3.178936243057251,-44.008121490478516,1.72659170627594,-0.39138224720954895,-0.4692595899105072,0.20057262480258942,0
531,-4.084061622619629,-30.089826583862305,1.9855235815048218,0.26026859879493713,-0.477188378572464,0.17173056304454803,0
532,-9.891592979431152,-5.953962802886963,1.8645328283309937,0.4996150732040405,-0.5255700945854187,0.1965920627117157,0
533,-13.738151550292969,21.824722290039062,1.243460774421692,0.1918715387582779,-0.7358086705207825,0.25751936435699463,0
534,-14.184483528137207,43.70219802856445,1.4203811883926392,-0.18761517107486725,-0.9111409783363342,0.2804297208786011,0
535,-10.660628318786621,54.74018478393555,1.5390796661376953,-0.8738777041435242,-1.0751975774765015,0.3235524594783783,0
536,-4.962154388427734,51.2191047668457,1.2534087896347046,-1.4727979898452759,-1.2441110610961914,0.3260025978088379,0
537,3.3871617317199707,33.95380401611328,1.0796626806259155,-1.9711754322052002,-1.096886396408081,0.3567148447036743,0
538,10.219327926635742,15.175201416015625,0.34137219190597534,-2.227591037750244,-1.0355234146118164,0.3550613224506378,0
539,13.681830406188965,-3.719268560409546,-0.37361249327659607,-2.3323750495910645,-0.871677041053772,0.3629201352596283,0
540,12.6898832321167,-18.35756492614746,0.3667076528072357,-2.1333694458007812,-0.8119101524353027,0.3228602409362793,0
541,9.00609016418457,-25.835668563842773,0.36718517541885376,-1.8597378730773926,-0.7704766392707825,0.2995785176753998,0
542,3.6873087882995605,-25.49198341369629,0.33933785557746887,-1.4237576723098755,-0.6482411623001099,0.28378555178642273,0
543,-0.3560008108615875,-18.26219940185547,0.11225823312997818,-1.2242937088012695,-0.6776507496833801,0.2842002213001251,0
544,-3.7849197387695312,-2.50937819480896,-0.04738549888134003,-0.9106950163841248,-0.6968865394592285,0.24944277107715607,0
545,-5.273867130279541,7.499200820922852,0.4397224187850952,-1.034566879272461,-0.7657360434532166,0.26791563630104065,0
546,-4.097690105438232,7.666149616241455,0.6617946028709412,-1.1371580362319946,-0.8488903641700745,0.26969853043556213,0
547,-1.5816980600357056,12.949426651000977,0.9411455392837524,-1.2739601135253906,-0.9038267135620117,0.2795942425727844,0
548,3.778682231903076,6.806960582733154,0.32292452454566956,-1.4518299102783203,-0.837148129940033,0.3153700530529022,0
549,8.008070945739746,3.690793752670288,-0.09497818350791931,-1.4660133123397827,-0.7534382939338684,0.3161361813545227,0
550,10.418007850646973,-0.906868577003479,-0.5871756672859192,-1.4299559593200684,-0.612769603729248,0.3162784278392792,0
551,10.544875144958496,-10.668463706970215,-0.5219093561172485,-1.3805265426635742,-0.5109018683433533,0.30605578422546387,0
552,9.213257789611816,-14.30422592163086,-0.3487306833267212,-1.1318519115447998,-0.4116542637348175,0.27646008133888245,0
553,6.211915969848633,-23.965059280395508,-0.3482653796672821,-0.8116857409477234,-0.2710224688053131,0.2613506019115448,0
554,2.37394380569458,-30.60135841369629,-0.23778344690799713,-0.5648616552352905,-0.32454293966293335,0.23121947050094604,0
555,-0.8236133456230164,-30.95196533203125,-0.21078744530677795,-0.5684189200401306,-0.36394569277763367,0.263512521982193,0
556,-3.574627637863159,-21.4594783782959,-0.36608901619911194,-0.22377772629261017,-0.3126842975616455,0.26795077323913574,0
557,-3.817594528198242,-9.479907035827637,-0.34362953901290894,-0.10286952555179596,-0.3709155023097992,0.2695765197277069,0
558,-1.6627799272537231,-3.041546583175659,0.13216854631900787,0.12910808622837067,-0.4215830862522125,0.24529021978378296,0
559,0.5658808946609497,5.487930774688721,0.19261467456817627,-0.10988214612007141,-0.4343494772911072,0.278597354888916,0
560,3.5302271842956543,3.445075035095215,-0.3067685663700104,-0.09326523542404175,-0.4042772948741913,0.27325722575187683,0
561,7.1249260902404785,-3.110917568206787,-0.023796003311872482,-0.10211887955665588,-0.3237476348876953,0.2751395106315613,0
562,7.714044570922852,-3.9145596027374268,0.29410383105278015,-0.03997373953461647,-0.3404824137687683,0.2588745355606079,0
563,10.244019508361816,-10.939931869506836,0.928449809551239,-0.00592006416991353,-0.18632952868938446,0.2762708067893982,0
564,10.580852508544922,-10.23947811126709,1.2621599435806274,0.25014787912368774,-0.14356139302253723,0.26406848430633545,0
565,8.3351411819458,-13.115909576416016,0.9683794975280762,0.351825088262558,-0.04626495763659477,0.2761201858520508,0
566,5.5873308181762695,-17.271873474121094,-0.11627072095870972,0.5819704532623291,0.09157128632068634,0.279153048992157,0
567,3.363945484161377,-19.271137237548828,-0.1391049176454544,0.8031635284423828,0.11336825042963028,0.2714478373527527,0
568,0.8320518136024475,-11.575888633728027,-0.23315533995628357,0.9448919296264648,0.17133726179599762,0.27381378412246704,0
569,0.05268070101737976,-8.534974098205566,-0.49505624175071716,0.9101660847663879,-0.015747105702757835,0.2726224362850189,0
570,-0.1305108219385147,-6.087771892547607,-0.6474053859710693,0.9953234195709229,0.007164135109633207,0.2670649290084839,0
571,1.8700700998306274,3.4996776580810547,-0.42641681432724,0.9926704168319702,0.03498835861682892,0.26313042640686035,0
572,3.7379138469696045,6.167941570281982,-0.22007343173027039,0.9994266033172607,0.159868061542511,0.25487425923347473,0
573,6.504393577575684,12.79505443572998,-0.07240870594978333,0.8234904408454895,0.1751849204301834,0.2575998902320862,0
574,5.54646110534668,22.442670822143555,-0.21403436362743378,0.6692030429840088,0.2903687357902527,0.2538432478904724,0
575,3.659315824508667,26.989187240600586,-0.7770169377326965,0.43823885917663574,0.377933144569397,0.2479184865951538,0
576,3.3685781955718994,19.030414581298828,-1.0437618494033813,0.10367073118686676,0.4442063570022583,0.24010597169399261,0
577,2.865199327468872,2.4648215770721436,-1.4387036561965942,-0.06942439079284668,0.29017287492752075,0.2405584454536438,0
578,3.038867712020874,-16.997543334960938,-1.6833925247192383,0.03768514096736908,0.35384854674339294,0.22313953936100006,0
579,3.436249017715454,-32.91846466064453,-1.308517575263977,0.4436851441860199,0.3496154546737671,0.21100781857967377,0
580,4.005458831787109,-40.926902770996094,-1.2305971384048462,0.8657585978507996,0.42635658383369446,0.19282568991184235,0
581,1.904356598854065,-32.30459213256836,-1.091825008392334,1.1587345600128174,0.5015655755996704,0.17098915576934814,0
582,-0.38274407386779785,-12.13720989227295,-0.9819974899291992,1.3453105688095093,0.4708859622478485,0.15898877382278442,0
583,-2.280642509460449,11.277795791625977,-0.770783543586731,1.549644947052002,0.5467881560325623,0.1473175436258316,0
584,-2.9460251331329346,35.06733322143555,-0.8187972903251648,1.3393868207931519,0.5159944891929626,0.14029480516910553,0
585,-3.2986974716186523,49.81300735473633,-1.1205705404281616,0.7897531390190125,0.473278284072876,0.1273522824048996,0
586,-2.0051608085632324,55.99522399902344,-0.6041080355644226,0.031330954283475876,0.42566797137260437,0.10839009284973145,0
587,-0.32122039794921875,50.94723129272461,-0.6164059042930603,-0.5648824572563171,0.40400299429893494,0.103525809943676,0
588,2.400862455368042,34.438438415527344,-0.5170964002609253,-1.0365386009216309,0.4131395220756531,0.09928102046251297,0
589,4.534243583679199,13.08531665802002,-0.4614795446395874,-1.2940891981124878,0.47028693556785583,0.09481875598430634,0
590,5.6108527183532715,-7.374820709228516,-0.12800399959087372,-1.4181326627731323,0.5554522275924683,0.08336088806390762,0
591,4.145198822021484,-20.96375846862793,0.6903530359268188,-1.0945558547973633,0.5799107551574707,0.09869500994682312,0
592,1.3588881492614746,-26.200172424316406,0.9831336736679077,-0.7269741296768188,0.6464278697967529,0.11364226788282394,0
593,-1.604203462600708,-22.96976661682129,1.328681468963623,-0.3765488564968109,0.6629689931869507,0.13021250069141388,0
594,-4.50540828704834,-14.846586227416992,1.8602832555770874,-0.3106396496295929,0.6318212151527405,0.13127483427524567,0
595,-5.14605712890625,-11.778117179870605,1.8955905437469482,-0.013700539246201515,0.5582147240638733,0.16511386632919312,0
596,-5.85676383972168,-9.799331665039062,1.9243930578231812,-0.05218124762177467,0.4713172912597656,0.16938930749893188,0
597,-6.217041015625,-2.615293264389038,1.935905933380127,0.1518549770116806,0.37074047327041626,0.20209971070289612,0
598,-4.296559810638428,-2.928947925567627,1.7426197528839111,-0.1654639095067978,0.27100443840026855,0.188257098197937,0
599,-1.0514329671859741,-5.886494159698486,2.6307272911071777,0.00478888675570488,0.2211952954530716,0.22116196155548096,0
600,1.7042337656021118,0.03988159820437431,2.7777528762817383,0.03353062644600868,0.2191130369901657,0.2467622607946396,0
601,5.566215991973877,5.7829413414001465,2.6845321655273438,0.10135020315647125,0.2751997411251068,0.2837536334991455,0
602,6.901522159576416,5.011663436889648,2.718376874923706,-0.05451921373605728,0.37808454036712646,0.3007562756538391,0
603,5.3406758308410645,7.961742877960205,2.6987123489379883,-0.05827794596552849,0.4916696548461914,0.3333914279937744,0
604,1.7321841716766357,12.248181343078613,2.391455888748169,-0.1951349824666977,0.5644617080688477,0.3559945523738861,0
605,-3.6569983959198,16.267518997192383,2.373591423034668,-0.33483269810676575,0.5656099915504456,0.3819243311882019,0
606,-6.191744327545166,16.80828094482422,2.4118385314941406,-0.6034694910049438,0.5601162910461426,0.3996995687484741,0
607,-8.98887825012207,14.092207908630371,2.182060718536377,-0.7862363457679749,0.4387364983558655,0.42422574758529663,0
608,-9.785717964172363,6.407532215118408,2.264789581298828,-0.8932571411132812,0.2805195748806,0.44680821895599365,0
609,-8.864500045776367,-3.5596096515655518,2.4577250480651855,-0.875731885433197,0.11994411796331406,0.4753014147281647,0
610,-6.425595283508301,-13.265559196472168,2.1485540866851807,-0.6647464036941528,0.0589924156665802,0.5137181878089905,0
611,-1.8189637660980225,-26.938692092895508,1.6592345237731934,-0.43747392296791077,0.11299320310354233,0.5409141778945923,0
612,1.631824254989624,-32.838069915771484,1.8687318563461304,-0.4528866708278656,0.09098003804683685,0.5327048897743225,0
613,3.2448294162750244,-29.80573844909668,2.120105504989624,0.1159711480140686,0.1200154721736908,0.5700716972351074,0
614,3.5993638038635254,-25.923267364501953,2.6498093605041504,0.3866807818412781,0.16683726012706757,0.5924050807952881,0
615,1.0026793479919434,-19.36732292175293,1.9335654973983765,0.7236747741699219,0.2139074206352234,0.6229162216186523,0
616,-2.2035813331604004,-2.5465705394744873,2.1214094161987305,0.7673578262329102,0.21101561188697815,0.6355657577514648,0
617,-6.923408508300781,18.882980346679688,2.432504892349243,0.8105212450027466,0.08131153136491776,0.6614071726799011,0
618,-9.815860748291016,34.671634674072266,2.5599887371063232,0.3151261508464813,0.02711789309978485,0.6702117919921875,0
619,-9.428053855895996,43.55862045288086,2.99151349067688,-0.1858365535736084,-0.1344766616821289,0.6905259490013123,0
620,-6.035914421081543,39.73358154296875,3.1855416297912598,-0.632915735244751,-0.2743905484676361,0.7180759310722351,0
621,0.08739246428012848,26.274131774902344,3.196901798248291,-0.9802057147026062,-0.3368827998638153,0.7491070032119751,0
622,4.614614009857178,3.60611891746521,2.7256247997283936,-1.1537140607833862,-0.3125000596046448,0.7806043028831482,0
623,10.595257759094238,-14.747485160827637,2.5591397285461426,-1.0370771884918213,-0.13432836532592773,0.8137583136558533,0
624,14.966046333312988,-34.80094909667969,1.802764654159546,-0.7483083009719849,0.05891568958759308,0.8408306837081909,0
625,14.152315139770508,-40.52183532714844,3.0724539756774902,-0.19532112777233124,0.22761225700378418,0.866004467010498,0
626,9.08906364440918,-33.86592483520508,3.7085533142089844,0.11808186769485474,0.43624448776245117,0.8978895545005798,0
627,0.46653464436531067,-16.783540725708008,3.212024211883545,0.6109921932220459,0.46957066655158997,0.9341691732406616,0
628,-8.425889015197754,-3.626490354537964,2.3450684547424316,0.8877043724060059,0.36042913794517517,0.9633690714836121,0
629,-16.037199020385742,13.808797836303711,1.883039116859436,0.298154354095459,0.18619687855243683,0.9734464287757874,0
630,-19.03321075439453,28.88699722290039,1.8231663703918457,0.11920708417892456,-0.018039001151919365,0.991652250289917,0
631,-16.06820297241211,36.52564239501953,2.134819984436035,-0.21143822371959686,-0.2535768747329712,1.009662389755249,0
632,-9.71513843536377,33.64222717285156,2.0010106563568115,-0.6267213225364685,-0.2811731696128845,1.028416395187378,0
633,-0.42491352558135986,14.720842361450195,1.4819828271865845,-0.8537654280662537,-0.4133091866970062,1.0458614826202393,0
634,7.100418567657471,-9.34815502166748,1.3957849740982056,-0.8234649300575256,-0.39454925060272217,1.0602728128433228,0
635,14.042598724365234,-24.44439697265625,1.9895573854446411,-0.6462582945823669,-0.2583005428314209,1.0782802104949951,0
636,15.318771362304688,-28.440553665161133,2.4643197059631348,-0.20649906992912292,-0.03547211363911629,1.1011534929275513,0
637,14.62193489074707,-22.06290626525879,3.04190993309021,0.041737478226423264,0.06785532832145691,1.1251672506332397,0
638,7.590802192687988,-7.556926250457764,3.3622822761535645,0.22079120576381683,0.26499295234680176,1.1593985557556152,0
639,-0.07865070551633835,10.298521995544434,2.8662502765655518,0.3606756329536438,0.20417243242263794,1.1871767044067383,0
640,-6.752743721008301,24.76420783996582,2.3845062255859375,0.15269704163074493,0.2379048615694046,1.215781569480896,0
641,-11.875127792358398,34.40275192260742,1.5315719842910767,-0.20352968573570251,0.09356033802032471,1.2366234064102173,0
642,-13.927118301391602,36.15678787231445,1.7635092735290527,-0.6983660459518433,-0.11273610591888428,1.2515718936920166,0
643,-12.710090637207031,24.982866287231445,2.3292415142059326,-1.1687856912612915,-0.2635093629360199,1.2688971757888794,0
644,-7.869130611419678,2.860704183578491,1.8698757886886597,-1.3279986381530762,-0.44695359468460083,1.2872989177703857,0
645,-0.6124406456947327,-22.075223922729492,1.579168677330017,-1.2460881471633911,-0.3995010256767273,1.3106480836868286,0
646,5.875333309173584,-34.600738525390625,1.1177009344100952,-0.7340086102485657,-0.3138294219970703,1.3293490409851074,0
647,12.371285438537598,-49.25270080566406,1.9603071212768555,-0.15021374821662903,-0.19430406391620636,1.3444534540176392,0
648,13.549273490905762,-45.495033264160156,3.2415595054626465,0.2379714548587799,-0.06310578435659409,1.3714245557785034,0
649,10.53525447845459,-27.690187454223633,3.637057065963745,0.7236642241477966,0.14144890010356903,1.4068149328231812,0
650,3.9922707080841064,-3.5390114784240723,3.0714666843414307,1.00379478931427,0.27474525570869446,1.4411234855651855,0
651,-3.3668034076690674,12.755152702331543,2.4354724884033203,1.0425019264221191,0.15663117170333862,1.4671543836593628,0
652,-10.69068717956543,21.5786075592041,2.162332773208618,0.7060933113098145,0.06738708913326263,1.494638204574585,0
653,-14.558917045593262,20.75408363342285,1.8914620876312256,0.4937288463115692,0.013477897271513939,1.5138928890228271,0
654,-14.138704299926758,13.699338912963867,1.630510687828064,0.18157462775707245,-0.2380545437335968,1.5343587398529053,0
655,-10.53162956237793,11.850703239440918,0.8453356623649597,0.11165463179349899,-0.39175695180892944,1.5468295812606812,0
656,-3.5304946899414062,11.416329383850098,0.30280542373657227,-0.07757455110549927,-0.3337515592575073,1.5502976179122925,0
657,3.283518075942993,12.51591968536377,-0.6514294743537903,-0.1956765204668045,-0.38015812635421753,1.5508118867874146,0
658,8.536287307739258,6.463953971862793,-1.1129521131515503,-0.22894002497196198,-0.31668099761009216,1.540871024131775,0
659,9.65511417388916,3.47929310798645,-1.3958115577697754,-0.3068335950374603,-0.18523453176021576,1.5282305479049683,0
660,8.022985458374023,5.043266296386719,-1.2520018815994263,-0.2131548970937729,-0.18403920531272888,1.512144923210144,0
661,4.069376468658447,7.70853328704834,-1.8193789720535278,-0.370954692363739,0.06482253968715668,1.498181700706482,0
662,-1.1163383722305298,11.724990844726562,-2.533142328262329,-0.5139111876487732,-0.047210950404405594,1.480825424194336,0
663,-6.296667098999023,14.614192008972168,-2.8656740188598633,-0.9992274045944214,-0.16427764296531677,1.467457890510559,0
664,-9.28271484375,15.735172271728516,-2.7818005084991455,-1.1440526247024536,-0.35125237703323364,1.4373148679733276,0
665,-8.861367225646973,8.012763977050781,-3.118791103363037,-1.2694069147109985,-0.4275723695755005,1.4068773984909058,0
666,-4.18112325668335,-7.1255950927734375,-2.935297727584839,-1.2414751052856445,-0.549439549446106,1.3704808950424194,0
667,1.9638696908950806,-16.61077880859375,-3.2507925033569336,-1.056767225265503,-0.37378981709480286,1.3480594158172607,0
668,7.779224872589111,-19.223800659179688,-2.865145683288574,-0.8214628100395203,-0.5232666730880737,1.3020994663238525,0
669,12.078397750854492,-15.57451057434082,-2.5693602561950684,-0.5719326138496399,-0.3677874505519867,1.2761119604110718,0
670,13.404021263122559,-7.592547416687012,-2.377044439315796,-0.2677837908267975,-0.15962748229503632,1.2475155591964722,0
671,11.73777961730957,1.2188217639923096,-2.27150297164917,-0.10184921324253082,0.05629866570234299,1.2237493991851807,0
672,6.979111194610596,3.0118353366851807,-2.845862627029419,-0.1329212188720703,0.15812718868255615,1.1992413997650146,0
673,0.556945264339447,-1.4963902235031128,-3.227537155151367,-0.3666488826274872,0.03813246265053749,1.1686570644378662,0
674,-4.48077392578125,-9.767562866210938,-3.107664108276367,-0.49778565764427185,0.10608862340450287,1.1480809450149536,0
675,-5.943788051605225,-18.51508903503418,-3.572547197341919,-0.48631471395492554,0.17105801403522491,1.1261138916015625,0
676,-7.731693744659424,-21.599464416503906,-3.1501989364624023,-0.13152596354484558,0.0613304078578949,1.0824174880981445,0
677,-8.841270446777344,-16.159591674804688,-3.307511568069458,0.14260424673557281,0.0020300932228565216,1.0491321086883545,0
678,-6.517242431640625,-4.883883953094482,-3.383542776107788,0.3735823929309845,-0.05557907745242119,1.0158319473266602,0
679,-4.16057014465332,9.058855056762695,-3.2070231437683105,0.40980756282806396,-0.15131594240665436,0.9808148145675659,0
680,-1.2097477912902832,21.427507400512695,-3.797126054763794,0.30536386370658875,-0.21315106749534607,0.9452468156814575,0
681,1.6205202341079712,29.518768310546875,-3.6827595233917236,0.0005232519470155239,-0.1520349383354187,0.9093623757362366,0
682,4.484560966491699,23.398351669311523,-3.273831367492676,-0.3838673532009125,-0.122405506670475,0.8756709098815918,0
683,6.295425891876221,5.563135623931885,-3.8150811195373535,-0.5421879291534424,-0.04910017549991608,0.8399521112442017,0
684,8.022751808166504,-13.809307098388672,-3.21846866607666,-0.4770292043685913,0.05365726724267006,0.8012694120407104,0
685,6.739875793457031,-23.801673889160156,-2.3550479412078857,-0.056142136454582214,0.03389744833111763,0.7631480693817139,0
686,1.2426849603652954,-23.157835006713867,-1.905005693435669,-0.22413480281829834,0.12509268522262573,0.7507026195526123,0
687,-2.153193235397339,-10.93182373046875,-2.0265300273895264,-0.06650342047214508,0.2042989432811737,0.7323247194290161,0
688,-4.33571195602417,0.4524056911468506,-1.8102434873580933,0.105291448533535,0.15956318378448486,0.7117443084716797,0
689,-6.3565568923950195,11.793583869934082,-1.9032758474349976,0.14721615612506866,0.07500207424163818,0.6919307112693787,0
690,-6.35922384262085,20.91109848022461,-1.9976054430007935,0.006513779051601887,-0.037016235291957855,0.6717159748077393,0
691,-4.333545207977295,26.163785934448242,-1.7489721775054932,-0.26697567105293274,-0.13961514830589294,0.6524599194526672,0
692,-1.3339532613754272,24.871601104736328,-1.9036033153533936,-0.5957781672477722,-0.2025790959596634,0.6336826682090759,0
693,2.285639524459839,11.608380317687988,-1.2793176174163818,-0.8463850021362305,-0.20938833057880402,0.6158514618873596,0
694,4.902884006500244,-7.495223045349121,-1.0406068563461304,-0.8420330882072449,-0.01785055175423622,0.6044182181358337,0
695,5.710951328277588,-21.086408615112305,-0.644895076751709,-0.5516679883003235,-0.00756032532081008,0.5919620394706726,0
696,2.435648202896118,-17.71926498413086,0.5736780762672424,-0.33270853757858276,0.06867169588804245,0.5890946984291077,0
697,-0.9474866390228271,-9.149028778076172,0.24486561119556427,-0.3902313709259033,0.09321315586566925,0.594794511795044,0
698,-4.620797157287598,-0.5540018677711487,0.41045302152633667,-0.20867498219013214,0.06264478713274002,0.5959975719451904,0
699,-6.309986591339111,8.913064956665039,-0.004891685675829649,-0.19738617539405823,-0.021584181115031242,0.59824138879776,0
700,-5.388179779052734,16.15415382385254,-0.7024113535881042,-0.2760666012763977,-0.05138574540615082,0.5974916815757751,0
701,-3.1681504249572754,18.20726776123047,-0.575589120388031,-0.6125438809394836,-0.1358361542224884,0.5907338857650757,0
702,-0.2364383190870285,10.80277156829834,-0.3099617660045624,-0.7928221821784973,-0.18129126727581024,0.5858049988746643,0
703,1.4342619180679321,2.2526326179504395,-0.33922672271728516,-0.8446843028068542,-0.18250606954097748,0.5827949047088623,0
704,2.928962469100952,-11.043285369873047,-0.530460000038147,-0.7456679940223694,-0.15891683101654053,0.5785362720489502,0
705,2.8028476238250732,-13.512048721313477,-0.5480248332023621,-0.4735659658908844,-0.04740301892161369,0.5770062804222107,0
706,1.6953095197677612,-11.753421783447266,-0.3246830403804779,-0.24698440730571747,-0.08906835317611694,0.5679910182952881,0
707,0.1746828258037567,-6.725554943084717,-0.6706549525260925,0.004748565144836903,0.07004754990339279,0.5693482756614685,0
708,-2.4758777618408203,5.043824195861816,-0.9752522706985474,0.06298693269491196,-0.08576550334692001,0.5556885004043579,0
709,-4.125491142272949,18.29542350769043,-0.7118034958839417,-0.007872671820223331,0.1456993669271469,0.5553460121154785,0
710,-5.371581077575684,27.07314109802246,-0.9782872796058655,-0.4841018617153168,-0.08741840720176697,0.5429592728614807,0
711,-5.7392473220825195,29.897497177124023,-1.0495058298110962,-0.643524706363678,-0.1872572898864746,0.5293385982513428,0
712,-5.078612327575684,24.36284637451172,-1.3674557209014893,-1.0356178283691406,-0.29289552569389343,0.5151905417442322,0
713,-1.7741707563400269,15.53648853302002,-1.2526603937149048,-1.3244236707687378,-0.3670002520084381,0.4990811049938202,0
714,3.091416597366333,-4.464295864105225,-1.2671010494232178,-1.3543999195098877,-0.3145945072174072,0.48798897862434387,0
715,7.996311187744141,-27.863269805908203,-1.7878912687301636,-1.103119969367981,-0.25545719265937805,0.4739075303077698,0
716,10.324702262878418,-46.6820182800293,-1.4246498346328735,-1.204559326171875,-0.12009723484516144,0.469065397977829,0
717,9.568592071533203,-54.70807647705078,-1.0205020904541016,-0.515933096408844,0.03580429404973984,0.45688188076019287,0
718,6.290175437927246,-50.09322738647461,-0.5393904447555542,0.17936691641807556,0.10377354174852371,0.4417347013950348,0
719,0.9934333562850952,-40.116119384765625,-0.2640972435474396,0.4887279272079468,0.18010170757770538,0.440705269575119,0
720,-4.264134883880615,-20.129716873168945,-0.4145593047142029,0.8179789185523987,0.17261426150798798,0.4367392957210541,0
721,-9.050031661987305,4.3714728355407715,-0.6328113675117493,1.0705293416976929,0.005292473826557398,0.4257805347442627,0
722,-11.646811485290527,26.37227439880371,-1.0860505104064941,0.9378033876419067,-0.15372315049171448,0.4170907735824585,0
723,-10.226417541503906,42.84184265136719,-0.6959633827209473,0.5460380911827087,-0.1950068175792694,0.40577635169029236,0
724,-6.421525478363037,48.872867584228516,-0.1712220013141632,-0.006998986005783081,-0.35269695520401,0.3993746042251587,0
725,-1.7228729724884033,37.49940872192383,0.08893996477127075,-0.5782200694084167,-0.3654104173183441,0.394356906414032,0
726,3.2150678634643555,22.755264282226562,-0.347113698720932,-0.8774282932281494,-0.234468474984169,0.3904452323913574,0
727,6.516170024871826,3.7700207233428955,-0.5585469007492065,-0.9845803380012512,-0.23900265991687775,0.3845267593860626,0
728,6.703781604766846,-10.88984203338623,-0.6524251699447632,-1.0199295282363892,-0.12704157829284668,0.37941446900367737,0
729,4.650014400482178,-18.552719116210938,-0.07934953272342682,-0.773420512676239,-0.16890913248062134,0.371143102645874,0
730,1.2051880359649658,-21.550119400024414,-0.5684321522712708,-0.42645758390426636,-0.09937293082475662,0.36684149503707886,0
731,-1.0683183670043945,-16.556781768798828,-0.5007842183113098,-0.06881912052631378,-0.15276920795440674,0.35917744040489197,0
732,-2.777564287185669,-4.934373378753662,-0.8732806444168091,0.24268461763858795,-0.1747450828552246,0.3491898775100708,0
733,-2.8741157054901123,10.719541549682617,-0.8059632182121277,-0.28660234808921814,-0.14645500481128693,0.3522228002548218,0
734,-1.8326150178909302,21.66629981994629,-0.738304615020752,-0.4571593701839447,-0.12201083451509476,0.3451612591743469,0
735,0.4515936076641083,20.197635650634766,-0.2652013301849365,-0.6852446794509888,-0.2218814492225647,0.3363718092441559,0
736,1.0784847736358643,16.007919311523438,-0.7635643482208252,-0.8810597062110901,-0.14406169950962067,0.33246034383773804,0
737,3.455650568008423,1.7336939573287964,-0.9125306606292725,-0.9116696119308472,-0.11963837593793869,0.3230707049369812,0
738,4.520543098449707,-17.080503463745117,-1.0493313074111938,-0.7557468414306641,-0.06789787113666534,0.3111248016357422,0
739,3.9884543418884277,-26.143592834472656,-0.4094797968864441,-0.5981307029724121,0.00122684589587152,0.3038783371448517,0
740,1.8696277141571045,-23.123306274414062,0.20928241312503815,-0.13102662563323975,-0.013587511144578457,0.29513463377952576,0
741,-0.11430846899747849,-15.473711967468262,0.23754556477069855,0.26361083984375,0.01048336736857891,0.2956446707248688,0
742,-2.187772274017334,-0.6262823343276978,0.16450294852256775,0.34347793459892273,0.0736079141497612,0.30082738399505615,0
743,-3.7884695529937744,15.775057792663574,-0.1860944926738739,-0.04466741904616356,0.026313509792089462,0.305197149515152,0
744,-3.551513671875,26.366933822631836,0.061857279390096664,-0.3182812035083771,-0.03904930502176285,0.30482661724090576,0
745,-2.3096089363098145,30.25409698486328,0.6768429279327393,-0.6002255082130432,-0.10055723041296005,0.3064236044883728,0
746,-1.474408507347107,24.73878288269043,0.6843148469924927,-0.9840608239173889,-0.14399805665016174,0.31288257241249084,0
747,0.5159839391708374,6.629249095916748,1.2434583902359009,-1.0805599689483643,-0.1655801385641098,0.32008519768714905,0
748,2.9346537590026855,-14.787952423095703,1.293760895729065,-0.9997169971466064,-0.15123438835144043,0.3319362699985504,0
749,3.807480812072754,-28.96788215637207,1.8263386487960815,-0.748110294342041,-0.10382726788520813,0.346808522939682,0
750,3.9269278049468994,-31.9647216796875,2.2136378288269043,-0.300307959318161,-0.04467237368226051,0.36620330810546875,0
751,3.4603583812713623,-22.377460479736328,2.3033642768859863,0.057361431419849396,0.012467402033507824,0.38958701491355896,0
752,0.419788122177124,-7.324728012084961,2.0012741088867188,0.39639127254486084,0.050622619688510895,0.4114394783973694,0
753,-2.379718542098999,11.394909858703613,1.8507404327392578,0.3194117248058319,0.043934013694524765,0.43268194794654846,0
754,-5.520699501037598,28.975025177001953,1.426146388053894,0.1512376368045807,-0.08202773332595825,0.44869109988212585,0
755,-6.76736307144165,39.049991607666016,1.5293585062026978,-0.06944850832223892,-0.038320496678352356,0.4627843499183655,0
756,-6.968570709228516,42.00006866455078,1.5070075988769531,-0.6424133777618408,-0.15806430578231812,0.47709646821022034,0
757,-5.280681133270264,32.673789978027344,1.9202059507369995,-1.2068384885787964,-0.26743072271347046,0.4922773241996765,0
758,-1.1161904335021973,19.516727447509766,2.1280767917633057,-1.6074472665786743,-0.33693966269493103,0.5108901858329773,0
759,2.8771748542785645,8.754321098327637,2.1210758686065674,-1.7924193143844604,-0.34075573086738586,0.531941294670105,0
760,7.711777687072754,-9.87460994720459,1.8381634950637817,-1.7536896467208862,-0.26934489607810974,0.5530967116355896,0
761,11.458491325378418,-34.23236846923828,1.6374870538711548,-1.3962401151657104,-0.1253674328327179,0.5737161040306091,0
762,12.890599250793457,-54.20254135131836,1.5276234149932861,-0.9398646950721741,0.06899011880159378,0.5953179001808167,0
763,11.362436294555664,-62.83421325683594,2.250732898712158,-0.6203489899635315,0.13043244183063507,0.6083014607429504,0
764,4.660131454467773,-54.262332916259766,2.3394112586975098,0.2800388038158417,0.15110482275485992,0.6196984648704529,0
765,-2.1416213512420654,-32.84603500366211,2.6404600143432617,0.48527348041534424,0.06775064766407013,0.6358075737953186,0
766,-6.821357250213623,-5.22010612487793,2.131913661956787,0.888973593711853,0.02353314869105816,0.6578592658042908,0
767,-9.743145942687988,15.159276008605957,2.123950242996216,0.9304397106170654,-0.09384012222290039,0.6770273447036743,0
768,-8.137848854064941,32.690452575683594,2.0305333137512207,0.7128470540046692,-0.23275351524353027,0.6967533230781555,0
769,-3.8811452388763428,41.78456497192383,1.7234855890274048,0.24847298860549927,-0.2662072777748108,0.7153735756874084,0
770,2.424042224884033,41.23832702636719,0.9606699347496033,-0.2590465545654297,-0.29226982593536377,0.7297453284263611,0
771,7.710482120513916,36.88186264038086,0.9659420847892761,-0.8050416111946106,-0.2161158174276352,0.7389615774154663,0
772,13.821008682250977,13.725701332092285,-0.12340109795331955,-0.9811305999755859,-0.12444877624511719,0.742111086845398,0
773,14.84758472442627,-1.2219527959823608,0.3142513930797577,-1.1705601215362549,0.053438715636730194,0.7434283494949341,0
774,14.525129318237305,-23.9659366607666,-0.3296247720718384,-0.9290521144866943,0.24459193646907806,0.7429554462432861,0
775,10.341930389404297,-45.96668243408203,-0.7259256839752197,-0.39541304111480713,0.4803580939769745,0.7344791889190674,0
776,4.594797611236572,-59.28053665161133,-0.4176812767982483,0.16431459784507751,0.4216938018798828,0.7191165089607239,0
777,-2.6016845703125,-54.99216842651367,-0.05052313208580017,0.5914376378059387,0.5464457273483276,0.710786759853363,0
778,-8.246877670288086,-35.8331298828125,-0.3320038914680481,1.382250189781189,0.48423054814338684,0.7081082463264465,0
779,-12.438643455505371,-8.420578956604004,-0.6982038021087646,1.3268017768859863,0.3367723226547241,0.69547039270401,0
780,-13.1546049118042,19.967975616455078,-1.0086934566497803,1.4728286266326904,0.13979025185108185,0.6938784122467041,0
781,-11.871261596679688,38.540557861328125,-1.5588234663009644,1.1095867156982422,0.08235624432563782,0.6747136116027832,0
782,-5.070436000823975,52.806121826171875,-0.8854264616966248,0.5008529424667358,0.0025814296677708626,0.6561397314071655,0
783,0.5044806003570557,46.6211051940918,-0.8381299376487732,-0.1691087931394577,-0.053313467651605606,0.6442241668701172,0
784,7.416562080383301,25.617979049682617,-1.0647168159484863,-0.4582519233226776,-0.012843864969909191,0.6376215815544128,0
785,13.093271255493164,6.168586254119873,-1.4603030681610107,-0.683043897151947,0.0699021965265274,0.6258789896965027,0
786,13.055434226989746,-12.936302185058594,-1.3046287298202515,-0.594153106212616,0.28765442967414856,0.6070955991744995,0
787,9.74278450012207,-25.0047607421875,-1.0137619972229004,-0.296627402305603,0.42071518301963806,0.5958565473556519,0
788,3.26910400390625,-27.207277297973633,-0.8916733264923096,0.1527467668056488,0.5551453828811646,0.5852775573730469,0
789,-4.507030487060547,-20.46180534362793,-1.1250003576278687,0.24438151717185974,0.5793270468711853,0.5667204856872559,0
790,-11.225228309631348,-7.60530424118042,-1.605151891708374,0.49720892310142517,0.4779880940914154,0.5589783191680908,0
791,-14.556536674499512,9.093720436096191,-1.9302324056625366,0.6459498405456543,0.2783588767051697,0.5541889071464539,0
792,-14.969462394714355,19.743825912475586,-1.9078861474990845,0.5538776516914368,0.11174461990594864,0.5368460416793823,0
793,-12.679670333862305,29.634729385375977,-1.2269580364227295,0.2715229094028473,-0.12383360415697098,0.5232614278793335,0
794,-6.373449325561523,28.916799545288086,-0.8728964328765869,-0.2127915322780609,-0.23057669401168823,0.5002861022949219,0
795,0.7718303203582764,14.980500221252441,-0.5907658934593201,-0.47824618220329285,-0.30038562417030334,0.4948166012763977,0
796,6.562177658081055,-7.276474475860596,-1.3789087533950806,-0.7518607974052429,-0.11284712702035904,0.46520692110061646,0
797,11.227004051208496,-29.008480072021484,-1.525498390197754,-0.7169408202171326,-0.055965159088373184,0.44851529598236084,0
798,10.303791046142578,-37.90073013305664,-1.1329028606414795,-0.42837509512901306,0.12804725766181946,0.42856845259666443,0
799,5.597064971923828,-34.81288146972656,-0.5584383606910706,0.17224004864692688,0.2760896384716034,0.4214370846748352,0
800,-2.730046510696411,-21.39145278930664,-0.43998679518699646,0.5262006521224976,0.257041335105896,0.4185655415058136,0
801,-10.96844482421875,-2.857142686843872,-0.8328312635421753,0.4288184642791748,0.17990487813949585,0.4055575132369995,0
802,-17.15353012084961,15.82032299041748,-1.1275975704193115,0.39334407448768616,0.10861031711101532,0.39162108302116394,0
803,-18.596675872802734,27.154775619506836,-1.2314996719360352,0.21492058038711548,-0.18498900532722473,0.3880755305290222,0
804,-16.39887809753418,29.641740798950195,-1.8776954412460327,-0.11439891159534454,-0.273783802986145,0.36424756050109863,0
805,-9.438371658325195,24.208608627319336,-1.8295421600341797,-0.4508165121078491,-0.4532296061515808,0.3430732786655426,0
806,-0.6307501196861267,12.767898559570312,-2.3608672618865967,-0.5305935144424438,-0.4351603090763092,0.32011497020721436,0
807,6.678496360778809,-1.5435646772384644,-3.0628650188446045,-0.5623192191123962,-0.49533355236053467,0.29906100034713745,0
808,11.947052955627441,-21.006874084472656,-3.3161494731903076,-0.617840588092804,-0.3648688793182373,0.2637261152267456,0
809,11.876558303833008,-37.442386627197266,-3.0975236892700195,-0.20321056246757507,-0.17260470986366272,0.22779469192028046,0
810,7.3194990158081055,-39.88956069946289,-2.7463629245758057,0.3460352420806885,-0.07392894476652145,0.19727936387062073,0
811,-1.1258853673934937,-29.855451583862305,-2.690086603164673,0.6635658740997314,-0.058211930096149445,0.17107723653316498,0
812,-8.592944145202637,-10.061689376831055,-2.7202062606811523,0.8499962091445923,-0.109022356569767,0.14537060260772705,0
813,-14.275202751159668,13.457154273986816,-2.427187919616699,0.9690716862678528,-0.2798213064670563,0.12182556837797165,0
814,-15.513509750366211,29.17296600341797,-2.0138444900512695,0.802711546421051,-0.5234826803207397,0.10316729545593262,0
815,-12.416860580444336,38.09281921386719,-1.7010688781738281,0.33165499567985535,-0.7596672177314758,0.09014731645584106,0
816,-5.474138259887695,38.324371337890625,-1.89018714427948,-0.042516402900218964,-0.7881168723106384,0.060464467853307724,0
817,3.4490301609039307,24.462636947631836,-2.116400957107544,-0.5073957443237305,-0.767378032207489,0.034909751266241074,0
818,11.237391471862793,9.350184440612793,-2.422456979751587,-0.7235206961631775,-0.6742632985115051,0.008202801458537579,0
819,15.590147018432617,-5.821671962738037,-3.089122772216797,-0.6912190914154053,-0.540160596370697,-0.02392905205488205,0
820,15.399621963500977,-18.017276763916016,-3.0389857292175293,-0.49588653445243835,-0.41715890169143677,-0.059264834970235825,0
821,11.205068588256836,-20.731727600097656,-3.022026300430298,-0.21862094104290009,-0.17310428619384766,-0.09805937856435776,0
822,5.105736255645752,-17.9387264251709,-3.2926645278930664,-0.2704717218875885,-0.14909416437149048,-0.10864117741584778,0
823,-0.43666312098503113,-21.762481689453125,-3.6275687217712402,0.018524525687098503,-0.14810843765735626,-0.14842908084392548,0
824,-4.183232307434082,-13.798553466796875,-3.6936092376708984,0.24914461374282837,-0.16017600893974304,-0.18654894828796387,0
825,-5.511702060699463,-4.715085983276367,-3.419933795928955,0.4924350082874298,-0.230535089969635,-0.22995711863040924,0
826,-4.049607753753662,2.8976807594299316,-2.997401714324951,0.3680564761161804,-0.3055366277694702,-0.2548477053642273,0
827,0.4754759669303894,0.37527891993522644,-2.898125410079956,0.1652621626853943,-0.27360448241233826,-0.27738630771636963,0
828,6.599985599517822,-10.069681167602539,-3.17136812210083,0.11367480456829071,-0.23485617339611053,-0.30374518036842346,0
829,11.946538925170898,-22.497766494750977,-3.052978515625,0.32483309507369995,-0.10075720399618149,-0.3431312143802643,0
830,13.68864917755127,-26.902570724487305,-2.029764413833618,0.6384799480438232,0.03363942727446556,-0.3754897117614746,0
831,11.035906791687012,-22.471939086914062,-1.4892692565917969,0.7072260975837708,0.25597232580184937,-0.3899354636669159,0
832,5.406686782836914,-12.65393352508545,-0.7617790699005127,0.8341352343559265,0.3438941538333893,-0.3993065059185028,0
833,-1.0994938611984253,-0.4542144536972046,-0.6279816627502441,1.0759305953979492,0.40787333250045776,-0.4144933521747589,0
834,-7.108956813812256,7.54636287689209,-1.1235836744308472,1.1775280237197876,0.3635737895965576,-0.42328283190727234,0
835,-9.406902313232422,6.517390727996826,-1.1513351202011108,1.1673372983932495,0.23177461326122284,-0.4303462505340576,0
836,-8.99490737915039,-0.06764514744281769,-0.8560367822647095,0.9909697771072388,0.07675519585609436,-0.43290451169013977,0
837,-7.185614585876465,-0.3887813985347748,-1.2689542770385742,0.9798796772956848,-0.06113473325967789,-0.4359486997127533,0
838,-2.7242496013641357,-0.29577159881591797,-1.7316123247146606,0.826327383518219,-0.15612991154193878,-0.4453858733177185,0
839,4.855095386505127,-9.438424110412598,-1.2550264596939087,0.926299512386322,-0.16011573374271393,-0.4622769355773926,0
840,9.563648223876953,-10.097495079040527,-0.48911911249160767,1.1309878826141357,-0.12459535896778107,-0.46924319863319397,0
841,11.336456298828125,-5.645237445831299,0.529764711856842,1.1679890155792236,-0.01827528513967991,-0.4724413752555847,0
842,9.738520622253418,6.790782451629639,1.2501174211502075,1.2493395805358887,0.1727811098098755,-0.4784347116947174,0
843,7.1245808601379395,12.180253028869629,1.280243992805481,1.1607240438461304,0.19339849054813385,-0.45180171728134155,0
844,3.0454251766204834,19.380878448486328,1.0060395002365112,1.0417777299880981,0.2325892150402069,-0.43526163697242737,0
845,-0.5968244075775146,22.792137145996094,0.8330450654029846,0.8235995173454285,0.27543237805366516,-0.4313208758831024,0
846,-3.116243362426758,21.65468978881836,0.5700840950012207,0.5565742254257202,0.264599472284317,-0.42432594299316406,0
847,-4.335574150085449,11.451922416687012,1.1885557174682617,0.33368995785713196,0.2203642576932907,-0.413327693939209,0
848,-3.632840156555176,-5.739694595336914,0.5847914218902588,0.32027921080589294,0.16329523921012878,-0.39748716354370117,0
849,-1.1599066257476807,-14.775308609008789,0.738781213760376,0.5545264482498169,0.12225188314914703,-0.38498812913894653,0
850,0.8671547770500183,-12.957864761352539,0.7638824582099915,0.8195807933807373,0.12429649382829666,-0.3762548565864563,0
851,3.157567262649536,-5.810723781585693,0.7884110808372498,0.7655616998672485,0.156146839261055,-0.3783569931983948,0
852,4.139514923095703,4.933072566986084,0.7980377674102783,0.7297163009643555,0.2191958874464035,-0.3806377351284027,0
853,3.878004550933838,12.950674057006836,0.6973890066146851,0.6607356667518616,0.22628720104694366,-0.36808520555496216,0
854,1.9939417839050293,20.760250091552734,1.3247628211975098,0.5191622972488403,0.2232968956232071,-0.3521711528301239,0
855,0.01116246823221445,23.22337532043457,1.339983582496643,0.2717844545841217,0.2674919366836548,-0.3428449034690857,0
856,-0.6661038994789124,21.709802627563477,1.3995839357376099,0.00187542918138206,0.2807231843471527,-0.3307364284992218,0
857,-0.42468318343162537,16.138690948486328,1.136396884918213,-0.2236812263727188,0.2841668426990509,-0.31898656487464905,0
858,1.2351642847061157,9.210029602050781,0.8309382200241089,-0.3596932888031006,0.291633665561676,-0.3102189004421234,0
859,1.9818443059921265,3.946931838989258,0.4713246822357178,-0.39128249883651733,0.2487221211194992,-0.2952376902103424,0
860,4.110639572143555,-5.230180263519287,0.9660605788230896,-0.32508376240730286,0.2995512783527374,-0.28805166482925415,0
861,5.793880462646484,-17.450708389282227,1.074398398399353,-0.3167565166950226,0.3762640655040741,-0.2856791019439697,0
862,5.615969181060791,-20.465078353881836,1.4433614015579224,0.011397154070436954,0.4738858640193939,-0.27178195118904114,0
863,2.8402247428894043,-17.510709762573242,1.7000235319137573,0.21231065690517426,0.41526687145233154,-0.2516595721244812,0
864,-0.5513622164726257,-17.2782039642334,1.1383107900619507,0.5892123579978943,0.4621030390262604,-0.22780168056488037,0
865,-2.176377534866333,-7.6756792068481445,1.1814152002334595,0.5676891207695007,0.45518726110458374,-0.22811061143875122,0
866,-3.3619391918182373,6.541243553161621,0.9775073528289795,0.5249247550964355,0.42223790287971497,-0.22286196053028107,0
867,-3.4910264015197754,21.536903381347656,1.153491735458374,0.4559919536113739,0.37317731976509094,-0.20915570855140686,0
868,-3.126176118850708,29.650222778320312,1.4323779344558716,0.023806991055607796,0.32145556807518005,-0.20728382468223572,0
869,-1.6677693128585815,28.319910049438477,1.516960859298706,-0.2082362025976181,0.2822553515434265,-0.18616147339344025,0
870,1.870829701423645,23.051618576049805,1.6273843050003052,-0.5601134300231934,0.35077959299087524,-0.17807641625404358,0
871,4.382019519805908,14.370232582092285,1.3425875902175903,-0.8027501106262207,0.39376911520957947,-0.16335192322731018,0
872,5.158969879150391,2.2796401977539062,1.1909157037734985,-0.8891013860702515,0.47230392694473267,-0.1474178433418274,0
873,4.376672267913818,-15.01402759552002,1.1511787176132202,-0.7587420344352722,0.5552183389663696,-0.1268402338027954,0
874,1.5037059783935547,-22.59933853149414,1.4373815059661865,-0.44933411478996277,0.5477119088172913,-0.10567998141050339,0
875,-1.1869643926620483,-21.982879638671875,2.4613876342773438,-0.13107821345329285,0.5663999915122986,-0.08184905350208282,0
876,-6.2308268547058105,-21.84653091430664,1.5048528909683228,0.10857482999563217,0.5935999751091003,-0.059124480932950974,0
877,-9.509015083312988,-12.28724479675293,1.6762969493865967,0.5264001488685608,0.4768713414669037,-0.027697457000613213,0
878,-10.801941871643066,2.3228070735931396,1.2927206754684448,0.7516984343528748,0.31441736221313477,-0.002403090475127101,0
879,-9.94847583770752,19.197301864624023,1.0557020902633667,0.6439597606658936,0.14253276586532593,0.004681997932493687,0
880,-6.58314323425293,34.48066329956055,1.584147572517395,0.25362882018089294,0.06895086914300919,0.002723349491134286,0
881,-1.0705395936965942,42.141075134277344,1.8730403184890747,-0.20623283088207245,-0.013236084952950478,0.012314331717789173,0
882,3.90311598777771,42.33134841918945,2.0578107833862305,-0.8287888765335083,0.06046754866838455,0.019048543646931648,0
883,7.463489532470703,30.97219467163086,1.2527915239334106,-1.3894749879837036,0.13834914565086365,0.029540399089455605,0
884,8.439876556396484,15.95659065246582,0.8030006885528564,-1.6682052612304688,0.25848013162612915,0.04412749409675598,0
885,5.778397083282471,-1.8624217510223389,0.35964182019233704,-1.7547693252563477,0.31089791655540466,0.051447078585624695,0
886,1.5358721017837524,-16.544208526611328,0.43816497921943665,-1.5586745738983154,0.38999661803245544,0.06605910509824753,0
887,-3.2492575645446777,-25.002988815307617,0.47650331258773804,-1.1550003290176392,0.39273926615715027,0.08126556873321533,0
888,-9.46894359588623,-25.520408630371094,0.7668005228042603,-0.940716028213501,0.3109417259693146,0.07716818898916245,0
889,-12.235763549804688,-27.817180633544922,0.7141005992889404,-0.5581968426704407,0.14598436653614044,0.08173085749149323,0
890,-10.260723114013672,-25.582731246948242,1.3056906461715698,-0.3740827739238739,0.15972045063972473,0.10499555617570877,0
891,-9.151237487792969,-9.143555641174316,1.0213041305541992,-0.09803185611963272,0.0343756377696991,0.11639086902141571,0
892,-8.301965713500977,9.396991729736328,1.0952489376068115,-0.09093985706567764,-0.13364280760288239,0.11383048444986343,0
893,-6.857324600219727,27.561750411987305,1.5136055946350098,-0.3000413179397583,-0.13198751211166382,0.1353965550661087,0
894,-1.9302685260772705,31.895984649658203,1.6595691442489624,-0.6675426363945007,-0.2304646521806717,0.13919486105442047,0
895,1.9111303091049194,25.902177810668945,2.2435874938964844,-1.0598012208938599,-0.1852305382490158,0.16003654897212982,0
896,4.43605899810791,18.698335647583008,2.1268177032470703,-1.2020677328109741,-0.22604092955589294,0.17327292263507843,0
897,3.355489492416382,8.657734870910645,1.4281619787216187,-1.3716232776641846,-0.0879581868648529,0.20882420241832733,0
898,3.6326279640197754,-1.2979326248168945,1.2573140859603882,-1.4415342807769775,-0.10504632443189621,0.21322117745876312,0
899,1.0203092098236084,-10.82426929473877,0.716338038444519,-1.2961848974227905,-0.06334638595581055,0.2295849770307541,0
900,-2.8081955909729004,-13.675215721130371,0.37835532426834106,-1.1678736209869385,-0.0668451339006424,0.23835915327072144,0
901,-5.291244029998779,-13.878035545349121,0.6999908685684204,-0.8561173677444458,-0.12436167895793915,0.24026307463645935,0
902,-6.848365783691406,-9.878003120422363,0.7593245506286621,-0.982963502407074,-0.15648290514945984,0.2555164694786072,0
903,-6.8174285888671875,-13.849620819091797,1.3353948593139648,-0.7762810587882996,-0.28011617064476013,0.2531304657459259,0
904,-5.243250370025635,-21.012718200683594,1.6635979413986206,-0.7039359211921692,-0.3273646831512451,0.2739388942718506,0
905,-3.9522745609283447,-26.73799705505371,1.3226571083068848,-0.44633740186691284,-0.3516004681587219,0.2970423102378845,0
906,-0.81845623254776,-33.8875846862793,1.1734567880630493,-0.014371712692081928,-0.34630146622657776,0.3164268732070923,0
907,1.7160321474075317,-34.62605667114258,1.2431445121765137,0.3609410524368286,-0.36345142126083374,0.3269641101360321,0
908,2.8873932361602783,-30.081771850585938,1.7012660503387451,0.45821672677993774,-0.2722582519054413,0.3642013967037201,0
909,3.8327903747558594,-15.53151798248291,2.3555264472961426,0.8819586038589478,-0.30353492498397827,0.36990562081336975,0
910,2.8280837535858154,2.4952895641326904,2.2297518253326416,0.9541633725166321,-0.25275298953056335,0.39795565605163574,0
911,-0.23890531063079834,20.34029197692871,1.3143224716186523,0.9239499568939209,-0.1624535620212555,0.42264723777770996,0
912,-3.212724447250366,25.658823013305664,1.3076473474502563,0.6460448503494263,-0.19461165368556976,0.43709927797317505,0
913,-5.13709831237793,23.793588638305664,1.1589961051940918,0.27012595534324646,-0.2761017382144928,0.4520699083805084,0
914,-7.39882230758667,16.802532196044922,0.600238561630249,0.039844807237386703,-0.39204245805740356,0.4602085053920746,0
915,-6.528940677642822,9.873366355895996,0.16170109808444977,-0.025640733540058136,-0.5201367139816284,0.4574752151966095,0
916,-3.620225429534912,4.0384521484375,-0.701411247253418,-0.20529037714004517,-0.5563563108444214,0.46244165301322937,0
917,0.554397702217102,0.39231032133102417,-1.2127755880355835,-0.08387470990419388,-0.6045514345169067,0.443401038646698,0
918,4.284756660461426,-3.486769914627075,-1.6917932033538818,-0.07026543468236923,-0.5824360847473145,0.4316788613796234,0
919,6.240595817565918,-0.6693138480186462,-1.5694414377212524,-0.027690954506397247,-0.5085378289222717,0.4162582457065582,0
920,5.584832191467285,7.541706085205078,-1.017025113105774,-0.25269776582717896,-0.4074234962463379,0.42048215866088867,0
921,3.625059127807617,11.360551834106445,-1.2525743246078491,-0.3587336242198944,-0.25839582085609436,0.4125218689441681,0
922,0.8440733551979065,11.624258995056152,-1.8563599586486816,-0.5145732164382935,-0.2926916778087616,0.4000740051269531,0
923,-2.3291802406311035,9.419342994689941,-2.247225046157837,-0.7345180511474609,-0.3001028299331665,0.3883429765701294,0
924,-3.6262192726135254,5.008251190185547,-1.9006508588790894,-0.8408973217010498,-0.3564201295375824,0.36453959345817566,0
925,-2.7050628662109375,-8.919122695922852,-1.8790767192840576,-0.7566800117492676,-0.4230407774448395,0.33402392268180847,0
926,-0.7297003865242004,-17.157730102539062,-2.0705502033233643,-0.46899688243865967,-0.39649730920791626,0.3012496829032898,0
927,2.3803093433380127,-28.004688262939453,-2.209557056427002,-0.18673895299434662,-0.40607205033302307,0.27315759658813477,0
928,4.3433098793029785,-27.240921020507812,-2.1053431034088135,0.16425564885139465,-0.3674119710922241,0.24619536101818085,0
929,4.0409955978393555,-16.207143783569336,-2.043980598449707,0.2528199851512909,-0.1614944040775299,0.2482319325208664,0
930,1.4912937879562378,0.3564881384372711,-2.3818342685699463,0.3640536069869995,-0.18704919517040253,0.22565729916095734,0
931,-2.9689900875091553,15.719080924987793,-2.6540632247924805,0.35311996936798096,-0.11441289633512497,0.2004198133945465,0
932,-5.321690082550049,24.246315002441406,-2.8548858165740967,0.17614156007766724,-0.18370428681373596,0.1722782552242279,0
933,-6.719841957092285,21.023128509521484,-3.0889251232147217,-0.10460694134235382,-0.28577253222465515,0.14538031816482544,0
934,-6.552024841308594,17.974380493164062,-3.6346778869628906,-0.3284916281700134,-0.40290334820747375,0.11341380327939987,0
935,-4.07770299911499,12.52807331085205,-3.615907907485962,-0.494064599275589,-0.5047419667243958,0.07476029545068741,0
936,0.08907554298639297,5.719632625579834,-3.576160192489624,-0.5672190189361572,-0.555635929107666,0.034039825201034546,0
937,4.37238073348999,-1.215856671333313,-3.4572908878326416,-0.5374029278755188,-0.5349383354187012,-0.007163611706346273,0
938,8.13713264465332,-4.936130523681641,-2.5117578506469727,-0.4836506247520447,-0.4441269040107727,-0.04196060076355934,0
939,10.478886604309082,-2.3588738441467285,-1.903540015220642,-0.3943936824798584,-0.3088393807411194,-0.0685359463095665,0
940,8.619084358215332,-14.087515830993652,-1.7307112216949463,-0.21695609390735626,-0.156233012676239,-0.09746284037828445,0
941,5.087143421173096,-13.919949531555176,-1.2297279834747314,-0.12131524085998535,-0.043212708085775375,-0.10931746661663055,0
942,0.15931454300880432,-9.077881813049316,-1.3063385486602783,-0.1757650524377823,-0.06334222108125687,-0.10924145579338074,0
943,-4.391207695007324,-9.520879745483398,-1.2223715782165527,-0.06049574911594391,-0.1586390882730484,-0.12536026537418365,0
944,-7.163136959075928,-3.9019603729248047,-1.4830211400985718,0.11226366460323334,-0.2399446666240692,-0.14403004944324493,0
945,-6.932291507720947,1.631878137588501,-1.9116917848587036,0.10594594478607178,-0.3541560769081116,-0.15810897946357727,0
946,-5.353008270263672,12.287901878356934,-1.969159722328186,0.05091618746519089,-0.4555716812610626,-0.17766447365283966,0
947,-0.32046082615852356,18.72138786315918,-1.7118079662322998,-0.09112772345542908,-0.5871313810348511,-0.2006184458732605,0
948,6.13621711730957,21.004945755004883,-1.5060862302780151,-0.3208852708339691,-0.4865490198135376,-0.2175063043832779,0
949,11.555471420288086,19.756061553955078,-1.7990145683288574,-0.5640201568603516,-0.3571322560310364,-0.23296837508678436,0
950,13.764143943786621,14.38587760925293,-2.0920369625091553,-0.765999436378479,-0.14853031933307648,-0.2506413459777832,0
951,11.792847633361816,7.774994373321533,-2.2194316387176514,-0.8746998310089111,-0.06260709464550018,-0.275472491979599,0
952,8.03781509399414,0.25655245780944824,-2.174992561340332,-0.943701982498169,0.12880931794643402,-0.29412177205085754,0
953,2.7946696281433105,-5.7292585372924805,-1.955095887184143,-0.8965293169021606,0.1763697862625122,-0.3190067410469055,0
954,-1.2254037857055664,-7.579196929931641,-1.411949634552002,-0.7052778601646423,0.14460647106170654,-0.34718361496925354,0
955,-6.522892951965332,-8.194859504699707,-1.103409767150879,-0.7813544273376465,0.10698599368333817,-0.35562488436698914,0
956,-7.8332366943359375,-14.373749732971191,-1.019286870956421,-0.5348765254020691,-0.005504029802978039,-0.37444740533828735,0
957,-6.58059024810791,-15.117546081542969,-1.2802983522415161,-0.6342735886573792,-0.12639056146144867,-0.3815527856349945,0
958,-2.7651419639587402,-19.419240951538086,-0.9844692349433899,-0.3397563695907593,-0.22004222869873047,-0.39790448546409607,0
959,1.811655044555664,-15.22712516784668,-1.133568525314331,-0.14709459245204926,-0.24038077890872955,-0.406724214553833,0
960,4.959118843078613,-5.594427108764648,-1.2234818935394287,-0.04151415824890137,-0.18270987272262573,-0.41290467977523804,0
961,8.826288223266602,5.192696571350098,-0.16266438364982605,0.18066933751106262,-0.06880097836256027,-0.42174434661865234,0
962,10.721500396728516,15.803671836853027,0.32142555713653564,-0.06104888767004013,0.08886595815420151,-0.41542932391166687,0
963,6.671300411224365,22.496320724487305,-0.1252840757369995,-0.5201735496520996,0.17839331924915314,-0.4101840853691101,0
964,3.5079140663146973,21.956180572509766,-1.1809113025665283,-0.7671548128128052,0.27497175335884094,-0.41150596737861633,0
965,-0.5212839841842651,17.1392765045166,-1.3424450159072876,-0.9943203926086426,0.3138933479785919,-0.4204379916191101,0
966,-4.207798004150391,4.527307510375977,-1.0245506763458252,-1.180815577507019,0.22555972635746002,-0.4366764724254608,0
