,gyro.x,gyro.y,gyro.z,stabilizer.pitch,stabilizer.roll,stabilizer.yaw,label
0,0.19160188734531403,-0.04008764773607254,-0.2415885478258133,-0.6058825254440308,-1.4499019384384155,-9.319955825805664,0
1,0.010516466572880745,-0.012690137140452862,-0.3105192482471466,-0.6017428636550903,-1.242255687713623,-9.31117057800293,0
2,0.018173346295952797,-0.01070458721369505,-0.2724039852619171,-0.5362106561660767,-1.4007889032363892,-9.305684089660645,0
3,-0.0704880952835083,-0.04053294658660889,-0.17040342092514038,-0.6132113337516785,-1.3952624797821045,-9.299911499023438,0
4,0.07680749893188477,-0.016132023185491562,-0.27618929743766785,-0.6079276204109192,-1.327620506286621,-9.292134284973145,0
5,-0.026614226400852203,-0.08725644648075104,-0.3783631920814514,-0.6039144396781921,-1.3386296033859253,-9.285686492919922,0
6,0.04549665376543999,-0.015201165340840816,-0.29738926887512207,-0.5378672480583191,-1.3479307889938354,-9.27936840057373,0
7,0.006067795213311911,0.013279722072184086,-0.3351201117038727,-0.5518695712089539,-1.481439471244812,-9.27426815032959,0
8,0.09815163165330887,0.001345421769656241,-0.20854724943637848,-0.5629568696022034,-1.3290886878967285,-9.26748275756836,0
9,0.08428288251161575,0.07877552509307861,-0.3289619982242584,-0.5722674131393433,-1.3401659727096558,-9.26106071472168,0
10,-0.03985966369509697,-0.023223165422677994,-0.3842121362686157,-0.5793401598930359,-1.3479219675064087,-9.254714965820312,0
11,0.01171435322612524,0.0578320175409317,-0.2920558750629425,-0.6481224298477173,-1.480863332748413,-9.250519752502441,0
12,-0.014323214069008827,0.0945056676864624,-0.3930695354938507,-0.5735057592391968,-1.4556055068969727,-9.24357795715332,0
13,-0.02433924563229084,-0.05197341367602348,-0.26847079396247864,-0.5803660750389099,-1.4359915256500244,-9.237911224365234,0
14,0.05986007675528526,-0.024369031190872192,-0.1924205869436264,-0.5850476622581482,-1.2939913272857666,-9.230460166931152,0
15,0.05222850292921066,-0.05831483006477356,-0.17679233849048615,-0.651136577129364,-1.3754820823669434,-9.224099159240723,0
16,-0.018392235040664673,-0.06928849965333939,-0.285100519657135,-0.6374210715293884,-1.3746037483215332,-9.217092514038086,0
17,0.05200859159231186,-0.06774390488862991,-0.394803911447525,-0.6265371441841125,-1.310957670211792,-9.210216522216797,0
18,0.04788338392972946,0.0813705250620842,-0.3023439347743988,-0.618751585483551,-1.3884474039077759,-9.205321311950684,0
19,-0.0055634439922869205,-0.037999846041202545,-0.31505918502807617,-0.6125223636627197,-1.4487519264221191,-9.199728965759277,0
20,0.006029631942510605,0.07184814661741257,-0.2840638756752014,-0.607959508895874,-1.4304077625274658,-9.19340991973877,0
21,-0.022236783057451248,-0.009269475936889648,-0.2875854969024658,-0.6044411659240723,-1.415108561515808,-9.187112808227539,0
22,0.09803246706724167,-0.009357387199997902,-0.2522748112678528,-0.6015046238899231,-1.2147175073623657,-9.178740501403809,0
23,0.05881204828619957,0.0272735133767128,-0.2718127369880676,-0.5993794202804565,-1.2525731325149536,-9.1723051071167,0
24,0.024170828983187675,0.06727284938097,-0.24828080832958221,-0.5974608659744263,-1.4702855348587036,-9.167539596557617,0
25,0.03340856358408928,-0.010962911881506443,-0.3242548704147339,-0.5957388281822205,-1.4459445476531982,-9.160639762878418,0
26,-0.026219621300697327,0.0027216544840484858,-0.29086795449256897,-0.5309502482414246,-1.679442048072815,-9.156243324279785,0
27,0.0395917072892189,-0.020484276115894318,-0.3671586811542511,-0.5455310344696045,-1.6033635139465332,-9.149372100830078,0
28,0.016286231577396393,0.0039846342988312244,-0.22806817293167114,-0.5560082197189331,-1.3556315898895264,-9.142552375793457,0
29,-0.08558344841003418,0.07198939472436905,-0.2535022795200348,-0.5653796195983887,-1.1026906967163086,-9.134876251220703,0
30,0.025021949782967567,0.10575266927480698,-0.18608659505844116,-0.5725851655006409,-1.166122555732727,-9.128485679626465,0
31,-0.022292684763669968,-0.11595705151557922,-0.36440935730934143,-0.5786324739456177,-1.4020013809204102,-9.123217582702637,0
32,-0.03808392211794853,-0.005356029141694307,-0.33393844962120056,-0.581519365310669,-1.393974781036377,-9.117384910583496,0
33,-0.007802973967045546,-0.0037519866600632668,-0.20577386021614075,-0.5809326767921448,-1.392531156539917,-9.11107349395752,0
34,-0.04988156259059906,-0.1342935711145401,-0.19800759851932526,-0.5803434252738953,-1.391034722328186,-9.104120254516602,0
35,-0.004159995354712009,0.10013895481824875,-0.24710725247859955,-0.6448990106582642,-1.4507343769073486,-9.098091125488281,0
36,-0.0365995317697525,0.02046738751232624,-0.31781449913978577,-0.6318408846855164,-1.2425651550292969,-9.090298652648926,0
37,0.07292491942644119,-0.13211612403392792,-0.29402318596839905,-0.6208749413490295,-1.4004247188568115,-9.085627555847168,0
38,0.030843103304505348,0.057714927941560745,-0.18836712837219238,-0.5482650995254517,-1.3939679861068726,-9.07874870300293,0
39,0.06622681021690369,0.050649624317884445,-0.32056495547294617,-0.5579050183296204,-1.3878417015075684,-9.072060585021973,0
40,0.025437120348215103,-0.044462233781814575,-0.345162570476532,-0.5650203227996826,-1.3840043544769287,-9.065980911254883,0
41,0.11032969504594803,-0.05510060861706734,-0.20601335167884827,-0.6331488490104675,-1.3807882070541382,-9.060602188110352,0
42,-0.03336317464709282,0.01359684206545353,-0.2406197339296341,-0.6218713521957397,-1.3149704933166504,-9.053020477294922,0
43,-0.1106630340218544,0.0792701244354248,-0.22897635400295258,-0.6138543486595154,-1.2661206722259521,-9.045877456665039,0
44,0.0950140431523323,-0.013922260142862797,-0.3224530518054962,-0.5453886985778809,-1.4180325269699097,-9.039706230163574,0
45,0.09626258909702301,0.016911961138248444,-0.2799805700778961,-0.6183678507804871,-1.217073678970337,-9.033157348632812,0
46,-0.12760816514492035,0.05789446085691452,-0.23615293204784393,-0.6118817329406738,-1.2554094791412354,-9.027634620666504,0
47,0.03975937142968178,0.003765842178836465,-0.260098397731781,-0.5442870259284973,-1.4755675792694092,-9.02199935913086,0
48,0.031340956687927246,-0.019115611910820007,-0.2710888683795929,-0.5565217137336731,-1.451783299446106,-9.015573501586914,0
49,0.15945550799369812,-0.060897741466760635,-0.2616736590862274,-0.563997209072113,-1.4317477941513062,-9.009297370910645,0
50,-0.038659434765577316,0.02226594090461731,-0.33625978231430054,-0.6338638067245483,-1.4164607524871826,-9.003515243530273,0
51,0.09468928724527359,0.013902036473155022,-0.2666420340538025,-0.6241003274917603,-1.4052101373672485,-8.997488021850586,0
52,-0.010733106173574924,0.03165293112397194,-0.34715715050697327,-0.6159940958023071,-1.6485639810562134,-8.993083953857422,0
53,-0.001956850988790393,-0.055295370519161224,-0.36037570238113403,-0.5477645397186279,-1.3924883604049683,-8.98580551147461,0
54,-0.031319767236709595,0.04326349496841431,-0.3399120569229126,-0.5589382648468018,-1.1979941129684448,-8.979048728942871,0
55,0.02163400501012802,-0.13601747155189514,-0.24571438133716583,-0.6306718587875366,-1.3660786151885986,-8.974799156188965,0
56,-0.03983570635318756,-0.030585747212171555,-0.2840272784233093,-0.6204916834831238,-1.2411553859710693,-8.967382431030273,0
57,-0.07845140248537064,-0.06095808744430542,-0.29954320192337036,-0.5501906275749207,-1.211183786392212,-8.960256576538086,0
58,0.04528031870722771,-0.03268124535679817,-0.29617518186569214,-0.5599796772003174,-1.4418762922286987,-8.955766677856445,0
59,0.001352817052975297,-0.14442569017410278,-0.2936592400074005,-0.5664811730384827,-1.2379462718963623,-8.948868751525879,0
60,0.00984003022313118,-0.07154297828674316,-0.27034232020378113,-0.572316586971283,-1.4616427421569824,-8.944171905517578,0
61,0.09288448095321655,-0.06541866809129715,-0.30171945691108704,-0.6400202512741089,-1.4417426586151123,-8.938406944274902,0
62,-0.013701648451387882,0.07043921202421188,-0.16387005150318146,-0.5654406547546387,-1.2366437911987305,-8.930461883544922,0
63,0.042999207973480225,0.0358576625585556,-0.358361154794693,-0.5732339024543762,-1.461286187171936,-8.925094604492188,0
64,-0.0023557136300951242,0.008595596998929977,-0.21168358623981476,0.0,0.0,0.0,0
65,-0.0044511957094073296,0.02298569679260254,-0.2595272660255432,-0.00868061650544405,0.5489510297775269,-0.0026640568394213915,0
66,-0.02898349240422249,-0.03823506087064743,-0.30959469079971313,-0.03076191060245037,2.1515846252441406,-0.004453397821635008,0
67,0.04607493057847023,-0.01917855441570282,-0.2733604311943054,-0.07179936021566391,1.9517147541046143,-0.007024414837360382,0
68,-0.05010577663779259,0.062036819756031036,-0.3304990828037262,-0.12210236489772797,2.743152618408203,-0.00895722396671772,0
69,0.07051713019609451,-0.027544880285859108,-0.32980480790138245,-0.17828337848186493,0.9314672350883484,-0.015953756868839264,0
70,0.11262482404708862,0.034609485417604446,-0.31500768661499023,-0.7891479730606079,1.2776931524276733,-0.020500553771853447,0
71,0.022810328751802444,-0.0743049755692482,-0.3066239356994629,-0.11709235608577728,0.8543697595596313,-0.024844180792570114,0
72,-0.04335533082485199,-0.06034182384610176,-0.24134323000907898,-0.6935599446296692,0.5135429501533508,-0.032052215188741684,0
73,0.009540515020489693,-0.03369157016277313,-0.38056978583335876,-0.13629014790058136,0.2356288731098175,-0.03543983772397041,0
74,-0.021162839606404305,0.026149334385991096,-0.24365876615047455,-0.223839670419693,0.0004902479122392833,-0.04012604057788849,0
75,-0.037086740136146545,0.11506862938404083,-0.2863845229148865,-0.29367899894714355,-0.17599546909332275,-0.04372315853834152,0
76,0.04008658975362778,-0.03217577561736107,-0.21842516958713531,-0.6955316662788391,-0.31925445795059204,-0.04534914717078209,0
77,0.041076552122831345,0.0880158469080925,-0.2508101165294647,-0.6203969120979309,-0.43428942561149597,-0.05017136037349701,0
78,-0.0394895002245903,-0.01281991321593523,-0.2645215392112732,-0.5730603933334351,-0.5322333574295044,-0.054909009486436844,0
79,-0.09936057031154633,0.025050189346075058,-0.24060150980949402,-0.5452624559402466,-0.6134324073791504,-0.058948416262865067,0
80,-0.02885168045759201,0.057909268885850906,-0.41969388723373413,-0.527642548084259,-0.6813550591468811,-0.06299172341823578,0
81,-0.03684350103139877,-0.07792123407125473,-0.33326879143714905,-0.518869936466217,-0.24657459557056427,-0.06076843664050102,0
82,0.14824967086315155,-0.035176120698451996,-0.3228600323200226,-0.2804732322692871,-0.8955551385879517,-0.07943057268857956,0
83,-0.03785008564591408,-0.052910976111888885,-0.275936096906662,-0.342569500207901,-0.9073495864868164,-0.08107060194015503,0
84,0.06486120820045471,-0.04951566830277443,-0.2816207706928253,-0.39153000712394714,-1.7468777894973755,-0.09013785421848297,0
85,-0.08142266422510147,-0.07953906059265137,-0.2502730190753937,-0.4264616370201111,-0.36824268102645874,-0.07812650501728058,0
86,-0.04510956630110741,0.14637069404125214,-0.21138247847557068,-0.6381347179412842,-0.9138826727867126,-0.0758444219827652,0
87,0.024740401655435562,0.09626222401857376,-0.24003243446350098,-0.43510448932647705,-0.946783185005188,-0.08783480525016785,0
88,0.015514370054006577,-0.02490057796239853,-0.3661268353462219,-0.46258142590522766,-0.9730387330055237,-0.08954578638076782,0
89,-0.011619308032095432,-0.016755053773522377,-0.29310697317123413,-0.4826301038265228,-0.9970119595527649,-0.09174444526433945,0
90,0.08082051575183868,0.054489616304636,-0.25722718238830566,-0.4968246817588806,-1.01674485206604,-0.09411410242319107,0
91,0.12519143521785736,-0.08223749697208405,-0.37958794832229614,-0.6571305990219116,-1.0338587760925293,-0.08808755874633789,0
92,0.028908513486385345,-0.049807555973529816,-0.35182350873947144,-0.6262019276618958,-0.7609003186225891,-0.08819884806871414,0
93,0.07538634538650513,0.14782272279262543,-0.37404343485832214,-0.46588659286499023,-0.8519271016120911,-0.10212419927120209,0
94,0.06657379120588303,0.06648354977369308,-0.30453890562057495,-0.4876735508441925,-1.1905328035354614,-0.10987644642591476,0
95,-0.04727376252412796,0.01137875858694315,-0.1944781094789505,-0.6351850628852844,-1.1755183935165405,-0.10410980135202408,0
96,-0.13751228153705597,0.0340806283056736,-0.24800173938274384,-0.4876796305179596,-1.1685194969177246,-0.11495977640151978,0
97,-0.03509502485394478,-0.10664249211549759,-0.3075098991394043,-0.5045178532600403,-0.9207702875137329,-0.11201909929513931,0
98,0.03189878165721893,-0.07420574873685837,-0.24621596932411194,-0.5160585045814514,-0.9823159575462341,-0.11501104384660721,0
99,-0.011667276732623577,-0.06122763827443123,-0.23436559736728668,-0.6421766877174377,-0.9154914021492004,-0.10888972133398056,0
100,-0.03301483392715454,-0.011973532848060131,-0.2515394985675812,-0.6196888089179993,-0.9854612350463867,-0.11393024027347565,0
101,0.025796156376600266,0.13401460647583008,-0.2919099032878876,-0.6042195558547974,-1.0388120412826538,-0.11869311332702637,0
102,0.043416578322649,-0.09274297207593918,-0.32924684882164,-0.592551052570343,-1.0800584554672241,-0.12268593162298203,0
103,-0.14666539430618286,-0.03230014815926552,-0.2658054530620575,-0.5825132727622986,-1.4311152696609497,-0.13387362658977509,0
104,0.0031196600757539272,-0.0805199071764946,-0.22300434112548828,-0.5749701261520386,-1.377408742904663,-0.13566556572914124,0
105,0.06490258872509003,0.014856494031846523,-0.24059972167015076,-0.5689855813980103,-1.1339197158813477,-0.13315443694591522,0
106,0.052593644708395004,0.0035662739537656307,-0.39526763558387756,-0.5660582184791565,-1.3561979532241821,-0.14019569754600525,0
107,0.05965694785118103,0.007391090504825115,-0.32346653938293457,-0.5631606578826904,-1.7146666049957275,-0.15066996216773987,0
108,0.047588884830474854,0.02730260230600834,-0.23487867414951324,-0.46501338481903076,-1.3988760709762573,-0.1556101143360138,0
109,-0.02366628125309944,0.001765229506418109,-0.37789469957351685,-0.5829630494117737,-1.2591630220413208,-0.14634086191654205,0
110,0.02423834055662155,-0.08977454155683517,-0.2880949079990387,-0.576957106590271,-1.1566815376281738,-0.14788977801799774,0
111,0.0716564878821373,-0.075447678565979,-0.19156982004642487,-0.5712403059005737,-1.1752928495407104,-0.1518700271844864,0
112,-0.017023377120494843,-0.051807958632707596,-0.21278579533100128,-0.5668765902519226,-1.1901143789291382,-0.15421420335769653,0
113,0.07144073396921158,0.0410337969660759,-0.32754114270210266,-0.5642596483230591,-1.2028599977493286,-0.15654908120632172,0
114,0.048121944069862366,-0.03442065790295601,-0.32051825523376465,-0.5629897713661194,-1.0372542142868042,-0.15699425339698792,0
115,-0.01793665997684002,-0.01425583939999342,-0.21855060756206512,-0.4744522273540497,-1.177422046661377,-0.16794440150260925,0
116,0.03629889711737633,-0.09087300300598145,-0.2120569795370102,-0.4940965473651886,-1.283591866493225,-0.17052040994167328,0
117,0.00566856237128377,0.022928887978196144,-0.3717849552631378,-0.508982241153717,-1.278503179550171,-0.1714455932378769,0
118,0.16073772311210632,-0.03129452094435692,-0.2663624882698059,-0.5203782320022583,-1.274528980255127,-0.17376288771629333,0
119,-0.016162395477294922,-0.12023773789405823,-0.33336278796195984,-0.6115520000457764,-1.2714086771011353,-0.17071986198425293,0
120,0.09644167870283127,-0.04146375507116318,-0.22745539247989655,-0.515117883682251,-1.2713744640350342,-0.17965571582317352,0
121,-0.05092910677194595,-0.055550262331962585,-0.31236985325813293,-0.524924099445343,-1.272003412246704,-0.18178054690361023,0
122,-0.014950349926948547,-0.08188336342573166,-0.310741126537323,-0.612358033657074,-1.0327070951461792,-0.17572885751724243,0
123,0.037484921514987946,-0.025868156924843788,-0.18093061447143555,-0.5976091027259827,-1.095476746559143,-0.18038536608219147,0
124,0.06460582464933395,0.0025622600223869085,-0.3121359646320343,-0.5873361229896545,-1.3788425922393799,-0.18729664385318756,0
125,-0.02352357655763626,0.10437825322151184,-0.27149665355682373,-0.5019983053207397,-1.1210227012634277,-0.190603569149971,0
126,-0.003575224196538329,-0.07832064479589462,-0.2909911274909973,-0.5168006420135498,-1.4734426736831665,-0.197127565741539,0
127,0.12905506789684296,-0.07604317367076874,-0.31931376457214355,-0.6044735312461853,-1.4288250207901,-0.19461654126644135,0
128,-0.10209095478057861,0.03102203831076622,-0.3063415586948395,-0.5934157967567444,-1.1662652492523193,-0.1938590407371521,0
129,-0.004466090817004442,-0.0762210413813591,-0.42019960284233093,-0.5858139991760254,-1.2755484580993652,-0.1993662267923355,0
130,-0.007889441214501858,-0.009723500348627567,-0.24149008095264435,-0.5040412545204163,-1.3575670719146729,-0.20883022248744965,0
131,0.06637795269489288,0.0994555652141571,-0.3307354748249054,-0.5183327198028564,-1.3438217639923096,-0.21090582013130188,0
132,0.06028778478503227,-0.008911202661693096,-0.2530456483364105,-0.5292890071868896,-1.3338068723678589,-0.21255584061145782,0
133,-0.018428198993206024,-0.10570135712623596,-0.36109718680381775,-0.6102726459503174,-1.178373098373413,-0.2082318365573883,0
134,0.027536185458302498,0.010474095121026039,-0.30510422587394714,-0.5972241759300232,-1.1360740661621094,-0.21148589253425598,0
135,0.09884898364543915,0.056103676557540894,-0.2491406947374344,-0.5884193778038025,-1.3241822719573975,-0.21744094789028168,0
136,0.09162555634975433,0.055713262408971786,-0.360524982213974,-0.5818696618080139,-1.39225435256958,-0.22179317474365234,0
137,-0.04836054518818855,0.09510035067796707,-0.3401467502117157,-0.5773734450340271,-1.3707517385482788,-0.22420847415924072,0
138,-0.04030841961503029,0.04231003299355507,-0.3552718460559845,-0.5019769072532654,-1.3558608293533325,-0.23104777932167053,0
139,-0.13142679631710052,-0.01029990240931511,-0.21036408841609955,-0.5168863534927368,-1.3454498052597046,-0.23368394374847412,0
140,-0.029115626588463783,0.051078882068395615,-0.28824979066848755,-0.5281696915626526,-1.3379812240600586,-0.23550325632095337,0
141,0.007930440828204155,-0.00029100978281348944,-0.2791669964790344,-0.537542998790741,-1.331886887550354,-0.23748451471328735,0
142,0.04625919461250305,0.01638457365334034,-0.24898596107959747,-0.5449041128158569,-1.326880693435669,-0.24012428522109985,0
143,0.0038262237794697285,-0.008388769812881947,-0.3138382136821747,-0.5502970814704895,-1.6023685932159424,-0.24498654901981354,0
144,-0.0072983186691999435,-0.08644747734069824,-0.260620653629303,-0.6239504814147949,-1.3207767009735107,-0.24015480279922485,0
145,0.062018513679504395,0.03386925533413887,-0.3035319745540619,-0.6090070605278015,-1.3166991472244263,-0.24335162341594696,0
146,0.01484497170895338,0.048469871282577515,-0.297235906124115,-0.528740406036377,-1.1053444147109985,-0.24675817787647247,0
147,-0.04349097982048988,-0.09671024978160858,-0.3113197088241577,-0.5374191999435425,-1.1553534269332886,-0.25004082918167114,0
148,0.09550566226243973,0.04853782430291176,-0.22681403160095215,-0.6115120053291321,-1.3319511413574219,-0.2524147629737854,0
149,0.02157418429851532,0.06110939383506775,-0.2485179603099823,-0.599865198135376,-1.1905771493911743,-0.25306421518325806,0
150,0.04043419286608696,-0.029984809458255768,-0.3568308651447296,-0.5238752961158752,-1.2901175022125244,-0.25893619656562805,0
151,-0.009770218282938004,-0.05134950578212738,-0.3016738295555115,-0.53449547290802,-1.3651740550994873,-0.26243963837623596,0
152,-0.07518621534109116,-0.09132729470729828,-0.24769501388072968,-0.5422032475471497,-1.2186015844345093,-0.26308944821357727,0
153,0.08253361284732819,0.06383568793535233,-0.3054554760456085,-0.5482722520828247,-1.4477171897888184,-0.2676875591278076,0
154,0.11283714324235916,0.06267903000116348,-0.25139865279197693,-0.5538191795349121,-1.4158234596252441,-0.2699154019355774,0
155,-0.014733968302607536,-0.06451575458049774,-0.34250199794769287,-0.5578241348266602,-1.3911739587783813,-0.2716701328754425,0
156,0.025067618116736412,-0.017010310664772987,-0.3412008285522461,-0.5599127411842346,-1.3734253644943237,-0.2742241322994232,0
157,0.16930902004241943,-0.0698658749461174,-0.24106140434741974,-0.5620558261871338,-1.157637119293213,-0.2747504413127899,0
158,-0.01033878419548273,-0.00786652322858572,-0.2970440685749054,-0.563399612903595,-1.1959328651428223,-0.2777274549007416,0
159,-0.012295009568333626,0.0025215535424649715,-0.30548349022865295,-0.564699113368988,-1.2263966798782349,-0.28106996417045593,0
160,0.006731787230819464,-0.008757969364523888,-0.36802756786346436,-0.5660191178321838,-1.383613109588623,-0.28481200337409973,0
161,-0.07737897336483002,-0.06524794548749924,-0.34707969427108765,-0.6331489086151123,-1.3693732023239136,-0.28604647517204285,0
162,0.0661172866821289,0.06743226200342178,-0.29704493284225464,-0.6169999837875366,-1.3587013483047485,-0.28946295380592346,0
163,0.06596115976572037,0.08488339185714722,-0.2721059024333954,-0.6060910224914551,-1.349965214729309,-0.29232391715049744,0
164,-0.03912781551480293,0.10851576924324036,-0.3915884792804718,-0.5975892543792725,-1.3437551259994507,-0.29548129439353943,0
165,0.0923028215765953,0.13064618408679962,-0.24933068454265594,-0.5911278128623962,-1.2076232433319092,-0.29629939794540405,0
166,-0.005623203702270985,0.022147301584482193,-0.22989192605018616,-0.520422101020813,-1.368288516998291,-0.30318665504455566,0
167,0.0760924220085144,0.06975504010915756,-0.393363893032074,-0.5978361964225769,-1.1615231037139893,-0.3009047508239746,0
168,-0.03522096946835518,-0.021245835348963737,-0.33680662512779236,-0.5907246470451355,-1.3993186950683594,-0.3073634207248688,0
169,0.024947630241513252,-0.05639072135090828,-0.18333807587623596,-0.584644079208374,-1.3833975791931152,-0.3102908730506897,0
170,0.1494416445493698,0.016831379383802414,-0.37426409125328064,-0.514167308807373,-1.3707027435302734,-0.3138206899166107,0
171,-0.005723814945667982,-0.008208044804632664,-0.3238832950592041,-0.5928641557693481,-1.3601683378219604,-0.3142249584197998,0
172,0.05807354673743248,0.009693767875432968,-0.2756398916244507,-0.5870229601860046,-1.352925419807434,-0.31734806299209595,0
173,-0.018485262989997864,0.09056401997804642,-0.37251779437065125,-0.5822506546974182,-1.1517280340194702,-0.3175952136516571,0
174,-0.07391446083784103,-0.00918625295162201,-0.3031936585903168,-0.5793989300727844,-1.3918122053146362,-0.32349759340286255,0
175,-0.00349637633189559,0.03642481192946434,-0.2591906785964966,-0.577357828617096,-1.3786554336547852,-0.3264373540878296,0
176,0.05466834083199501,-0.06047991290688515,-0.25569969415664673,-0.5757953524589539,-1.3684086799621582,-0.328494668006897,0
177,0.11685901880264282,-0.02078859694302082,-0.30522090196609497,-0.573284387588501,-1.3602746725082397,-0.33068782091140747,0
178,-0.033419642597436905,0.06133277341723442,-0.203169047832489,-0.5069051384925842,-1.353013277053833,-0.3346444070339203,0
179,0.025347910821437836,0.056964386254549026,-0.3285253047943115,-0.5229324102401733,-1.6075621843338013,-0.3381783962249756,0
180,0.06356719881296158,0.0075873383320868015,-0.32151511311531067,-0.5349521040916443,-1.4119848012924194,-0.33948394656181335,0
181,0.02944294549524784,0.1016213446855545,-0.3344811797142029,-0.5439581274986267,-1.327711820602417,-0.341298371553421,0
182,-0.04615553840994835,-0.011218500323593616,-0.24962621927261353,-0.616201639175415,-1.328697919845581,-0.34158703684806824,0
183,0.05727280676364899,0.04574928805232048,-0.26594576239585876,-0.6058857440948486,-1.330147624015808,-0.3443968594074249,0
184,-0.10510800033807755,-0.020926646888256073,-0.2682693898677826,-0.5987281799316406,-1.1376078128814697,-0.34487205743789673,0
185,0.04740126058459282,0.03145715221762657,-0.2354024350643158,-0.592804491519928,-1.3155665397644043,-0.34945517778396606,0
186,0.005148353986442089,-0.010230128653347492,-0.25946879386901855,-0.5879998803138733,-1.3209948539733887,-0.35183608531951904,0
187,-0.04340021684765816,-0.032372936606407166,-0.28790897130966187,-0.5202288627624512,-1.325973391532898,-0.35511118173599243,0
188,0.026271428912878036,0.09359821677207947,-0.18197301030158997,-0.5329500436782837,-1.3299773931503296,-0.35761240124702454,0
189,0.07024665176868439,0.043292298913002014,-0.30802881717681885,-0.5437910556793213,-1.3321601152420044,-0.35900190472602844,0
190,-0.0078107924200594425,0.04201548919081688,-0.1961815506219864,-0.6169801354408264,-1.3333168029785156,-0.36037930846214294,0
191,0.022402456030249596,-0.06568875163793564,-0.297713041305542,-0.6077930927276611,-1.335308313369751,-0.3625386953353882,0
192,-0.05069407820701599,-0.00480550667271018,-0.22685009241104126,-0.599240243434906,-1.3370481729507446,-0.3651845455169678,0
193,-0.06436384469270706,0.04591163620352745,-0.3182734549045563,-0.5291674137115479,-1.3388004302978516,-0.3681584298610687,0
194,0.03923172131180763,0.011417312547564507,-0.2965999245643616,-0.604943037033081,-1.3410613536834717,-0.3695037066936493,0
195,-0.04606155678629875,-0.023700125515460968,-0.2099117934703827,-0.5979952216148376,-1.3425774574279785,-0.3722701966762543,0
196,-0.007766504772007465,-0.03891948610544205,-0.2336980402469635,-0.5971522331237793,-1.341223955154419,-0.37417566776275635,0
197,-0.01327625010162592,-0.017701266333460808,-0.2985897660255432,-0.5960361957550049,-1.3397637605667114,-0.37612080574035645,0
198,0.08373990654945374,0.019990505650639534,-0.27212923765182495,-0.5923338532447815,-1.1493258476257324,-0.37645915150642395,0
199,0.08537741005420685,0.005684418138116598,-0.16838322579860687,-0.589836061000824,-1.3884934186935425,-0.38131120800971985,0
200,0.05499003455042839,-0.006338171660900116,-0.1976756602525711,-0.5875386595726013,-1.2501306533813477,-0.3818613588809967,0
201,-0.02512776106595993,0.058073919266462326,-0.28420543670654297,-0.52169269323349,-1.4008300304412842,-0.38576140999794006,0
202,0.0555739551782608,0.019471656531095505,-0.3073161542415619,-0.5372801423072815,-1.3878470659255981,-0.38800048828125,0
203,0.15595489740371704,0.0614786334335804,-0.32955124974250793,-0.5496691465377808,-1.3776497840881348,-0.39045479893684387,0
204,-0.029170362278819084,0.043228428810834885,-0.16715262830257416,-0.5592623353004456,-1.4332081079483032,-0.39352425932884216,0
205,0.07609105110168457,-0.08120669424533844,-0.3075845539569855,-0.5669634342193604,-1.2208361625671387,-0.3936562240123749,0
206,-0.03416214883327484,0.06592512130737305,-0.2549046576023102,-0.635607123374939,-1.2512423992156982,-0.39554929733276367,0
207,0.131563201546669,0.07537621259689331,-0.29612135887145996,-0.5598923563957214,-1.339545488357544,-0.3993713855743408,0
208,0.052561357617378235,-0.00485905772075057,-0.2716895043849945,-0.6302103400230408,-1.4056637287139893,-0.40227827429771423,0
209,0.008508490398526192,-0.030517466366291046,-0.290570467710495,-0.5562283992767334,-1.2639561891555786,-0.40364551544189453,0
210,-0.026160040870308876,-0.12069135904312134,-0.3466954529285431,-0.6250528693199158,-1.4083138704299927,-0.40696755051612854,0
211,0.20566630363464355,0.033777713775634766,-0.15437355637550354,-0.5468463897705078,-1.3859663009643555,-0.41163527965545654,0
212,0.016514457762241364,-0.0031796549446880817,-0.5007284879684448,-0.6142075657844543,-1.232418417930603,-0.41227343678474426,0
213,0.576877772808075,0.15866485238075256,-0.2519306540489197,-0.5350329279899597,-1.2381072044372559,-0.4144844710826874,0
214,0.332470178604126,0.18755482137203217,0.8822311758995056,-0.6007237434387207,-1.3648489713668823,-0.41654446721076965,0
215,0.3108854591846466,0.8624597787857056,0.14131379127502441,-0.5826290249824524,-1.3288832902908325,-0.4162510633468628,0
216,0.47505316138267517,-0.39319467544555664,0.48978596925735474,-0.504185140132904,-1.2933310270309448,-0.4248330593109131,0
217,0.32544708251953125,-0.6224453449249268,-0.6647309064865112,-0.5677002668380737,-1.2597781419754028,-0.42759841680526733,0
218,0.16735292971134186,-0.5718050003051758,1.4373979568481445,-0.5579915642738342,-1.228767991065979,-0.42854931950569153,0
219,-0.06412868201732635,1.030824065208435,5.916167259216309,-0.5560625195503235,-1.2070982456207275,-0.4180259108543396,0
220,0.20841732621192932,-0.28791332244873047,2.4830336570739746,-0.48642122745513916,-1.0589679479599,-0.369670033454895,0
221,0.35094499588012695,-0.9562714695930481,-4.184901714324951,-0.47690948843955994,-0.9373241066932678,-0.332832396030426,0
222,-1.377201795578003,0.8553575873374939,-7.9367499351501465,-0.4090902507305145,-0.9480865597724915,-0.3559088408946991,0
223,-3.469895362854004,7.861799716949463,-6.735937595367432,-0.4217350482940674,-0.9667389392852783,-0.4286665916442871,0
224,-1.4368896484375,-2.2714309692382812,-1.4636242389678955,-0.2696390151977539,-0.6749857664108276,-0.49286049604415894,0
225,2.5206220149993896,-0.9514936208724976,3.404996156692505,-0.30053648352622986,-0.6459136605262756,-0.5218486189842224,0
226,-16.91143226623535,7.476231575012207,5.044983386993408,-0.32449328899383545,-0.5883631110191345,-0.5012210011482239,0
227,3.8089475631713867,-6.09619665145874,6.4123454093933105,-0.29876628518104553,-0.4484080970287323,-0.4556601345539093,0
228,10.966207504272461,-0.6462693214416504,7.509694576263428,-0.34337905049324036,-0.503305196762085,-0.39827781915664673,0
229,10.154603958129883,6.322754383087158,8.129339218139648,-0.3252910375595093,-0.9760168194770813,-0.3084982931613922,0
230,-26.70848846435547,-20.485889434814453,11.226449012756348,-0.2406293898820877,-0.9129376411437988,-0.21915920078754425,0
231,19.978885650634766,20.025556564331055,13.243560791015625,-0.3500804305076599,-0.6861265301704407,-0.14622044563293457,0
232,5.879254341125488,-2.316689968109131,8.622306823730469,-0.39911866188049316,-0.9795382022857666,-0.005401321686804295,0
233,5.322134971618652,-6.230855941772461,5.425117492675781,-0.4614335596561432,-0.7932483553886414,0.09579073637723923,0
234,9.879032135009766,-3.757680892944336,1.877830147743225,-0.3718257546424866,-0.6875963807106018,0.16078610718250275,0
235,5.9850993156433105,-2.4693543910980225,0.5008736848831177,-0.3095357120037079,-0.6104230880737305,0.1865975260734558,0
236,-2.5643715858459473,2.050410032272339,1.2737021446228027,-0.2904856503009796,-0.5236618518829346,0.1913638561964035,0
237,-16.59423065185547,6.4751152992248535,0.9679295420646667,-0.28296443819999695,-0.643659770488739,0.20476241409778595,0
238,-19.064870834350586,3.11075758934021,1.1810579299926758,-0.2588171064853668,-0.7901020050048828,0.2198665589094162,0
239,-3.659407138824463,6.134040832519531,0.23077833652496338,0.08722155541181564,-0.39685335755348206,0.24423764646053314,0
240,9.372876167297363,4.72025203704834,0.9035335183143616,-0.06848928332328796,-0.3189847469329834,0.22443784773349762,0
241,16.325862884521484,1.9328585863113403,4.086282730102539,0.017979707568883896,-0.7630573511123657,0.27320772409439087,0
242,14.993980407714844,5.033180236816406,4.766518592834473,-0.15540911257266998,-0.27794408798217773,0.2650582790374756,0
243,6.6618571281433105,15.564620018005371,3.831077814102173,-0.6728583574295044,0.42227452993392944,0.22491158545017242,0
244,0.8711610436439514,29.213891983032227,3.1138250827789307,-0.9025667309761047,0.5166511535644531,0.2519153654575348,0
245,-13.290121078491211,23.69462776184082,1.7112735509872437,-0.9519945979118347,0.3171582520008087,0.3253321945667267,0
246,-23.640199661254883,8.983184814453125,1.399137258529663,-1.2501616477966309,-0.30286774039268494,0.3287641704082489,0
247,-29.14327621459961,-13.784646034240723,-0.5604486465454102,-0.7385804057121277,-0.822471022605896,0.44962048530578613,0
248,-26.20311164855957,-31.812711715698242,-2.059072732925415,-0.5592818856239319,-1.2357627153396606,0.46645334362983704,0
249,-9.780770301818848,-29.452163696289062,-3.4428889751434326,-0.44030383229255676,-0.35310015082359314,0.48627769947052,0
250,8.187878608703613,-14.159703254699707,-1.0335338115692139,-0.1190551295876503,-0.6010328531265259,0.45688754320144653,0
251,16.492712020874023,0.8990159034729004,0.9898746013641357,-0.9929617643356323,-1.9793139696121216,0.309253066778183,0
252,18.15108299255371,7.440762519836426,4.317546367645264,-1.17934250831604,-1.7152864933013916,0.3104824423789978,0
253,20.473690032958984,0.5548884272575378,5.12460470199585,-2.886685609817505,-0.548183798789978,0.4261363446712494,0
254,24.477144241333008,-7.550165176391602,3.9244186878204346,-2.402282953262329,-0.08589629083871841,0.5253737568855286,0
255,21.587923049926758,-20.595903396606445,2.8871443271636963,-1.5464117527008057,-0.3721048831939697,0.4975421130657196,0
256,13.616307258605957,-32.75083541870117,3.4962503910064697,-0.8363840579986572,-0.2653450667858124,0.5285901427268982,0
257,4.676982879638672,-37.32944869995117,4.148583889007568,-0.13661061227321625,0.07922602444887161,0.6233962774276733,0
258,-7.4627532958984375,-30.461580276489258,4.516510963439941,0.5443167090415955,0.2979048788547516,0.7044593691825867,0
259,-13.685559272766113,-18.024490356445312,4.596604347229004,-0.8516299724578857,1.5599355697631836,0.5641420483589172,0
260,-17.4238338470459,-12.571365356445312,4.959188938140869,-0.23834581673145294,1.1789902448654175,0.6873965263366699,0
261,-26.342378616333008,-12.842509269714355,4.71523380279541,0.2339290827512741,0.4280121922492981,0.8315851092338562,0
262,-35.06542205810547,-14.538966178894043,4.815993785858154,0.6120548844337463,-0.151261106133461,0.9575951099395752,0
263,-36.63008499145508,-15.504327774047852,4.286856174468994,0.46860355138778687,-0.5731210708618164,0.9198163747787476,0
264,-32.35383987426758,-18.775615692138672,4.791642189025879,0.9850366115570068,-1.2452431917190552,1.0729719400405884,0
265,-18.9155330657959,-18.177377700805664,3.564880847930908,1.4675992727279663,-1.4509385824203491,1.139707326889038,0
266,-2.519157648086548,-14.082047462463379,3.363347053527832,1.9357435703277588,-1.8454662561416626,1.2189342975616455,0
267,17.20825958251953,-4.853953838348389,4.2475972175598145,2.0403892993927,-1.6441396474838257,1.1770248413085938,0
268,35.8803825378418,4.364364147186279,6.078028678894043,2.0111000537872314,-1.6435625553131104,1.2534277439117432,0
269,43.13969039916992,11.118051528930664,5.478109836578369,2.4973411560058594,-1.2673304080963135,1.2404779195785522,0
270,38.07286071777344,19.135448455810547,5.756885051727295,2.2171716690063477,-0.8430675864219666,1.3066421747207642,0
271,22.435720443725586,24.551044464111328,5.461166858673096,1.9640278816223145,-0.6107885837554932,1.4416836500167847,0
272,-1.0011122226715088,22.953163146972656,4.6096391677856445,2.0720882415771484,-0.3234827220439911,1.477965235710144,0
273,-20.634681701660156,21.649927139282227,3.4285695552825928,1.9325217008590698,-0.31104978919029236,1.5462818145751953,0
274,-31.544952392578125,19.11758041381836,4.137383937835693,1.4879034757614136,-0.6556226015090942,1.6685761213302612,0
275,-31.07131004333496,16.538658142089844,4.394460201263428,1.877327561378479,-0.803720235824585,1.6555548906326294,0
276,-20.327539443969727,19.260196685791016,5.53434419631958,1.4380111694335938,-1.2356603145599365,1.7365851402282715,0
277,-3.1813254356384277,24.494422912597656,6.4074201583862305,1.5135058164596558,-1.2865980863571167,1.7075910568237305,0
278,14.971808433532715,30.022607803344727,8.396317481994629,1.1526200771331787,-1.2509759664535522,1.7185451984405518,0
279,32.51369857788086,34.0919075012207,9.70934009552002,1.0049864053726196,-1.1873708963394165,1.7934550046920776,0
280,42.8837776184082,31.601078033447266,9.777804374694824,0.5597121715545654,-0.9210276007652283,1.8903940916061401,0
281,41.919898986816406,27.896860122680664,9.598006248474121,0.40845757722854614,-0.3010515570640564,1.9194958209991455,0
282,30.174013137817383,25.833642959594727,9.385578155517578,0.012735539115965366,0.12021420150995255,2.0178449153900146,0
283,9.041543006896973,23.94097328186035,8.469590187072754,-0.06231952831149101,0.4825268089771271,2.1144750118255615,0
284,-8.317586898803711,18.60279083251953,7.84435510635376,-0.44589266180992126,0.5430445671081543,2.2034449577331543,0
285,-19.20204734802246,13.137900352478027,6.865087509155273,-0.411909282207489,0.4227094352245331,2.3185222148895264,0
286,-23.58596420288086,12.512402534484863,6.941031455993652,-0.7325218915939331,0.14396153390407562,2.3669817447662354,0
287,-21.98514175415039,9.804023742675781,7.577394008636475,-0.7154142260551453,0.008028012700378895,2.4580237865448,0
288,-11.824716567993164,11.97457218170166,8.644848823547363,-0.9672248363494873,-0.2508135139942169,2.5050809383392334,0
289,0.9530420303344727,16.1953125,9.290164947509766,-1.4002670049667358,-0.350693017244339,2.5455362796783447,0
290,13.67387580871582,16.260238647460938,9.306955337524414,-1.1592200994491577,-0.6365545392036438,2.647233247756958,0
291,24.056434631347656,16.28151512145996,9.381631851196289,-1.5248479843139648,-0.34525880217552185,2.749450922012329,0
292,26.604782104492188,16.24833106994629,10.015756607055664,-1.9039896726608276,0.24368910491466522,2.8990871906280518,0
293,19.720996856689453,10.505532264709473,9.320314407348633,-2.355563163757324,0.6637712717056274,3.0068488121032715,0
294,5.783960342407227,2.130460023880005,9.536747932434082,-1.2198995351791382,1.6399359703063965,3.4957947731018066,0
295,-12.306565284729004,-3.403259754180908,7.962752342224121,-1.440099835395813,1.5385677814483643,3.489328384399414,0
296,-28.65723419189453,-1.3027877807617188,7.783618450164795,-1.686882495880127,1.3383694887161255,3.458216905593872,0
297,-39.56879425048828,2.0221710205078125,6.630602836608887,-2.8455100059509277,0.17826628684997559,2.9036269187927246,0
298,-40.70395278930664,2.369593381881714,9.201168060302734,-3.4961626529693604,-0.47654852271080017,2.7121779918670654,0
299,-29.259506225585938,-2.099400043487549,11.15072250366211,-3.2531774044036865,-0.9490016102790833,2.8179426193237305,0
300,-13.87728214263916,-10.119946479797363,9.451749801635742,-2.947469472885132,-0.9246996641159058,3.1330485343933105,0
301,6.367764949798584,-18.274587631225586,6.535553455352783,-2.749068260192871,-1.044974684715271,3.2691915035247803,0
302,23.227235794067383,-23.51223373413086,4.900068759918213,-2.4403538703918457,-1.3218477964401245,3.2066776752471924,0
303,37.716651916503906,-29.991819381713867,4.251513957977295,-1.8179017305374146,0.7127012610435486,4.132087707519531,0
304,42.32619094848633,-29.597597122192383,1.1501646041870117,-1.6235582828521729,0.6989900469779968,4.003638744354248,0
305,32.92753219604492,-28.164554595947266,0.9940157532691956,-1.1559702157974243,1.1041631698608398,4.031031608581543,0
306,16.846811294555664,-22.284360885620117,0.4239288866519928,-0.905853271484375,1.2190927267074585,3.9468650817871094,0
307,-3.0222792625427246,-15.275655746459961,-0.606126606464386,-0.6122351288795471,1.3749572038650513,3.938929319381714,0
308,-23.15258026123047,-8.263134956359863,-1.9663329124450684,-0.4309788942337036,1.5467885732650757,3.9690163135528564,0
309,-40.04274368286133,-1.7859399318695068,-3.229015827178955,-0.30352461338043213,1.0926709175109863,3.9109246730804443,0
310,-51.279083251953125,5.20934534072876,-4.038619518280029,-0.20859113335609436,-0.8233147859573364,3.6864919662475586,0
311,-51.02347946166992,8.981382369995117,-3.5745997428894043,-0.4088047444820404,-1.218766450881958,3.625110387802124,0
312,-35.88630294799805,14.136727333068848,-3.037405014038086,-0.5308933854103088,-1.3822466135025024,3.6021010875701904,0
313,-10.921506881713867,15.581156730651855,-2.9771156311035156,-0.7785390615463257,-1.683254599571228,3.565603256225586,0
314,13.154939651489258,11.783422470092773,-3.5200142860412598,-0.9675394892692566,-1.6119749546051025,3.5485141277313232,0
315,33.544185638427734,6.426716327667236,-4.3552937507629395,-1.0244934558868408,-1.320120096206665,3.5193119049072266,0
316,44.596797943115234,-2.0284292697906494,-4.190893173217773,-1.1156498193740845,-1.0194058418273926,3.4791581630706787,0
317,43.52295684814453,-9.120421409606934,-3.8399720191955566,-1.4766788482666016,-0.4914572834968567,3.470348834991455,0
318,32.32843017578125,-13.834513664245605,-3.7829935550689697,-1.2620877027511597,-0.05594884604215622,3.4234890937805176,0
319,14.57967472076416,-18.552295684814453,-3.9556961059570312,-0.9895266890525818,0.2822892963886261,3.3720333576202393,0
320,-4.98054313659668,-21.95941162109375,-3.8217947483062744,-1.393672227859497,0.4082033932209015,3.3308820724487305,0
321,-21.39930534362793,-21.501724243164062,-4.249682903289795,-1.0422998666763306,0.3652871251106262,3.2910714149475098,0
322,-29.82008171081543,-20.66733741760254,-4.3094706535339355,-0.8998664617538452,0.20443636178970337,3.2437305450439453,0
323,-29.255945205688477,-18.401126861572266,-4.573319435119629,-0.5089650750160217,-0.22246584296226501,3.1974403858184814,0
324,-20.050880432128906,-13.86783218383789,-4.730019569396973,-0.5240176320075989,-0.21413718163967133,3.166990041732788,0
325,-6.872527122497559,-8.28451156616211,-4.258786678314209,-0.30470332503318787,-0.5116549134254456,3.122802495956421,0
326,5.204081058502197,-6.493528366088867,-3.4751698970794678,-0.29782816767692566,-0.533423125743866,3.0815482139587402,0
327,12.844502449035645,-5.022139072418213,-2.9509060382843018,-0.10999692231416702,-0.37311607599258423,3.052107334136963,0
328,14.491015434265137,-5.364747047424316,-2.7149624824523926,0.1032547727227211,-0.38261908292770386,3.0264270305633545,0
329,9.693092346191406,-6.731057643890381,-2.4858498573303223,-0.04326571524143219,-0.1498558670282364,2.9936776161193848,0
330,1.7909417152404785,-7.238561153411865,-1.9218168258666992,-0.003311265492811799,-0.0726022869348526,2.9681596755981445,0
331,-7.837259292602539,-9.161905288696289,-1.8436139822006226,0.11810152977705002,-0.11370933055877686,2.954533576965332,0
332,-13.820138931274414,-10.694022178649902,-1.7516213655471802,0.1896275281906128,-0.28180423378944397,2.944770336151123,0
333,-14.93713665008545,-12.546640396118164,-1.921037197113037,0.2883322536945343,-0.2568506598472595,2.912692070007324,0
334,-12.259237289428711,-13.586800575256348,-1.8978008031845093,0.3467404842376709,-0.5412952899932861,2.906005620956421,0
335,-7.171350479125977,-12.971875190734863,-1.8531548976898193,0.5000697374343872,-0.4968026280403137,2.8675739765167236,0
336,0.24997234344482422,-11.364601135253906,-1.213132619857788,0.7707435488700867,-0.6582140326499939,2.8630168437957764,0
337,5.47502326965332,-8.181682586669922,-1.1194075345993042,0.7920496463775635,-0.6958892941474915,2.8541219234466553,0
338,6.586258411407471,-3.3113534450531006,-1.5862001180648804,1.0358256101608276,-0.5223317742347717,2.81756329536438,0
339,5.950496673583984,-1.5191653966903687,-1.0730419158935547,1.113691806793213,-0.4759085178375244,2.80450177192688,0
340,2.356781482696533,2.0229992866516113,-1.1359769105911255,1.1454441547393799,-0.43866491317749023,2.800312042236328,0
341,-2.360616683959961,4.157282829284668,-1.5276440382003784,1.2583175897598267,-0.38395416736602783,2.782416820526123,0
342,-5.5646772384643555,4.5405073165893555,-1.6041011810302734,1.2446681261062622,-0.40057769417762756,2.7696900367736816,0
343,-7.269908905029297,5.374655723571777,-1.8915483951568604,1.205364465713501,-0.5308498740196228,2.7774875164031982,0
344,-7.722156047821045,6.644371509552002,-2.0165913105010986,1.2769817113876343,-0.5417988300323486,2.7417409420013428,0
345,-4.429024696350098,4.909616470336914,-2.134551763534546,1.1262853145599365,-0.6880760192871094,2.743032455444336,0
346,0.135306254029274,3.528425455093384,-2.2840497493743896,1.0699489116668701,-1.2914745807647705,2.8888351917266846,0
347,5.567458629608154,4.094340801239014,-3.529446601867676,1.2171157598495483,-1.343719720840454,2.8714888095855713,0
348,12.858405113220215,3.697603940963745,-3.2438647747039795,1.131553292274475,-1.2329782247543335,2.820589303970337,0
349,20.12138557434082,3.4086740016937256,-3.3218836784362793,1.059714674949646,-0.952174186706543,2.7383689880371094,0
350,23.92624282836914,5.284510612487793,-2.6733014583587646,1.117356538772583,-1.1619722843170166,2.8145217895507812,0
351,24.268415451049805,9.26644229888916,-3.3299760818481445,0.9999793171882629,-0.7969737648963928,2.7539010047912598,0
352,22.290849685668945,12.246573448181152,-3.0187830924987793,0.9003122448921204,-0.4429261386394501,2.692319631576538,0
353,16.777090072631836,13.414834022521973,-2.1870357990264893,0.7532064318656921,-0.1417345106601715,2.647273063659668,0
354,10.622930526733398,11.618814468383789,-2.227254867553711,0.5274898409843445,0.1959228515625,2.588996648788452,0
355,4.164588928222656,7.605481147766113,-2.286060094833374,0.46960440278053284,0.41584324836730957,2.5423710346221924,0
356,-2.5937249660491943,4.424075126647949,-2.151611328125,0.33049219846725464,0.5804672837257385,2.4973318576812744,0
357,-7.909158706665039,1.9895142316818237,-2.5114214420318604,0.24558675289154053,0.6881669163703918,2.4511327743530273,0
358,-10.907463073730469,-0.006026568356901407,-2.1289191246032715,0.2032736837863922,1.0152084827423096,2.358017683029175,0
359,-13.652098655700684,-2.4134268760681152,-1.4219361543655396,0.20264236629009247,0.9098989963531494,2.336371660232544,0
360,-15.868508338928223,-3.728747606277466,-1.2343357801437378,0.23749403655529022,1.0191400051116943,2.286301374435425,0
361,-17.916711807250977,-1.2142585515975952,-1.4171141386032104,0.2765069007873535,0.9923742413520813,2.2574172019958496,0
362,-19.426273345947266,-0.5940283536911011,-1.0388504266738892,0.28967419266700745,0.5939157605171204,2.2707746028900146,0
363,-20.804969787597656,4.802486419677734,-1.1239440441131592,0.27824363112449646,0.2621355652809143,2.270289182662964,0
364,-19.09677505493164,6.70189094543457,-1.2300257682800293,0.2018529623746872,-0.13190841674804688,2.272371768951416,0
365,-13.793866157531738,7.876922130584717,-0.797027051448822,0.09858545660972595,-0.015123095363378525,2.223754405975342,0
366,-7.550822734832764,8.605853080749512,-0.8020842671394348,-0.02718496508896351,-0.6988824009895325,2.2521467208862305,0
367,-0.6657151579856873,4.491179943084717,-0.44155153632164,-0.14508716762065887,-0.8955861926078796,2.2476806640625,0
368,7.555131435394287,0.3568457067012787,-0.6990333199501038,-0.13708136975765228,-0.9604895114898682,2.248657703399658,0
369,13.276700019836426,-2.699479579925537,-1.0034849643707275,-0.1439552903175354,-0.7625399827957153,2.2351856231689453,0
370,16.296106338500977,-5.553295135498047,-1.138667345046997,-0.10360997170209885,-0.7503807544708252,2.228982448577881,0
371,15.690135955810547,-7.694283962249756,-1.5707577466964722,-0.1439887285232544,-0.4856385290622711,2.213165044784546,0
372,12.42276382446289,-5.78859281539917,-2.0376102924346924,-0.14815975725650787,-0.24314983189105988,2.1971359252929688,0
373,4.616941928863525,-5.148844242095947,-2.856524705886841,-0.09836308658123016,-0.06670766323804855,2.1786293983459473,0
374,-2.1485486030578613,-5.038816928863525,-3.217499017715454,0.016765279695391655,0.18612682819366455,2.1496236324310303,0
375,-9.355023384094238,-3.5511767864227295,-3.2067158222198486,0.11135131865739822,-0.226526141166687,2.1231133937835693,0
376,-13.214136123657227,-1.7003625631332397,-3.2741692066192627,0.17078155279159546,-0.17327605187892914,2.089570999145508,0
377,-12.368618965148926,0.05638309195637703,-3.310081958770752,0.33620989322662354,-0.12272359430789948,2.0584661960601807,0
378,-9.21367359161377,4.022059440612793,-3.7956645488739014,0.1955067664384842,-0.7951292991638184,2.033287286758423,0
379,-3.318389892578125,5.7132978439331055,-3.586290121078491,0.09329374879598618,-0.625876784324646,1.9893697500228882,0
380,5.648862361907959,4.867903232574463,-3.9775054454803467,-0.483194500207901,0.5290980935096741,1.9303157329559326,0
381,7.946829795837402,0.9563144445419312,-4.398602485656738,-0.6015353202819824,0.48391085863113403,1.889686107635498,0
382,1.8960360288619995,-5.746926784515381,-4.672598361968994,-0.5308079123497009,0.40629997849464417,1.8473639488220215,0
383,-8.305768966674805,-13.445838928222656,-4.375308990478516,-0.37115219235420227,0.2495471090078354,1.8021310567855835,0
384,-17.692447662353516,-18.752534866333008,-3.847343921661377,-0.2332044094800949,0.22220379114151,1.7593830823898315,0
385,-22.625484466552734,-21.59564971923828,-3.7058911323547363,0.12622132897377014,-0.2187185436487198,1.7219462394714355,0
386,-23.218969345092773,-18.75274085998535,-3.8626086711883545,0.37154674530029297,-0.4412821829319,1.6888989210128784,0
387,-17.56332778930664,-13.605018615722656,-3.4272384643554688,0.7107980251312256,-0.8574960231781006,1.657700538635254,0
388,-8.886448860168457,-2.834275484085083,-3.4521327018737793,0.9376709461212158,-0.9039283394813538,1.6249443292617798,0
389,2.6131606101989746,4.57865571975708,-2.9146106243133545,0.9971961379051208,-1.1482611894607544,1.5961800813674927,0
390,10.452481269836426,12.636404037475586,-2.335338830947876,0.9244831204414368,-0.9375481009483337,1.555336833000183,0
391,14.894720077514648,16.1699161529541,-1.8853838443756104,0.7343459129333496,-1.0881003141403198,1.5471935272216797,0
392,14.950873374938965,16.15970802307129,-2.344822645187378,0.48384928703308105,-0.8788747191429138,1.5229856967926025,0
393,12.03016471862793,9.42198657989502,-2.138599157333374,0.460191935300827,-0.6713685393333435,1.4863260984420776,0
394,6.044957160949707,2.2039194107055664,-1.8370074033737183,0.11810078471899033,-0.5135636925697327,1.4729468822479248,0
395,0.1289583146572113,-4.370324611663818,-2.274357318878174,0.23931071162223816,-0.717519223690033,1.4638638496398926,0
396,-2.6843714714050293,-11.969377517700195,-2.375709056854248,0.19489672780036926,-0.3186850845813751,1.4205553531646729,0
397,-3.9645986557006836,-14.079346656799316,-1.626028060913086,0.4007355272769928,-0.3373100459575653,1.3921434879302979,0
398,-6.020131587982178,-12.66958999633789,-0.8647633790969849,0.6359692811965942,-0.644557535648346,1.3908123970031738,0
399,-6.462348937988281,-3.614295482635498,-1.1281317472457886,0.8394707441329956,-0.8144333958625793,1.3892664909362793,0
400,-1.4290614128112793,0.6080994606018066,-0.387958288192749,1.4608383178710938,-0.8942781090736389,1.3587397336959839,0
401,4.936365127563477,11.86306095123291,0.7018019556999207,0.8406172394752502,-0.8402484655380249,1.3799296617507935,0
402,10.296761512756348,19.99250602722168,0.6806735992431641,0.9773887991905212,0.30124980211257935,1.249064564704895,0
403,9.486546516418457,24.504377365112305,2.0659916400909424,0.754489541053772,0.3470503091812134,1.2630482912063599,0
404,-1.2302311658859253,24.937267303466797,1.956849217414856,0.5300278067588806,0.30026403069496155,1.2993292808532715,0
405,-13.314404487609863,20.761533737182617,1.1234632730484009,0.16519440710544586,0.17257080972194672,1.3368923664093018,0
406,-22.13581085205078,12.450996398925781,1.0823462009429932,-0.11449797451496124,-0.12808763980865479,1.3696564435958862,0
407,-25.732257843017578,3.3873043060302734,1.0311057567596436,-0.3163282871246338,-0.40950319170951843,1.3859827518463135,0
408,-20.988842010498047,-5.985772609710693,0.694141149520874,0.23214048147201538,-0.7304527759552002,1.4055752754211426,0
409,-11.521263122558594,-9.252799987792969,0.5191250443458557,0.2558797597885132,-1.0406744480133057,1.4194923639297485,0
410,-0.04257802665233612,-3.9155232906341553,0.885356605052948,0.3174702227115631,-1.2510204315185547,1.4313966035842896,0
411,10.383637428283691,3.7382028102874756,0.9765443801879883,0.3714218735694885,-1.2707453966140747,1.440583348274231,0
412,16.634719848632812,16.114816665649414,1.84687340259552,0.17013704776763916,-1.0657591819763184,1.4515583515167236,0
413,19.084238052368164,32.56061553955078,1.8755241632461548,-0.07729139924049377,-1.1628410816192627,1.4840565919876099,0
414,16.514095306396484,47.03199768066406,1.6157619953155518,-0.574003279209137,-0.8687358498573303,1.506990909576416,0
415,10.790376663208008,55.694766998291016,0.5527055263519287,-0.9228112101554871,-0.7544417977333069,1.5113153457641602,0
416,3.9520256519317627,54.374229431152344,0.01814502477645874,-1.6267924308776855,-0.5936098694801331,1.5244038105010986,0
417,-1.959849238395691,46.253639221191406,-0.41075989603996277,-2.0292587280273438,-0.6773165464401245,1.5037453174591064,0
418,-5.549835681915283,32.724449157714844,-0.6379703879356384,-2.5788307189941406,-0.7060372829437256,1.4977328777313232,0
419,-4.5681328773498535,18.55526351928711,-0.6926681399345398,-2.8344500064849854,-0.78263920545578,1.47786283493042,0
420,-1.4262480735778809,6.664356708526611,-1.0668351650238037,-3.0111992359161377,-0.7731446027755737,1.4777835607528687,0
421,5.003498077392578,-1.8629777431488037,-0.9955764412879944,-2.869586706161499,-0.851340115070343,1.4397861957550049,0
422,11.730960845947266,-4.929255962371826,-1.7565667629241943,-2.8819704055786133,-0.7560976147651672,1.4470312595367432,0
423,14.790011405944824,-10.900100708007812,-1.7493727207183838,-2.887077569961548,-0.8424258828163147,1.38120436668396,0
424,16.349647521972656,-13.278017044067383,-1.2834516763687134,-2.725882053375244,-0.58378005027771,1.3997752666473389,0
425,15.623756408691406,-6.3175787925720215,-0.7319788336753845,-2.5425450801849365,-0.37796592712402344,1.3991154432296753,0
426,11.725326538085938,6.147464752197266,-0.8613498210906982,-2.4703259468078613,-0.12366130203008652,1.4257868528366089,0
427,6.254851818084717,19.6398983001709,-1.6176469326019287,-2.5272202491760254,-0.004709324333816767,1.4162019491195679,0
428,-0.5134338140487671,31.198318481445312,-2.0987749099731445,-2.5997002124786377,-0.2466050535440445,1.2756552696228027,0
429,-4.138000965118408,37.768638610839844,-0.8957188129425049,-3.0548276901245117,-0.22271665930747986,1.2670170068740845,0
430,-3.2474756240844727,38.19395446777344,-0.29427585005760193,-3.5129013061523438,-0.5190752744674683,1.1488747596740723,0
431,0.6393347382545471,31.481422424316406,0.43983036279678345,-3.8165595531463623,-0.5046714544296265,1.1618702411651611,0
432,8.535994529724121,19.769657135009766,0.4077928066253662,-4.284343719482422,-0.42598822712898254,1.2028473615646362,0
433,16.97798728942871,4.113410949707031,-0.12189653515815735,-4.496309757232666,-0.4453405737876892,1.1627941131591797,0
434,22.89202308654785,-8.264490127563477,-0.6375725269317627,-4.52274227142334,-0.11554299294948578,1.2565741539001465,0
435,26.40718650817871,-17.514802932739258,-0.9270706176757812,-4.349298000335693,0.09124059975147247,1.245727777481079,0
436,24.805267333984375,-22.452701568603516,0.3401396572589874,-4.164793491363525,0.5536504983901978,1.3541277647018433,0
437,19.848752975463867,-24.45050621032715,0.509410560131073,-3.8439669609069824,0.43122947216033936,1.127532958984375,0
438,10.821932792663574,-26.294395446777344,1.7190479040145874,-3.4875054359436035,0.6557696461677551,1.1376945972442627,0
439,1.9680737257003784,-20.162309646606445,1.328118920326233,-3.268019199371338,0.7383773326873779,1.120177149772644,0
440,-3.959550142288208,-7.5944061279296875,1.795626163482666,-3.007749319076538,0.82631915807724,1.1643915176391602,0
441,-6.6080546379089355,5.119703769683838,1.7870666980743408,-3.052433490753174,0.8189113736152649,1.1818678379058838,0
442,-4.815959930419922,11.312922477722168,1.5652410984039307,-3.0062475204467773,0.7701174020767212,1.2100446224212646,0
443,-1.6161901950836182,12.377016067504883,1.8766248226165771,-3.133570909500122,0.6688141226768494,1.1972095966339111,0
444,1.8396861553192139,11.616605758666992,1.3247087001800537,-3.2199647426605225,0.6845254898071289,1.2443819046020508,0
445,5.404623508453369,8.83181095123291,0.965273380279541,-3.4255731105804443,0.6851992011070251,1.2489404678344727,0
446,8.97535228729248,3.0595970153808594,0.7385838031768799,-3.3637750148773193,0.8123317956924438,1.3245254755020142,0
447,10.766889572143555,-3.1810688972473145,0.44315996766090393,-3.0799577236175537,0.853714108467102,1.3530868291854858,0
448,9.750382423400879,-9.490391731262207,0.3479725420475006,-3.1834895610809326,1.2577219009399414,1.503303050994873,0
449,7.082241535186768,-12.16751766204834,-0.6046344041824341,-3.137284278869629,1.3516759872436523,1.4985756874084473,0
450,1.7198235988616943,-11.343799591064453,-0.928045392036438,-2.8483197689056396,1.4664974212646484,1.5409176349639893,0
451,-4.081693172454834,-12.5905122756958,-1.6700446605682373,-2.084144353866577,1.5004138946533203,1.6398427486419678,0
452,-9.320480346679688,-16.832834243774414,-3.0281333923339844,-1.041619062423706,2.84914493560791,2.44041109085083,0
453,-16.113943099975586,-12.524650573730469,-6.037622451782227,-1.064811110496521,2.730724334716797,2.3524067401885986,0
454,-28.22286033630371,-6.564162254333496,-5.092871189117432,-0.9816089272499084,2.3607513904571533,2.1900792121887207,0
455,-41.22062301635742,9.558721542358398,-3.968423843383789,-1.074411153793335,2.014307737350464,2.049792766571045,0
456,-51.33959197998047,28.765413284301758,-2.9927213191986084,-1.280717372894287,1.3307056427001953,1.8708288669586182,0
457,-53.774654388427734,41.39181900024414,-1.179539680480957,-1.7601652145385742,0.7155028581619263,1.7392898797988892,0
458,-49.02885437011719,49.162376403808594,0.25215765833854675,-2.4334633350372314,0.40786874294281006,1.7179583311080933,0
459,-38.74919891357422,48.357791900634766,0.23402701318264008,-3.0013327598571777,-0.31207552552223206,1.632523536682129,0
460,-24.995220184326172,37.80537033081055,0.38705718517303467,-3.6637208461761475,-0.7117177844047546,1.5966447591781616,0
461,-10.48280143737793,18.994667053222656,-0.6145219802856445,-4.128181457519531,-1.0327872037887573,1.5689448118209839,0
462,2.3051037788391113,-1.5817289352416992,-1.4809383153915405,-4.361798286437988,-1.122802734375,1.5749567747116089,0
463,10.584737777709961,-23.886547088623047,-2.8021202087402344,-4.272617340087891,-1.1551982164382935,1.5660659074783325,0
464,12.332358360290527,-43.03285598754883,-2.801548719406128,-4.024379730224609,-1.056549310684204,1.5569502115249634,0
465,11.53099536895752,-57.68639373779297,-2.2466845512390137,-3.534221887588501,-0.8518750667572021,1.581618309020996,0
466,4.025979518890381,-56.1499137878418,-1.8352785110473633,-3.2560791969299316,-0.8735418319702148,1.4842441082000732,0
467,-5.115996837615967,-45.3498420715332,-1.2335259914398193,-2.631103515625,-0.8560675382614136,1.462013602256775,0
468,-12.390227317810059,-33.26607894897461,-1.92230224609375,-2.4981672763824463,-0.9723907113075256,1.4045706987380981,0
469,-17.64656639099121,-15.383649826049805,-2.972829580307007,-2.0027084350585938,-1.1368571519851685,1.3757587671279907,0
470,-17.43269157409668,4.274400234222412,-2.653470754623413,-1.8762577772140503,-1.305153489112854,1.3493868112564087,0
471,-13.855975151062012,17.066818237304688,-1.8302714824676514,-1.8321142196655273,-1.6084939241409302,1.281031847000122,0
472,-6.487727165222168,19.03656005859375,-1.2935638427734375,-2.0585434436798096,-1.7022061347961426,1.2754783630371094,0
473,0.3120611310005188,8.307413101196289,-1.6275817155838013,-2.44929838180542,-1.828758716583252,1.2498060464859009,0
474,7.491680145263672,-11.856734275817871,-1.6811805963516235,-2.1754798889160156,-1.9115474224090576,1.187739372253418,0
475,13.125711441040039,-32.645973205566406,-1.1090199947357178,-2.9973886013031006,-1.731859803199768,1.279997706413269,0
476,15.438648223876953,-45.604942321777344,-1.2292609214782715,-2.729193687438965,-1.6071486473083496,1.278693675994873,0
477,16.313615798950195,-53.47032928466797,-0.9886722564697266,-1.8864264488220215,-1.5739965438842773,1.1988296508789062,0
478,15.031768798828125,-51.7650032043457,0.05956672504544258,-1.779020071029663,-1.4440630674362183,1.2448760271072388,0
479,11.67266845703125,-41.48312759399414,-0.1344018578529358,-0.8978775143623352,-1.2636839151382446,1.2130849361419678,0
480,8.62999153137207,-32.60471725463867,-0.22701825201511383,-0.6930780410766602,-1.2764925956726074,1.2294012308120728,0
481,3.6337368488311768,-30.079345703125,-0.3937300443649292,-0.25897666811943054,-1.1986820697784424,1.2191848754882812,0
482,1.6850589513778687,-26.826305389404297,-0.8745571374893188,0.1887383908033371,-1.3963438272476196,1.1690946817398071,0
483,2.6746437549591064,-18.14857292175293,-0.9686567783355713,0.2059093862771988,-1.1270521879196167,1.229391098022461,0
484,5.694499492645264,-6.641809940338135,-1.558990240097046,0.31873199343681335,-1.129885196685791,1.2362933158874512,0
485,8.368372917175293,-1.984161376953125,-1.9848583936691284,0.6257203221321106,-1.0843883752822876,1.1904897689819336,0
486,9.670618057250977,-8.390474319458008,-2.027341604232788,0.7832080721855164,-1.13588285446167,1.1541913747787476,0
487,12.487316131591797,-15.559136390686035,-2.2141504287719727,0.7350514531135559,-0.9428198337554932,1.149678111076355,0
488,13.967662811279297,-16.34680938720703,-2.4444174766540527,0.719022810459137,-0.9971215724945068,1.169619083404541,0
489,14.530752182006836,-14.289251327514648,-2.961533784866333,0.87040114402771,-0.7352589964866638,1.1345525979995728,0
490,13.806001663208008,-11.08508586883545,-2.8648605346679688,1.0620821714401245,-0.6067804098129272,1.1008617877960205,0
491,12.939526557922363,-9.239619255065918,-2.288560152053833,1.2117329835891724,-0.34062355756759644,1.0461580753326416,0
492,10.621179580688477,-8.590292930603027,-1.9790023565292358,1.1860215663909912,-0.24389947950839996,1.0490961074829102,0
493,6.875893592834473,-15.837974548339844,-2.243168354034424,1.3800585269927979,-0.11379046738147736,1.0129361152648926,0
494,4.503749370574951,-23.027664184570312,-1.9947404861450195,1.804323673248291,-0.11117659509181976,0.9791322350502014,0
495,1.9370518922805786,-23.918901443481445,-1.811585545539856,2.159334182739258,-0.1483602523803711,0.9699987769126892,0
496,2.445242166519165,-22.43575096130371,-1.8796072006225586,2.323636531829834,-0.0721905529499054,0.9409307837486267,0
497,4.162785053253174,-13.225140571594238,-1.5802267789840698,2.3088059425354004,-0.13436108827590942,0.9724626541137695,0
498,6.49318265914917,3.4208927154541016,-1.980883240699768,2.375124216079712,-0.08798587322235107,0.9591932892799377,0
499,10.169286727905273,14.591626167297363,-1.6505616903305054,2.491427421569824,-4.95218118885532e-05,0.9207372069358826,0
500,12.184165954589844,22.303686141967773,-1.8972597122192383,2.4131393432617188,0.2129071056842804,0.8512333631515503,0
501,10.862399101257324,27.266788482666016,-1.8331027030944824,2.1218061447143555,0.22648417949676514,0.8889927268028259,0
502,9.431657791137695,27.797468185424805,-2.762082099914551,1.8183211088180542,0.3698403835296631,0.8575709462165833,0
503,7.560122013092041,26.352558135986328,-2.648092031478882,1.5103271007537842,0.41950809955596924,0.8570755124092102,0
504,5.016868591308594,14.90158748626709,-3.9131579399108887,1.327241063117981,0.5839732885360718,0.7887058854103088,0
505,3.349787950515747,6.356528282165527,-3.483560085296631,1.218101978302002,0.8428025841712952,0.6525741219520569,0
506,1.3562711477279663,-4.713311672210693,-2.1280040740966797,2.349189281463623,1.5496938228607178,0.30892667174339294,0
507,-3.813265562057495,-11.205106735229492,0.2609882354736328,2.103008270263672,1.3920729160308838,0.36545348167419434,0
508,-9.29715633392334,-11.26990795135498,-0.09213957190513611,2.3193931579589844,1.372631549835205,0.3638133108615875,0
509,-14.79273509979248,-7.438512325286865,0.07500715553760529,2.53012752532959,1.5440218448638916,0.23514346778392792,0
510,-20.01921272277832,0.6529480814933777,0.8959806561470032,2.4051244258880615,1.0429346561431885,0.4117576777935028,0
511,-23.246994018554688,17.90374183654785,-0.5434332489967346,2.4249801635742188,0.6947880983352661,0.5077173113822937,0
512,-20.996400833129883,36.001564025878906,-1.6232144832611084,2.1669058799743652,0.3100898563861847,0.5791558027267456,0
513,-14.062495231628418,50.515785217285156,-1.892148733139038,1.616614818572998,-0.019785411655902863,0.5989475250244141,0
514,-4.845675468444824,57.08094787597656,-1.4587255716323853,0.7828903794288635,-0.36823970079421997,0.6411282420158386,0
515,5.702388286590576,53.46531677246094,-1.4591888189315796,-0.053315240889787674,-0.41343092918395996,0.5770575404167175,0
516,15.416792869567871,39.144813537597656,-1.483589768409729,-0.5926975011825562,-0.15328288078308105,0.448887437582016,0
517,19.759103775024414,19.056455612182617,-1.2827508449554443,-1.1096818447113037,-0.17717941105365753,0.4958325922489166,0
518,19.496952056884766,-1.064427375793457,-1.567710518836975,-1.295093059539795,0.5034538507461548,0.285222589969635,0
519,14.236446380615234,-22.291643142700195,-1.0576906204223633,-1.4336724281311035,0.17525261640548706,0.45401647686958313,0
520,6.909264087677002,-42.44924545288086,-2.437434434890747,-1.0836971998214722,0.4192527234554291,0.42817825078964233,0
521,0.24474462866783142,-57.03825759887695,-2.959014654159546,-0.4329714775085449,0.7494895458221436,0.35295847058296204,0
522,-5.68932580947876,-60.11396408081055,-2.694272518157959,0.9763854146003723,1.0906541347503662,0.30453798174858093,0
523,-12.659667015075684,-48.92103958129883,-1.4274230003356934,2.158794403076172,0.687060534954071,0.437303751707077,0
524,-18.48798370361328,-23.61134147644043,-2.294419050216675,2.9095802307128906,0.47927460074424744,0.4737555980682373,0
525,-19.970211029052734,12.784835815429688,-2.6952223777770996,3.2197682857513428,1.2367583513259888,0.12081459164619446,0
526,-21.076486587524414,55.05568313598633,-1.1483242511749268,2.9268338680267334,0.8513972163200378,0.13720668852329254,0
527,-23.334047317504883,91.23262023925781,-0.41483980417251587,2.0448219776153564,0.735763669013977,0.0386258065700531,0
528,-24.581912994384766,108.60615539550781,-0.07864385098218918,0.9188408851623535,0.3691613972187042,0.06180540472269058,0
529,-23.068086624145508,105.82543182373047,-0.41537249088287354,-0.17230063676834106,-0.07857988029718399,0.1383460909128189,0
530,-19.8433895111084,84.15467834472656,-1.355482578277588,-1.5442572832107544,-0.4244935214519501,0.12618260085582733,0
531,-12.832060813903809,51.92854309082031,-1.807257890701294,-2.626339912414551,-0.7017657160758972,0.10330116748809814,0
532,-3.4094431400299072,17.430442810058594,-2.5457334518432617,-3.119316816329956,-0.9343407154083252,0.10997296869754791,0
533,5.458348751068115,-20.352279663085938,-2.089113473892212,-3.367377996444702,-1.0050734281539917,0.08353536576032639,0
534,14.645431518554688,-54.45115661621094,-1.8697926998138428,-3.267287254333496,-0.9174162149429321,0.05628957226872444,0
535,18.03428077697754,-67.20873260498047,-0.007317346520721912,-2.4691879749298096,-0.8363180160522461,0.06159110739827156,0
536,18.917938232421875,-63.119991302490234,1.0415178537368774,-1.7529841661453247,-0.8207314610481262,0.07252742350101471,0
537,17.092201232910156,-43.81528091430664,1.0692614316940308,-1.5308303833007812,-0.576459527015686,0.07757139205932617,0
538,10.995769500732422,-15.698263168334961,0.761073887348175,-1.1213551759719849,-0.4514158368110657,0.08953311294317245,0
539,3.2732605934143066,15.08085823059082,-0.039586033672094345,-0.8994962573051453,-0.3552188575267792,0.09802810847759247,0
540,-3.545847177505493,37.07613754272461,-0.8312864899635315,-1.2120786905288696,-0.44387274980545044,0.09395182132720947,0
541,-7.000315189361572,46.67756652832031,-0.2433362603187561,-1.761938452720642,-0.5518960952758789,0.08150039613246918,0
542,-6.638034343719482,34.1484260559082,-0.6263489127159119,-2.3414251804351807,-0.6396377086639404,0.06965406984090805,0
543,-2.0598301887512207,6.363569259643555,-0.760138213634491,-2.7336535453796387,-0.7135629653930664,0.057916346937417984,0
544,4.46157169342041,-23.59033966064453,-1.7021064758300781,-2.566058874130249,-0.7133297920227051,0.04559844732284546,0
545,12.392237663269043,-44.498695373535156,-2.0062007904052734,-2.63993501663208,-0.7445712089538574,0.029074572026729584,0
546,19.403718948364258,-56.461578369140625,-1.5468083620071411,-2.2274835109710693,-0.5753298401832581,0.024254847317934036,0
547,22.8633975982666,-63.89274215698242,-0.7342522144317627,-1.74873948097229,-0.5121619701385498,-0.007988590747117996,0
548,23.836217880249023,-57.60451889038086,0.4596584439277649,-1.1095041036605835,-0.383057177066803,-0.03257117420434952,0
549,22.00473976135254,-40.055850982666016,0.30349084734916687,-0.3808291256427765,-0.027062490582466125,-0.01399325579404831,0
550,16.206260681152344,-16.377172470092773,0.3323390781879425,-0.23595629632472992,-0.13915333151817322,-0.05418839305639267,0
551,10.12704086303711,-6.355031490325928,0.30573973059654236,0.04322095960378647,0.1780187040567398,-0.02984474040567875,0
552,5.553647518157959,-2.3281798362731934,0.5029729008674622,0.16997642815113068,0.2559167146682739,-0.03373616188764572,0
553,3.6411502361297607,3.1894569396972656,0.5802634954452515,0.3599853515625,0.4075057804584503,-0.023890575394034386,0
554,3.5741541385650635,5.849453449249268,0.3130653500556946,-0.17035958170890808,0.23778808116912842,-0.030208397656679153,0
555,3.9769163131713867,6.577967166900635,0.5566397309303284,-0.09440497308969498,0.28700482845306396,-0.027208561077713966,0
556,6.563161373138428,2.0620970726013184,0.805256724357605,-0.24785803258419037,0.20583388209342957,-0.03186988830566406,0
557,10.324069023132324,-3.838404893875122,0.9471291899681091,-0.19103822112083435,0.31081125140190125,-0.020881155505776405,0
558,12.594447135925293,-9.370123863220215,0.9967622756958008,-0.18558333814144135,0.4704144597053528,-0.00873127207159996,0
559,16.752029418945312,-15.946409225463867,1.4113762378692627,-0.015206643380224705,0.6065726280212402,0.002532725688070059,0
560,17.331636428833008,-26.918127059936523,1.2949934005737305,-0.21227043867111206,0.5827001929283142,-0.00016275513917207718,0
561,16.491161346435547,-39.6712760925293,1.2525690793991089,0.14690156280994415,0.9344838261604309,0.01921514794230461,0
562,14.744086265563965,-47.473262786865234,1.5930753946304321,0.34625983238220215,0.9781649112701416,0.015166078694164753,0
563,11.439087867736816,-43.995330810546875,1.96196448802948,0.9471975564956665,1.1315876245498657,0.02825314551591873,0
564,7.445797920227051,-33.38343048095703,1.90385901927948,1.1349610090255737,1.368024468421936,0.016820760443806648,0
565,3.898082733154297,-17.487396240234375,1.9564523696899414,1.7068679332733154,1.1858025789260864,0.056339330971241,0
566,0.9523996114730835,-0.21563073992729187,1.2929905652999878,1.933135986328125,1.4486747980117798,0.05661170557141304,0
567,0.7557664513587952,19.865772247314453,1.6250370740890503,2.100362539291382,1.4549708366394043,0.0859605148434639,0
568,-0.6377670168876648,23.000587463378906,0.5355979800224304,1.8626675605773926,1.376084804534912,0.10425537824630737,0
569,-1.182183027267456,23.388687133789062,0.6508866548538208,1.6577939987182617,1.4201470613479614,0.1089821383357048,0
570,0.60606449842453,9.876190185546875,0.509521484375,1.3122317790985107,1.454601764678955,0.09729605168104172,0
571,1.4586588144302368,-4.780958652496338,0.07009857892990112,1.0946022272109985,1.500909686088562,0.08690398931503296,0
572,3.00447154045105,-15.103619575500488,0.03484304994344711,0.905974268913269,1.354986548423767,0.08718638867139816,0
573,3.357731819152832,-18.948713302612305,-0.520531415939331,1.2509335279464722,1.2467912435531616,0.1501311957836151,0
574,5.20505428314209,-20.848670959472656,-0.3585605025291443,1.6036403179168701,1.4464441537857056,0.13882774114608765,0
575,6.972867488861084,-17.532733917236328,-0.36416107416152954,1.9031821489334106,1.5224195718765259,0.13898655772209167,0
576,6.990161895751953,-7.019404411315918,0.0739935040473938,1.9092806577682495,1.6142299175262451,0.08848153054714203,0
577,5.30507755279541,4.57979679107666,0.20265574753284454,1.8912566900253296,1.6984305381774902,0.05895158648490906,0
578,1.0346308946609497,14.704527854919434,-0.24053703248500824,1.8936519622802734,1.7417118549346924,0.07148674875497818,0
579,-3.4027163982391357,22.98621368408203,-0.5070131421089172,1.8110774755477905,1.7206792831420898,0.0979941114783287,0
580,-7.474196910858154,16.528047561645508,-0.6639873385429382,1.6460684537887573,1.702968716621399,0.10941324383020401,0
581,-9.5753173828125,3.135944366455078,-0.7082223296165466,1.491026759147644,1.6198252439498901,0.11903034150600433,0
582,-9.921285629272461,-14.645170211791992,-0.6495482325553894,1.5402518510818481,1.5691320896148682,0.12816347181797028,0
583,-6.513244152069092,-31.29125213623047,-1.4602760076522827,1.3678139448165894,1.3770074844360352,0.08284814655780792,0
584,-2.406794786453247,-40.01882553100586,-1.1489938497543335,1.8891838788986206,1.3093023300170898,0.12021708488464355,0
585,2.1204447746276855,-34.341922760009766,-0.9758068323135376,2.1559038162231445,1.310814619064331,0.06111937016248703,0
586,4.670168876647949,-18.96162986755371,-0.7542257905006409,2.7627828121185303,1.3738073110580444,0.08316383510828018,0
587,4.440319538116455,2.2380571365356445,-0.7422654032707214,2.545441150665283,1.4051746129989624,-0.02559136226773262,0
588,1.6840476989746094,23.24771499633789,-0.1342349648475647,2.654575824737549,1.4997831583023071,-0.0322134867310524,0
589,-2.7389936447143555,36.50998306274414,-0.3041587471961975,2.4973573684692383,1.4719345569610596,-0.0038931730668991804,0
590,-5.958456039428711,40.984004974365234,-0.8071147799491882,2.1174612045288086,1.449946403503418,-0.005826686508953571,0
591,-8.392927169799805,35.28828811645508,-1.3195923566818237,1.5925184488296509,1.374440312385559,-0.02099829912185669,0
592,-8.292084693908691,16.164182662963867,-1.590976595878601,1.3149052858352661,1.2612239122390747,0.011137611232697964,0
593,-8.20116901397705,-8.068084716796875,-1.3000820875167847,1.1880143880844116,1.3510921001434326,-0.04309169575572014,0
594,-6.790117263793945,-30.33794593811035,-0.7770286202430725,1.4498897790908813,1.152607798576355,0.037682387977838516,0
595,-4.554646015167236,-37.50161361694336,-1.1503695249557495,1.604888916015625,1.0609092712402344,0.007349435705691576,0
596,-0.5300922989845276,-30.857643127441406,-1.1318830251693726,2.2987802028656006,1.0090956687927246,0.06155485659837723,0
597,-0.4660848081111908,-13.966374397277832,-1.640639305114746,2.2454726696014404,1.0143699645996094,-0.0377393439412117,0
598,1.0722757577896118,-3.4956586360931396,-1.0262075662612915,2.481001138687134,1.0314044952392578,-0.05105523765087128,0
599,1.232661247253418,2.5709691047668457,-0.822365403175354,2.5419931411743164,1.0633888244628906,-0.07299631088972092,0
600,-0.286907434463501,14.792102813720703,0.1271776556968689,2.5988030433654785,1.0850025415420532,-0.07417967170476913,0
601,-3.818289279937744,21.314306259155273,-0.9086945652961731,2.448188066482544,1.0702341794967651,-0.07738859206438065,0
602,-8.86017894744873,20.986026763916016,-1.4435168504714966,2.246379852294922,1.2784597873687744,-0.17702345550060272,0
603,-12.631253242492676,13.625284194946289,-1.4964991807937622,2.0571024417877197,1.1144276857376099,-0.14861270785331726,0
604,-14.408095359802246,1.409359335899353,-1.722692847251892,1.922581434249878,0.8979344964027405,-0.11948850005865097,0
605,-13.151538848876953,-9.376463890075684,-1.9803142547607422,1.9151320457458496,0.7301149368286133,-0.11928652226924896,0
606,-10.997400283813477,-7.201774597167969,-2.3050222396850586,2.059044599533081,0.5131176710128784,-0.0980241447687149,0
607,-7.700470447540283,2.7104790210723877,-2.836127758026123,2.181802749633789,0.3432334363460541,-0.09226544201374054,0
608,-2.981142520904541,17.482641220092773,-2.811957597732544,2.1581380367279053,0.23401544988155365,-0.1108950823545456,0
609,1.1509666442871094,28.901212692260742,-2.341317892074585,2.0506482124328613,0.33669009804725647,-0.18954592943191528,0
610,4.290646553039551,36.10758972167969,-1.9538990259170532,1.5857280492782593,0.34859010577201843,-0.23882189393043518,0
611,3.905296802520752,37.20802688598633,-2.6662867069244385,1.2576407194137573,0.32545679807662964,-0.2357027381658554,0
612,2.8484930992126465,27.327821731567383,-3.022279977798462,0.6911182999610901,0.3733867108821869,-0.27753376960754395,0
613,0.047978468239307404,9.718134880065918,-3.7417945861816406,0.42966318130493164,0.39454230666160583,-0.2993106245994568,0
614,-0.5297098755836487,-6.022705554962158,-3.153740406036377,0.23763737082481384,0.382137656211853,-0.3319872319698334,0
615,-3.293381929397583,-14.13517951965332,-2.7222695350646973,0.45376214385032654,0.3533817231655121,-0.3491002023220062,0
616,-4.9639201164245605,-19.48738670349121,-2.778762102127075,0.658062756061554,0.2964496314525604,-0.3671460449695587,0
617,-5.679536819458008,-5.141047954559326,-2.2832529544830322,0.8190206289291382,0.2884712815284729,-0.4038023352622986,0
618,-5.4115729331970215,9.84006404876709,-2.4019241333007812,0.808756411075592,0.33775565028190613,-0.4514198899269104,0
619,-6.778292179107666,26.864667892456055,-2.8863182067871094,0.7852200865745544,0.2395068109035492,-0.46407070755958557,0
620,-6.079356670379639,35.83082962036133,-2.565244436264038,0.446183443069458,0.13858865201473236,-0.48521149158477783,0
621,-4.444896697998047,33.80233383178711,-2.2510576248168945,-0.006094074808061123,0.12080632150173187,-0.5177205204963684,0
622,-2.736884355545044,27.135238647460938,-2.5727338790893555,-0.2963341772556305,0.4051920473575592,-0.5805774927139282,0
623,-2.0721590518951416,15.392691612243652,-2.144141674041748,-0.4799775779247284,0.33936795592308044,-0.5981923341751099,0
624,-3.0829503536224365,3.176168203353882,-2.5275022983551025,-0.5646719336509705,0.2809029519557953,-0.616767942905426,0
625,-5.358741760253906,-1.5341092348098755,-2.7371156215667725,-0.5670022368431091,0.4895455241203308,-0.6515458226203918,0
626,-7.55483341217041,-14.054506301879883,-2.994598865509033,-0.6034513711929321,0.36924803256988525,-0.678200900554657,0
627,-10.65787124633789,-22.202869415283203,-2.2283241748809814,-0.43523332476615906,0.21305222809314728,-0.7081283926963806,0
628,-13.130768775939941,-19.943260192871094,-2.2691478729248047,-0.1563306450843811,0.013062212616205215,-0.7352527976036072,0
629,-12.814087867736816,-8.756185531616211,-2.049814224243164,0.14197251200675964,-0.220932275056839,-0.7620559334754944,0
630,-9.904570579528809,6.640117645263672,-1.9202816486358643,0.1835593283176422,-0.37942928075790405,-0.7821192741394043,0
631,-7.73904275894165,25.202957153320312,-1.9163818359375,0.11369924247264862,-0.5006494522094727,-0.8026289939880371,0
632,-1.9313141107559204,34.97906494140625,-1.6755847930908203,-0.15802741050720215,-0.6353312730789185,-0.8254886865615845,0
633,2.420560121536255,40.94337844848633,-1.7715951204299927,-0.6631651520729065,-0.4709501564502716,-0.8224278092384338,0
634,5.995039939880371,35.917144775390625,-1.8920421600341797,-1.0212334394454956,-0.6618968844413757,-0.8648298382759094,0
635,9.655876159667969,14.225457191467285,-2.2403745651245117,-1.4197032451629639,-0.5678659081459045,-0.8819464445114136,0
636,10.270674705505371,-4.086203098297119,-1.5300006866455078,-1.559970498085022,-0.42525172233581543,-0.9030683636665344,0
637,10.476871490478516,-21.862102508544922,-1.322750449180603,-1.390977382659912,-0.2650562822818756,-0.9304267764091492,0
638,7.685475826263428,-35.866024017333984,-0.8645721673965454,-1.2307560443878174,-0.1841069757938385,-0.9463991522789001,0
639,2.6672451496124268,-35.72711181640625,-1.024991750717163,-0.5817999243736267,0.06219058483839035,-0.9603487849235535,0
640,-4.007943153381348,-26.672748565673828,-1.2429978847503662,-0.40290918946266174,-0.0008388866554014385,-0.969161868095398,0
641,-11.146381378173828,2.39377760887146,-1.3370357751846313,0.10079828649759293,-0.09624458849430084,-1.0180070400238037,0
642,-13.462373733520508,25.34429931640625,-1.0352180004119873,-0.2799628973007202,-0.14390036463737488,-0.9695454835891724,0
643,-11.438129425048828,36.996986389160156,-0.7908022403717041,-0.558746874332428,-0.2986985146999359,-0.9731372594833374,0
644,-7.663372039794922,38.7186164855957,-0.9909642934799194,-0.7604606747627258,-0.4311014711856842,-1.0027775764465332,0
645,-3.0368781089782715,33.42888259887695,-0.9792038202285767,-1.3105878829956055,-0.5095983743667603,-0.9958142042160034,0
646,2.015446901321411,23.154775619506836,-1.383479118347168,-1.701316237449646,-0.5815430283546448,-1.010451078414917,0
647,5.796955108642578,8.161710739135742,-1.7818742990493774,-1.9772965908050537,-0.566531240940094,-1.0233474969863892,0
648,8.328725814819336,-7.352514266967773,-1.745820164680481,-2.0163285732269287,-0.4199925661087036,-1.0260690450668335,0
649,8.685831069946289,-21.58726692199707,-1.9383180141448975,-1.8191776275634766,-0.3130536377429962,-1.0575515031814575,0
650,6.105954170227051,-33.130699157714844,-0.9593545198440552,-1.7412676811218262,-0.27152323722839355,-1.0733691453933716,0
651,1.2917460203170776,-33.090763092041016,-0.16501639783382416,-1.1285967826843262,-0.2644188404083252,-1.1473804712295532,0
652,-2.875779151916504,-23.579496383666992,-0.10082828998565674,-0.883779764175415,-0.24981679022312164,-1.1412802934646606,0
653,-6.063944339752197,-6.235043525695801,-0.22183021903038025,-0.4371253550052643,-0.3032242953777313,-1.177972435951233,0
654,-7.827076435089111,11.763413429260254,-0.7337548732757568,-0.41107290983200073,-0.4047314524650574,-1.183122158050537,0
655,-5.850688934326172,27.613525390625,-0.6906518340110779,-0.4646419882774353,-0.4516282081604004,-1.184356689453125,0
656,-2.4065494537353516,35.10271453857422,-0.2804928719997406,-0.9076281189918518,-0.4050472676753998,-1.1327003240585327,0
657,-0.045134879648685455,34.63419723510742,-1.2201637029647827,-1.2561265230178833,-0.5262896418571472,-1.1661384105682373,0
658,1.6991721391677856,26.676185607910156,-1.4956445693969727,-1.730984091758728,-0.527018666267395,-1.1646403074264526,0
659,4.996914386749268,11.252517700195312,-2.7881572246551514,-1.8506838083267212,-0.4234113097190857,-1.1853420734405518,0
660,7.195751190185547,-10.363910675048828,-2.3924059867858887,-1.9915404319763184,-0.3502845764160156,-1.2069807052612305,0
661,6.768729209899902,-25.82651710510254,-2.4833967685699463,-1.9554309844970703,-0.3914496600627899,-1.2684710025787354,0
662,5.40186071395874,-40.70925521850586,-1.9295600652694702,-1.439497709274292,-0.36139702796936035,-1.350592017173767,0
663,2.39005708694458,-43.409175872802734,-1.5120702981948853,-1.4393559694290161,-0.21557076275348663,-1.2831652164459229,0
664,1.037880778312683,-43.768829345703125,-2.1062164306640625,-0.788902997970581,-0.18989822268486023,-1.3308321237564087,0
665,-1.2879801988601685,-31.461576461791992,-1.4671779870986938,-0.33393579721450806,-0.2007935345172882,-1.3587416410446167,0
666,-4.702061653137207,-6.600639343261719,-2.220463752746582,0.18243786692619324,-0.24518544971942902,-1.4096722602844238,0
667,-2.5851023197174072,9.742804527282715,-2.1121628284454346,0.32855528593063354,-0.25279170274734497,-1.4245526790618896,0
668,-1.8844540119171143,32.95998764038086,-3.010979413986206,-0.13275451958179474,-0.389945924282074,-1.4213149547576904,0
669,-0.3234672546386719,46.907955169677734,-2.6489415168762207,-0.3848525583744049,-0.4235788881778717,-1.455505132675171,0
670,3.775552272796631,45.06159210205078,-2.920375108718872,-1.0187888145446777,-0.3512668311595917,-1.4415583610534668,0
671,8.082235336303711,35.26148223876953,-3.2698936462402344,-1.6151363849639893,-0.2878738045692444,-1.4448959827423096,0
672,11.646499633789062,7.369046688079834,-3.784438371658325,-2.000142812728882,-0.15939585864543915,-1.4610284566879272,0
673,12.031254768371582,-18.8015079498291,-3.69124174118042,-1.9694864749908447,0.015687517821788788,-1.501218557357788,0
674,10.197221755981445,-40.736331939697266,-2.487332582473755,-1.5250272750854492,0.05045875161886215,-1.6007879972457886,0
675,4.7659687995910645,-46.079368591308594,-1.0372610092163086,-0.931021511554718,0.19259507954120636,-1.6444274187088013,0
676,-1.0012414455413818,-38.458595275878906,-0.2505757808685303,-0.6780441999435425,0.25265374779701233,-1.6370038986206055,0
677,-6.22275972366333,-21.696617126464844,-0.5250693559646606,-0.32428184151649475,0.14977791905403137,-1.664367437362671,0
678,-9.746567726135254,-1.3384335041046143,-0.5770524740219116,0.10415519773960114,0.10450072586536407,-1.6839113235473633,0
679,-9.78555679321289,18.084014892578125,-0.7995752096176147,0.11513187736272812,-0.06032596901059151,-1.7009034156799316,0
680,-6.953238487243652,33.029422760009766,-0.79282146692276,-0.1811014711856842,-0.14436927437782288,-1.692492127418518,0
681,-2.0001773834228516,38.481834411621094,-1.0144482851028442,-0.5485315918922424,-0.17716750502586365,-1.686755657196045,0
682,3.210818290710449,28.214298248291016,-1.3510767221450806,-1.038291096687317,-0.2088945209980011,-1.6894415616989136,0
683,8.870892524719238,8.591198921203613,-1.936447262763977,-1.3443061113357544,-0.14723798632621765,-1.6963863372802734,0
684,12.684637069702148,-7.770541191101074,-1.8573079109191895,-1.3507362604141235,0.0006225951947271824,-1.709906816482544,0
685,12.223566055297852,-24.205400466918945,-1.60784912109375,-1.3073676824569702,0.049028582870960236,-1.743483066558838,0
686,8.285835266113281,-24.925823211669922,-1.1634290218353271,-1.2571532726287842,0.16583117842674255,-1.7502245903015137,0
687,3.256720781326294,-24.206445693969727,-0.8533987402915955,-1.0000759363174438,0.2977949380874634,-1.7553493976593018,0
688,-2.9586198329925537,-15.388616561889648,-1.8855204582214355,-0.5550995469093323,0.34076693654060364,-1.7781825065612793,0
689,-6.571174144744873,-13.20378589630127,-1.2870272397994995,-0.2427491843700409,0.29076069593429565,-1.8077174425125122,0
690,-8.26011848449707,-10.723999977111816,-1.287927508354187,0.05820534750819206,0.1800273209810257,-1.8391766548156738,0
691,-7.336947441101074,-5.399073600769043,-0.564332902431488,-0.4171200692653656,0.18714754283428192,-1.8183413743972778,0
692,-5.520593166351318,-8.837787628173828,-0.9564995169639587,-0.21030490100383759,0.059160199016332626,-1.8377954959869385,0
693,-1.7835124731063843,-15.230141639709473,-0.6076879501342773,-0.23467111587524414,0.03977268934249878,-1.8389689922332764,0
694,1.1447821855545044,-15.534987449645996,-0.1715596318244934,0.044915203005075455,0.07167462259531021,-1.8416728973388672,0
695,2.391012191772461,-10.475958824157715,0.002290197182446718,0.3861405849456787,0.006298351101577282,-1.8570631742477417,0
696,2.0988962650299072,-2.4540250301361084,-0.33721309900283813,0.6392078995704651,0.10742916166782379,-1.8530133962631226,0
697,1.3836143016815186,8.690571784973145,0.032973382622003555,0.2569606602191925,0.06363072991371155,-1.8501877784729004,0
698,-0.8911134600639343,17.533935546875,-0.15242105722427368,0.2285347878932953,0.07964041084051132,-1.8504289388656616,0
699,-1.567399501800537,20.461183547973633,-0.1259959191083908,-0.07219249755144119,0.06507211923599243,-1.847941517829895,0
700,-0.8512507081031799,17.683582305908203,-0.32695645093917847,-0.26390695571899414,0.1045798510313034,-1.847388744354248,0
701,-0.27206847071647644,10.038826942443848,-0.9733405709266663,-0.40956610441207886,0.007337861228734255,-1.8527992963790894,0
702,0.9213802218437195,-0.9941259622573853,-0.932932436466217,-0.5790554881095886,-0.0020476209465414286,-1.860121488571167,0
703,2.469308614730835,-16.528364181518555,-1.71107017993927,-0.4007677435874939,0.010567288845777512,-1.8714593648910522,0
704,3.766559362411499,-38.880836486816406,-1.4092395305633545,-0.09249532967805862,0.04881633073091507,-1.8880116939544678,0
705,3.2700014114379883,-48.397178649902344,-0.6489918231964111,0.6545141935348511,0.17491300404071808,-1.907360553741455,0
706,2.022096872329712,-38.89020919799805,-0.5342495441436768,0.5267314910888672,0.14961713552474976,-1.909131646156311,0
707,-0.7527667880058289,-22.796632766723633,0.3646426498889923,1.2072837352752686,0.16771340370178223,-1.9189077615737915,0
708,-3.829724073410034,-0.4444544315338135,0.22272777557373047,1.29788339138031,0.14123807847499847,-1.9162780046463013,0
709,-6.38668966293335,19.278335571289062,0.0171924140304327,1.2500988245010376,-0.00021378336532507092,-1.905679702758789,0
710,-4.566644668579102,27.223567962646484,0.3084663152694702,1.0591875314712524,-0.025350354611873627,-1.9067938327789307,0
711,-5.054553031921387,36.00020217895508,-0.4645578861236572,0.7143093943595886,-0.11230902373790741,-1.9035342931747437,0
712,-1.5546177625656128,33.45166015625,-0.6736952066421509,0.3525213301181793,-0.17644788324832916,-1.9056519269943237,0
713,2.284069776535034,21.455530166625977,-1.1506038904190063,0.03448687493801117,0.0195733942091465,-1.9344565868377686,0
714,5.161980152130127,-0.7971649169921875,-1.85165274143219,-0.15374664962291718,0.05161568522453308,-1.947057843208313,0
715,6.193140029907227,-21.42833137512207,-2.0841407775878906,-0.14389094710350037,0.12413493543863297,-1.9659550189971924,0
716,3.5646040439605713,-32.48353958129883,-1.853215217590332,0.16598233580589294,0.06735460460186005,-1.977721929550171,0
717,1.4991298913955688,-27.91069793701172,-1.9829696416854858,0.5434744954109192,0.12848292291164398,-2.000077962875366,0
718,-1.1907061338424683,-17.168010711669922,-1.3177690505981445,1.000909447669983,0.14390195906162262,-2.019965648651123,0
719,-4.488576889038086,1.5675157308578491,-1.9748828411102295,1.1271839141845703,0.18436293303966522,-2.040712356567383,0
720,-7.193763256072998,19.88787078857422,-2.3609747886657715,1.0475127696990967,0.172461599111557,-2.0628042221069336,0
721,-7.768711566925049,31.007549285888672,-2.818828582763672,0.8915126919746399,0.04878975450992584,-2.077608108520508,0
722,-6.7056965827941895,29.983156204223633,-2.249213457107544,0.5651935935020447,-0.08308792859315872,-2.0969228744506836,0
723,-2.6287405490875244,15.950715065002441,-3.4501113891601562,0.20495808124542236,-0.18672527372837067,-2.119635820388794,0
724,0.824194073677063,-0.09149635583162308,-3.602666139602661,0.06447169929742813,-0.2322285771369934,-2.152073621749878,0
725,4.764081954956055,-14.28913402557373,-3.6435680389404297,-0.06747487187385559,-0.21342220902442932,-2.191497325897217,0
726,6.307896614074707,-18.449779510498047,-3.0835442543029785,-0.0934159979224205,-0.06781100481748581,-2.239804267883301,0
727,5.136566162109375,-18.254653930664062,-2.560865879058838,0.12007226794958115,0.0947892963886261,-2.2851877212524414,0
728,1.9291387796401978,-16.22389793395996,-2.4077394008636475,0.4462069869041443,0.08662862330675125,-2.3078298568725586,0
729,-1.8642061948776245,-17.91014862060547,-2.3825714588165283,0.7916903495788574,0.0996035486459732,-2.3333511352539062,0
730,-5.7608962059021,-16.917299270629883,-3.3087234497070312,0.7037898898124695,0.12317045032978058,-2.3636951446533203,0
731,-7.606209754943848,-13.01448917388916,-2.3191938400268555,0.9254916310310364,0.01490255817770958,-2.3896336555480957,0
732,-8.935500144958496,-5.394794940948486,-3.617649793624878,1.0649282932281494,-0.05343753471970558,-2.4207205772399902,0
733,-7.117823123931885,-0.1204344853758812,-3.719407081604004,1.16550874710083,-0.2031264454126358,-2.445880889892578,0
734,-4.375687122344971,9.74691390991211,-3.864908218383789,1.2016726732254028,-0.2578931450843811,-2.489206552505493,0
735,0.06257718056440353,19.075103759765625,-4.312989234924316,1.0810585021972656,-0.3324413597583771,-2.5266823768615723,0
736,4.5214128494262695,17.61139488220215,-4.435147762298584,0.8747038841247559,-0.26182249188423157,-2.5841972827911377,0
737,6.938696384429932,13.649802207946777,-3.8854405879974365,0.6745358109474182,-0.26688697934150696,-2.620797634124756,0
738,7.411011695861816,13.407966613769531,-3.685729503631592,0.5129230618476868,-0.08811158686876297,-2.680288314819336,0
739,6.469449520111084,12.411349296569824,-3.2426257133483887,0.31467148661613464,0.021312305703759193,-2.7208967208862305,0
740,3.0827653408050537,8.349729537963867,-2.739948034286499,0.23119476437568665,0.10712572932243347,-2.7580959796905518,0
741,-1.6049052476882935,-2.2644834518432617,-2.259897232055664,0.24058598279953003,0.14318189024925232,-2.7888858318328857,0
742,-5.238011837005615,-8.329277038574219,-1.8809958696365356,0.3623417615890503,0.041540782898664474,-2.802523374557495,0
743,-8.701298713684082,-9.411276817321777,-1.3536639213562012,0.17581553757190704,-0.050763461738824844,-2.8131749629974365,0
744,-8.046052932739258,-13.675691604614258,-1.2537436485290527,0.17821592092514038,0.09274254739284515,-2.8598716259002686,0
745,-5.928438663482666,-18.71641731262207,-1.412880539894104,0.34031179547309875,0.08523263037204742,-2.885761022567749,0
746,-3.987410068511963,-21.33839988708496,-1.4638726711273193,0.6734793186187744,-0.032413702458143234,-2.8967599868774414,0
747,-2.614018678665161,-13.211642265319824,-1.203041434288025,0.950190544128418,-0.1169680505990982,-2.9073140621185303,0
748,-2.919719696044922,1.8164784908294678,-0.8321557641029358,1.0291998386383057,-0.18581603467464447,-2.9117679595947266,0
749,-1.9543825387954712,14.70944881439209,-0.728837251663208,1.0112425088882446,-0.2453528642654419,-2.9165873527526855,0
750,-0.9528928399085999,23.256881713867188,-0.6901658773422241,0.8769973516464233,-0.14501167833805084,-2.942715644836426,0
751,0.33163216710090637,31.536130905151367,0.708983838558197,0.6942554116249084,-0.17373301088809967,-2.9471497535705566,0
752,0.4073416590690613,32.34931945800781,0.7960556745529175,0.33964279294013977,-0.18401144444942474,-2.9415533542633057,0
753,-0.0654018446803093,26.50225067138672,1.251863956451416,0.04398235306143761,-0.18553997576236725,-2.9360222816467285,0
754,0.38216525316238403,15.702482223510742,0.5231668949127197,-0.25193795561790466,-0.12041717767715454,-2.934079647064209,0
755,-1.146233081817627,5.8350958824157715,0.7689594626426697,-0.4121584892272949,-0.13647647202014923,-2.9262807369232178,0
756,-0.19066932797431946,-8.569182395935059,0.7620959877967834,-0.3884921073913574,-0.1704307198524475,-2.9185826778411865,0
757,-2.3773391246795654,-12.84825611114502,1.4781278371810913,-0.24338452517986298,-0.21341165900230408,-2.9102165699005127,0
758,-2.963899612426758,-9.563202857971191,2.350642204284668,-0.0983462855219841,-0.272504061460495,-2.8945834636688232,0
759,-3.341404676437378,-1.811630129814148,2.9427809715270996,0.1359124630689621,-0.26906535029411316,-2.8775711059570312,0
760,-1.3218309879302979,12.429198265075684,2.792536973953247,-0.1797848492860794,-0.19501686096191406,-2.8428845405578613,0
761,-0.4848767817020416,19.180923461914062,2.554349422454834,-0.3078944683074951,-0.10618220269680023,-2.816157817840576,0
762,-0.3974721431732178,22.870134353637695,2.358839273452759,-0.4973684847354889,-0.21936258673667908,-2.783940553665161,0
763,-2.5549049377441406,22.833406448364258,2.736959934234619,-0.7315177917480469,-0.2576262652873993,-2.75567364692688,0
764,-2.6090471744537354,15.828232765197754,3.5807089805603027,-0.9378005266189575,-0.2435460090637207,-2.725620985031128,0
765,-4.290614604949951,5.507568836212158,4.400622844696045,-1.1129764318466187,-0.3105086386203766,-2.691676616668701,0
766,-4.496278285980225,-9.038179397583008,4.205424785614014,-1.0677063465118408,-0.3218931555747986,-2.654374837875366,0
767,-2.650020122528076,-25.921369552612305,4.366823196411133,-0.8805670142173767,-0.33262988924980164,-2.615203619003296,0
768,-1.5618761777877808,-36.80295181274414,4.923579692840576,-0.5107876062393188,-0.39626121520996094,-2.5800178050994873,0
769,0.07467681914567947,-34.18198013305664,5.57805871963501,-0.19731928408145905,-0.4376656115055084,-2.529306173324585,0
770,0.7621811628341675,-22.293235778808594,6.389315128326416,0.21652574837207794,-0.3877272605895996,-2.4701716899871826,0
771,-0.4356938600540161,-11.521404266357422,6.936681747436523,0.3315582871437073,-0.40460851788520813,-2.400930404663086,0
772,-1.0930826663970947,5.488804340362549,7.231048107147217,0.6030247807502747,-0.35926350951194763,-2.3373398780822754,0
773,-1.186012625694275,11.638429641723633,6.576089859008789,0.5711073279380798,-0.39991387724876404,-2.2651467323303223,0
774,-1.9944798946380615,14.661486625671387,7.240792751312256,0.5035355687141418,-0.44636085629463196,-2.2005980014801025,0
775,-1.9782441854476929,15.282352447509766,7.187984466552734,0.37613996863365173,-0.5028473138809204,-2.131652355194092,0
776,-2.7764551639556885,15.317187309265137,7.107146739959717,0.20612618327140808,-0.42499732971191406,-2.0592164993286133,0
777,-1.794579029083252,9.2742338180542,7.194711685180664,-0.015345001593232155,-0.3558914363384247,-1.9845483303070068,0
778,-0.8848968744277954,5.015043258666992,6.539113521575928,-0.09321869909763336,-0.4178869426250458,-1.9176685810089111,0
779,-0.5346724987030029,3.822808027267456,6.49613618850708,-0.1260053664445877,-0.4576912820339203,-1.8552111387252808,0
780,-2.0845022201538086,8.527525901794434,7.1016035079956055,-0.07888855040073395,-0.4963597059249878,-1.7978157997131348,0
781,-2.9850759506225586,10.184660911560059,7.192261695861816,-0.2084665298461914,-0.48215171694755554,-1.7238290309906006,0
782,-5.149265766143799,10.450905799865723,6.802394866943359,-0.29285553097724915,-0.5543745756149292,-1.6548058986663818,0
783,-3.3555355072021484,0.9697510600090027,6.3251519203186035,-0.2865085005760193,-0.6386525630950928,-1.5974128246307373,0
784,-1.6217553615570068,-8.111457824707031,5.874074459075928,-0.2882866859436035,-0.7102308869361877,-1.537709355354309,0
785,-0.40464916825294495,-9.193553924560547,5.585392475128174,-0.2405301183462143,-0.6843894720077515,-1.4744775295257568,0
786,0.3274745047092438,-4.2696123123168945,5.435974597930908,-0.5273492336273193,-0.5689049959182739,-1.3814905881881714,0
787,1.3221343755722046,5.434708595275879,5.11041784286499,-0.451081782579422,-0.5148990750312805,-1.3263181447982788,0
788,-0.3614693880081177,11.749517440795898,5.129193305969238,-0.4279903471469879,-0.5219491124153137,-1.2802808284759521,0
789,-2.513573408126831,14.94930648803711,4.920987606048584,-0.5721808075904846,-0.550056517124176,-1.2287365198135376,0
790,-4.324387550354004,13.116312026977539,4.965104579925537,-0.7021217942237854,-0.610666036605835,-1.1847652196884155,0
791,-5.621176242828369,7.14731502532959,4.3108296394348145,-0.8016729950904846,-0.6996498703956604,-1.1460338830947876,0
792,-6.124281883239746,-9.684330940246582,4.215102195739746,-0.900004506111145,-0.7412769794464111,-1.0968127250671387,0
793,-2.9636993408203125,-30.009260177612305,4.69776725769043,-0.6760483980178833,-0.7759599685668945,-1.063793420791626,0
794,0.254910409450531,-36.0350227355957,5.087502479553223,-0.15186220407485962,-0.8369358777999878,-1.042699933052063,0
795,3.5129072666168213,-38.41561508178711,6.340933799743652,-0.08194208890199661,-0.7067257761955261,-0.9487386345863342,0
796,5.247432231903076,-28.662633895874023,6.767685413360596,0.08409877866506577,-0.609093427658081,-0.8591182231903076,0
797,3.1120684146881104,-5.930093288421631,6.648557662963867,0.5854681730270386,-0.4913185238838196,-0.8046512007713318,0
798,-1.2716783285140991,13.780734062194824,6.090390682220459,0.6973052620887756,-0.47174176573753357,-0.7390019297599792,0
799,-5.9315643310546875,29.012985229492188,5.444922924041748,0.48428040742874146,-0.5233566164970398,-0.6688650846481323,0
800,-8.914012908935547,39.98076629638672,5.307938575744629,0.08425849676132202,-0.6495863199234009,-0.6069462895393372,0
801,-12.91819953918457,39.31633758544922,4.930312156677246,-0.3206448256969452,-0.8258320093154907,-0.5601054430007935,0
802,-10.783599853515625,27.830228805541992,4.967867851257324,-0.8499905467033386,-0.8289297223091125,-0.5001843571662903,0
803,-7.561574459075928,5.834522724151611,5.1801934242248535,-1.1706862449645996,-0.9613590240478516,-0.4565978944301605,0
804,-3.31445050239563,-19.865970611572266,5.7502264976501465,-1.1313252449035645,-1.099514365196228,-0.4261498749256134,0
805,2.0691373348236084,-36.765525817871094,4.810153961181641,-0.7177881598472595,-1.154671311378479,-0.39983031153678894,0
806,6.931872844696045,-42.42245864868164,4.416282653808594,-0.28636524081230164,-1.1249282360076904,-0.3550107777118683,0
807,9.495939254760742,-40.998172760009766,4.5089545249938965,0.45309796929359436,-1.0911369323730469,-0.3452141284942627,0
808,12.36390495300293,-34.841339111328125,4.670882701873779,0.6106092929840088,-0.9396397471427917,-0.2564297020435333,0
809,11.507719039916992,-13.005172729492188,5.1422858238220215,0.9901343584060669,-0.757348895072937,-0.20305055379867554,0
810,7.774958610534668,8.03378677368164,4.6577582359313965,1.1144652366638184,-0.59710693359375,-0.14192838966846466,0
811,1.3100295066833496,28.21256446838379,3.6526055335998535,1.0136290788650513,-0.5785953402519226,-0.08780615031719208,0
812,-5.724735260009766,40.653228759765625,2.634033679962158,0.66145920753479,-0.6533893346786499,-0.03842262551188469,0
813,-11.148810386657715,41.53712844848633,3.2104883193969727,0.15178938210010529,-0.7549758553504944,0.0020246806088835,0
814,-13.534191131591797,31.510995864868164,3.300673246383667,-0.24172301590442657,-0.7886942028999329,0.026379620656371117,0
815,-10.749159812927246,18.710161209106445,3.077893018722534,-0.6139847636222839,-0.9909966588020325,0.06109175831079483,0
816,-3.8638417720794678,5.045339584350586,2.3539297580718994,-0.7141846418380737,-1.1426888704299927,0.07726184278726578,0
817,5.2922682762146,-6.710834980010986,2.4378864765167236,-0.6839797496795654,-1.112349033355713,0.09185466915369034,0
818,13.28568172454834,-13.69617748260498,2.537642240524292,-0.7676439881324768,-1.0182393789291382,0.13467715680599213,0
819,17.54109001159668,-15.947707176208496,2.8999907970428467,-0.4678661823272705,-0.8104678988456726,0.14321058988571167,0
820,18.544519424438477,-13.162117958068848,3.049319267272949,-0.23297950625419617,-0.6852614879608154,0.16225972771644592,0
821,14.215660095214844,-6.508518695831299,2.913961887359619,-0.1312151551246643,-0.6191274523735046,0.19385656714439392,0
822,6.641824245452881,1.6293165683746338,2.418083429336548,0.10128722339868546,-0.2596450448036194,0.2153700888156891,0
823,-0.8933671116828918,8.065049171447754,2.7571959495544434,-0.48385730385780334,-0.17154593765735626,0.3077089786529541,0
824,-7.518094062805176,17.36804962158203,2.6432580947875977,-0.5358399152755737,-0.2048310786485672,0.3310941457748413,0
825,-12.416831970214844,11.132773399353027,2.3176639080047607,-0.7358438968658447,-0.34103143215179443,0.3544953465461731,0
826,-12.96362018585205,8.657135009765625,1.9831918478012085,-0.8811044096946716,-0.5400887727737427,0.372065931558609,0
827,-10.075572967529297,6.137808799743652,1.3410052061080933,-0.8256137371063232,-0.6648814082145691,0.38112035393714905,0
828,-3.8272576332092285,-1.8942177295684814,0.9792578816413879,-0.7904564142227173,-0.8090570569038391,0.3862270712852478,0
829,4.443916320800781,-2.4237923622131348,0.7277042865753174,-0.8008427619934082,-0.8494905829429626,0.39953815937042236,0
830,8.854304313659668,2.6892690658569336,0.5115160346031189,-0.7266427874565125,-0.6284778714179993,0.4218030571937561,0
831,11.952003479003906,-4.319111347198486,0.40773633122444153,-0.7678500413894653,-0.6255871057510376,0.42291131615638733,0
832,11.031436920166016,-7.301290035247803,0.6032364964485168,-0.6024697422981262,-0.5100661516189575,0.41695451736450195,0
833,8.415889739990234,-7.968472480773926,0.4035986363887787,-0.3947581946849823,-0.33516764640808105,0.4193868935108185,0
834,3.598419427871704,-6.238753795623779,0.14975331723690033,-0.27565962076187134,-0.20759621262550354,0.42490044236183167,0
835,-3.64750599861145,-7.487378120422363,-0.7572354674339294,-0.30097222328186035,-0.16461798548698425,0.43088340759277344,0
836,-8.100387573242188,-14.200553894042969,-1.1508219242095947,-0.4820675849914551,-0.2920876443386078,0.42711496353149414,0
837,-9.0250883102417,-19.580341339111328,-1.1298784017562866,-0.33327528834342957,-0.47780200839042664,0.4065728485584259,0
838,-7.698750019073486,-15.310709953308105,-0.7385785579681396,0.01189379021525383,-0.6064909100532532,0.3903683125972748,0
839,-4.778670787811279,-4.2250213623046875,-0.0895298421382904,0.19613401591777802,-0.6409152150154114,0.38960930705070496,0
840,0.48629480600357056,8.963719367980957,-0.09816013276576996,0.2780858278274536,-0.6904007792472839,0.3885810077190399,0
841,5.273065090179443,19.90410804748535,-0.7231200337409973,0.08395089954137802,-0.6574105620384216,0.3917014002799988,0
842,9.521471977233887,23.083454132080078,-1.070853352546692,-0.12196975946426392,-0.5493177771568298,0.38849520683288574,0
843,12.215038299560547,16.02052116394043,-0.9756752848625183,-0.3545556664466858,-0.3738355040550232,0.37969034910202026,0
844,9.731472969055176,9.862052917480469,-1.1600449085235596,-0.49709296226501465,-0.317989319562912,0.3637974262237549,0
845,6.602018356323242,-1.0614198446273804,-1.3113332986831665,-0.5390647053718567,-0.2250724583864212,0.34898945689201355,0
846,0.8976528644561768,-16.071752548217773,-1.5335365533828735,-0.5536462664604187,-0.1286098212003708,0.33780914545059204,0
847,-3.5340254306793213,-28.129854202270508,-1.0268150568008423,-0.4653899669647217,-0.11626048386096954,0.3237897455692291,0
848,-6.261566638946533,-30.267314910888672,-1.3858715295791626,-0.1927352100610733,-0.1756315678358078,0.30995720624923706,0
849,-7.006252765655518,-23.154754638671875,-2.438066244125366,0.22871236503124237,-0.27251797914505005,0.2931824028491974,0
850,-5.787952899932861,-9.05188274383545,-3.443138360977173,0.5159067511558533,-0.37401220202445984,0.2690243721008301,0
851,-1.7526872158050537,5.95828104019165,-3.989501476287842,0.7145411372184753,-0.4453027546405792,0.2385682761669159,0
852,2.5037894248962402,19.880273818969727,-3.5580265522003174,0.5143978595733643,-0.45562952756881714,0.2004307210445404,0
853,7.168419361114502,29.31133270263672,-3.563101291656494,0.2459375113248825,-0.5370259284973145,0.16340948641300201,0
854,9.134955406188965,33.3618049621582,-3.561962366104126,-0.01811772957444191,-0.40418460965156555,0.12490933388471603,0
855,9.027822494506836,29.42357063293457,-4.0147480964660645,-0.3921363055706024,-0.1682673841714859,0.08528217673301697,0
856,8.050050735473633,18.196985244750977,-4.498491287231445,-0.7519043684005737,-0.1427290290594101,0.04378219321370125,0
857,5.7815351486206055,3.6344313621520996,-5.028408527374268,-0.9927411675453186,-0.06540373712778091,-0.002295027719810605,0
858,1.921385645866394,-9.64504337310791,-5.583981037139893,-0.9340318441390991,0.037355974316596985,-0.04869067668914795,0
859,-0.45754164457321167,-18.222381591796875,-5.239833354949951,-0.7500545382499695,0.08564276248216629,-0.09943267703056335,0
860,-2.0839362144470215,-20.240966796875,-4.99054479598999,-0.652866542339325,0.02034917287528515,-0.15753674507141113,0
861,-4.29311990737915,-15.824095726013184,-4.8491926193237305,-0.5301920175552368,-0.005338634829968214,-0.21066851913928986,0
862,-4.880063056945801,-8.058732986450195,-5.083602428436279,-0.3392423987388611,-0.12565037608146667,-0.26071596145629883,0
863,-2.6222987174987793,0.5251327753067017,-5.268129825592041,-0.27682211995124817,-0.09825663268566132,-0.30693116784095764,0
864,0.5836822986602783,13.006181716918945,-4.809720993041992,-0.21793827414512634,-0.11309166252613068,-0.35470348596572876,0
865,3.0635571479797363,15.982032775878906,-4.37272834777832,-0.4469132721424103,-0.0815071389079094,-0.40918317437171936,0
866,5.831559181213379,17.48832130432129,-3.7293074131011963,-0.601175844669342,-0.0058343918062746525,-0.45100530982017517,0
867,7.015373229980469,14.32677173614502,-3.3370213508605957,-0.7631168961524963,0.0385265126824379,-0.48930245637893677,0
868,6.969883441925049,8.555413246154785,-3.015681266784668,-0.86429762840271,0.1690610647201538,-0.5162844061851501,0
869,6.052598476409912,1.6969175338745117,-2.357727527618408,-0.8709383010864258,0.2243594229221344,-0.5432582497596741,0
870,2.7211742401123047,-7.67188024520874,-2.0835795402526855,-0.7724205255508423,0.3217572867870331,-0.5583574175834656,0
871,-1.0082143545150757,-9.005903244018555,-1.136056900024414,-0.5728543400764465,0.36474594473838806,-0.5680201649665833,0
872,-4.306331634521484,-13.017481803894043,-0.9480977654457092,-1.0318608283996582,0.212373748421669,-0.6463789343833923,0
873,-5.310685157775879,-16.550838470458984,-0.4978175759315491,-0.7063263654708862,0.15765498578548431,-0.6422155499458313,0
874,-4.2067060470581055,-17.863393783569336,-0.49291232228279114,-0.619137704372406,0.08963897824287415,-0.6574891805648804,0
875,-3.341998338699341,-5.940853118896484,-0.2647947669029236,-0.33442988991737366,0.03784509003162384,-0.6517188549041748,0
876,-0.13556309044361115,-1.3429293632507324,-0.059454433619976044,-0.31387874484062195,0.01053570955991745,-0.6621335744857788,0
877,4.275604248046875,6.118185043334961,0.8236738443374634,-0.12135130912065506,0.03335654363036156,-0.6441482901573181,0
878,6.308413505554199,12.699385643005371,1.0475993156433105,-0.33096715807914734,0.11249051243066788,-0.651881217956543,0
879,7.405672550201416,13.287979125976562,0.9975034594535828,-0.42492660880088806,0.22531816363334656,-0.6354421377182007,0
880,7.161342144012451,6.074312210083008,0.967825174331665,-0.8629250526428223,0.28163671493530273,-0.6552466154098511,0
881,3.351526975631714,2.239809274673462,1.014493703842163,-0.8324333429336548,0.32706937193870544,-0.6351773738861084,0
882,-1.0646381378173828,-4.832826614379883,0.9042981863021851,-0.7221959829330444,0.24781818687915802,-0.6206886768341064,0
883,-3.7381341457366943,-8.080364227294922,0.9902415871620178,-0.5830302238464355,0.24983510375022888,-0.5994518995285034,0
884,-4.495952129364014,-7.453075885772705,0.3965076804161072,-0.5368212461471558,0.2807690501213074,-0.5888151526451111,0
885,-4.15236759185791,-4.380197048187256,0.9702597260475159,-0.36274468898773193,0.22476203739643097,-0.5747004747390747,0
886,-2.7583916187286377,-0.506550133228302,1.3827788829803467,-0.39281249046325684,0.17550301551818848,-0.5766537189483643,0
887,-1.0659059286117554,3.195206642150879,0.8236492276191711,-0.41662731766700745,0.14641180634498596,-0.5671802759170532,0
888,0.49558377265930176,4.704870700836182,1.1864972114562988,-0.6298507452011108,0.0750582367181778,-0.5819241404533386,0
889,1.8973549604415894,5.250175476074219,1.3603984117507935,-0.6481655836105347,0.10541515797376633,-0.5655794143676758,0
890,3.6705806255340576,3.0992629528045654,1.3083325624465942,-0.6635926365852356,0.15895509719848633,-0.5442377924919128,0
891,4.250586986541748,-0.20905858278274536,1.0447145700454712,-0.7079002857208252,0.1648736149072647,-0.5344225168228149,0
892,3.680588722229004,-3.18558406829834,1.0858690738677979,-0.6247110366821289,0.1850622296333313,-0.5171914100646973,0
893,2.3229734897613525,-3.4841349124908447,1.5595109462738037,-0.5053202509880066,0.26581093668937683,-0.4946848154067993,0
894,0.6714407205581665,-4.0658063888549805,1.4587960243225098,-0.45626920461654663,0.3194240629673004,-0.4782545566558838,0
895,-1.7963727712631226,-3.5995635986328125,1.883695363998413,-0.41278719902038574,0.1977037787437439,-0.47340571880340576,0
896,-3.699817657470703,-2.052584648132324,2.4445760250091553,-0.37927067279815674,0.1842486709356308,-0.455787718296051,0
897,-2.176656723022461,-13.630634307861328,2.7328577041625977,-0.4037197530269623,0.14892789721488953,-0.4384605884552002,0
898,0.37918931245803833,-26.229637145996094,2.3545353412628174,-0.33763614296913147,0.1315821260213852,-0.41503721475601196,0
899,3.4753575325012207,-33.96517562866211,2.451464891433716,0.07161932438611984,0.09005759656429291,-0.3736609220504761,0
900,5.024036407470703,-29.32219886779785,2.879098653793335,0.15400967001914978,0.16946899890899658,-0.3723834156990051,0
901,7.1243791580200195,-20.254640579223633,3.3089120388031006,0.6110132336616516,0.27661946415901184,-0.32987189292907715,0
902,5.863187313079834,-5.551933288574219,3.6446118354797363,0.828601598739624,0.32750895619392395,-0.29991769790649414,0
903,3.398475408554077,9.603120803833008,3.169724702835083,0.8258905410766602,0.4363246560096741,-0.27435287833213806,0
904,-0.11336015909910202,21.91309928894043,2.6308295726776123,0.8074221014976501,0.5005444884300232,-0.23746250569820404,0
905,-2.3456711769104004,27.03875732421875,2.114983081817627,0.665766716003418,0.5117174983024597,-0.20398782193660736,0
906,-5.021115303039551,25.04806900024414,1.8650535345077515,0.36413681507110596,0.4072902202606201,-0.1792512983083725,0
907,-6.788751125335693,18.5404109954834,1.7886124849319458,0.09013748168945312,0.2642951011657715,-0.1533600240945816,0
908,-5.6512861251831055,9.797484397888184,1.492213249206543,-0.08310619741678238,0.17575517296791077,-0.12923376262187958,0
909,-3.325817346572876,0.2797953188419342,0.9203365445137024,-0.1167827919125557,0.10804202407598495,-0.10331541299819946,0
910,3.522592782974243,-17.021663665771484,1.2197599411010742,0.03418191149830818,0.1602916270494461,-0.08176226913928986,0
911,6.768265247344971,-20.040632247924805,1.0034692287445068,-0.3773478865623474,0.15532469749450684,-0.12781594693660736,0
912,9.023093223571777,-20.18417739868164,1.7945871353149414,-0.04892958700656891,0.2878866493701935,-0.10937494784593582,0
913,8.589990615844727,-14.829157829284668,2.14089035987854,0.1844138205051422,0.30149897933006287,-0.08739285916090012,0
914,5.841365814208984,-8.190424919128418,2.3303823471069336,0.5477495193481445,0.44621890783309937,-0.0520419180393219,0
915,0.67181396484375,2.103154182434082,1.2474136352539062,0.3656841218471527,0.33376359939575195,-0.04415290430188179,0
916,-1.5353853702545166,7.713341236114502,1.1902357339859009,0.4817209839820862,0.37920790910720825,-0.018992379307746887,0
917,-2.7257795333862305,13.462950706481934,0.4913523197174072,0.330099493265152,0.37674012780189514,-0.016687262803316116,0
918,-3.6059064865112305,16.177967071533203,-0.11422283947467804,0.2481309175491333,0.35196343064308167,-0.003935518674552441,0
919,-1.7851020097732544,14.090331077575684,0.31241801381111145,0.13049915432929993,0.2499477118253708,0.007575072813779116,0
920,-0.18095804750919342,9.292998313903809,-0.0712234303355217,-0.03548198565840721,0.24203577637672424,0.0060720196925103664,0
921,2.2396883964538574,5.970515727996826,-0.823868989944458,-0.20061570405960083,0.26498252153396606,-0.0014610157813876867,0
922,6.2472662925720215,-1.130881667137146,-1.2510087490081787,-0.14286883175373077,0.3304818868637085,0.0008627153001725674,0
923,7.508993148803711,-6.485266208648682,-1.0576452016830444,-0.13447774946689606,0.44711026549339294,-0.015566693618893623,0
924,5.691784381866455,-9.412532806396484,-0.31587302684783936,-0.04435897618532181,0.5055814981460571,-0.023037957027554512,0
925,2.338911771774292,-9.893134117126465,-0.12970709800720215,0.08535396307706833,0.5345820188522339,-0.021785544231534004,0
926,-1.636518120765686,-7.843984127044678,-0.6505547761917114,0.004639953374862671,0.5828242897987366,-0.043422188609838486,0
927,-4.776151657104492,-2.3698556423187256,-0.754279375076294,0.10630695521831512,0.565192699432373,-0.04601031914353371,0
928,-6.953923225402832,3.6964714527130127,-1.4764680862426758,0.26409265398979187,0.49493756890296936,-0.03774050623178482,0
929,-7.480011463165283,9.024969100952148,-1.5657036304473877,0.11461324989795685,0.39948731660842896,-0.061719853430986404,0
930,-6.287667751312256,13.561295509338379,-0.923565685749054,0.09874309599399567,0.3684699833393097,-0.07191701978445053,0
931,-3.9591431617736816,13.195855140686035,-0.624393880367279,0.017116982489824295,0.2805301547050476,-0.07622311264276505,0
932,0.6702547073364258,10.648165702819824,-0.6098543405532837,-0.06481203436851501,0.23972353339195251,-0.07754580676555634,0
933,4.902322292327881,5.942856788635254,-0.9213937520980835,-0.17382927238941193,0.26673653721809387,-0.08524952083826065,0
934,7.336418628692627,1.9471869468688965,-0.5613195300102234,-0.14215640723705292,0.355118989944458,-0.08672908693552017,0
935,6.9114861488342285,-3.346057653427124,-0.3369655907154083,-0.05094444006681442,0.40892189741134644,-0.08045525848865509,0
936,4.972199440002441,-14.110279083251953,-0.6060488820075989,-0.07169373333454132,0.5238186717033386,-0.0909264013171196,0
937,1.1723613739013672,-22.56610107421875,0.14485299587249756,-0.2704390287399292,0.524127185344696,-0.12456560879945755,0
938,-2.7122645378112793,-20.068721771240234,0.6427897214889526,0.07676888257265091,0.47180885076522827,-0.11065921187400818,0
939,-5.185170650482178,-12.672677040100098,0.343671053647995,0.2330668717622757,0.4353286325931549,-0.11083054542541504,0
940,-5.589913368225098,-1.0186764001846313,0.6137446165084839,0.5343405604362488,0.4319773316383362,-0.09437581151723862,0
941,-4.794034004211426,8.33020305633545,0.9812383651733398,0.5686678290367126,0.3495769202709198,-0.0864168107509613,0
942,-3.7564218044281006,14.767134666442871,1.424639105796814,0.31685948371887207,0.2808660864830017,-0.09205671399831772,0
943,-2.7989165782928467,18.18796157836914,1.829857587814331,0.12305925786495209,0.2301306426525116,-0.08239573240280151,0
944,-0.1176033541560173,16.929962158203125,1.8341758251190186,-0.037329088896512985,0.20205846428871155,-0.06277982890605927,0
945,1.9764174222946167,12.245854377746582,1.4588623046875,-0.16934700310230255,0.21150393784046173,-0.04151753708720207,0
946,3.3608734607696533,9.009383201599121,1.2596614360809326,-0.22817979753017426,0.2577194273471832,-0.022240303456783295,0
947,2.865068197250366,1.1666573286056519,1.519413709640503,-0.28985849022865295,0.3153027296066284,-0.009064425714313984,0
948,1.4396320581436157,-3.713801622390747,1.8400214910507202,-0.3949083983898163,0.290262907743454,0.0020216079428792,0
949,-0.6160004734992981,-5.203260898590088,1.9659913778305054,-0.3543374240398407,0.24877311289310455,0.022372163832187653,0
950,-1.9297950267791748,-7.380154132843018,1.8996539115905762,-0.35398566722869873,0.247762531042099,0.03899779170751572,0
951,-2.529862880706787,-6.648423194885254,1.8787851333618164,-0.19655950367450714,0.22447626292705536,0.06415913254022598,0
952,-2.0130951404571533,-14.44983196258545,1.645666480064392,-0.07604268938302994,0.19694389402866364,0.08539646118879318,0
953,-1.1176468133926392,-25.0058536529541,1.1493096351623535,0.09596601128578186,0.1746405065059662,0.10291314870119095,0
954,1.6809186935424805,-33.071414947509766,1.1214916706085205,0.21402673423290253,0.24199238419532776,0.10723137110471725,0
955,4.0875630378723145,-36.68183517456055,1.2786544561386108,0.6645256280899048,0.3425438106060028,0.1210707500576973,0
956,4.771114349365234,-34.27952194213867,1.7954703569412231,1.0811492204666138,0.3294053375720978,0.13594041764736176,0
957,4.471356391906738,-24.52796745300293,1.7771755456924438,1.3597111701965332,0.40023335814476013,0.144648015499115,0
958,2.3489186763763428,-13.197084426879883,1.4199258089065552,1.496089220046997,0.3938461244106293,0.1594824641942978,0
959,-2.0455994606018066,4.650386333465576,1.0926796197891235,1.7911205291748047,0.4229918420314789,0.18128149211406708,0
960,-4.937995910644531,22.275291442871094,0.8763964176177979,1.662102222442627,0.39114001393318176,0.1903500109910965,0
961,-6.5047783851623535,32.83664321899414,0.321063756942749,1.4054850339889526,0.4533717632293701,0.1784103661775589,0
962,-7.300238609313965,34.613101959228516,0.6158779859542847,1.0572032928466797,0.34169453382492065,0.19312849640846252,0
963,-7.953032493591309,25.833738327026367,0.11838587373495102,0.70847088098526,0.21714070439338684,0.21100980043411255,0
964,-7.500284194946289,18.19249153137207,-0.26184186339378357,0.4828251302242279,0.08934514969587326,0.22655215859413147,0
965,-4.11329984664917,13.58452320098877,-0.7165881991386414,0.3175009787082672,-0.012604864314198494,0.23131048679351807,0
966,1.1887329816818237,3.1202545166015625,-1.561963677406311,0.19227395951747894,0.01737843081355095,0.2128802090883255,0
967,4.9971184730529785,-0.3684045374393463,-1.3870495557785034,0.2513768672943115,0.0397297739982605,0.20017021894454956,0
968,6.171518802642822,-3.241779088973999,-1.545831322669983,0.2976054251194,0.10990327596664429,0.18151584267616272,0
969,4.758221626281738,1.7713184356689453,-1.7935850620269775,0.35374999046325684,0.2015371024608612,0.16095809638500214,0
970,3.3595967292785645,6.604103088378906,-1.4955928325653076,0.344586580991745,0.2715572714805603,0.14173881709575653,0
971,1.3799312114715576,10.497135162353516,-1.4978492259979248,0.11056072264909744,0.30997031927108765,0.12170976400375366,0
