,gyro.x,gyro.y,gyro.z,stabilizer.pitch,stabilizer.roll,stabilizer.yaw,label
0,0.08094210922718048,-0.025795333087444305,-0.043304443359375,-0.9184032082557678,-1.1911532878875732,-14.778732299804688,0
1,0.0599772110581398,0.03625135496258736,0.1438811719417572,-0.8849726319313049,-1.1995198726654053,-14.763849258422852,0
2,0.051730722188949585,0.05619249492883682,-0.09031960368156433,-0.7332879900932312,-1.0163319110870361,-14.744499206542969,0
3,0.140973761677742,0.01293500792235136,0.10283772647380829,-0.6818206906318665,-1.0675278902053833,-14.72864818572998,0
4,0.051488474011421204,0.10625844448804855,0.07062306255102158,-0.8962674140930176,-1.1701380014419556,-14.721570014953613,0
5,0.07735335826873779,0.11495190858840942,-0.022391030564904213,-0.8692320585250854,-1.3738775253295898,-14.70661735534668,0
6,0.09340924769639969,0.13054654002189636,0.10693685710430145,-0.6590072512626648,-1.5910311937332153,-14.68880558013916,0
7,-0.1139925867319107,0.024517958983778954,0.003534487448632717,-0.8791783452033997,-1.314841389656067,-14.673837661743164,0
8,0.04472820833325386,-0.007176443003118038,0.046911295503377914,-0.8550896644592285,-1.2299938201904297,-14.658265113830566,0
9,0.07031817734241486,0.06068456918001175,0.07231942564249039,-0.8365781307220459,-1.2284899950027466,-14.643507957458496,0
10,0.08250810950994492,0.13930290937423706,-0.07694816589355469,-0.8231725692749023,-1.2270629405975342,-14.628174781799316,0
11,0.041109755635261536,0.05932356417179108,0.07030919194221497,-0.5607174038887024,-1.2259489297866821,-14.610617637634277,0
12,-0.061044350266456604,0.07740460336208344,0.1245557963848114,-0.8671411275863647,-1.2893396615982056,-14.599893569946289,0
13,0.06887739896774292,-0.029161924496293068,0.08948686718940735,-0.8464975357055664,-1.2741438150405884,-14.584409713745117,0
14,0.12066523730754852,0.1809869110584259,0.012630612589418888,-0.8314882516860962,-1.1990652084350586,-14.568243026733398,0
15,-0.05096612870693207,0.011449962854385376,-0.08076996356248856,-0.8200066685676575,-1.2051044702529907,-14.553403854370117,0
16,-0.09969426691532135,-0.03163959085941315,-0.011268212459981441,-0.5579959750175476,-0.958702027797699,-14.532636642456055,0
17,-0.004020655527710915,0.10336363315582275,0.047919921576976776,-0.801543653011322,-1.2151317596435547,-14.525179862976074,0
18,-0.01860206201672554,0.05364781990647316,0.053659163415431976,-0.7344552874565125,-1.535720944404602,-14.508058547973633,0
19,0.11037598550319672,0.07745743542909622,0.03533065691590309,-0.809869647026062,-1.2105106115341187,-14.494281768798828,0
20,-0.011143531650304794,0.025898532941937447,0.05553719028830528,-0.6141633987426758,-1.4686659574508667,-14.476907730102539,0
21,0.005431876517832279,-0.004476310219615698,-0.0824110135436058,-0.9075458645820618,-1.1593515872955322,-14.465081214904785,0
22,0.06466902792453766,0.0027820435352623463,0.004924769047647715,-0.8771620392799377,-1.1757023334503174,-14.450787544250488,0
23,-0.07829151302576065,-0.005622051656246185,0.028016718104481697,-0.8537388443946838,-1.1896311044692993,-14.436323165893555,0
24,0.10331816226243973,-0.022789200767874718,0.029630886390805244,-0.7089573740959167,-1.2009458541870117,-14.418999671936035,0
25,0.05374782532453537,0.0652722492814064,-0.027065616101026535,-0.6000611186027527,-1.4607672691345215,-14.403239250183105,0
26,0.026630811393260956,0.038590069860219955,-0.07797806710004807,-0.7074410319328308,-0.9007053375244141,-14.392870903015137,0
27,-0.0038388289976865053,-0.0036320253275334835,-0.02250754088163376,-0.8519778847694397,-1.1714110374450684,-14.381595611572266,0
28,0.04241036996245384,0.0213489830493927,-0.014539671130478382,-0.8351646065711975,-1.1876919269561768,-14.36695384979248,0
29,0.07864254713058472,0.06772709637880325,0.09300921112298965,-0.8854684233665466,-1.2000752687454224,-14.354345321655273,0
30,0.05899997055530548,-0.009744936600327492,-0.04574768990278244,-0.670670747756958,-1.2087974548339844,-14.333450317382812,0
31,0.06464449316263199,0.07665658742189407,0.013974552042782307,-0.697188675403595,-1.0262764692306519,-14.319405555725098,0
32,0.024841271340847015,0.059404656291007996,0.006462081801146269,-0.6549155712127686,-1.3307139873504639,-14.3031587600708,0
33,-0.007114170119166374,-0.02273572050035,-0.06167098134756088,-0.9385274648666382,-1.309045672416687,-14.29708480834961,0
34,-0.11490689218044281,-0.025489795953035355,-0.03134705126285553,-0.8995944261550903,-1.1670711040496826,-14.281672477722168,0
35,0.06536600738763809,-0.023714330047369003,-0.019756417721509933,-0.86922687292099,-1.2483372688293457,-14.267956733703613,0
36,0.04316084086894989,0.06894387304782867,0.07593846321105957,-0.8458313345909119,-1.2461321353912354,-14.253192901611328,0
37,0.13073453307151794,-0.04101405292749405,0.054082728922367096,-0.8276865482330322,-1.3074512481689453,-14.239903450012207,0
38,0.08018045127391815,0.04921204596757889,0.12509529292583466,-0.49829262495040894,-1.5423059463500977,-14.223995208740234,0
39,0.10391180217266083,-0.03625994920730591,0.11044198274612427,-0.6282858848571777,-0.9644161462783813,-14.21106243133545,0
40,-0.04864590987563133,0.06145024299621582,-0.11480429768562317,-0.9159709215164185,-1.2211052179336548,-14.198528289794922,0
41,0.1575518399477005,0.06302981078624725,0.09094670414924622,-0.6294496655464172,-1.4774025678634644,-14.179618835449219,0
42,-0.026031358167529106,0.058410778641700745,-0.015176570042967796,-0.7277688980102539,-0.9783186912536621,-14.168855667114258,0
43,0.14654721319675446,0.08269042521715164,0.05883545055985451,-0.739611804485321,-1.0418201684951782,-14.154463768005371,0
44,0.033821262419223785,0.010822370648384094,-0.06727229803800583,-0.7479645013809204,-1.5944308042526245,-14.136762619018555,0
45,0.041330788284540176,0.04153292998671532,0.032251276075839996,-0.6911174058914185,-1.3204424381256104,-14.124130249023438,0
46,0.013638761825859547,0.11878560483455658,0.044781532138586044,-0.9646323919296265,-1.2379975318908691,-14.112059593200684,0
47,0.06625700742006302,0.01029434334486723,-0.016761498525738716,-0.8554180264472961,-0.9856973886489868,-14.094972610473633,0
48,0.05242277309298515,0.10390428453683853,0.0879293754696846,-0.8354710340499878,-1.1738331317901611,-14.082895278930664,0
49,0.06994631141424179,0.1382680982351303,-0.0895220935344696,-0.6936536431312561,-1.0632187128067017,-14.063403129577637,0
50,0.05329880490899086,0.030212698504328728,-0.08821021020412445,-0.7122561931610107,-1.106275200843811,-14.050970077514648,0
51,0.022281140089035034,0.06072935089468956,0.07878061383962631,-0.8523350358009338,-1.391884446144104,-14.043914794921875,0
52,0.07320062816143036,0.016945281997323036,0.004457671660929918,-0.8313766121864319,-1.3547714948654175,-14.028778076171875,0
53,0.10665900260210037,0.11591708660125732,0.06901652365922928,-0.8788926601409912,-1.32565176486969,-14.015031814575195,0
54,0.14216157793998718,0.029826445505023003,0.04313614219427109,-0.8518748879432678,-1.302276372909546,-13.999825477600098,0
55,0.011807660572230816,0.08142605423927307,0.05560366064310074,-0.830969512462616,-1.221185326576233,-13.983962059020996,0
56,0.08979550749063492,-0.014197220094501972,0.035598691552877426,-0.688406229019165,-1.5390342473983765,-13.973413467407227,0
57,-0.054187897592782974,-0.06591452658176422,-0.02520538866519928,-0.32787060737609863,-1.2117265462875366,-13.95875358581543,0
58,0.10317564010620117,-0.0786137655377388,0.15180392563343048,-0.7479651570320129,-0.9658995866775513,-13.949959754943848,0
59,-0.09369507431983948,0.07706949859857559,-0.028918283060193062,-0.8790685534477234,-1.157180666923523,-13.93492603302002,0
60,-0.00196459935978055,0.01748896762728691,0.010090585798025131,-0.663584291934967,-1.0504318475723267,-13.916512489318848,0
61,0.05674107372760773,0.09552164375782013,-0.041402667760849,-0.6896802186965942,-1.3480496406555176,-13.900684356689453,0
62,-0.01603076420724392,0.0925595685839653,-0.03924314305186272,-0.6478318572044373,-1.5741873979568481,-13.883149147033691,0
63,0.04139208793640137,-0.030677031725645065,-0.015421661548316479,-0.9298750162124634,-1.3019394874572754,-13.87441635131836,0
64,0.0890992283821106,0.06886980682611465,-0.06203407421708107,-0.7650496363639832,-0.9675970673561096,-13.860150337219238,0
65,-0.03305966779589653,0.046422868967056274,-0.057875148952007294,-0.7671064734458923,-1.0315585136413574,-13.846890449523926,0
66,-0.0771428719162941,0.13402359187602997,-0.029887299984693527,-0.8951164484024048,-1.2705466747283936,-13.838297843933105,0
67,0.20781347155570984,-0.03701082989573479,0.08248716592788696,-0.865145742893219,-1.26133394241333,-13.823857307434082,0
68,0.03581882640719414,-0.00831940583884716,-0.0039422521367669106,-0.8414098620414734,-1.2534412145614624,-13.809243202209473,0
69,0.014916077256202698,0.06117505580186844,0.04104023426771164,-0.8868253827095032,-1.3749195337295532,-13.799068450927734,0
70,0.040911756455898285,0.040225375443696976,0.10103539377450943,-0.6057894825935364,-1.277158498764038,-13.779435157775879,0
71,0.10636620223522186,0.11948717385530472,0.05422017723321915,-0.8354659676551819,-1.2651619911193848,-13.767369270324707,0
72,0.005262249615043402,-0.014450609683990479,-0.04848290607333183,-0.6299848556518555,-1.5079216957092285,-13.753210067749023,0
73,0.09148191660642624,0.05490308254957199,0.056617993861436844,-0.7278321981430054,-0.9361710548400879,-13.73946475982666,0
74,0.09271757304668427,0.11233871430158615,-0.0345604345202446,-0.6766741871833801,-1.006837010383606,-13.724660873413086,0
75,0.03520963713526726,0.013445106334984303,0.022746555507183075,-0.9534963965415955,-1.1874792575836182,-13.718788146972656,0
76,0.08946245908737183,0.07535480707883835,0.0042450507171452045,-0.9099516868591309,-1.3243041038513184,-13.704537391662598,0
77,0.0030442578718066216,0.02774692513048649,0.002470034174621105,0.0,0.0,0.0,0
78,0.003353914013132453,0.000969061569776386,0.009332914836704731,-0.0006270177545957267,1.4151164293289185,3.737794395419769e-05,0
79,-0.03938860446214676,0.0025566553231328726,0.018527714535593987,-0.7198675870895386,0.33388322591781616,-0.0033659443724900484,0
80,-0.0013004529755562544,0.08225417137145996,0.030122151598334312,0.07911175489425659,2.1977291107177734,0.003460898995399475,0
81,0.07772327214479446,0.042495645582675934,0.04587295278906822,-0.4191344678401947,-0.7890716195106506,-0.00827106088399887,0
82,0.14292258024215698,-0.053379420191049576,0.028904419392347336,-0.7695898413658142,-0.11184930801391602,-0.005419478286057711,0
83,0.005048692692071199,0.07002221047878265,-0.00413438118994236,-0.45873987674713135,0.8333970308303833,0.0033303075470030308,0
84,0.047455087304115295,0.060998570173978806,-0.1067628264427185,0.7794700860977173,0.8321289420127869,-0.0017033889889717102,0
85,-0.05231615900993347,0.10189305245876312,-0.004653180483728647,-0.4662896692752838,1.2409611940383911,0.001966734416782856,0
86,0.03632713109254837,-0.062318142503499985,-0.03309709578752518,-0.33860576152801514,0.960756242275238,0.00037420072476379573,0
87,-0.01791973225772381,0.05971311777830124,0.10221070051193237,-0.2750879228115082,-0.12217405438423157,-0.004460797179490328,0
88,-0.018738027662038803,-0.05477328598499298,0.02023238316178322,-0.24614746868610382,0.7099846005439758,3.29621288983617e-05,0
89,0.07023631781339645,0.15837422013282776,0.025809159502387047,1.1757110357284546,1.5406649112701416,-0.008681426756083965,0
90,-0.027487823739647865,0.04043896868824959,0.0623023584485054,-0.570867657661438,0.05596945434808731,-0.00010772532550618052,0
91,0.06196671351790428,-0.025704536586999893,-0.06451351195573807,-0.5012434124946594,-0.3418712913990021,-0.0002462876436766237,0
92,0.08293399214744568,0.04907073825597763,0.06232365593314171,0.38188275694847107,-0.34701457619667053,-0.00023254510597325861,0
93,0.04361732676625252,0.04948340728878975,0.015835218131542206,0.4160134196281433,-0.36173897981643677,0.0002461448311805725,0
94,0.08858079463243484,0.018728945404291153,0.07001723349094391,-0.8096425533294678,-0.6303476691246033,0.01521944161504507,0
95,-0.02309843897819519,-0.10248885303735733,0.0037593466695398092,-0.24818982183933258,-0.5969467163085938,0.006114472635090351,0
96,0.06874199211597443,0.08061807602643967,-0.020725294947624207,-0.5268227458000183,-0.3666130602359772,0.014131385833024979,0
97,0.043787963688373566,0.06316358596086502,-0.01514723151922226,-0.10397613793611526,0.3943779170513153,0.008229780942201614,0
98,-0.01478241104632616,0.06952644884586334,-0.0021264853421598673,-0.01653965190052986,-0.07932957261800766,0.003731953212991357,0
99,0.022722482681274414,0.1262616217136383,0.011620531789958477,-0.7136132717132568,-0.4319106340408325,0.015360761433839798,0
100,0.09906470775604248,0.08047304302453995,0.018036270514130592,-0.8426665663719177,-0.6813866496086121,0.014034897089004517,0
101,0.042906541377305984,-0.03261658921837807,-0.02168339677155018,-0.08671614527702332,-0.859163761138916,-0.009986788034439087,0
102,0.11684297770261765,0.09110356867313385,0.07424037158489227,-0.8587672114372253,-0.5016164183616638,0.023941002786159515,0
103,0.09238982200622559,-0.03130695968866348,-0.09194634109735489,-0.47037407755851746,-1.3471651077270508,-0.011050944216549397,0
104,-0.05118856206536293,0.030661331489682198,0.005601369775831699,-0.7962056994438171,-1.0509083271026611,0.011300865560770035,0
105,0.07310904562473297,0.04263918101787567,-0.018009347841143608,0.41153618693351746,-0.8429327011108398,-0.05025846138596535,0
106,0.015736974775791168,0.07903259247541428,0.04431425780057907,-0.9549281597137451,-0.7035890817642212,0.030986761674284935,0
107,0.034472186118364334,-0.02258332632482052,-0.022068677470088005,-0.8634020686149597,-0.7405929565429688,0.025169728323817253,0
108,0.0009947082726284862,0.004881487227976322,-0.014192298986017704,-0.5360631346702576,-1.2931275367736816,-0.01126050017774105,0
109,0.03576592728495598,-0.045572198927402496,-0.008861996233463287,-0.8091779351234436,-0.8061802387237549,0.02199896238744259,0
110,0.053153976798057556,0.08151760697364807,0.04380269721150398,-0.5153709053993225,-0.21258462965488434,0.024460410699248314,0
111,0.09644009917974472,0.036113858222961426,0.056075483560562134,-0.783553957939148,-0.8641694784164429,0.0159315038472414,0
112,0.03027721494436264,0.031605251133441925,0.017045883461833,-0.7429171800613403,-0.8830949068069458,0.013917285017669201,0
113,0.005273129791021347,0.0176819059997797,-0.028154581785202026,-0.37342339754104614,-0.4414759874343872,0.011005493812263012,0
114,-0.07355820387601852,0.06488042324781418,0.07089605927467346,-0.7739707827568054,-0.9009154438972473,0.01491917297244072,0
115,0.06968220323324203,0.021223530173301697,0.1863284558057785,-0.3072221279144287,-1.4635004997253418,-0.02756737731397152,0
116,0.03473283722996712,-0.019056346267461777,0.02138543128967285,-0.4994233548641205,-1.338810920715332,-0.0109593840315938,0
117,-0.002376041142269969,0.09608399868011475,-0.03156076371669769,-0.5374211072921753,-0.4193674921989441,0.016986291855573654,0
118,0.0499885156750679,0.04604945704340935,0.046737972646951675,-0.46370744705200195,-0.9689130783081055,-0.002266842173412442,0
119,0.07292848080396652,-0.09893239289522171,0.11309002339839935,-0.6114622950553894,-0.5750028491020203,0.016780158504843712,0
120,0.07048781216144562,-0.02726670540869236,0.06233540549874306,-0.8175860047340393,-0.9764480590820312,0.01776965707540512,0
121,-0.02031726762652397,-0.009120475500822067,0.022213555872440338,-0.681159496307373,-0.6974992156028748,0.020359331741929054,0
122,0.003998896572738886,-0.05397576093673706,-0.02049899660050869,-0.771368145942688,-1.0638409852981567,0.012053785845637321,0
123,0.09766583889722824,0.01165968831628561,0.10026363283395767,-0.836595356464386,-1.0556496381759644,0.015858158469200134,0
124,0.045373011380434036,0.05759594962000847,-0.11695180833339691,-0.7925404906272888,-1.0505743026733398,0.014230008237063885,0
125,-0.00274732057005167,0.0006128534441813827,-0.033364515751600266,-0.3976156413555145,-1.4101351499557495,-0.026575904339551926,0
126,0.06219591200351715,0.04390455037355423,0.07552246749401093,-0.46498581767082214,-1.052137851715088,-0.009273091331124306,0
127,0.08662223070859909,0.012250524014234543,0.006429748609662056,-0.5166561007499695,-1.3157835006713867,-0.012682711705565453,0
128,-0.00964959803968668,0.055897075682878494,0.12173449248075485,-0.6438860297203064,-0.9898502826690674,0.006742267869412899,0
129,0.033908531069755554,-0.035770684480667114,0.09082023054361343,-0.8240456581115723,-1.0077590942382812,0.02063191682100296,0
130,0.0175737626850605,-0.02969161979854107,0.05567149072885513,-0.7869989275932312,-0.683854341506958,0.03086174465715885,0
131,0.012468653731048107,0.061369847506284714,0.1269260197877884,-0.5103986859321594,-1.4500646591186523,-0.014669109135866165,0
132,0.10298441350460052,0.04475514590740204,0.08001000434160233,-0.803132176399231,-1.025960922241211,0.021285612136125565,0
133,0.054465897381305695,0.005353603046387434,0.04120882600545883,-0.20099207758903503,-1.0403560400009155,-0.020512402057647705,0
134,-0.0008385495748370886,0.01530664786696434,0.15939146280288696,-0.8879712224006653,-1.0536917448043823,0.025569889694452286,0
135,0.03615543618798256,0.004790042527019978,0.09094354510307312,-0.5990839004516602,-0.7418321967124939,0.01757478155195713,0
136,0.029006944969296455,-0.047574885189533234,-0.052228618413209915,-0.9416138529777527,-1.0692815780639648,0.02652597799897194,0
137,0.029279259964823723,0.10422109812498093,0.08228612691164017,-0.2509845495223999,-1.2351070642471313,-0.018246280029416084,0
138,0.032422635704278946,0.07487915456295013,0.10217981785535812,-0.9096990823745728,-1.2020288705825806,0.023181436583399773,0
139,0.1455361396074295,-0.031014857813715935,-0.009995091706514359,-0.9377464056015015,-1.0240553617477417,0.032684192061424255,0
140,0.11809257417917252,0.05905194580554962,-0.06170910224318504,-0.6506211161613464,-1.4307883977890015,-0.002550687873736024,0
141,0.12783312797546387,-0.0010824553901329637,-0.08238358050584793,-0.8182563185691833,-0.9719724655151367,0.027756592258810997,0
142,-0.020516932010650635,-0.06553274393081665,0.004778542555868626,-0.8666306734085083,-1.0082100629806519,0.02852190099656582,0
143,-0.014852143824100494,0.06637969613075256,0.0551142655313015,-0.8278849124908447,-1.1877964735031128,0.017411310225725174,0
144,-0.01907302998006344,0.014427763409912586,-0.07847142219543457,-0.5740229487419128,-1.32346510887146,-0.004292334895581007,0
145,0.018650028854608536,0.032206106930971146,0.039380673319101334,-0.60845547914505,-0.9795207977294922,0.011230270378291607,0
146,-0.004131730645895004,0.0757991224527359,0.08004254847764969,-0.5610857009887695,-0.7962848544120789,0.0149316918104887,0
147,0.10585843771696091,0.050340961664915085,0.06292250007390976,-0.8198985457420349,-1.0277754068374634,0.020972687751054764,0
148,0.028817666694521904,-0.004254929255694151,-3.0273100492195226e-05,-0.8680953979492188,-1.129661202430725,0.01988261379301548,0
149,0.052313368767499924,0.034657541662454605,-0.01425186451524496,-0.8310279250144958,-1.207440733909607,0.014628617092967033,0
150,0.05539267510175705,-0.09147890657186508,-0.019160695374011993,-0.8020427227020264,-1.121360421180725,0.016862573102116585,0
151,0.027952328324317932,-0.019948817789554596,-0.013531483709812164,-0.7794960141181946,-1.2010157108306885,0.012402011081576347,0
152,-0.05781999230384827,0.07671508938074112,0.009160551242530346,-0.47756102681159973,-1.4043329954147339,-0.012603092007339,0
153,0.006095654796808958,0.01830473355948925,0.05435875803232193,-0.8211462497711182,-1.2026829719543457,0.01542634516954422,0
154,-0.06063723564147949,0.017867466434836388,-0.15912747383117676,-0.7963446974754333,-1.1216096878051758,0.017436770722270012,0
155,0.015249592252075672,0.06569011509418488,0.01909896731376648,-0.49594247341156006,-1.1320860385894775,-0.0019488034304231405,0
156,0.007001933176070452,0.10441672801971436,0.013513497076928616,-0.6223527789115906,-0.8600912094116211,0.012751511298120022,0
157,0.09578370302915573,-0.011170442216098309,0.1717333346605301,-0.6476315259933472,-1.2851473093032837,0.0036155586130917072,0
158,0.07418316602706909,-9.511992539046332e-05,0.0338708758354187,-0.666844367980957,-0.9099387526512146,0.014266219921410084,0
159,0.0998169481754303,-0.030702082440257072,-0.04644360765814781,-0.6813808679580688,-0.975612223148346,0.013943388126790524,0
160,0.010998638346791267,0.11598996073007584,0.05477821081876755,-0.9003552794456482,-1.2333617210388184,0.015303846448659897,0
161,0.027325069531798363,-0.008508891798555851,0.054461412131786346,-0.6525760293006897,-1.0158826112747192,0.012728416360914707,0
162,0.012798424810171127,-0.03241177648305893,0.0626012533903122,-0.8079370856285095,-1.264352798461914,0.011877603828907013,0
163,-0.07377713918685913,0.06455503404140472,0.058912504464387894,-0.7205129265785217,-1.0418462753295898,0.015960002318024635,0
164,0.10560064017772675,-0.008306186646223068,-0.01933261565864086,-0.7231364846229553,-1.0795501470565796,0.015327777713537216,0
165,-0.015430433675646782,-0.07328452169895172,0.028783943504095078,-0.7928016185760498,-1.3805056810379028,0.008347328752279282,0
166,0.07505307346582413,0.09548228234052658,0.064125657081604,-0.8460855484008789,-1.33558189868927,0.012448986060917377,0
167,0.1050894483923912,0.0006499583832919598,0.08533554524183273,-0.6161029934883118,-1.3006476163864136,0.002149237086996436,0
168,0.029810793697834015,0.054482441395521164,-0.006748016923666,-0.6452329158782959,-1.0046734809875488,0.01277646142989397,0
169,-0.04087146744132042,0.02314138412475586,0.04050390422344208,-0.6679629683494568,-1.051617980003357,0.012601691298186779,0
170,-0.007646521087735891,0.016421768814325333,0.00019181333482265472,-0.6847594380378723,-1.0885438919067383,0.012876160442829132,0
171,-0.021567082032561302,0.036857206374406815,0.08378298580646515,-0.8308144807815552,-1.3176839351654053,0.012960262596607208,0
172,0.03475378826260567,-0.018671667203307152,0.050784192979335785,-0.7404804229736328,-1.5568034648895264,0.0028052697889506817,0
173,0.034376513212919235,0.03226471692323685,0.05415352061390877,-0.8058599829673767,-1.3373546600341797,0.012985164299607277,0
174,0.03360773250460625,0.042166370898485184,0.01692490093410015,-0.7885785102844238,-1.1703740358352661,0.017562875524163246,0
175,0.05309683457016945,0.05954389274120331,-0.014523429796099663,-0.7754920721054077,-1.243979811668396,0.014775549061596394,0
176,0.06335877627134323,0.10650218278169632,0.08060362190008163,-0.8326588869094849,-1.2331215143203735,0.017910048365592957,0
177,-0.008769056759774685,0.07766056805849075,0.02891111932694912,-0.5454187989234924,-0.9606377482414246,0.013334856368601322,0
178,0.09795276820659637,-0.007645999081432819,0.052120406180620193,-0.8564024567604065,-1.349859595298767,0.015455341897904873,0
179,-0.021561257541179657,0.01777813956141472,-0.028607290238142014,-0.6297213435173035,-1.445375680923462,0.003792801173403859,0
180,-0.01754031516611576,0.019901910796761513,-0.008483799174427986,-0.8538360595703125,-1.321136474609375,0.017793281003832817,0
181,-0.013838998973369598,0.014786039479076862,-0.05769982561469078,-0.6290226578712463,-0.8990252017974854,0.01825801096856594,0
182,-0.043620966374874115,0.0073328325524926186,0.09580696374177933,-0.78730708360672,-1.3029286861419678,0.014158684760332108,0
183,-0.010186878964304924,0.09206096827983856,-0.05822198465466499,-0.6452032327651978,-1.4770288467407227,0.005403099115937948,0
184,-0.043596331030130386,0.0370834656059742,-0.056968532502651215,-0.8002455830574036,-1.216778039932251,0.01794784516096115,0
185,-0.030761659145355225,0.0874248817563057,0.059692300856113434,-0.6563807129859924,-1.4114118814468384,0.006675438489764929,0
186,0.0018612939165905118,-0.020460715517401695,-0.08637512475252151,-0.8737314939498901,-1.1020467281341553,0.0243727695196867,0
187,-0.02145816758275032,-0.031034713611006737,0.004825272597372532,-0.8408408761024475,-1.0635939836502075,0.02364281937479973,0
188,-0.04775924235582352,0.06914243847131729,0.09876730293035507,-0.6856397390365601,-1.101260781288147,0.017226336523890495,0
189,-0.03503341227769852,0.05493722856044769,0.08208750188350677,-0.8290506601333618,-1.1956961154937744,0.01941831037402153,0
190,-0.017561310902237892,0.02903636544942856,0.030955659225583076,-0.6777397394180298,-0.943146288394928,0.02377200312912464,0
191,0.04902009293437004,-0.009427081793546677,0.007275319658219814,-0.757620632648468,-1.2057801485061646,0.01898065023124218,0
192,0.21541337668895721,0.12946026027202606,0.014824283309280872,-0.6892436146736145,-1.0152047872543335,0.02237432450056076,0
193,0.03460962697863579,0.10703786462545395,0.041254960000514984,-0.703585684299469,-1.0664342641830444,0.021753014996647835,0
194,-0.02034161426126957,0.027961857616901398,0.030123556032776833,-0.8430995345115662,-1.236824870109558,0.019913751631975174,0
195,0.0745675265789032,-0.02434375323355198,0.009268512018024921,-0.6894893646240234,-1.3002865314483643,0.016713440418243408,0
196,0.0059341429732739925,0.019598664715886116,-0.008697055280208588,-0.7670431137084961,-1.2835718393325806,0.01886957883834839,0
197,0.08315806090831757,0.11238555610179901,0.0010628709569573402,-0.7622762322425842,-1.2710013389587402,0.019122714176774025,0
198,0.03307706490159035,-0.1434292197227478,0.011737599968910217,-0.6289420127868652,-1.5830013751983643,0.008972687646746635,0
199,0.0802953690290451,0.07825508713722229,-0.04255814105272293,-0.78531813621521,-1.368421196937561,0.018700724467635155,0
200,0.019863853231072426,0.07177224010229111,0.0525524765253067,-0.8404120802879333,-1.204427719116211,0.023930436000227928,0
201,0.013693437911570072,0.08913037925958633,0.031413912773132324,-0.6255124807357788,-1.4024569988250732,0.011599920690059662,0
202,0.04523391276597977,0.003956206608563662,0.13800007104873657,-0.6556113362312317,-1.29386568069458,0.014790152199566364,0
203,0.05819878354668617,0.08405757695436478,-0.003913679625838995,-0.807051956653595,-1.211055874824524,0.022758755832910538,0
204,0.08745559304952621,0.06371258199214935,0.1090763583779335,-0.6010600924491882,-1.3408023118972778,0.013601982034742832,0
205,0.05361435189843178,-0.046205490827560425,-0.13629379868507385,-0.6373425126075745,-1.1821014881134033,0.01699460670351982,0
206,0.12108331173658371,0.07292389869689941,0.07643350958824158,-0.8575059175491333,-1.1904922723770142,0.02275337278842926,0
207,0.06961259245872498,-0.10716332495212555,0.16180501878261566,-0.7673332095146179,-0.8767496347427368,0.026268500834703445,0
208,0.05195064842700958,0.057020142674446106,0.03258686885237694,-0.6345279812812805,-1.2160804271697998,0.020362285897135735,0
209,0.008267045021057129,0.03482804819941521,0.023027200251817703,-0.9193189740180969,-1.2189712524414062,0.023609718307852745,0
210,-0.04521431401371956,-0.01493856217712164,-0.032094597816467285,-0.8780609965324402,-1.158099889755249,0.024871813133358955,0
211,-0.04641742259263992,0.08852201700210571,-0.044920552521944046,-0.8439512848854065,-1.2364373207092285,0.02178180404007435,0
212,0.15977703034877777,0.08836333453655243,0.3797614574432373,-0.8150774240493774,-1.2896803617477417,0.019723212346434593,0
213,0.07361146807670593,-0.3474820852279663,-1.4684233665466309,-0.5324276685714722,-1.194870114326477,0.021084893494844437,0
214,0.33040738105773926,-1.190411925315857,-2.273117780685425,-0.8239277601242065,-1.182111382484436,0.02037508599460125,0
215,-0.31760039925575256,-0.4321818947792053,-0.24376723170280457,-0.7909156680107117,-1.1665362119674683,0.01960550621151924,0
216,0.5000007152557373,-0.2683340907096863,1.6218215227127075,-0.7664869427680969,-1.1483033895492554,0.02654426172375679,0
217,0.36315956711769104,0.9410061240196228,0.20195357501506805,-0.6189663410186768,-0.872073769569397,0.03428030014038086,0
218,0.5448940992355347,-0.22485366463661194,0.2684100568294525,-0.6878987550735474,-1.162004828453064,0.029454167932271957,0
219,-0.6992393732070923,-0.19376179575920105,0.6451342105865479,-0.6768990159034729,-1.1337553262710571,0.031566083431243896,0
220,-1.1625940799713135,-0.04749627038836479,-2.6005899906158447,-0.6063605546951294,-1.3690400123596191,0.028603646904230118,0
221,-2.490873098373413,3.3970401287078857,-4.0182061195373535,-0.7107219099998474,-0.9909474849700928,0.017579972743988037,0
222,1.2186270952224731,-1.1428934335708618,-0.3198448121547699,-0.2583369314670563,-0.994982123374939,-0.02464209869503975,0
223,1.647944688796997,-0.8089057207107544,6.566556930541992,-0.5097721219062805,-1.280759572982788,-0.02968837320804596,0
224,1.8930054903030396,-0.7483817934989929,8.029271125793457,-0.7904973030090332,-0.9320888519287109,0.02440781332552433,0
225,2.9991214275360107,-0.08715954422950745,9.595211029052734,-0.6829740405082703,-1.1190060377120972,0.10365628451108932,0
226,-2.338613748550415,1.338253140449524,8.837404251098633,-0.8489219546318054,-1.0575132369995117,0.19605928659439087,0
227,1.2518969774246216,5.25063419342041,6.480138301849365,-0.7877079248428345,-0.890753448009491,0.2898187041282654,0
228,-4.57457971572876,0.4545632004737854,5.45311975479126,-0.7467524409294128,-0.5712207555770874,0.36479294300079346,0
229,7.2929840087890625,-11.012567520141602,8.792978286743164,-0.6832114458084106,-0.7498651742935181,0.4210127294063568,0
230,-10.298896789550781,1.188023567199707,10.344586372375488,-0.5776866674423218,-0.5022717714309692,0.5022968649864197,0
231,-2.9168860912323,17.62480354309082,9.886728286743164,-1.3050193786621094,-0.7648511528968811,0.5587049722671509,0
232,8.776071548461914,-14.485568046569824,4.90427827835083,-1.3265472650527954,-0.5058857202529907,0.6822770237922668,0
233,8.565528869628906,-28.84949493408203,0.2283816784620285,-1.1578158140182495,-0.5121670961380005,0.7467221021652222,0
234,-29.414838790893555,-0.876725435256958,-1.4429738521575928,-1.4151259660720825,-0.17982199788093567,0.7347574234008789,0
235,-29.787261962890625,-2.038881301879883,-0.02392851561307907,-1.1740072965621948,-0.6352907419204712,0.7143263220787048,0
236,-4.961843967437744,-10.257225036621094,3.1065924167633057,-1.79157555103302,-0.33168235421180725,0.7033438682556152,0
237,20.736255645751953,-25.770790100097656,4.621943950653076,-1.7954922914505005,-0.27558213472366333,0.7364113926887512,0
238,32.26552200317383,-37.636695861816406,5.3476948738098145,-1.3555631637573242,0.024120470508933067,0.8245527744293213,0
239,34.48161315917969,-48.65079879760742,7.229578018188477,-1.7330232858657837,0.5481073260307312,0.8106047511100769,0
240,20.70016098022461,-53.98336410522461,7.731218338012695,-0.9197148084640503,0.9801127910614014,0.9442600607872009,0
241,-8.805588722229004,-48.08391189575195,6.065021991729736,-0.8797480463981628,1.4416412115097046,0.9292733073234558,0
242,-38.92888259887695,-38.332271575927734,5.770292282104492,-0.4406486749649048,1.1100980043411255,0.9496226906776428,0
243,-61.50166320800781,-38.11255645751953,4.688904762268066,-0.06291258335113525,1.763932704925537,1.0261540412902832,0
244,-75.63809967041016,-45.88594436645508,1.799525260925293,0.1792401820421219,1.1142148971557617,1.0372962951660156,0
245,-76.9861068725586,-57.89922332763672,2.4682233333587646,-0.3302127420902252,0.16102981567382812,0.7148926258087158,0
246,-61.24607849121094,-61.52121353149414,4.491038799285889,0.4632057547569275,-0.9977005124092102,0.8609078526496887,0
247,-36.21567153930664,-66.20594024658203,3.2179553508758545,0.9959834814071655,-1.6691994667053223,0.8953558802604675,0
248,-10.622673034667969,-69.25373077392578,1.0301553010940552,1.9933384656906128,-2.2230920791625977,1.0234973430633545,0
249,5.527994155883789,-62.960479736328125,0.5206241607666016,3.1481008529663086,-2.395296573638916,1.0877233743667603,0
250,16.283153533935547,-48.7093391418457,0.7564690709114075,4.733602046966553,-2.4940338134765625,1.1357991695404053,0
251,20.72607421875,-22.96710968017578,1.6536132097244263,5.099611759185791,-2.280939817428589,1.138624668121338,0
252,20.784881591796875,2.044222354888916,2.268016815185547,4.383596897125244,-2.3497557640075684,1.4788926839828491,0
253,13.104053497314453,18.068958282470703,1.161002516746521,5.1444854736328125,-2.009303569793701,1.2763139009475708,0
254,-0.41547444462776184,23.507282257080078,1.3676153421401978,4.769306659698486,-2.0341296195983887,1.4564684629440308,0
255,-10.262965202331543,27.245859146118164,1.7296366691589355,5.747525691986084,-2.9711556434631348,2.0337913036346436,0
256,-13.846614837646484,27.537317276000977,0.5172062516212463,4.827393531799316,-2.7585320472717285,1.9089280366897583,0
257,-10.816977500915527,26.42572784423828,1.6751636266708374,4.372286796569824,-3.193666458129883,2.219904899597168,0
258,-4.304308891296387,19.573854446411133,1.7199040651321411,3.473548173904419,-2.622277021408081,1.7841989994049072,0
259,6.005636215209961,9.377606391906738,3.3370096683502197,3.686863660812378,-2.787186622619629,1.7584174871444702,0
260,16.097753524780273,0.8849011063575745,4.009535789489746,3.0282208919525146,-3.4260523319244385,2.5036675930023193,0
261,26.12729263305664,-6.192292213439941,1.5496642589569092,4.3053669929504395,-3.3421177864074707,2.1464974880218506,0
262,35.5872688293457,-9.311131477355957,2.3156728744506836,3.857151508331299,-2.8725013732910156,2.1687211990356445,0
263,42.18811798095703,-2.084054946899414,3.124290704727173,4.011654376983643,-2.2321319580078125,1.9401895999908447,0
264,46.26704406738281,5.6588311195373535,5.591841697692871,4.003170967102051,-1.5158054828643799,1.7688390016555786,0
265,42.34536361694336,12.474788665771484,7.815526008605957,4.873264789581299,-0.3694376051425934,1.0706630945205688,0
266,31.703386306762695,15.14700698852539,11.306828498840332,3.698465585708618,-0.34275150299072266,1.6373820304870605,0
267,13.973593711853027,19.927888870239258,10.485298156738281,3.6769304275512695,0.5366764664649963,1.3226512670516968,0
268,-5.552566051483154,19.212650299072266,11.619342803955078,4.009383678436279,0.4826975464820862,1.5855449438095093,0
269,-25.503690719604492,17.324928283691406,10.49455738067627,3.224635601043701,-0.34030380845069885,2.2051424980163574,0
270,-38.33949279785156,18.662872314453125,8.029994010925293,3.4730565547943115,-0.8288294672966003,2.5114104747772217,0
271,-40.94558334350586,23.50872039794922,5.997001647949219,2.038825511932373,-1.3517673015594482,2.5791969299316406,0
272,-30.50993537902832,25.586849212646484,6.00935697555542,2.2340457439422607,-1.8286820650100708,2.698962688446045,0
273,-13.16489028930664,22.004724502563477,6.127451419830322,1.8495283126831055,-2.259558916091919,2.788459539413452,0
274,9.877985000610352,13.863703727722168,6.653201580047607,1.9702093601226807,-2.0871310234069824,2.692451000213623,0
275,32.16984558105469,4.702045440673828,8.197300910949707,1.8763922452926636,-2.1070499420166016,2.772747278213501,0
276,47.030643463134766,-2.4849674701690674,8.405464172363281,1.8794763088226318,-0.9736242294311523,2.5618443489074707,0
277,53.86906433105469,-4.763488292694092,10.433267593383789,2.058316230773926,-0.5532371401786804,2.6408262252807617,0
278,46.12913513183594,-2.7148330211639404,12.008605003356934,1.850829839706421,0.1705724596977234,2.695390224456787,0
279,28.1392879486084,3.7057735919952393,11.43194580078125,2.2893424034118652,1.0199087858200073,2.7307653427124023,0
280,4.536208152770996,9.587267875671387,11.063455581665039,1.935066819190979,0.8707177639007568,2.925312042236328,0
281,-22.73918914794922,14.10706615447998,10.396592140197754,1.6079972982406616,0.647418200969696,3.069182872772217,0
282,-42.88383102416992,14.91669750213623,9.87092399597168,1.2737658023834229,0.08507264405488968,3.210143804550171,0
283,-48.59305953979492,8.283485412597656,9.007001876831055,1.5347304344177246,-0.9294243454933167,3.4976515769958496,0
284,-36.104393005371094,-0.823251485824585,7.919184684753418,0.8401680588722229,-1.804326057434082,3.5334360599517822,0
285,-8.308955192565918,-7.586977481842041,7.642734527587891,1.035719394683838,-2.2106802463531494,3.6377785205841064,0
286,26.211605072021484,-13.639471054077148,6.925671577453613,1.1572591066360474,-0.8110180497169495,3.599381923675537,0
287,53.406005859375,-12.124277114868164,7.758586883544922,1.7438793182373047,-0.4533250331878662,3.6817290782928467,0
288,59.71934127807617,-7.028611660003662,8.823853492736816,1.3095988035202026,0.1559004932641983,3.721776247024536,0
289,51.96812438964844,1.1914441585540771,8.264965057373047,1.5023306608200073,0.9465769529342651,3.8049330711364746,0
290,30.318132400512695,4.930217742919922,7.7528910636901855,1.5889532566070557,1.4567532539367676,3.9005227088928223,0
291,0.9528253674507141,4.688831806182861,6.806392669677734,2.852527618408203,1.6846503019332886,4.260825157165527,0
292,-27.147573471069336,5.525684356689453,5.172109127044678,3.813246250152588,1.2250295877456665,4.678799629211426,0
293,-47.63230895996094,11.789408683776855,2.763002634048462,5.281010627746582,0.7077162265777588,5.244095802307129,0
294,-53.626670837402344,25.12409782409668,2.2661333084106445,5.147529125213623,0.051865316927433014,5.354626655578613,0
295,-47.97022247314453,44.15485382080078,4.470401287078857,4.341640472412109,0.2313585877418518,4.932130336761475,0
296,-34.14040756225586,60.853668212890625,7.21419620513916,3.241161346435547,-0.4776241183280945,4.930150985717773,0
297,-14.210653305053711,74.79354858398438,6.212188243865967,1.9989913702011108,-1.6830005645751953,5.249130725860596,0
298,10.091164588928223,78.04676055908203,2.900954246520996,0.2724650502204895,-0.9846545457839966,4.853671550750732,0
299,32.679019927978516,71.83615112304688,2.19709849357605,-2.2108659744262695,-0.5501878261566162,4.565302848815918,0
300,41.309410095214844,54.09081268310547,2.2382166385650635,-2.8910629749298096,-0.7334109544754028,4.60205078125,0
301,40.82300567626953,28.755285263061523,1.3762398958206177,-3.245865821838379,-0.4218798279762268,4.626377105712891,0
302,37.22128677368164,-1.088152527809143,2.6934268474578857,-3.8244335651397705,0.7987422943115234,4.938459396362305,0
303,25.91324234008789,-33.29453659057617,3.629887580871582,-4.587130546569824,1.4837936162948608,5.017580986022949,0
304,5.641672134399414,-66.20679473876953,3.4941163063049316,-3.5215883255004883,1.5420666933059692,5.085413932800293,0
305,-17.707136154174805,-91.67973327636719,2.071402072906494,-2.793828010559082,1.7514421939849854,5.214754581451416,0
306,-37.279422760009766,-98.45743560791016,-0.5643644332885742,-1.2653628587722778,1.2162115573883057,5.112724304199219,0
307,-49.973567962646484,-86.52555084228516,-3.0827505588531494,0.15017274022102356,0.45015063881874084,4.937937259674072,0
308,-50.590518951416016,-57.7528190612793,-5.315911293029785,1.3128221035003662,-0.6530241966247559,4.635901927947998,0
309,-38.780452728271484,-17.885034561157227,-6.647921085357666,1.696061134338379,-1.8038886785507202,4.2725653648376465,0
310,-17.829261779785156,26.306476593017578,-5.90500545501709,1.9025706052780151,-1.9698172807693481,4.289638519287109,0
311,9.716227531433105,61.65350341796875,-5.866482734680176,1.5007634162902832,-1.063913106918335,4.4119415283203125,0
312,32.78573989868164,82.30503845214844,-8.935883522033691,1.6770099401474,-0.9198930263519287,4.3500800132751465,0
313,43.68341064453125,87.43753814697266,-12.291943550109863,0.11883596330881119,-0.03723303601145744,4.291907787322998,0
314,43.074344635009766,80.8442611694336,-15.501237869262695,0.015036826021969318,0.42675673961639404,4.180343151092529,0
315,29.793201446533203,60.47563552856445,-17.94768714904785,-0.7964368462562561,0.6227495670318604,4.021174907684326,0
316,9.660140991210938,35.85104751586914,-18.362077713012695,-0.9334587454795837,0.764250636100769,3.8630988597869873,0
317,-9.809755325317383,10.91436767578125,-17.69701385498047,-1.3739585876464844,0.76570725440979,3.6630911827087402,0
318,-26.6658935546875,-9.379692077636719,-17.381235122680664,-2.1418960094451904,0.686764657497406,3.4030232429504395,0
319,-37.83639907836914,-23.478803634643555,-17.000608444213867,-2.046325445175171,0.17891965806484222,3.1509852409362793,0
320,-41.68547821044922,-31.886232376098633,-16.7419376373291,-2.1706323623657227,-0.3877291977405548,2.8465657234191895,0
321,-36.38216781616211,-34.18391418457031,-15.86328411102295,-1.8401745557785034,-1.3859580755233765,2.4380059242248535,0
322,-24.399131774902344,-30.330001831054688,-13.984711647033691,-1.0408549308776855,-1.5630000829696655,2.406944990158081,0
323,-4.6199235916137695,-19.78066062927246,-13.836066246032715,-1.6777089834213257,-0.6861617565155029,2.715749979019165,0
324,15.48795223236084,-5.340114593505859,-14.421099662780762,-0.6086134314537048,-0.7792724370956421,2.5958096981048584,0
325,26.8730411529541,4.8511457443237305,-12.86989688873291,-0.32376527786254883,-0.6382175087928772,2.4668924808502197,0
326,29.202974319458008,16.66325569152832,-11.330904006958008,-0.9085444808006287,-0.28587600588798523,2.3760013580322266,0
327,22.96246337890625,27.993759155273438,-11.252663612365723,-1.271519422531128,-0.055766548961400986,2.246168851852417,0
328,11.18519115447998,30.2457332611084,-11.642496109008789,-1.4933040142059326,-0.7920663356781006,1.8005763292312622,0
329,-1.4385298490524292,25.83237648010254,-9.232911109924316,-1.6225804090499878,-0.6170450448989868,1.6935898065567017,0
330,-8.401028633117676,17.710451126098633,-7.623608112335205,-0.9907547235488892,-0.6312879920005798,1.5777630805969238,0
331,-10.709972381591797,5.887008190155029,-6.974946022033691,-0.8405447006225586,-0.7355514764785767,1.4857414960861206,0
332,-8.310425758361816,2.2704379558563232,-7.165165901184082,-0.27330875396728516,-0.727860689163208,1.441667914390564,0
333,-3.7834789752960205,7.804993629455566,-6.927175045013428,-0.40505531430244446,-0.8224950432777405,1.3717066049575806,0
334,3.2154760360717773,16.069726943969727,-6.078108787536621,0.513634204864502,-0.8289303779602051,1.2883344888687134,0
335,10.098993301391602,30.815088272094727,-4.870593070983887,0.09739381074905396,-0.7289085388183594,1.2518140077590942,0
336,12.941437721252441,47.476280212402344,-4.298379898071289,0.1377945989370346,-0.5512809753417969,1.2026805877685547,0
337,13.401360511779785,63.23031997680664,-3.8656322956085205,-0.5081105828285217,-0.47054243087768555,1.151713490486145,0
338,10.048476219177246,73.53449249267578,-3.2056126594543457,-0.9911182522773743,-0.4495295584201813,1.0828834772109985,0
339,6.6803131103515625,71.77440643310547,-3.1258463859558105,-2.183074951171875,-0.26308250427246094,1.069148063659668,0
340,4.761312484741211,62.18954086303711,-2.9971823692321777,-2.6514742374420166,-0.15001915395259857,1.041327953338623,0
341,2.608466863632202,43.72785568237305,-3.1421923637390137,-3.5586748123168945,-0.07617882639169693,1.0176424980163574,0
342,2.451622247695923,23.78155517578125,-3.6665382385253906,-3.654165029525757,-0.032737668603658676,0.9974443912506104,0
343,2.5675508975982666,4.553439617156982,-3.763424873352051,-4.0761332511901855,-0.06033610552549362,0.9390122294425964,0
344,2.567676305770874,-4.479644298553467,-3.510549783706665,-3.511085271835327,-0.011298069730401039,0.9329685568809509,0
345,1.6464704275131226,-5.875390529632568,-3.128387212753296,-3.651212215423584,0.03230975940823555,0.9013270735740662,0
346,-0.33691880106925964,5.525516986846924,-2.961477279663086,-3.888608694076538,0.06457791477441788,0.858138918876648,0
347,-3.1321098804473877,18.624713897705078,-2.666794538497925,-4.904934406280518,1.4131003618240356,1.5812585353851318,0
348,-5.39329719543457,25.63509750366211,-5.179953575134277,-5.160067558288574,1.2835396528244019,1.4812566041946411,0
349,-11.431446075439453,23.99390983581543,-5.676552772521973,-4.924026966094971,0.9724005460739136,1.3197466135025024,0
350,-20.250696182250977,11.03085994720459,-5.174895763397217,-5.0976057052612305,0.594456136226654,1.0773465633392334,0
351,-25.17683219909668,-2.6019835472106934,-4.106396198272705,-4.773603916168213,0.41219189763069153,1.106732726097107,0
352,-24.53143882751465,-14.709526062011719,-4.0327839851379395,-4.949880599975586,0.03343445807695389,0.9326954483985901,0
353,-20.167020797729492,-18.981796264648438,-3.6039535999298096,-4.543857574462891,-0.18366223573684692,0.9700931310653687,0
354,-14.35934829711914,-19.401256561279297,-3.691133975982666,-4.629491806030273,-0.5401245355606079,0.7855541706085205,0
355,-7.783351421356201,-13.615280151367188,-2.821220636367798,-3.880624294281006,-0.6411703824996948,0.8606583476066589,0
356,-1.6350101232528687,-5.534787654876709,-3.0631139278411865,-3.8764407634735107,-0.7129854559898376,0.8374589085578918,0
357,2.3563594818115234,5.939352035522461,-3.2837438583374023,-3.3866567611694336,-0.8303267955780029,0.7696151733398438,0
358,2.970848321914673,14.936808586120605,-3.4065680503845215,-3.6363484859466553,-0.8129118084907532,0.736284077167511,0
359,2.208116054534912,21.10580825805664,-3.470843553543091,-3.9248898029327393,-0.8558666706085205,0.6515699625015259,0
360,-0.3045189380645752,21.630769729614258,-3.3953840732574463,-3.9335129261016846,-0.899623453617096,0.5700550079345703,0
361,-1.8872764110565186,16.151840209960938,-3.1981191635131836,-4.142222881317139,-0.9589188098907471,0.4909406900405884,0
362,-2.026414155960083,8.20133113861084,-3.1511731147766113,-4.50267219543457,-1.027888298034668,0.42680200934410095,0
363,-1.3071478605270386,-1.096571445465088,-2.7527129650115967,-4.3678202629089355,-1.0902296304702759,0.3542833626270294,0
364,-0.44303181767463684,-10.246420860290527,-2.787322521209717,-4.4316020011901855,-1.069137454032898,0.3561002314090729,0
365,0.7359775900840759,-14.912805557250977,-2.8882803916931152,-4.485448837280273,-1.032165288925171,0.3705728054046631,0
366,2.1044623851776123,-16.57218360900879,-3.158113479614258,-4.451243877410889,-1.0446035861968994,0.3456408381462097,0
367,2.0771071910858154,-16.34342384338379,-3.015950918197632,-4.240548133850098,-1.0381511449813843,0.30726414918899536,0
368,1.9213123321533203,-14.885560035705566,-2.631035804748535,-4.093733310699463,-1.0277212858200073,0.2728687524795532,0
369,2.1055829524993896,-11.859484672546387,-2.129805088043213,-4.348548889160156,-0.8121983408927917,0.40955305099487305,0
370,2.7727136611938477,-10.220605850219727,-2.696145534515381,-4.511414527893066,-1.0107898712158203,0.2738543748855591,0
371,2.6458070278167725,-12.25341796875,-2.1607959270477295,-4.447597980499268,-0.9755833148956299,0.2593466639518738,0
372,3.7698888778686523,-18.17416000366211,-1.583940863609314,-4.2484636306762695,-0.8075363636016846,0.3173021078109741,0
373,4.626232624053955,-25.72181510925293,-1.8597679138183594,-3.9405288696289062,-0.8441386222839355,0.24972710013389587,0
374,4.865772724151611,-29.971927642822266,-1.3096401691436768,-4.123509407043457,-1.1154279708862305,0.08897599577903748,0
375,4.885273456573486,-31.420621871948242,-0.1531703770160675,-3.7931947708129883,-1.0106638669967651,0.10908778756856918,0
376,7.107564926147461,-33.140323638916016,0.18367944657802582,-3.2981410026550293,-1.030994176864624,0.05209498107433319,0
377,8.691983222961426,-32.6870231628418,0.35221728682518005,-2.8681750297546387,-0.8831670880317688,0.09305712580680847,0
378,10.95579719543457,-29.672752380371094,0.22555898129940033,-2.394413471221924,-0.7117745876312256,0.12929747998714447,0
379,11.835776329040527,-25.279043197631836,-0.07561203837394714,-2.1089630126953125,-0.6524120569229126,0.11857354640960693,0
380,10.390995979309082,-18.78253936767578,0.013363027013838291,-1.8917979001998901,-0.38704952597618103,0.18506407737731934,0
381,8.164558410644531,-11.78950309753418,-0.5645825862884521,-1.8414340019226074,-0.3542921543121338,0.17310050129890442,0
382,4.327991008758545,-8.393656730651855,-0.2710939347743988,-1.601272702217102,-0.22237634658813477,0.17600364983081818,0
383,1.9310516119003296,-8.402597427368164,0.30363625288009644,-1.4745560884475708,-0.2147568315267563,0.15994377434253693,0
384,-0.1802741140127182,-11.579010963439941,0.19887152314186096,-1.3408278226852417,-0.3045525550842285,0.13559696078300476,0
385,-0.7895627021789551,-15.220083236694336,0.2539665400981903,-1.1609723567962646,-0.08080363273620605,0.17380978167057037,0
386,-0.10256283730268478,-18.628890991210938,-0.16726069152355194,-0.927329957485199,-0.14748381078243256,0.16580438613891602,0
387,-0.2543603181838989,-19.04380226135254,0.02471201680600643,-0.5977221131324768,-0.06999697536230087,0.17084313929080963,0
388,0.6322797536849976,-17.07609748840332,-0.16341030597686768,-0.33927977085113525,-0.1298019289970398,0.1681678146123886,0
389,0.4278006851673126,-11.191096305847168,-0.3754889965057373,-0.07981512695550919,-0.10918732732534409,0.16745717823505402,0
390,0.6031619310379028,-5.370574474334717,-0.06128153204917908,-0.109617218375206,0.11163302510976791,0.15308429300785065,0
391,0.3843696117401123,1.180734634399414,-0.24572385847568512,-0.3328185975551605,0.10736840218305588,0.14604300260543823,0
392,-1.8009244203567505,5.881715297698975,-0.3829183876514435,-0.3122662603855133,0.09082092344760895,0.14553159475326538,0
393,-3.8790345191955566,2.3954038619995117,-0.41421231627464294,-0.4140779972076416,0.11463972926139832,0.13586129248142242,0
394,-5.217278957366943,-4.076801300048828,-0.058466069400310516,-0.382131427526474,0.03743516281247139,0.14229148626327515,0
395,-6.042552471160889,-12.413875579833984,-0.12057223916053772,-0.243873730301857,-0.0571397989988327,0.15413515269756317,0
396,-6.231173038482666,-18.269235610961914,-0.5161020159721375,-0.12876349687576294,-0.1578841656446457,0.16079819202423096,0
397,-3.9427192211151123,-20.167949676513672,-0.7208958268165588,0.06784109771251678,-0.17583486437797546,0.15073475241661072,0
398,-1.1853601932525635,-17.98759651184082,-0.5987251996994019,0.41218072175979614,-0.22888298332691193,0.15595583617687225,0
399,0.8535814881324768,-12.808843612670898,-0.3686451017856598,0.6326819658279419,-0.23890987038612366,0.15243694186210632,0
400,1.8139159679412842,-5.557162284851074,-0.3130320608615875,0.762641191482544,-0.21853703260421753,0.14624431729316711,0
401,2.36529803276062,3.0105650424957275,-0.18388375639915466,0.8392328023910522,-0.37974345684051514,0.19783291220664978,0
402,2.8897864818573,9.492146492004395,-0.8706524968147278,0.7881389856338501,-0.18727508187294006,0.14424879848957062,0
403,3.7703957557678223,12.423222541809082,-1.3382998704910278,0.7137574553489685,-0.4023626148700714,0.21757808327674866,0
404,4.370594501495361,11.984172821044922,-1.7386879920959473,0.6009342074394226,-0.3183942139148712,0.18869340419769287,0
405,4.989904403686523,8.425285339355469,-1.9636220932006836,0.43784111738204956,-0.09684014320373535,0.1074105054140091,0
406,5.644949436187744,3.7230656147003174,-1.5818259716033936,0.4024457037448883,-0.015358755365014076,0.07795825600624084,0
407,4.037881374359131,-1.4194061756134033,-1.1125367879867554,0.37070760130882263,0.13040772080421448,0.028310395777225494,0
408,0.013540646061301231,-5.089041709899902,-1.1978853940963745,0.34205329418182373,0.5019134283065796,-0.10219773650169373,0
409,-3.8600759506225586,-7.514869213104248,-0.16304078698158264,0.37082886695861816,0.25015726685523987,-0.023846371099352837,0
410,-8.836813926696777,-8.017312049865723,-0.47040656208992004,0.4952278137207031,0.15415474772453308,-0.0020735266152769327,0
411,-11.343125343322754,-7.441544055938721,-0.9010875821113586,0.623549222946167,-0.13468468189239502,0.07458093762397766,0
412,-10.800088882446289,-2.901141881942749,-1.5203133821487427,0.8515648245811462,0.032514624297618866,-0.020978165790438652,0
413,-7.157495498657227,1.9786698818206787,-1.1748987436294556,0.7951598167419434,-0.6808361411094666,0.18346931040287018,0
414,-2.3044614791870117,9.397618293762207,-1.384229302406311,0.7318677306175232,-0.6102496981620789,0.11096125096082687,0
415,6.606094837188721,13.656719207763672,-1.2622188329696655,0.5758646726608276,-0.525087296962738,0.0493650920689106,0
416,13.048738479614258,17.54776382446289,0.32323822379112244,0.35281142592430115,-0.3935154676437378,-0.0012682745000347495,0
417,15.369901657104492,24.138408660888672,1.2012709379196167,0.05998113751411438,-0.24680374562740326,-0.018434852361679077,0
418,13.516286849975586,29.233814239501953,1.725543737411499,-0.23940788209438324,-0.1396804302930832,0.004646614193916321,0
419,8.353360176086426,32.54667663574219,1.753575325012207,-0.47162944078445435,0.5417963862419128,-0.157085120677948,0
420,1.1360430717468262,31.868200302124023,1.9971386194229126,-0.958821177482605,0.6166741847991943,-0.13582974672317505,0
421,-6.226113319396973,18.943950653076172,1.6630921363830566,-1.1711690425872803,0.17340441048145294,0.02494356967508793,0
422,-13.177127838134766,1.4519656896591187,0.6638803482055664,-1.3794305324554443,0.054883766919374466,0.0607706643640995,0
423,-14.656349182128906,-11.207351684570312,0.07750831544399261,-1.330644965171814,-0.010652135126292706,0.06394848972558975,0
424,-11.758893966674805,-21.915454864501953,-0.19871322810649872,-1.411195993423462,-0.5635729432106018,0.1338283270597458,0
425,-5.053152561187744,-21.459449768066406,-0.1596573144197464,-1.146000623703003,-0.6880533695220947,0.13748693466186523,0
426,3.76692271232605,-11.627705574035645,0.30233049392700195,-0.712770938873291,-0.6374678015708923,0.12763074040412903,0
427,12.88361644744873,3.6521568298339844,1.1966859102249146,-0.6024219989776611,-0.5912493467330933,0.1245557889342308,0
428,18.751266479492188,20.82984733581543,1.5288362503051758,-0.4093491733074188,-1.3591668605804443,0.2677454948425293,0
429,22.062280654907227,35.55750274658203,0.8136572241783142,-0.7165236473083496,-1.0138236284255981,0.25273397564888,0
430,26.471820831298828,44.020103454589844,0.45513853430747986,-1.088222622871399,-0.8195891976356506,0.263035386800766,0
431,29.670015335083008,38.450592041015625,0.5484026074409485,-1.6094729900360107,-0.36054569482803345,0.23968052864074707,0
432,30.953968048095703,22.93088722229004,1.2822505235671997,-1.9350063800811768,-0.0003378338587936014,0.23616717755794525,0
433,26.712644577026367,8.728974342346191,1.2968623638153076,-2.234492540359497,0.4186987578868866,0.2425362914800644,0
434,18.964948654174805,-10.43710994720459,0.6853383183479309,-2.3494880199432373,0.5523163080215454,0.26220080256462097,0
435,10.35860824584961,-29.492298126220703,0.650043785572052,-2.2204689979553223,0.9061775803565979,0.2678651213645935,0
436,3.0552756786346436,-41.54848098754883,0.5462983846664429,-1.9303686618804932,0.9788260459899902,0.2707403004169464,0
437,-3.8995532989501953,-40.14596939086914,0.3213309347629547,-1.4477674961090088,1.073020577430725,0.2738506495952606,0
438,-7.438419818878174,-37.64463424682617,0.7628189325332642,-1.3222744464874268,1.0661977529525757,0.25395849347114563,0
439,-8.384544372558594,-30.098730087280273,1.0035901069641113,-0.8211381435394287,1.0050264596939087,0.26393771171569824,0
440,-7.107504844665527,-15.590873718261719,1.0757025480270386,-0.47231993079185486,0.9309591054916382,0.2700580060482025,0
441,-4.111911296844482,-4.433584690093994,1.4427052736282349,-0.2036503553390503,0.9471110105514526,0.2852446436882019,0
442,-0.3060307204723358,1.0863008499145508,1.3087401390075684,-0.1035778746008873,0.8682036399841309,0.3033466041088104,0
443,1.24776291847229,8.108829498291016,1.3295650482177734,-0.3688342273235321,1.239000678062439,0.2772127389907837,0
444,1.5645195245742798,18.362350463867188,1.6436967849731445,-0.27086684107780457,1.0676149129867554,0.31711721420288086,0
445,-1.6760375499725342,26.11359214782715,1.5533111095428467,-0.4687027037143707,1.0368613004684448,0.3340626060962677,0
446,-4.8859543800354,29.468852996826172,1.2181316614151,-0.836337685585022,1.0331580638885498,0.337658166885376,0
447,-7.356349945068359,22.466793060302734,0.8089557886123657,-1.2090808153152466,0.975662887096405,0.3432585895061493,0
448,-8.150063514709473,6.975682258605957,-0.08306573331356049,-1.4552081823349,0.8100041151046753,0.3556908965110779,0
449,-5.140632629394531,-14.538899421691895,-0.47047996520996094,-1.365338683128357,0.928432047367096,0.3878740966320038,0
450,-2.266160488128662,-30.26822853088379,-0.6005359888076782,-1.0372505187988281,0.8072190284729004,0.41938841342926025,0
451,-0.8021259307861328,-34.546329498291016,-0.6058714389801025,0.08004901558160782,2.808908462524414,0.5187946557998657,0
452,-0.7370672225952148,-34.86783218383789,-0.010960942134261131,0.5314792394638062,2.6474759578704834,0.5216109156608582,0
453,-10.480457305908203,-19.658111572265625,1.4171711206436157,0.7183452844619751,2.5220913887023926,0.4769846796989441,0
454,-25.66136360168457,7.430054187774658,1.7046617269515991,0.919650137424469,2.17295503616333,0.49216553568840027,0
455,-41.05119705200195,35.92240524291992,0.9216392636299133,0.5603254437446594,1.8079140186309814,0.43804559111595154,0
456,-52.898738861083984,57.415279388427734,0.3563137948513031,-0.0023348901886492968,1.2848080396652222,0.4055173099040985,0
457,-56.45844268798828,65.06529998779297,0.33909371495246887,-0.849588930606842,0.6807982921600342,0.34986943006515503,0
458,-52.059120178222656,63.06425857543945,1.2453811168670654,-1.6452113389968872,-0.02058389037847519,0.33485570549964905,0
459,-41.81926727294922,45.26923751831055,1.4233342409133911,-2.3499956130981445,-0.4925188720226288,0.32554903626441956,0
460,-27.24983787536621,16.284513473510742,1.4699712991714478,-2.7889978885650635,-1.061927080154419,0.3551695644855499,0
461,-12.24813175201416,-9.59380054473877,0.34699559211730957,-2.9245071411132812,-1.2567389011383057,0.3804391026496887,0
462,1.4264674186706543,-38.40414810180664,-0.4885972738265991,-2.6277668476104736,-1.4967297315597534,0.42649680376052856,0
463,10.399096488952637,-50.98107147216797,-0.15562553703784943,-2.3471579551696777,-1.4553195238113403,0.4252360165119171,0
464,13.35732650756836,-51.37364959716797,-0.20717577636241913,-1.8964484930038452,-1.3614531755447388,0.4313492774963379,0
465,10.78152084350586,-45.25973892211914,0.11941534280776978,-1.4483065605163574,-1.2371281385421753,0.43666306138038635,0
466,3.9328255653381348,-29.03076934814453,0.1558135449886322,-0.7727224826812744,-1.156152367591858,0.45136576890945435,0
467,-5.846754550933838,-7.197715759277344,-0.5017625093460083,-0.925569474697113,-1.1882078647613525,0.4448002874851227,0
468,-13.168662071228027,5.911076068878174,-0.6971455812454224,-0.8074091076850891,-1.3539994955062866,0.43658480048179626,0
469,-17.549020767211914,9.453568458557129,-1.218498945236206,-0.8714976906776428,-1.6174930334091187,0.4222232699394226,0
470,-16.460338592529297,13.796919822692871,-1.6803052425384521,-0.937698245048523,-1.8509280681610107,0.4075668156147003,0
471,-10.886548042297363,15.758199691772461,-2.0441677570343018,-1.1286183595657349,-1.9128084182739258,0.3984467387199402,0
472,-1.763462781906128,14.343534469604492,-2.1096620559692383,-1.4045774936676025,-2.1582789421081543,0.3787003457546234,0
473,6.952523708343506,11.0730619430542,-2.5643258094787598,-1.5165438652038574,-2.185635566711426,0.3503212332725525,0
474,14.562010765075684,2.1861329078674316,-2.9172897338867188,-1.5528706312179565,-2.1438655853271484,0.3089028298854828,0
475,21.160520553588867,-6.796841144561768,-3.207118034362793,-1.5361336469650269,-2.182142972946167,0.2607945203781128,0
476,23.41817283630371,-20.913082122802734,-3.826735258102417,-1.2824574708938599,-1.8415578603744507,0.20398227870464325,0
477,22.7830867767334,-25.290742874145508,-2.8721790313720703,-1.683442234992981,-1.759985327720642,0.26748132705688477,0
478,18.677602767944336,-20.95257568359375,-2.4058046340942383,-1.3783562183380127,-1.4102771282196045,0.24007609486579895,0
479,14.532628059387207,-14.985687255859375,-2.3636417388916016,-1.1416196823120117,-1.3268182277679443,0.20836128294467926,0
480,6.377630710601807,-9.283942222595215,-2.0150258541107178,-0.921872079372406,-1.1876758337020874,0.1755477786064148,0
481,2.5807414054870605,-3.249443292617798,-2.0444185733795166,-1.0678739547729492,-1.1439995765686035,0.20485363900661469,0
482,0.05663202702999115,0.7352333664894104,-2.1510140895843506,-1.0183099508285522,-1.2296339273452759,0.17625123262405396,0
483,1.28568434715271,2.0984721183776855,-2.1655666828155518,-1.0259754657745361,-1.2647924423217773,0.15460100769996643,0
484,5.386144638061523,0.9218587279319763,-2.1280038356781006,-0.9160358905792236,-1.1954275369644165,0.10824400186538696,0
485,10.516242027282715,-3.0871269702911377,-2.215015172958374,-1.0636571645736694,-1.3447517156600952,0.10115516930818558,0
486,15.398370742797852,-10.419678688049316,-2.745532274246216,-0.911429226398468,-1.1239069700241089,0.058232493698596954,0
487,21.027658462524414,-22.22081184387207,-2.557802200317383,-0.6920682787895203,-0.8258994817733765,0.013941328972578049,0
488,22.738279342651367,-29.09113311767578,-2.2128255367279053,-0.6714035868644714,-0.6742832660675049,0.023502683266997337,0
489,20.713293075561523,-34.35554885864258,-2.0169217586517334,-0.2315036803483963,-0.3538972735404968,-0.024029657244682312,0
490,15.268351554870605,-29.908306121826172,-1.5926581621170044,0.167194202542305,-0.21506930887699127,-0.05362014099955559,0
491,9.103643417358398,-18.257387161254883,-1.254420518875122,0.32019147276878357,-0.15772107243537903,-0.04011651128530502,0
492,0.735684335231781,-2.5930893421173096,-1.6489124298095703,0.4231001138687134,-0.0036461730487644672,-0.03849456459283829,0
493,-2.255549192428589,7.036125659942627,-2.0583455562591553,0.5283457040786743,0.04411694407463074,-0.06049112603068352,0
494,-2.487490653991699,8.490360260009766,-2.0361859798431396,0.4994048774242401,0.04386521130800247,-0.08364845812320709,0
495,0.6102924346923828,7.502583026885986,-2.0128023624420166,0.526393473148346,-0.017124313861131668,-0.11212033778429031,0
496,3.883108615875244,6.8941426277160645,-1.757500410079956,0.5515536665916443,0.035478319972753525,-0.14656423032283783,0
497,8.30785083770752,-3.1112136840820312,-1.6826815605163574,0.6037957668304443,0.27856338024139404,-0.20024733245372772,0
498,10.115401268005371,-5.162289142608643,-0.7640548348426819,0.06308242678642273,0.01237958949059248,-0.13841745257377625,0
499,9.527873992919922,-6.353700160980225,-0.3628268837928772,0.290024071931839,0.07134397327899933,-0.15407505631446838,0
500,9.47459888458252,-11.672575950622559,-0.24489685893058777,0.4021124541759491,0.2003461718559265,-0.16807898879051208,0
501,9.571395874023438,-15.023419380187988,-0.4398551285266876,0.566528856754303,0.3958207070827484,-0.18829430639743805,0
502,8.864665031433105,-23.917116165161133,-0.11128894984722137,0.9489608407020569,0.37078648805618286,-0.1815604716539383,0
503,6.733203411102295,-29.4482479095459,0.42204511165618896,1.2248356342315674,0.544900119304657,-0.20090904831886292,0
504,4.502868175506592,-25.608911514282227,1.0705915689468384,1.088261604309082,0.5429854989051819,-0.1829516738653183,0
505,2.499384880065918,-13.370997428894043,1.230941653251648,1.4584252834320068,0.6503255367279053,-0.1881786733865738,0
506,1.0100276470184326,-8.586173057556152,2.186530113220215,1.7430589199066162,0.6501839756965637,-0.1678677499294281,0
507,0.5853721499443054,-2.2658703327178955,2.114497423171997,1.9236944913864136,0.6981974840164185,-0.15766829252243042,0
508,1.3294731378555298,-1.8028806447982788,2.4675867557525635,1.8754394054412842,0.45766976475715637,-0.07556300610303879,0
509,3.0156540870666504,-4.324578285217285,2.188218593597412,1.8242322206497192,0.5295648574829102,-0.07388939708471298,0
510,6.840078353881836,-7.485250949859619,2.507664442062378,2.518381118774414,0.7746390104293823,-0.08309215307235718,0
511,8.590144157409668,-1.6301378011703491,3.507004976272583,2.9621152877807617,0.983830451965332,-0.08750206232070923,0
512,6.663896083831787,12.972738265991211,4.243675708770752,1.4454491138458252,0.7822195291519165,-0.07038344442844391,0
513,2.483079195022583,30.225879669189453,4.167961597442627,1.3253244161605835,0.7675679922103882,0.0038169086910784245,0
514,0.9680908918380737,35.820274353027344,3.93035888671875,0.9846689105033875,0.7701583504676819,0.051208797842264175,0
515,0.37838175892829895,32.38793182373047,3.5745017528533936,0.7148340940475464,0.8210139274597168,0.09047428518533707,0
516,1.589789867401123,20.337135314941406,3.274933338165283,0.37102383375167847,0.7307414412498474,0.1625753790140152,0
517,3.5252811908721924,-3.6923627853393555,2.4072353839874268,0.27524876594543457,0.8097116351127625,0.19245998561382294,0
518,6.071577548980713,-30.84369468688965,1.5609170198440552,0.49976614117622375,0.9163945913314819,0.21926665306091309,0
519,8.456293106079102,-51.291263580322266,1.7571762800216675,0.9899115562438965,1.058597207069397,0.23215532302856445,0
520,8.525788307189941,-51.00404357910156,2.1095755100250244,1.8285585641860962,1.1445856094360352,0.2831065058708191,0
521,6.455104351043701,-38.219722747802734,2.1797776222229004,1.856040358543396,1.1565532684326172,0.2515169382095337,0
522,1.7899436950683594,-7.958939075469971,3.0829246044158936,2.1231329441070557,1.199254035949707,0.25387442111968994,0
523,-2.7407052516937256,23.05531120300293,3.3232955932617188,2.243542432785034,1.237839698791504,0.27415597438812256,0
524,-6.961942672729492,42.03091049194336,3.6049587726593018,1.9113494157791138,1.1983497142791748,0.29435116052627563,0
525,-8.998160362243652,46.896080017089844,3.763098955154419,1.4834034442901611,1.1045618057250977,0.33991172909736633,0
526,-8.728408813476562,43.7763557434082,3.899671792984009,1.0561649799346924,0.9873509407043457,0.4033505618572235,0
527,-5.76975154876709,27.988895416259766,3.7151598930358887,0.5949442386627197,0.8874338865280151,0.45163092017173767,0
528,-1.7602834701538086,12.972307205200195,2.7192838191986084,0.3091535270214081,0.839502215385437,0.4922523498535156,0
529,3.1377437114715576,-2.9664814472198486,2.2752065658569336,0.275751531124115,0.8549618124961853,0.5304933190345764,0
530,7.503270149230957,-21.120656967163086,1.9472384452819824,0.5065504312515259,0.9421569108963013,0.5713294148445129,0
531,9.475329399108887,-27.719606399536133,2.5584797859191895,0.6109223961830139,1.083287239074707,0.5542661547660828,0
532,8.971839904785156,-21.669071197509766,3.2020370960235596,1.055288553237915,1.2393633127212524,0.5859519243240356,0
533,4.848898410797119,-8.60925006866455,3.4297149181365967,1.4283843040466309,1.3704570531845093,0.6251757740974426,0
534,-2.2048914432525635,9.648771286010742,2.5950968265533447,1.5498467683792114,1.4200756549835205,0.6620514988899231,0
535,-9.56173038482666,26.40972328186035,1.9667510986328125,1.3765476942062378,1.2825968265533447,0.7101901173591614,0
536,-16.542821884155273,31.153850555419922,1.8571553230285645,1.0077601671218872,1.3142321109771729,0.6808137893676758,0
537,-19.08530044555664,27.312023162841797,2.1966145038604736,0.6070601940155029,0.9606509804725647,0.7410966157913208,0
538,-18.611631393432617,22.591224670410156,1.7113919258117676,0.25839489698410034,0.7998260855674744,0.7470594644546509,0
539,-14.65744686126709,9.959273338317871,1.2131644487380981,-0.03336009010672569,0.5856966376304626,0.7627084255218506,0
540,-7.65716552734375,1.8726924657821655,0.5411079525947571,-0.08446203172206879,0.37825390696525574,0.8011142611503601,0
541,0.3013651967048645,-5.16130256652832,0.23369339108467102,-0.014213940128684044,0.2901422381401062,0.8258873820304871,0
542,7.880645751953125,-15.839632987976074,-0.00403951620683074,-0.5829989314079285,0.32830676436424255,0.7201504111289978,0
543,11.330997467041016,-24.998050689697266,0.16297869384288788,-0.33396580815315247,0.4575091600418091,0.7263669967651367,0
544,12.380086898803711,-36.83934783935547,0.35524481534957886,0.0910634994506836,0.5675984621047974,0.7525169849395752,0
545,8.716110229492188,-36.94882583618164,0.8950589895248413,0.6255286931991577,0.7465627789497375,0.7685986161231995,0
546,1.9458739757537842,-31.467021942138672,0.8195211887359619,0.7798256874084473,0.6426393389701843,0.771953821182251,0
547,-6.217855453491211,-22.906967163085938,1.0945287942886353,1.0124289989471436,0.6450122594833374,0.769279420375824,0
548,-11.056798934936523,-11.661663055419922,1.0771592855453491,1.388209342956543,0.5397288799285889,0.802390456199646,0
549,-13.024140357971191,4.307906150817871,0.601573646068573,1.5460777282714844,0.5811769962310791,0.7922981381416321,0
550,-12.709519386291504,20.95331573486328,0.8332366347312927,1.511067271232605,0.3719327449798584,0.8118283152580261,0
551,-9.722039222717285,32.518131256103516,0.8703636527061462,1.2216674089431763,0.25050556659698486,0.8080333471298218,0
552,-4.236179828643799,30.26572036743164,1.2208861112594604,0.8111275434494019,0.11439784616231918,0.8127275109291077,0
553,1.6343504190444946,19.06412696838379,1.0356394052505493,0.6846461892127991,0.0666864812374115,0.8419243097305298,0
554,6.4462199211120605,10.003944396972656,0.533794105052948,0.4933675229549408,0.1093829944729805,0.8476021885871887,0
555,9.086631774902344,4.1031904220581055,0.19720685482025146,0.4427770674228668,0.22401978075504303,0.8502240777015686,0
556,9.773530006408691,-0.5333348512649536,0.018605923280119896,0.4834491014480591,0.3714633285999298,0.8503674268722534,0
557,6.922412395477295,-7.03863525390625,-0.011534107849001884,0.5434789061546326,0.5071123242378235,0.8497694730758667,0
558,1.8715802431106567,-7.898530006408691,-0.1226639598608017,0.665705680847168,0.5182992815971375,0.8608907461166382,0
559,-3.1778953075408936,-10.229796409606934,0.15928342938423157,0.8882524371147156,0.5246132612228394,0.8708835244178772,0
560,-8.189570426940918,-3.995565176010132,-0.14873641729354858,1.0738475322723389,0.44503042101860046,0.884185254573822,0
561,-9.883968353271484,2.3963396549224854,0.03975455090403557,0.9492955207824707,0.3728761076927185,0.8724513053894043,0
562,-9.572969436645508,7.38287353515625,0.27474796772003174,0.9695423245429993,0.2791205048561096,0.8732790946960449,0
563,-6.636977195739746,17.219125747680664,0.2397007793188095,0.5320868492126465,0.20147499442100525,0.8537871837615967,0
564,-2.804532766342163,28.052715301513672,0.5536256432533264,0.31761202216148376,0.16796033084392548,0.8492071628570557,0
565,0.011959221214056015,31.316572189331055,0.6906914114952087,0.08096010982990265,0.12003939598798752,0.8562856912612915,0
566,1.9711474180221558,20.400375366210938,0.3868626058101654,-0.3036665618419647,0.12111899256706238,0.8600878119468689,0
567,2.4589743614196777,1.423978567123413,0.4366928040981293,-0.4189690947532654,0.1454000174999237,0.8680615425109863,0
568,2.375399351119995,-20.801406860351562,0.34243300557136536,-0.2981584668159485,0.17288294434547424,0.8764665126800537,0
569,2.2617974281311035,-40.31385803222656,0.22111989557743073,-0.04546945542097092,0.27035951614379883,0.8771125674247742,0
570,0.6458977460861206,-49.10239791870117,0.7996793985366821,0.5519622564315796,0.2809966802597046,0.8827304244041443,0
571,-0.7717990279197693,-41.986732482910156,1.2701771259307861,1.0175505876541138,0.27826061844825745,0.8872079849243164,0
572,-4.185695171356201,-21.100202560424805,1.6738730669021606,1.5834966897964478,0.31237199902534485,0.8966770172119141,0
573,-7.68350887298584,-2.2268755435943604,1.1946189403533936,1.8879371881484985,0.2139061689376831,0.9172749519348145,0
574,-9.518213272094727,20.266342163085938,1.2003450393676758,1.8658827543258667,0.07740993797779083,0.9356469511985779,0
575,-10.697317123413086,37.16728210449219,1.4962034225463867,1.4490402936935425,0.1862327754497528,0.9238924384117126,0
576,-10.790407180786133,51.25547409057617,1.6042735576629639,0.9067745804786682,-0.08773711323738098,0.9568530917167664,0
577,-8.707870483398438,55.75795364379883,1.7237012386322021,0.12171928584575653,-0.13395166397094727,0.9637842774391174,0
578,-5.204690456390381,51.61989212036133,1.7097991704940796,-0.6161105632781982,-0.2819194495677948,0.9849613308906555,0
579,-0.8035761713981628,38.16581726074219,1.6350332498550415,-0.7531181573867798,-0.43690112233161926,1.0006952285766602,0
580,3.0844078063964844,15.022933006286621,1.3029537200927734,-1.1288970708847046,-0.37581488490104675,1.0096861124038696,0
581,6.696502208709717,-8.354890823364258,1.0204342603683472,-1.1948096752166748,-0.313992440700531,1.018082618713379,0
582,6.313017845153809,-24.363054275512695,1.538392186164856,-1.085452914237976,-0.2155074030160904,1.026349425315857,0
583,5.062418460845947,-38.22532653808594,1.6741355657577515,-1.0814557075500488,-0.1287539005279541,1.0505287647247314,0
584,2.266369104385376,-42.77016830444336,1.5986688137054443,-0.3968706429004669,-0.07269999384880066,1.0528624057769775,0
585,-1.470588207244873,-44.41634750366211,0.9196769595146179,0.35048606991767883,-0.1366773396730423,1.0503650903701782,0
586,-4.278785705566406,-34.625831604003906,0.3955906331539154,0.29350700974464417,-0.1762276142835617,1.086042046546936,0
587,-6.909043788909912,-11.656744956970215,0.14060764014720917,0.7060106992721558,-0.11626122891902924,1.0932079553604126,0
588,-7.447947025299072,14.440485000610352,0.05991377681493759,0.7270389795303345,-0.097173772752285,1.1044453382492065,0
589,-6.632133960723877,33.48310470581055,0.03723432123661041,0.44305291771888733,-0.22805112600326538,1.1156511306762695,0
590,-5.867464065551758,41.82918167114258,0.1364956647157669,0.18546323478221893,-0.3422093689441681,1.1112957000732422,0
591,-4.001737117767334,43.45500183105469,0.005488275084644556,-0.20926383137702942,-0.2944313883781433,1.113204836845398,0
592,-0.364122211933136,33.39070129394531,0.8663588166236877,-0.6622952818870544,-0.42975759506225586,1.1078453063964844,0
593,3.004779100418091,20.831451416015625,1.0300146341323853,-0.9615947604179382,-0.36467960476875305,1.1109859943389893,0
594,5.156006336212158,7.528012275695801,1.3601760864257812,-1.2005910873413086,-0.3251854479312897,1.1211028099060059,0
595,5.3966193199157715,-4.49276876449585,0.9583901166915894,-1.2986021041870117,-0.25801464915275574,1.1331548690795898,0
596,5.207454681396484,-12.307737350463867,0.9096919298171997,-1.140120029449463,-0.18380220234394073,1.1346083879470825,0
597,2.9975547790527344,-13.243118286132812,0.9575278162956238,-0.883634090423584,-0.12024842202663422,1.1317137479782104,0
598,-0.5022110939025879,-10.311846733093262,0.7282919883728027,-0.8328325152397156,-0.09488841891288757,1.14682936668396,0
599,-3.814382553100586,-6.8665337562561035,0.4622584581375122,-0.4556882083415985,-0.12301380932331085,1.1298089027404785,0
600,-7.206374168395996,1.3874914646148682,0.43211132287979126,-0.4652508497238159,-0.20647698640823364,1.1347986459732056,0
601,-8.19286060333252,3.2109999656677246,0.3020598292350769,-0.43098270893096924,-0.3318995237350464,1.1275420188903809,0
602,-6.213693618774414,1.8340013027191162,0.601693868637085,-0.5755045413970947,-0.46268606185913086,1.1326271295547485,0
603,-2.844845771789551,3.103276491165161,0.22814470529556274,-0.563160240650177,-0.5580225586891174,1.1304354667663574,0
604,1.8255736827850342,6.385249137878418,0.16435664892196655,-0.5696941018104553,-0.5909976959228516,1.13217294216156,0
605,5.753335475921631,10.6478271484375,0.23086924850940704,-0.7601914405822754,-0.5539281368255615,1.148961067199707,0
606,8.919498443603516,15.33116626739502,0.7713804841041565,-0.8621844053268433,-0.4541566073894501,1.1582589149475098,0
607,9.148538589477539,17.938169479370117,0.8069578409194946,-1.045006275177002,-0.31996476650238037,1.1758899688720703,0
608,7.730517387390137,9.08105182647705,1.0996111631393433,-1.126538634300232,-0.18607676029205322,1.1805492639541626,0
609,3.9638259410858154,4.929861545562744,1.2591463327407837,-1.1782633066177368,-0.0830070748925209,1.190485954284668,0
610,-0.7380926012992859,-5.015316009521484,1.7336852550506592,-1.1342369318008423,-0.04143733158707619,1.1917425394058228,0
611,-5.278880596160889,-13.557720184326172,1.941408395767212,-1.105629801750183,-0.07385580986738205,1.2009152173995972,0
612,-6.971619129180908,-14.276906967163086,2.179669141769409,-0.8990529775619507,-0.09514197707176208,1.2168940305709839,0
613,-7.6009345054626465,-8.04068374633789,1.9879827499389648,-0.908661425113678,-0.21912945806980133,1.2389343976974487,0
614,-5.553272247314453,4.700977802276611,1.8687340021133423,-0.6201816201210022,-0.33761805295944214,1.2360742092132568,0
615,-2.7054200172424316,14.86512565612793,2.1078941822052,0.16766825318336487,-0.49076831340789795,1.1750060319900513,0
616,0.46668049693107605,23.38433265686035,2.5988709926605225,-0.8049881458282471,-0.5231368541717529,1.2608983516693115,0
617,4.052014350891113,31.524085998535156,2.847740411758423,-1.8387953042984009,-0.21921324729919434,1.4079856872558594,0
618,6.18400239944458,31.399477005004883,2.411789894104004,-2.1896698474884033,-0.23666876554489136,1.4293286800384521,0
619,5.780819892883301,20.596345901489258,1.688260793685913,-2.4254612922668457,-0.1510745733976364,1.4533451795578003,0
620,3.49031925201416,6.449507713317871,1.3938145637512207,-2.585574150085449,-0.07587996870279312,1.469240665435791,0
621,0.5813658237457275,-13.156099319458008,1.2875428199768066,-2.4994711875915527,-0.038865577429533005,1.468044400215149,0
622,-2.223236560821533,-39.45720291137695,0.6032466292381287,-2.200220823287964,-0.18565133213996887,1.4194247722625732,0
623,-2.121683120727539,-56.18760681152344,1.0048176050186157,-1.6736253499984741,-0.07437252998352051,1.4525612592697144,0
624,-2.043645143508911,-57.720489501953125,0.848737359046936,-1.153510570526123,-0.3323596119880676,1.3926130533218384,0
625,-1.7683615684509277,-42.27383804321289,1.2592641115188599,-0.5307892560958862,-0.15247990190982819,1.4599454402923584,0
626,-0.6393840312957764,-17.398229598999023,1.2056677341461182,-0.18470720946788788,-0.12047499418258667,1.4931679964065552,0
627,-0.610755443572998,8.321775436401367,1.280597448348999,0.05264325812458992,-0.14676433801651,1.5023337602615356,0
628,-2.024257183074951,28.32801628112793,1.1425901651382446,-0.021632151678204536,-0.1706404685974121,1.5152679681777954,0
629,-4.218925476074219,40.53847885131836,1.3735250234603882,-0.30792173743247986,-0.22237615287303925,1.5214240550994873,0
630,-5.264556884765625,40.9713249206543,1.5035617351531982,-0.833766758441925,-0.3043023347854614,1.531156063079834,0
631,-4.035104274749756,27.074207305908203,1.5975199937820435,-1.0439279079437256,-0.32202693819999695,1.5385892391204834,0
632,-2.4233365058898926,8.188249588012695,1.3743795156478882,-1.4053266048431396,-0.3984716534614563,1.550843358039856,0
633,1.6067144870758057,-13.784360885620117,0.9810289740562439,-1.5164709091186523,-0.4321677088737488,1.5626155138015747,0
634,5.427679061889648,-29.97220802307129,1.0529325008392334,-1.1715141534805298,-0.40398404002189636,1.5632555484771729,0
635,7.261946201324463,-44.138423919677734,0.9146132469177246,-0.7064603567123413,-0.3193471431732178,1.5699564218521118,0
636,7.525602340698242,-42.495880126953125,1.2176803350448608,-0.2227584570646286,-0.2076910138130188,1.5848876237869263,0
637,5.067986965179443,-27.307397842407227,1.6566455364227295,-0.06496477872133255,-0.24463917315006256,1.59481942653656,0
638,1.3362680673599243,-3.5569820404052734,1.2515954971313477,0.19827796518802643,-0.17523133754730225,1.6160029172897339,0
639,-1.9698240756988525,17.961353302001953,1.0262054204940796,0.22954130172729492,-0.16756577789783478,1.6308954954147339,0
640,-3.901994228363037,32.71125411987305,1.3405890464782715,0.012544081546366215,-0.130052387714386,1.6517822742462158,0
641,-6.465859889984131,37.94331741333008,1.2932952642440796,-0.4001350998878479,-0.20137472450733185,1.6654554605484009,0
642,-7.271719455718994,33.18431091308594,0.9804551005363464,-0.7826461791992188,-0.3001439869403839,1.6742957830429077,0
643,-5.872613906860352,19.22311782836914,0.5502874851226807,-0.8568484783172607,-0.40185546875,1.6647071838378906,0
644,-4.265495777130127,6.267898082733154,0.714667022228241,-1.2511672973632812,-0.4910680651664734,1.6747263669967651,0
645,-0.5617847442626953,-6.379911422729492,0.3905605375766754,-1.224751591682434,-0.5464953184127808,1.6728872060775757,0
646,2.950601577758789,-15.5253267288208,0.2784508168697357,-1.1520285606384277,-0.6134452223777771,1.6689373254776,0
647,9.57951545715332,-24.871414184570312,0.3476398289203644,-0.7767709493637085,-0.4607173204421997,1.6762615442276,0
648,13.70659351348877,-33.54399108886719,-0.18249517679214478,-0.5383376479148865,-0.3643527030944824,1.6821985244750977,0
649,14.26169490814209,-33.96095657348633,0.5822793841362,-0.3917003870010376,-0.14004138112068176,1.7044873237609863,0
650,11.431870460510254,-22.06633949279785,1.2694870233535767,0.004816514439880848,0.006294975522905588,1.7046473026275635,0
651,6.127358913421631,-8.109088897705078,1.4950830936431885,0.350271612405777,0.17336274683475494,1.7141547203063965,0
652,-1.390891194343567,4.313473701477051,1.0050456523895264,0.5500932931900024,0.2497720867395401,1.7242176532745361,0
653,-9.323575019836426,12.66464614868164,1.0227552652359009,0.5636541247367859,0.19779014587402344,1.732129454612732,0
654,-13.017412185668945,20.799428939819336,0.615980327129364,0.4180314540863037,0.038412731140851974,1.7426509857177734,0
655,-13.306319236755371,24.625078201293945,0.8329750895500183,0.15991955995559692,-0.16167566180229187,1.7500721216201782,0
656,-11.169267654418945,24.52034568786621,0.5605866312980652,-0.1985587775707245,-0.21580630540847778,1.760015845298767,0
657,-6.216945171356201,24.376306533813477,0.6162276268005371,-0.4894823431968689,-0.37682807445526123,1.7660560607910156,0
658,1.1626242399215698,16.243200302124023,0.3977258503437042,-0.733076274394989,-0.4450095593929291,1.7712366580963135,0
659,6.388867378234863,8.96499252319336,0.502619206905365,-0.8718422651290894,-0.406409353017807,1.7737547159194946,0
660,11.56765365600586,-3.391077756881714,-0.05820140242576599,-0.8698315620422363,-0.2803562879562378,1.7772703170776367,0
661,13.777876853942871,-16.62986183166504,-0.3318975865840912,-0.7587096691131592,-0.1596607118844986,1.7750924825668335,0
662,12.469358444213867,-23.92582893371582,0.31169289350509644,-0.31869107484817505,0.3349374234676361,1.7736741304397583,0
663,8.767364501953125,-31.23026466369629,0.022563917562365532,-0.5401913523674011,0.22085502743721008,1.7795381546020508,0
664,1.7357513904571533,-30.88207244873047,0.15064220130443573,-0.25424304604530334,0.32732298970222473,1.7792153358459473,0
665,-5.072905540466309,-23.209217071533203,0.43598344922065735,0.15397970378398895,0.3314892649650574,1.7773590087890625,0
666,-11.318470001220703,-10.495467185974121,0.3076128363609314,0.37251797318458557,0.22938796877861023,1.780420184135437,0
667,-14.716755867004395,5.692309856414795,-0.2563210129737854,0.43960946798324585,0.2415313571691513,1.7817682027816772,0
668,-14.336106300354004,21.56215476989746,-0.03869345039129257,0.16904641687870026,0.06803353875875473,1.7781932353973389,0
669,-11.048127174377441,30.001070022583008,0.4391442537307739,-0.1520739495754242,-0.07945080101490021,1.7773221731185913,0
670,-7.638119220733643,29.375186920166016,0.5860807299613953,-0.35543861985206604,-0.2533000707626343,1.7827489376068115,0
671,-2.19999623298645,16.775009155273438,0.4551225006580353,-0.6582292318344116,-0.3561408817768097,1.7872090339660645,0
672,4.216732501983643,-3.8075571060180664,0.29379701614379883,-0.6554271578788757,-0.3624388575553894,1.7916481494903564,0
673,6.9083662033081055,-19.538734436035156,0.35007864236831665,-0.6445656418800354,-0.2915327548980713,1.793929934501648,0
674,9.356735229492188,-35.96218490600586,0.5145135521888733,-0.3524979054927826,-0.17442381381988525,1.7977960109710693,0
675,8.084685325622559,-39.95944595336914,1.3840903043746948,0.2979964017868042,-0.11214958876371384,1.8028085231781006,0
676,4.639106750488281,-31.843345642089844,1.388002872467041,0.6776466965675354,-0.006426404230296612,1.8155882358551025,0
677,-0.5757609605789185,-9.548903465270996,1.6194854974746704,0.7700933814048767,-0.11274117976427078,1.8348019123077393,0
678,-4.616452693939209,16.701719284057617,1.7134259939193726,0.9020572900772095,-0.13775114715099335,1.851751446723938,0
679,-7.748800754547119,34.90468978881836,1.2136287689208984,0.6627179384231567,-0.3573875427246094,1.8819518089294434,0
680,-8.230582237243652,44.23842239379883,0.8922996520996094,0.2393517941236496,-0.3939235210418701,1.888912558555603,0
681,-5.907743453979492,44.17417907714844,0.5209213495254517,-0.16758683323860168,-0.5013637542724609,1.8949029445648193,0
682,-0.855448305606842,32.66136932373047,0.6503859758377075,-0.7482154369354248,-0.5522559285163879,1.8958097696304321,0
683,4.322020530700684,6.848215103149414,0.6299006342887878,-1.0634127855300903,-0.5265847444534302,1.896140694618225,0
684,8.804166793823242,-21.872037887573242,0.7624779939651489,-0.9545881748199463,-0.42832666635513306,1.8952934741973877,0
685,12.662659645080566,-39.90774154663086,1.4610936641693115,-0.7173716425895691,-0.4740278422832489,1.9061959981918335,0
686,13.468657493591309,-43.188175201416016,1.9952406883239746,-0.24137596786022186,-0.2533632516860962,1.9176559448242188,0
687,12.865974426269531,-30.76636505126953,1.8870383501052856,0.43063151836395264,-0.16588079929351807,1.9328622817993164,0
688,8.868542671203613,-11.062166213989258,1.6177868843078613,0.7233449816703796,0.041519202291965485,1.9491361379623413,0
689,4.1299333572387695,12.386984825134277,1.1656246185302734,0.7470842599868774,0.1797436773777008,1.9663187265396118,0
690,-1.2795181274414062,36.74245071411133,1.188565969467163,0.3788761496543884,0.16854263842105865,1.9899065494537354,0
691,-7.739218235015869,46.61308670043945,1.1360862255096436,-0.20784255862236023,0.13328278064727783,2.0083811283111572,0
692,-10.609468460083008,45.4952392578125,1.7784610986709595,-0.6130924224853516,0.015446513891220093,2.022571325302124,0
693,-8.781079292297363,30.219064712524414,2.238809108734131,-1.09324312210083,-0.1238994374871254,2.0402560234069824,0
694,-4.866445064544678,3.0308663845062256,1.8566977977752686,-1.3515201807022095,-0.09118600189685822,2.057323455810547,0
695,1.9953398704528809,-28.362016677856445,1.5162084102630615,-1.2292978763580322,-0.13235118985176086,2.0755906105041504,0
696,7.543667316436768,-46.270015716552734,2.2466182708740234,-0.9586701393127441,-0.2830464541912079,2.0906832218170166,0
697,11.397730827331543,-48.1421012878418,2.5115807056427,-0.39169469475746155,-0.128080353140831,2.113630533218384,0
698,13.930624008178711,-35.85313415527344,3.2967467308044434,0.2812778055667877,-0.060450851917266846,2.1382625102996826,0
699,12.805116653442383,-14.33941650390625,3.070167064666748,0.43017253279685974,0.17452114820480347,2.1702184677124023,0
700,7.4802069664001465,11.989538192749023,1.9672658443450928,0.5246866941452026,0.08769555389881134,2.204570770263672,0
701,2.7945785522460938,32.20147705078125,2.2239022254943848,0.16307486593723297,0.29337552189826965,2.2240467071533203,0
702,-1.5302878618240356,42.358665466308594,1.6399579048156738,-0.044740889221429825,0.2713271677494049,2.2494685649871826,0
703,-5.7770891189575195,41.126312255859375,1.5481593608856201,-0.5251707434654236,0.17929533123970032,2.2685317993164062,0
704,-6.9622087478637695,30.689403533935547,1.7339378595352173,-1.0242372751235962,0.25087207555770874,2.2807161808013916,0
705,-5.137247085571289,12.901819229125977,1.6866848468780518,-1.3268858194351196,0.09918148815631866,2.299852132797241,0
706,-2.605776309967041,-11.76351547241211,1.312216877937317,-1.3953754901885986,0.05129750818014145,2.319303035736084,0
707,3.6607706546783447,-39.967628479003906,1.622045874595642,-1.1531075239181519,0.13998788595199585,2.3398029804229736,0
708,8.857178688049316,-51.3233528137207,2.505709171295166,-0.6435660719871521,0.02643728442490101,2.351806640625,0
709,11.001420974731445,-46.78510665893555,3.0364649295806885,-0.08951308578252792,0.1994107961654663,2.379603385925293,0
710,12.248445510864258,-29.364866256713867,3.26604962348938,0.2763040065765381,0.2646167278289795,2.402268409729004,0
711,10.05985164642334,-8.244953155517578,2.9787888526916504,0.784612238407135,0.4787912666797638,2.4407715797424316,0
712,6.156802654266357,7.631944179534912,2.9020895957946777,0.6259233355522156,0.5045589208602905,2.4600441455841064,0
713,0.263923704624176,22.9376277923584,2.52030611038208,0.5594868063926697,0.5994232296943665,2.486811399459839,0
714,-5.574275493621826,31.502656936645508,2.094395399093628,0.40969598293304443,0.5988890528678894,2.517223596572876,0
715,-10.625885009765625,31.640600204467773,2.755377769470215,0.008966251276433468,0.5063633322715759,2.5370326042175293,0
716,-13.561661720275879,17.051132202148438,3.0769851207733154,-0.17203062772750854,0.4115772545337677,2.5745038986206055,0
717,-12.599414825439453,-2.713656187057495,2.9436826705932617,-0.31915560364723206,0.21086370944976807,2.6115896701812744,0
718,-8.42624568939209,-14.618170738220215,2.099059581756592,-0.6855080723762512,0.04498899355530739,2.616482734680176,0
719,-1.8872524499893188,-22.28485107421875,2.341005802154541,-0.42377349734306335,0.03003186732530594,2.6452579498291016,0
720,6.296199321746826,-22.729501724243164,1.8934288024902344,-0.16212354600429535,-0.015438864938914776,2.6707990169525146,0
721,11.637300491333008,-16.148019790649414,1.8332642316818237,0.2672868072986603,0.12666621804237366,2.6993350982666016,0
722,14.720256805419922,-6.877678871154785,2.49918794631958,0.16248342394828796,0.20986083149909973,2.7041947841644287,0
723,13.59399127960205,1.2426661252975464,2.3439114093780518,0.38903480768203735,0.40463635325431824,2.735686779022217,0
724,6.92954158782959,12.158010482788086,1.9067209959030151,0.032305072993040085,0.6106061339378357,2.7357921600341797,0
725,-0.1603398472070694,16.140928268432617,1.2938153743743896,0.033906612545251846,0.7057532072067261,2.761836051940918,0
726,-8.27345085144043,14.08505916595459,0.8557800650596619,0.03908515349030495,0.7485396862030029,2.7861380577087402,0
727,-14.508686065673828,10.636152267456055,0.5558983683586121,-0.1291804164648056,0.6023942828178406,2.79939866065979,0
728,-17.822357177734375,3.4982290267944336,-0.3538874089717865,-0.2757132947444916,0.37034228444099426,2.8073267936706543,0
729,-17.576091766357422,-6.995500564575195,0.06305518001317978,-0.3023265302181244,0.16589318215847015,2.8067312240600586,0
730,-11.77471923828125,-19.571989059448242,-0.4606480002403259,-0.09903105348348618,-0.010420872829854488,2.8183786869049072,0
731,-3.8611900806427,-23.2177791595459,-0.9760969281196594,0.2381199151277542,-0.16420282423496246,2.828673839569092,0
732,4.683740139007568,-19.703092575073242,-1.4962754249572754,-0.010726251639425755,-0.17899781465530396,2.7881689071655273,0
733,12.061490058898926,-9.84946346282959,-1.7594528198242188,0.27055054903030396,0.014469210989773273,2.7728564739227295,0
734,14.072205543518066,0.6700155735015869,-2.014721393585205,0.4539560079574585,0.15119466185569763,2.756836414337158,0
735,11.749370574951172,9.927726745605469,-2.501525640487671,0.4548928737640381,0.23335698246955872,2.7399933338165283,0
736,6.702661037445068,17.35115623474121,-3.3661701679229736,0.37915995717048645,0.4241982400417328,2.7118401527404785,0
737,-1.701187014579773,16.935087203979492,-3.546311140060425,0.25241705775260925,0.44772687554359436,2.686455726623535,0
738,-11.401898384094238,18.73635482788086,-3.816622257232666,0.09925738722085953,0.31588882207870483,2.6619186401367188,0
739,-15.06290340423584,13.008742332458496,-3.3786656856536865,-0.0516972616314888,0.1325630247592926,2.6319215297698975,0
740,-15.173271179199219,-0.8260900378227234,-3.617077350616455,-0.14976398646831512,0.04054165631532669,2.594369888305664,0
741,-12.399473190307617,-6.948801040649414,-3.673661470413208,-0.02334892377257347,-0.19415345788002014,2.572251558303833,0
742,-4.618312358856201,-8.985929489135742,-3.778434991836548,0.18263684213161469,-0.2841772139072418,2.541090726852417,0
743,5.900074005126953,-8.510154724121094,-4.148791790008545,0.21205416321754456,-0.4377588629722595,2.508418560028076,0
744,12.891005516052246,0.36288872361183167,-3.813047170639038,-0.2201472371816635,-0.29003000259399414,2.4473049640655518,0
745,16.370256423950195,8.735173225402832,-3.5941579341888428,-0.12113522738218307,-0.11723838746547699,2.4073588848114014,0
746,15.959061622619629,11.583047866821289,-3.4860544204711914,-0.20964781939983368,0.16464246809482574,2.365069627761841,0
747,11.167171478271484,12.803706169128418,-4.0539984703063965,-0.35453206300735474,0.13308747112751007,2.3394970893859863,0
748,3.8973472118377686,8.455597877502441,-4.24833345413208,-0.41523081064224243,0.3115522265434265,2.299833297729492,0
749,-1.933176040649414,-4.621893882751465,-3.9587502479553223,-0.4147416353225708,0.37909996509552,2.2599728107452393,0
750,-7.659652233123779,-9.821371078491211,-4.60598611831665,-0.2645564377307892,0.33766868710517883,2.2227025032043457,0
751,-8.24800968170166,-12.292527198791504,-5.168788909912109,-0.11103283613920212,0.22981131076812744,2.1792306900024414,0
752,-6.663133144378662,-7.606475353240967,-5.557948589324951,0.16447566449642181,0.11565174162387848,2.1326749324798584,0
753,-3.161998748779297,0.10209837555885315,-5.709134578704834,-0.08184603601694107,0.03806757181882858,2.06972599029541,0
754,0.7935203909873962,7.24582576751709,-5.516548156738281,0.1424548178911209,0.014968160539865494,2.018843650817871,0
755,5.145793437957764,12.644681930541992,-4.984850883483887,-0.29603657126426697,-0.22050470113754272,1.9637802839279175,0
756,8.825739860534668,14.709972381591797,-5.006859302520752,-0.43138739466667175,-0.16351482272148132,1.9124494791030884,0
757,13.323869705200195,12.836573600769043,-5.257910251617432,-0.5201982855796814,0.031604569405317307,1.860702395439148,0
758,15.755237579345703,6.1447343826293945,-5.936330318450928,-0.5735889673233032,0.07318881154060364,1.8100295066833496,0
759,15.803627967834473,-9.046789169311523,-6.804582595825195,-0.5600998401641846,0.36364758014678955,1.7513718605041504,0
760,13.802817344665527,-26.073577880859375,-6.534540176391602,-0.31710875034332275,0.6374413967132568,1.6859160661697388,0
761,8.697453498840332,-38.2528076171875,-5.8339314460754395,0.09163736552000046,0.7822479009628296,1.6193492412567139,0
762,2.430310010910034,-40.289249420166016,-4.780991554260254,0.10349701344966888,0.9139710664749146,1.5460360050201416,0
763,-4.114072322845459,-27.866758346557617,-4.407394886016846,0.37649112939834595,1.009909749031067,1.4865026473999023,0
764,-8.990792274475098,-22.12240982055664,-4.616772174835205,0.9477739930152893,0.9372188448905945,1.4516576528549194,0
765,-12.003447532653809,-16.138320922851562,-4.666569709777832,1.4121882915496826,0.7926316857337952,1.4183683395385742,0
766,-12.751212120056152,-0.946252167224884,-4.738569259643555,1.0685899257659912,0.6098459362983704,1.3383128643035889,0
767,-9.33016586303711,14.590559959411621,-4.25977087020874,1.0753614902496338,0.5088435411453247,1.287766456604004,0
768,-4.502264499664307,24.12413787841797,-3.326399326324463,0.9299938082695007,0.3861744701862335,1.2464056015014648,0
769,1.1181777715682983,20.564563751220703,-3.288074016571045,0.7107522487640381,0.4132240116596222,1.2053277492523193,0
770,5.8575944900512695,16.706287384033203,-3.177772045135498,0.4730256199836731,0.44871848821640015,1.1682274341583252,0
771,7.519193649291992,11.81535816192627,-3.076042652130127,0.3686337471008301,0.4021681547164917,1.1530373096466064,0
772,6.482351303100586,6.301937103271484,-3.190830707550049,0.3984581530094147,0.5220383405685425,1.1285626888275146,0
773,5.177809238433838,2.8623158931732178,-2.99672532081604,0.4015856087207794,0.4271325170993805,1.1210575103759766,0
774,0.659106433391571,1.5382875204086304,-3.151890993118286,0.44006022810935974,0.5771507024765015,1.086031198501587,0
775,-2.2075469493865967,3.5460448265075684,-2.9776480197906494,0.3330300450325012,0.44473639130592346,1.0646239519119263,0
776,-3.8901736736297607,7.493173599243164,-2.7522361278533936,0.20003201067447662,0.4226497411727905,1.027982473373413,0
777,-2.870971441268921,7.521111965179443,-2.7603442668914795,0.11315447092056274,0.458382785320282,0.9914263486862183,0
778,-0.3756636679172516,0.33087798953056335,-2.259775400161743,0.1264791041612625,0.4386940002441406,0.9696781635284424,0
779,2.1159510612487793,-12.08171272277832,-2.212672472000122,0.27153655886650085,0.3920527696609497,0.9600945711135864,0
780,3.1137311458587646,-21.980504989624023,-1.9421025514602661,0.5953680276870728,0.5242555737495422,0.9406535029411316,0
781,4.553437232971191,-20.722700119018555,-1.3015652894973755,0.6020612120628357,0.5354799628257751,0.9058887958526611,0
782,3.777766704559326,-9.839079856872559,-0.8859997391700745,0.5033021569252014,0.4869212806224823,0.8770430684089661,0
783,1.7342761754989624,4.829259872436523,-0.20326171815395355,0.5884974598884583,0.6332458257675171,0.8530063033103943,0
784,0.04202987626194954,17.48998260498047,-0.13703711330890656,0.5734210014343262,0.599624514579773,0.8565886616706848,0
785,-2.7039053440093994,24.5673885345459,-0.3682418465614319,0.29532232880592346,0.5998765230178833,0.8497501611709595,0
786,-4.721996307373047,27.838411331176758,-0.27227556705474854,0.12337137758731842,0.6324445605278015,0.849635899066925,0
787,-5.62576961517334,22.259546279907227,-0.03096582554280758,-0.12055733054876328,0.6337083578109741,0.8491621017456055,0
788,-6.456512928009033,16.21937370300293,-0.2570315897464752,-0.3395827114582062,0.5470448732376099,0.8547875881195068,0
789,-4.109785079956055,4.491223335266113,-0.7388889193534851,-0.41555333137512207,0.4707900285720825,0.8604235649108887,0
790,-1.4765138626098633,-3.787921667098999,-1.009585976600647,-0.4762619137763977,0.43130001425743103,0.8527154326438904,0
791,0.7626234889030457,-8.60507869720459,-1.4263560771942139,-0.2809295654296875,0.3575737774372101,0.8576597571372986,0
792,2.3040244579315186,-8.151472091674805,-1.5855011940002441,-0.11854011565446854,0.3843379616737366,0.8483542203903198,0
793,3.2292392253875732,-3.0211455821990967,-1.1351491212844849,0.00017546046001370996,0.42706337571144104,0.8337701559066772,0
794,3.1173694133758545,4.237744331359863,-0.6174272894859314,0.02824304811656475,0.47789135575294495,0.8217203617095947,0
795,1.1006598472595215,10.71529769897461,-0.7282923460006714,0.0243656225502491,0.5165020823478699,0.817382276058197,0
796,-0.6047086715698242,14.394594192504883,-0.936955451965332,-0.01092169526964426,0.5976685285568237,0.8129808902740479,0
797,-3.9211580753326416,10.605880737304688,-1.1543574333190918,0.12329795211553574,0.562653124332428,0.8224774599075317,0
798,-7.9544196128845215,11.8583984375,-2.1033008098602295,-0.6738296747207642,0.338880330324173,0.7692943215370178,0
799,-8.318257331848145,0.7016491293907166,-2.308209180831909,-0.9929066896438599,0.2364254891872406,0.7388592958450317,0
800,-6.184755325317383,-18.986452102661133,-1.9738502502441406,-0.9768922328948975,0.1375633180141449,0.717239260673523,0
801,-3.163045644760132,-34.814327239990234,-1.6199510097503662,-0.6000524163246155,0.13239939510822296,0.7105183601379395,0
802,0.7964904308319092,-40.415836334228516,-1.826946496963501,-0.047619521617889404,0.10526985675096512,0.7031259536743164,0
803,4.313138961791992,-40.72233963012695,-1.339834451675415,0.1342097520828247,0.1416447013616562,0.6759190559387207,0
804,6.831745624542236,-28.52787971496582,-0.64143306016922,0.551681399345398,0.1631370335817337,0.6617569327354431,0
805,6.944121837615967,-14.491933822631836,-0.6993732452392578,1.0238326787948608,0.2926422655582428,0.6583583950996399,0
806,3.9336233139038086,4.110111236572266,-0.5322840809822083,1.324039340019226,0.39760565757751465,0.6525627374649048,0
807,-0.6148627400398254,24.103313446044922,-0.3709229528903961,1.304900884628296,0.44460129737854004,0.6449636220932007,0
808,-5.247096061706543,40.97117233276367,-0.2808748185634613,0.9554955959320068,0.2797321677207947,0.6477727293968201,0
809,-9.478460311889648,47.900177001953125,0.19792945683002472,0.3905525505542755,0.2646271288394928,0.6408584117889404,0
810,-9.538613319396973,31.07675552368164,-0.09954212605953217,-0.18487711250782013,0.12925128638744354,0.6424145102500916,0
811,-9.122360229492188,11.199377059936523,0.03723585605621338,-0.5466048121452332,-0.014293470419943333,0.6459663510322571,0
812,-5.185794830322266,-14.894386291503906,-0.08441641926765442,-0.5572030544281006,0.01541745662689209,0.6470372080802917,0
813,1.3185091018676758,-42.385894775390625,0.6567344069480896,-0.11622007936239243,-0.02776503749191761,0.651091456413269,0
814,6.610592365264893,-53.23275375366211,1.7540515661239624,0.5228167176246643,-0.04783438518643379,0.6580188870429993,0
815,8.454049110412598,-46.27347183227539,2.897064208984375,0.769839346408844,0.07518834620714188,0.6751437187194824,0
816,8.002116203308105,-25.182050704956055,3.5919759273529053,1.1666457653045654,0.2192682921886444,0.7011655569076538,0
817,5.745902061462402,3.150430679321289,3.249502420425415,1.5448384284973145,0.27380821108818054,0.7357684373855591,0
818,0.13547873497009277,35.112571716308594,2.1899068355560303,1.417088270187378,0.2705381214618683,0.7746346592903137,0
819,-6.419296741485596,59.86660385131836,2.096601963043213,0.9614021182060242,0.11019667983055115,0.818269670009613,0
820,-9.515978813171387,63.499507904052734,2.033384084701538,0.38855570554733276,0.15696130692958832,0.8316859602928162,0
821,-8.627320289611816,51.8327522277832,1.5131946802139282,-0.24222978949546814,0.08434813469648361,0.8522645831108093,0
822,-4.723097324371338,28.287925720214844,1.383979082107544,-0.8619472980499268,0.03108024038374424,0.865132212638855,0
823,-1.0924679040908813,8.256505966186523,1.1164900064468384,-1.0816789865493774,-0.045033037662506104,0.8793672323226929,0
824,2.6035139560699463,-10.089761734008789,0.8054080605506897,-1.0644426345825195,0.012060397304594517,0.887042224407196,0
825,5.709388732910156,-21.93295669555664,0.8204314112663269,-0.987917423248291,-0.01175933238118887,0.8968363404273987,0
826,7.321687698364258,-23.08194923400879,0.8856920599937439,-0.5565146803855896,0.0905943363904953,0.8988744020462036,0
827,5.981616020202637,-16.46507453918457,1.1054130792617798,-0.5690652132034302,0.2032146453857422,0.9145551323890686,0
828,2.5473952293395996,-7.505125045776367,1.1645190715789795,-0.2522697448730469,0.2144486904144287,0.9178595542907715,0
829,-2.199739694595337,1.4312140941619873,0.7913938760757446,-0.16513454914093018,0.24539397656917572,0.928006112575531,0
830,-4.761541843414307,9.370522499084473,0.12245004624128342,-0.12889622151851654,0.21581867337226868,0.934132993221283,0
831,-6.258084774017334,17.211111068725586,-0.27715906500816345,-0.2860465347766876,0.21155761182308197,0.9408591389656067,0
832,-8.28527545928955,22.7308349609375,-0.3539716303348541,-0.49500784277915955,-0.04326854273676872,0.93138587474823,0
833,-5.673699855804443,13.706398963928223,-0.22232605516910553,-0.7172609567642212,-0.14785774052143097,0.9249066114425659,0
834,-0.6442407965660095,-4.1949872970581055,-0.5412601828575134,-0.7684473991394043,-0.1988218128681183,0.9171274304389954,0
835,3.7832956314086914,-20.724529266357422,-0.7762823700904846,-0.5557262301445007,0.031078163534402847,0.9219741225242615,0
836,7.877077102661133,-25.45867156982422,-0.14375412464141846,-0.6303246021270752,-0.24317078292369843,0.8997920751571655,0
837,9.030284881591797,-20.369613647460938,0.0943087562918663,-0.4300987124443054,-0.16285519301891327,0.8999520540237427,0
838,10.343928337097168,-9.929726600646973,0.03774845972657204,-0.041475094854831696,0.013033396564424038,0.900598406791687,0
839,8.646147727966309,1.2420480251312256,-0.1004091128706932,0.09277346730232239,0.12279675900936127,0.8996685147285461,0
840,7.046293258666992,17.063236236572266,-1.0652852058410645,0.00767643004655838,0.2786911129951477,0.9064488410949707,0
841,2.2326536178588867,27.89451026916504,-1.8063808679580688,-0.21255755424499512,0.2425069957971573,0.8936559557914734,0
842,-1.8080358505249023,29.30929946899414,-1.635193109512329,-0.5599154233932495,0.2860993444919586,0.882297933101654,0
843,-5.064471244812012,18.311540603637695,-1.2622076272964478,-0.8077426552772522,0.26077812910079956,0.8634929060935974,0
844,-4.742190837860107,-2.609096050262451,-1.491386890411377,-0.9168688654899597,0.1990542858839035,0.8453735113143921,0
845,-2.3297579288482666,-25.358055114746094,-1.9729621410369873,-0.6992054581642151,0.21695053577423096,0.8300745487213135,0
846,0.7548057436943054,-42.74544143676758,-1.8957287073135376,-0.1552087366580963,0.1986304670572281,0.8015810251235962,0
847,3.6457817554473877,-47.49797439575195,-1.303591251373291,-0.30558523535728455,0.15437334775924683,0.7908760905265808,0
848,4.592360973358154,-33.758941650390625,-1.0031360387802124,0.26994818449020386,0.14928489923477173,0.768288791179657,0
849,4.224817752838135,-11.0555419921875,-1.382778525352478,0.5658475160598755,0.22910822927951813,0.7591878175735474,0
850,2.6203603744506836,1.3568618297576904,-1.8027949333190918,0.795173168182373,0.2970792353153229,0.7445363402366638,0
851,2.062145709991455,15.467978477478027,-1.7267533540725708,0.7200096249580383,0.34539833664894104,0.730668306350708,0
852,0.7090040445327759,20.64459228515625,-1.5632246732711792,0.6760456562042236,0.3712426424026489,0.7135400176048279,0
853,-0.2482459545135498,14.01782512664795,-1.6044518947601318,-0.09174203872680664,0.30696260929107666,0.7055732011795044,0
854,-1.6142244338989258,10.584242820739746,-2.103550672531128,-0.1867523044347763,0.16000761091709137,0.6863533854484558,0
855,-0.6770114302635193,-2.7668049335479736,-2.0415756702423096,-0.24958361685276031,0.15710864961147308,0.665183961391449,0
856,0.1299026608467102,-17.425254821777344,-2.042494535446167,-0.10867290198802948,0.23353394865989685,0.6435161828994751,0
857,3.4358692169189453,-24.070722579956055,-1.8085769414901733,0.07993561029434204,0.26493003964424133,0.6209615468978882,0
858,4.307230472564697,-20.32682228088379,-1.4980525970458984,0.4692753851413727,0.2642422914505005,0.598565399646759,0
859,4.367071151733398,-9.1558837890625,-1.1330589056015015,0.8289859890937805,0.35263603925704956,0.581080436706543,0
860,3.3955514430999756,4.965521812438965,-1.3149778842926025,0.5637950301170349,0.4319412112236023,0.5699695348739624,0
861,-0.5633628964424133,20.300416946411133,-1.5079137086868286,0.5668526291847229,0.4719029664993286,0.5587733387947083,0
862,-3.80482816696167,30.94606590270996,-2.3435170650482178,0.34636276960372925,0.45620042085647583,0.5471453666687012,0
863,-6.020298004150391,31.440309524536133,-2.131829023361206,0.15331599116325378,0.3912642300128937,0.5306743383407593,0
864,-7.643322467803955,23.68258285522461,-2.171632766723633,-0.23245306313037872,0.36145883798599243,0.5105840563774109,0
865,-7.287126064300537,6.427663803100586,-2.1565964221954346,-0.45311152935028076,0.3125533163547516,0.48984774947166443,0
866,-4.567044734954834,-11.949501991271973,-2.589934825897217,-0.39891213178634644,0.21131381392478943,0.47020700573921204,0
867,-2.372061014175415,-24.35686492919922,-2.0639562606811523,-0.5661821365356445,0.15250597894191742,0.4412461519241333,0
868,0.7808329463005066,-24.78095054626465,-1.6171631813049316,-0.2141834795475006,0.2100619226694107,0.4208006262779236,0
869,4.239935874938965,-18.27621078491211,-1.0728535652160645,-0.024478284642100334,0.1823253482580185,0.4016174077987671,0
870,5.89120626449585,-6.2262420654296875,-0.9058911800384521,0.3099752366542816,0.2723758816719055,0.38986706733703613,0
871,5.710363864898682,8.45124626159668,-1.0712862014770508,0.42036300897598267,0.3720647990703583,0.38010501861572266,0
872,2.8772644996643066,24.900798797607422,-1.2445062398910522,0.2846231460571289,0.4504522979259491,0.37042781710624695,0
873,-1.2556577920913696,33.92499923706055,-1.0734398365020752,-0.04148098826408386,0.48034587502479553,0.359811395406723,0
874,-6.820241451263428,27.97372055053711,-2.0905611515045166,-0.41390544176101685,0.4308265149593353,0.3483465909957886,0
875,-10.668930053710938,22.650564193725586,-2.1406569480895996,-0.7397469878196716,0.3025731146335602,0.32727813720703125,0
876,-11.062125205993652,16.09612274169922,-2.4218413829803467,-0.9869123101234436,0.19739069044589996,0.304590106010437,0
877,-8.893414497375488,7.491685390472412,-2.048875331878662,-1.1149706840515137,0.017590591683983803,0.27970877289772034,0
878,-6.506143569946289,-0.21576736867427826,-1.744667887687683,-1.17149817943573,-0.1326814442873001,0.2584128975868225,0
879,-2.3769829273223877,-7.7012505531311035,-1.674707293510437,-1.0101187229156494,-0.2241271436214447,0.24219191074371338,0
880,4.660430908203125,-14.348467826843262,-1.5745775699615479,-1.2782071828842163,-0.21365505456924438,0.22847306728363037,0
881,11.990792274475098,-16.219228744506836,-1.8175467252731323,-0.9691166281700134,-0.08341982215642929,0.22014811635017395,0
882,14.338980674743652,-12.486921310424805,-1.861406922340393,-0.8981984257698059,-0.0142686041072011,0.19992680847644806,0
883,12.619643211364746,-2.6568853855133057,-1.060645580291748,-0.6311425566673279,0.21117600798606873,0.19220954179763794,0
884,8.547524452209473,2.901780366897583,-0.7799831628799438,-0.5449038147926331,0.25322672724723816,0.17129617929458618,0
885,-0.20721253752708435,5.8427910804748535,-1.1130120754241943,-0.5342302322387695,0.34238961338996887,0.16174954175949097,0
886,-8.042963981628418,10.229533195495605,-1.1925334930419922,-0.7296887040138245,0.30724453926086426,0.14656494557857513,0
887,-13.078973770141602,11.734217643737793,-0.7099781036376953,-0.7466922402381897,0.17925767600536346,0.1272304356098175,0
888,-11.638181686401367,5.749055862426758,-1.0759477615356445,-0.5444202423095703,0.15431101620197296,0.12693454325199127,0
889,-6.891838073730469,-0.06492835283279419,-1.3324189186096191,-0.9975138306617737,0.008469701744616032,0.1151435524225235,0
890,-0.8147483468055725,-1.0287282466888428,-2.134596824645996,-0.9004387259483337,-0.06994644552469254,0.09916995465755463,0
891,2.781217575073242,0.5905198454856873,-1.8679344654083252,-0.9534412026405334,-0.14408448338508606,0.07357791066169739,0
892,5.034717082977295,2.2769322395324707,-1.4956085681915283,-1.0716041326522827,-0.016975052654743195,0.07351736724376678,0
893,6.445958614349365,-0.9780557155609131,-1.4453463554382324,-0.9401269555091858,0.07158923149108887,0.06030235439538956,0
894,6.523021221160889,-14.965239524841309,-1.6237908601760864,-0.7672005295753479,0.04207395389676094,0.02393350936472416,0
895,5.1773271560668945,-29.146554946899414,-1.7099418640136719,-0.3251195251941681,0.1579160839319229,0.002483382588252425,0
896,1.461815357208252,-25.602523803710938,-1.4235754013061523,-0.08611425012350082,0.0925292894244194,-0.03537517413496971,0
897,-1.9293768405914307,-20.417247772216797,-1.8829474449157715,0.12943725287914276,0.11912567168474197,-0.04994126036763191,0
898,-5.125700950622559,-2.801588773727417,-2.135779619216919,0.19296050071716309,0.020281262695789337,-0.0724918320775032,0
899,-5.449795722961426,13.855213165283203,-1.328033208847046,0.21997201442718506,-0.03606598824262619,-0.09069153666496277,0
900,-3.6354122161865234,23.624319076538086,-1.1082558631896973,0.08445923030376434,0.05110686272382736,-0.09160690754652023,0
901,0.7462249994277954,26.583786010742188,-1.7292522192001343,-0.12160186469554901,0.02703617326915264,-0.10258061438798904,0
902,0.5731824636459351,24.735557556152344,-1.75779128074646,-0.3762988746166229,-0.037984054535627365,-0.12246657907962799,0
903,4.43684720993042,14.742311477661133,-2.4805243015289307,-0.5720227956771851,4.412522685015574e-05,-0.1401149034500122,0
904,5.78886604309082,6.723435401916504,-2.6978399753570557,-0.7203329801559448,0.06652779132127762,-0.16189326345920563,0
905,6.433271408081055,-0.9941022992134094,-2.751338481903076,-0.9526848793029785,0.08072397112846375,-0.18522408604621887,0
906,5.502881050109863,-8.887128829956055,-3.1689274311065674,-0.9116309285163879,0.24229931831359863,-0.20387405157089233,0
907,4.456073760986328,-20.493839263916016,-3.337847948074341,-0.6449374556541443,0.17746827006340027,-0.2522299587726593,0
908,3.2747039794921875,-24.293725967407227,-3.7257237434387207,-0.3007693886756897,0.24860721826553345,-0.28903767466545105,0
909,1.0878726243972778,-15.754749298095703,-3.456645965576172,-0.4425768554210663,0.29697632789611816,-0.31583914160728455,0
910,-1.6563587188720703,-2.991340160369873,-3.888195753097534,-0.40356624126434326,0.3808130919933319,-0.34292319416999817,0
911,-3.672027349472046,8.283422470092773,-4.153037071228027,-0.31859126687049866,0.3501768112182617,-0.38408830761909485,0
912,-5.076939582824707,15.019820213317871,-4.670711994171143,-0.3226960003376007,0.28928011655807495,-0.42906028032302856,0
913,-4.8371806144714355,16.390291213989258,-5.45935583114624,-0.42637598514556885,0.21531842648983002,-0.47793665528297424,0
914,-3.060333251953125,14.217619895935059,-5.80230712890625,-0.5477328896522522,0.22488532960414886,-0.5275367498397827,0
915,1.3531031608581543,8.490381240844727,-5.968698024749756,-0.700036883354187,0.19970276951789856,-0.584131121635437,0
916,3.7437620162963867,1.913549542427063,-6.1019392013549805,-0.6958494186401367,0.22434884309768677,-0.6412230730056763,0
917,4.343774318695068,-3.6782772541046143,-6.274181365966797,-0.5959829092025757,0.28258585929870605,-0.6999537944793701,0
918,3.0600171089172363,-4.889312267303467,-6.009360313415527,-0.4326746165752411,0.2766406536102295,-0.7659191489219666,0
919,0.8133405447006226,-6.986393928527832,-5.6034979820251465,-0.8699387311935425,0.18314313888549805,-0.8351194262504578,0
920,-1.4338233470916748,-2.574218273162842,-5.1424174308776855,-0.6515651941299438,0.12858392298221588,-0.8982255458831787,0
921,-3.713055372238159,-4.677809715270996,-5.296497344970703,-0.7620697021484375,0.1131773367524147,-0.9527350068092346,0
922,-2.5935027599334717,-3.3990230560302734,-5.452996730804443,-0.6392853856086731,0.07935469597578049,-1.0071120262145996,0
923,-1.322941541671753,-2.8283936977386475,-5.441273212432861,-0.44839051365852356,0.05545417219400406,-1.0622526407241821,0
924,3.1192469596862793,-4.230297088623047,-5.667487144470215,-0.40203046798706055,0.07485070824623108,-1.113994836807251,0
925,5.180453777313232,-0.07372232526540756,-5.499085903167725,-0.2372419685125351,0.14315800368785858,-1.167909026145935,0
926,7.591770172119141,3.1624624729156494,-5.026064395904541,-0.1341787725687027,0.17835144698619843,-1.2247551679611206,0
927,7.64379358291626,9.29764461517334,-4.622536659240723,-0.4629594385623932,0.3103129267692566,-1.2691513299942017,0
928,5.30419397354126,13.877252578735352,-4.735405445098877,-0.5029350519180298,0.2928495407104492,-1.3220492601394653,0
929,2.0278594493865967,13.344878196716309,-5.052706241607666,-0.4560805857181549,0.31196674704551697,-1.3722282648086548,0
930,1.8798657655715942,4.524784088134766,-5.552000045776367,-0.8591352701187134,0.3715863823890686,-1.4197745323181152,0
931,0.8802564740180969,-3.980480432510376,-5.49108362197876,-0.98392254114151,0.40607625246047974,-1.4721684455871582,0
932,1.9115443229675293,-11.31845474243164,-5.107492923736572,-0.822726845741272,0.4331210255622864,-1.5241611003875732,0
933,4.003579139709473,-18.731698989868164,-4.202789306640625,-0.6171377301216125,0.48021867871284485,-1.5724716186523438,0
934,4.621646881103516,-24.874462127685547,-3.6258773803710938,-0.3736511468887329,0.5450646281242371,-1.614565134048462,0
935,3.9560890197753906,-20.819570541381836,-2.983311176300049,-0.2976786494255066,0.5413545370101929,-1.6609764099121094,0
936,0.5740167498588562,-14.075307846069336,-3.20975923538208,-0.0032763793133199215,0.5902600884437561,-1.6909549236297607,0
937,-1.6953895092010498,-3.766988515853882,-3.3591625690460205,0.1593448668718338,0.6007676124572754,-1.7214823961257935,0
938,-2.9977338314056396,10.043974876403809,-3.0257227420806885,0.11858770251274109,0.5813088417053223,-1.7559350728988647,0
939,-3.993654251098633,12.964184761047363,-2.2618086338043213,0.05742908641695976,0.46851375699043274,-1.7856379747390747,0
940,-3.4265761375427246,19.662601470947266,-1.945296049118042,-0.10431325435638428,0.4909452795982361,-1.8064237833023071,0
941,-0.8572164177894592,16.439945220947266,-1.35770845413208,-0.2979365289211273,0.4567301869392395,-1.8229094743728638,0
942,1.512176513671875,11.238415718078613,-0.8504846096038818,-0.44089657068252563,0.5281133651733398,-1.8326256275177002,0
943,3.388782501220703,3.6459896564483643,-0.8629958033561707,-0.48942869901657104,0.5565080046653748,-1.8374360799789429,0
944,3.944575786590576,-2.101402521133423,-0.09457580745220184,-0.43074819445610046,0.6016684770584106,-1.8403903245925903,0
945,1.8522456884384155,-4.777380466461182,0.3233158588409424,-0.5675477981567383,0.6395178437232971,-1.8519604206085205,0
946,-1.7736003398895264,-7.345682621002197,0.10081034898757935,-0.768679141998291,0.6382399797439575,-1.8655811548233032,0
947,-4.521721839904785,-5.89984655380249,0.3597888648509979,-0.7332074046134949,0.5937616229057312,-1.8684595823287964,0
948,-6.064370632171631,-16.41097640991211,-0.19914457201957703,-0.49842870235443115,0.4449577331542969,-1.8618056774139404,0
949,-6.30349063873291,-24.734352111816406,-0.12134997546672821,-0.13728782534599304,0.42254695296287537,-1.850655198097229,0
950,-4.84642219543457,-24.4364070892334,-0.32369670271873474,0.023968352004885674,0.3321124315261841,-1.8593050241470337,0
951,-3.954911470413208,-20.725465774536133,-0.02302136830985546,0.16969847679138184,0.3315301239490509,-1.869191288948059,0
952,-1.1739822626113892,-18.4150447845459,0.37811893224716187,0.33262884616851807,0.28422680497169495,-1.8735054731369019,0
953,2.065143346786499,-9.59482479095459,0.8230249881744385,0.5516990423202515,0.27787327766418457,-1.869518518447876,0
954,2.5531198978424072,3.1518967151641846,1.2214667797088623,0.6124242544174194,0.30144616961479187,-1.8645848035812378,0
955,1.3784760236740112,14.023487091064453,0.7307272553443909,0.5644158124923706,0.3229750692844391,-1.8537065982818604,0
956,-1.25465989112854,19.978715896606445,0.6426276564598083,0.582895040512085,0.32787948846817017,-1.8358988761901855,0
957,-1.5172250270843506,20.821430206298828,0.8405369520187378,0.307594358921051,0.31380951404571533,-1.8281484842300415,0
958,-3.0766093730926514,17.215303421020508,0.37354835867881775,0.09755125641822815,0.2859247624874115,-1.8158434629440308,0
959,-2.47074031829834,12.929802894592285,0.7470475435256958,-0.13698044419288635,0.3134598731994629,-1.8140742778778076,0
960,-2.249610662460327,7.181484222412109,0.9998109936714172,-0.21362604200839996,0.2661496698856354,-1.8002958297729492,0
961,-1.956703543663025,1.396247148513794,1.3908053636550903,-0.5290567278862,0.28833186626434326,-1.8003724813461304,0
962,-1.1905289888381958,-4.218765735626221,1.6602665185928345,-0.5079206228256226,0.17387348413467407,-1.782006025314331,0
963,-2.3017003536224365,-12.078156471252441,1.3902907371520996,-0.44760751724243164,0.14206936955451965,-1.7669271230697632,0
964,-1.6832187175750732,-13.598422050476074,1.5128508806228638,-0.17236773669719696,0.1810617744922638,-1.7530266046524048,0
965,-2.9619321823120117,-9.293802261352539,1.1339777708053589,0.02490963786840439,0.14551518857479095,-1.736576795578003,0
966,-4.325624465942383,-5.090799331665039,0.7275546193122864,0.0937228798866272,0.10658496618270874,-1.7220237255096436,0
967,0.13896922767162323,1.0857703685760498,0.9816240072250366,0.14717727899551392,0.08391176164150238,-1.7105066776275635,0
968,0.569157063961029,9.367457389831543,1.0767606496810913,-0.04459267482161522,0.0876242145895958,-1.7016818523406982,0
969,2.4867377281188965,14.2882661819458,1.0977723598480225,-0.04749433696269989,0.037468321621418,-1.6881111860275269,0
970,2.6746673583984375,12.707761764526367,0.956462025642395,-0.10398229956626892,0.1434354931116104,-1.684085488319397,0
971,2.0061445236206055,6.825947284698486,0.7277229428291321,-0.14392918348312378,0.10666286200284958,-1.6734323501586914,0
972,1.3613141775131226,1.6011760234832764,0.2276025116443634,-0.32598698139190674,0.13130398094654083,-1.6659008264541626,0
973,1.232500672340393,-4.938675880432129,-0.10810666531324387,-0.20834851264953613,0.13942036032676697,-1.6643903255462646,0
