,gyro.x,gyro.y,gyro.z,stabilizer.pitch,stabilizer.roll,stabilizer.yaw,label
0,-0.01276443526148796,0.08074843883514404,0.05435320362448692,-0.409323513507843,-1.3606626987457275,-0.01457299292087555,0
1,-0.0780998170375824,-0.007705576252192259,0.08019383251667023,-0.47508668899536133,-1.356058120727539,-0.014788250438869,0
2,-0.0642920583486557,0.05852223187685013,-0.11310502141714096,-0.39821526408195496,-1.3531885147094727,-0.014188194647431374,0
3,-0.035342779010534286,0.08232114464044571,0.08873976767063141,-0.3985140323638916,-1.3522369861602783,-0.014513853937387466,0
4,-0.09995219111442566,0.0995837077498436,-0.020735733211040497,-0.3988734781742096,-1.3514103889465332,-0.014340298250317574,0
5,-0.049202609807252884,-0.03376675397157669,0.07888712733983994,-0.3985130488872528,-1.3505516052246094,-0.014155029319226742,0
6,-0.002307928167283535,-0.06568719446659088,-0.0075672706589102745,-0.3980628550052643,-1.349491834640503,-0.013691794127225876,0
7,-0.08169527351856232,0.07829084992408752,-0.03458130359649658,-0.39752450585365295,-1.3484060764312744,-0.01365349255502224,0
8,-0.05037882551550865,0.11124148964881897,-0.0011139719281345606,-0.4632524847984314,-1.3477665185928345,-0.014331613667309284,0
9,-0.029461899772286415,0.08365839719772339,0.06701349467039108,-0.38776829838752747,-1.346899151802063,-0.013575620017945766,0
10,-0.03842609003186226,-0.0612647607922554,0.06296186149120331,-0.38743460178375244,-1.3456720113754272,-0.012819427996873856,0
11,0.07372290641069412,0.006347945891320705,0.09131523966789246,-0.3868746757507324,-1.34437894821167,-0.012051681987941265,0
12,-0.023795561864972115,0.013200598768889904,-0.009507081471383572,-0.38600438833236694,-1.3427249193191528,-0.010789234191179276,0
13,-0.016524571925401688,-0.16654418408870697,0.13953359425067902,-0.3857138156890869,-1.3416416645050049,-0.01044597290456295,0
14,-0.002786793513223529,-0.04464096575975418,0.058457426726818085,-0.4497099220752716,-1.3410552740097046,-0.009812132455408573,0
15,-0.048760198056697845,0.06331421434879303,0.1389579474925995,-0.4357442855834961,-1.3412140607833862,-0.009257704950869083,0
16,-0.056262437254190445,0.012451538816094398,0.11476658284664154,-0.36288368701934814,-1.3414733409881592,-0.0072592985816299915,0
17,0.1493103802204132,0.03383030369877815,0.00286935199983418,-0.4331524968147278,-1.3409792184829712,-0.0074098603799939156,0
18,-0.03898128867149353,0.009494217112660408,0.08073613047599792,-0.3608424961566925,-1.3399027585983276,-0.006043273024260998,0
19,-0.006833300460129976,0.041331663727760315,0.11668882519006729,-0.3691331446170807,-1.3403395414352417,-0.005538631696254015,0
20,-0.06621188670396805,0.025018662214279175,0.028977055102586746,-0.43833020329475403,-1.3402750492095947,-0.0052046338096261024,0
21,0.02306261844933033,0.0651322528719902,0.02957499958574772,-0.42826536297798157,-1.34016752243042,-0.004653617274016142,0
22,0.0847923755645752,0.07612814754247665,0.018021423369646072,-0.29473021626472473,-1.3391354084014893,-0.0033323680981993675,0
23,-0.05677396059036255,0.04946503788232803,0.0742747038602829,-0.32048383355140686,-1.401323914527893,-0.0033108943607658148,0
24,-0.02628932148218155,0.03507314622402191,0.20607241988182068,-0.46669459342956543,-1.3863517045974731,-0.003532713744789362,0
25,0.023341642692685127,0.05974942073225975,0.07100377231836319,-0.3874695599079132,-1.3123600482940674,-0.0013727506157010794,0
26,-0.08497961610555649,0.05784865468740463,-0.0624324195086956,-0.45411667227745056,-1.3815187215805054,-0.0017845354741439223,0
27,0.04514991492033005,0.0007460085907950997,0.03127353638410568,-0.44028371572494507,-1.3718643188476562,-0.0017981287091970444,0
28,0.00937806535512209,0.06704382598400116,0.08742056041955948,-0.36821892857551575,-1.3631435632705688,-0.0009211713913828135,0
29,-0.08733370900154114,-0.09712307155132294,0.07106416672468185,-0.3759203553199768,-1.3575981855392456,0.0002647680521477014,0
30,-0.1954146921634674,0.0122510502114892,0.04800538718700409,-0.38162532448768616,-1.2898809909820557,0.0012096220161765814,0
31,0.03436995670199394,0.03592413663864136,0.10288672894239426,-0.3876447081565857,-1.3028935194015503,0.00146790302824229,0
32,-0.03627074137330055,0.10179934650659561,0.07548616826534271,-0.39266785979270935,-1.311591625213623,0.0019211000762879848,0
33,0.08804092556238174,0.030256662517786026,0.10636717826128006,-0.3979117274284363,-1.317703127861023,0.0024809585884213448,0
34,0.09259669482707977,0.0654052123427391,0.0007360957097262144,-0.4005136489868164,-1.322020173072815,0.003333968808874488,0
35,-0.03208315372467041,0.0466797798871994,0.16280622780323029,-0.400468647480011,-1.3206661939620972,0.003928306046873331,0
36,-0.0028865013737231493,0.06290543079376221,0.019978724420070648,-0.4006612002849579,-1.319126844406128,0.005379720591008663,0
37,-0.014838564209640026,-0.017188722267746925,-0.021681325510144234,-0.46534454822540283,-1.3222283124923706,0.004527046345174313,0
38,0.001456849742680788,0.05764792487025261,0.06238443776965141,-0.3872336447238922,-1.3249537944793701,0.0056216842494904995,0
39,0.0317663699388504,0.08369729667901993,0.03418603539466858,-0.38742825388908386,-1.3232371807098389,0.006365411914885044,0
40,-0.022234948351979256,-0.0002610391238704324,0.13306285440921783,-0.3876115679740906,-1.3220442533493042,0.006947163492441177,0
41,0.0014595547690987587,0.04231637716293335,-0.06468410044908524,-0.3920702636241913,-1.3856667280197144,0.007106583099812269,0
42,-0.030926555395126343,-0.09316212683916092,0.02114359848201275,-0.39414629340171814,-1.3722176551818848,0.007368051912635565,0
43,-0.058093417435884476,0.037910446524620056,0.041565462946891785,-0.3955156207084656,-1.3607265949249268,0.008287984877824783,0
44,-0.010146543383598328,0.0532304085791111,0.1394614279270172,-0.3982369899749756,-1.3519312143325806,0.00872046034783125,0
45,-0.020853079855442047,0.09817032516002655,0.13122877478599548,-0.39874404668807983,-1.350725531578064,0.009998392313718796,0
46,-0.034879039973020554,-0.016413802281022072,0.12090346962213516,-0.3990541994571686,-1.3494936227798462,0.011122283525764942,0
47,0.07474106550216675,0.09100201725959778,0.11309090256690979,-0.40033668279647827,-1.2831240892410278,0.012096070684492588,0
48,0.015951434150338173,-0.0019619239028543234,0.0733073353767395,-0.4645192623138428,-1.2960323095321655,0.012619574554264545,0
49,-0.017888126894831657,0.0405004546046257,0.05430249497294426,-0.44999510049819946,-1.3061866760253906,0.01302198227494955,0
50,0.0704091489315033,0.057162486016750336,0.03132682666182518,-0.4379323720932007,-1.313901662826538,0.013757331296801567,0
51,0.047154929488897324,-0.011400262825191021,0.12214472889900208,-0.4297803044319153,-1.3199189901351929,0.014120461419224739,0
52,-0.15439672768115997,0.09398303180932999,0.028992649167776108,-0.3595797121524811,-1.3260948657989502,0.016254259273409843,0
53,-0.11366250365972519,0.03488635644316673,0.022638022899627686,-0.3714102506637573,-1.3316200971603394,0.016044652089476585,0
54,-0.02567734383046627,0.03851977363228798,0.12962356209754944,-0.3790622353553772,-1.3358044624328613,0.016267983242869377,0
55,0.0943705216050148,0.15389516949653625,0.1250055879354477,-0.38703981041908264,-1.3373717069625854,0.017430521547794342,0
56,-0.029559293761849403,-0.09638262540102005,-0.05881338566541672,-0.38734525442123413,-1.3354880809783936,0.018322601914405823,0
57,0.1316356509923935,0.034515827894210815,-0.008618098683655262,-0.38694995641708374,-1.334281086921692,0.018190670758485794,0
58,-0.03472529724240303,0.06792498379945755,0.1066104993224144,-0.3866826593875885,-1.3322255611419678,0.018432945013046265,0
59,0.02424183301627636,0.01470896415412426,-0.07102949917316437,-0.45325592160224915,-1.3333234786987305,0.01807118020951748,0
60,0.011565365828573704,0.015780873596668243,0.06864521652460098,-0.37716659903526306,-1.3356664180755615,0.018598996102809906,0
61,0.062457386404275894,-0.05361458286643028,0.12007521092891693,-0.37674909830093384,-1.3334968090057373,0.01957770809531212,0
62,0.02088223583996296,0.1276090443134308,0.12176978588104248,-0.376326322555542,-1.331861972808838,0.020380740985274315,0
63,0.049132078886032104,0.11277256906032562,0.13421881198883057,-0.37717404961586,-1.330631136894226,0.02161705493927002,0
64,-0.024436376988887787,0.0721031129360199,0.1713128685951233,-0.37736159563064575,-1.3288971185684204,0.02293124794960022,0
65,0.04555535316467285,0.06276211887598038,0.12977948784828186,-0.445100873708725,-1.3295471668243408,0.023367896676063538,0
66,-0.039808351546525955,0.04741574078798294,0.09632524847984314,-0.43259838223457336,-1.3306630849838257,0.024722224101424217,0
67,0.004146333318203688,-0.09054964780807495,0.048527929931879044,-0.4221828281879425,-1.3318380117416382,0.025614220649003983,0
68,0.018023885786533356,0.09004029631614685,0.03400440514087677,-0.3519171178340912,-1.331965446472168,0.026607736945152283,0
69,-0.03237546235322952,-0.13383817672729492,-0.017182068899273872,-0.4237152338027954,-1.3322111368179321,0.026046516373753548,0
70,0.020446646958589554,-0.10991865396499634,-0.04520487040281296,-0.41410914063453674,-1.333762526512146,0.026003168895840645,0
71,-0.032208170741796494,0.06112254783511162,0.06844780594110489,0.0,0.0,0.0,0
72,0.01161265093833208,-0.04558110237121582,0.1714927703142166,0.0025795656256377697,-0.02003144659101963,0.0005072595085948706,0
73,-0.030760372057557106,0.058512769639492035,0.07233648002147675,-0.3062624931335449,-0.4408847391605377,0.0003363335272297263,0
74,0.037036534398794174,-0.0609138086438179,-0.006121307145804167,-0.4738326668739319,-0.3342115581035614,0.0015895573887974024,0
75,-0.12472856044769287,0.09198487550020218,0.07602671533823013,-0.5968707799911499,-0.30197077989578247,0.0020512749906629324,0
76,0.09675540030002594,0.07279013097286224,0.042252205312252045,-0.6791238784790039,-0.3196242153644562,0.002517351182177663,0
77,0.0067545222118496895,0.03656903654336929,0.09176654368638992,-0.7273239493370056,-0.3755788505077362,0.0023408608976751566,0
78,-0.03360344469547272,0.055920813232660294,0.0349934957921505,-0.745919942855835,-0.4513607621192932,0.0019526598043739796,0
79,0.022629763931035995,0.06761720776557922,-0.005930584389716387,-0.7451239824295044,-0.5292237401008606,0.0014910371974110603,0
80,-0.03045913763344288,0.12374395877122879,0.11517393589019775,-0.737695574760437,-0.6067872047424316,0.0006213666056282818,0
81,0.05605817586183548,0.08304165303707123,-0.01458053570240736,-0.7257621884346008,-0.6820417046546936,0.00038894079625606537,0
82,-0.035828009247779846,0.10283462703227997,0.07696569710969925,-0.7101056575775146,-0.35849443078041077,0.005319623276591301,0
83,-0.039019376039505005,0.04684516787528992,0.0878981500864029,-0.689392626285553,-0.5349606871604919,0.0033512169029563665,0
84,-0.03132253512740135,-0.013623187318444252,0.038080088794231415,-0.6691043376922607,-0.66855388879776,0.002093610120937228,0
85,-0.06574691087007523,0.04606553912162781,0.14450018107891083,-0.6488969922065735,-0.7678917050361633,0.0010897716274484992,0
86,-0.06142059341073036,0.051904864609241486,0.024831093847751617,-0.634208619594574,-0.8448178172111511,0.001195078599266708,0
87,0.08610542863607407,0.05348372831940651,0.0650944709777832,-0.6203204989433289,-0.9056386351585388,0.0013258476974442601,0
88,0.09534250944852829,-0.008920411579310894,-0.0029986354056745768,-0.6079345941543579,-0.7078101634979248,0.00383777660317719,0
89,0.07440629601478577,-0.01913725957274437,0.0008539516711607575,-0.5973088145256042,-1.0475128889083862,3.7504814827116206e-05,0
90,-0.04190902039408684,0.028985392302274704,0.09239421039819717,-0.8076527118682861,-1.0669629573822021,0.001532518770545721,0
91,-0.005605822429060936,0.002171996980905533,-0.008330737240612507,-0.7379551529884338,-1.086281657218933,0.0009762084810063243,0
92,0.07426466047763824,0.061413515359163284,0.10883651673793793,-0.687496542930603,-1.1030250787734985,0.0005096988752484322,0
93,0.10632391273975372,0.07649095356464386,0.03295142948627472,-0.4638752043247223,-1.1178135871887207,-0.0026986401062458754,0
94,-0.20228542387485504,-0.09004003554582596,0.09324227273464203,-0.48245272040367126,-1.1343103647232056,-0.0023894181940704584,0
95,-0.01642679236829281,-0.04095691815018654,0.029598256573081017,-0.49488234519958496,-1.148948073387146,-0.001471383380703628,0
96,0.08148174732923508,0.034552283585071564,0.07729831337928772,-0.5025320649147034,-1.1594469547271729,-0.0008761020144447684,0
97,-0.10341854393482208,-0.1114581748843193,0.13742360472679138,-0.50700843334198,-1.169086217880249,-0.0003033154644072056,0
98,-0.013243066146969795,-0.07161939889192581,0.16025389730930328,-0.6596968770027161,-1.1786818504333496,0.003976409789174795,0
99,-0.1014435812830925,0.10102299600839615,0.024546518921852112,-0.47958624362945557,-1.1875550746917725,0.0011126978788524866,0
100,-0.04583195224404335,0.08735731989145279,0.041081372648477554,-0.49067723751068115,-1.194616436958313,0.0020044692791998386,0
101,0.037146203219890594,0.0736212357878685,0.11688177287578583,-0.6336166858673096,-1.20071280002594,0.006468561943620443,0
102,-0.12957210838794708,0.05278853699564934,0.02704000659286976,-0.4728657603263855,-1.2079122066497803,0.0026371919084340334,0
103,-0.053651392459869385,0.1880163848400116,-0.01967584900557995,-0.4848531186580658,-1.2135493755340576,0.003382876282557845,0
104,0.018485883250832558,0.015214097686111927,0.05336058884859085,-0.6153692007064819,-1.2187005281448364,0.0071236626245081425,0
105,-0.002263055182993412,0.028598610311746597,0.11452245712280273,-0.4695609509944916,-1.2245124578475952,0.003185928799211979,0
106,-0.00914881844073534,-0.05262942612171173,0.036642931401729584,-0.5969224572181702,-1.2300821542739868,0.007695303298532963,0
107,-0.007029474247246981,0.17859666049480438,-0.023722385987639427,-0.575631856918335,-1.2348870038986206,0.007736260071396828,0
108,-0.061330486088991165,0.05745139718055725,0.12079434841871262,-0.5595223903656006,-1.239179015159607,0.007312625180929899,0
109,0.16244572401046753,0.07241231203079224,0.033303432166576385,-0.43861475586891174,-1.242905616760254,0.0041335043497383595,0
110,-0.05111264809966087,0.08610934019088745,0.11137387156486511,-0.456424742937088,-1.246559977531433,0.005455972161144018,0
111,0.11954702436923981,0.0036065056920051575,0.11949826776981354,-0.46941477060317993,-1.2505022287368774,0.006937200669199228,0
112,-0.018983162939548492,0.0006484184414148331,0.018191730603575706,-0.4778495132923126,-1.2558879852294922,0.008047696202993393,0
113,-0.049787137657403946,0.007039298303425312,0.04553348198533058,-0.4831133484840393,-1.261356234550476,0.008564946241676807,0
114,0.0038066417910158634,-0.01615973934531212,0.0756375715136528,-0.48250240087509155,-1.2601892948150635,0.00916727352887392,0
115,-0.0076662031933665276,0.0039048923645168543,0.06864140182733536,-0.4821659326553345,-1.2587336301803589,0.00972952414304018,0
116,0.06664169579744339,0.10177891701459885,0.0684530958533287,-0.4813500940799713,-1.2575528621673584,0.010481434874236584,0
117,0.03345764800906181,0.033448927104473114,-0.020866693928837776,-0.48190951347351074,-1.2558870315551758,0.010906904935836792,0
118,-0.038878414779901505,0.059686217457056046,0.033822186291217804,-0.4816736578941345,-1.2544008493423462,0.010955357924103737,0
119,-0.021774156019091606,0.024431904777884483,0.0809401422739029,-0.4820862412452698,-1.2535442113876343,0.010987779125571251,0
120,-0.052365463227033615,0.028976157307624817,0.07854469120502472,-0.48194509744644165,-1.2523589134216309,0.011640689335763454,0
121,-0.05984986573457718,-0.012381528504192829,0.14685028791427612,-0.4819736182689667,-1.2515215873718262,0.012188028544187546,0
122,-0.02318117395043373,-0.012366258539259434,0.007998332381248474,-0.48137137293815613,-1.2509866952896118,0.013800996355712414,0
123,-0.006343220826238394,0.1711873561143875,0.04051291197538376,-0.4804641902446747,-1.2500463724136353,0.014230056665837765,0
124,0.04490561783313751,0.10486681014299393,0.1337955743074417,-0.48098108172416687,-1.2489356994628906,0.014315370470285416,0
125,-0.022896112874150276,0.06479918211698532,0.05757555738091469,-0.4815734922885895,-1.2472010850906372,0.015504006296396255,0
126,0.050216950476169586,-0.05100497230887413,0.031466636806726456,-0.4819371998310089,-1.245810627937317,0.01620962657034397,0
127,-0.06943578273057938,-0.0699368268251419,-0.02262907847762108,-0.4812855124473572,-1.2441551685333252,0.016987675800919533,0
128,-0.0430876687169075,0.058133307844400406,-0.08260972052812576,-0.48049086332321167,-1.243132472038269,0.016870321705937386,0
129,0.0676686242222786,0.062441013753414154,-0.029752956703305244,-0.48039278388023376,-1.2417398691177368,0.016321316361427307,0
130,0.09969117492437363,0.02497599832713604,0.035315606743097305,-0.5592638254165649,-1.244258999824524,0.017631344497203827,0
131,0.00512308394536376,0.02762412652373314,-0.050822287797927856,-0.45970430970191956,-1.2470959424972534,0.015796510502696037,0
132,0.04203896224498749,0.02863018587231636,0.0985102728009224,-0.45940831303596497,-1.2456178665161133,0.015947047621011734,0
133,0.03828137740492821,0.0499468632042408,0.17029613256454468,-0.45942816138267517,-1.2441911697387695,0.015872444957494736,0
134,-0.09671872854232788,0.08246706426143646,0.009189960546791553,-0.4594919979572296,-1.2423802614212036,0.017304450273513794,0
135,0.038616180419921875,0.06527765840291977,0.023765435442328453,-0.4596326947212219,-1.2414590120315552,0.018026504665613174,0
136,0.10135547071695328,-0.004249789286404848,0.060106948018074036,-0.45941153168678284,-1.2400532960891724,0.018102804198861122,0
137,0.04062770679593086,0.017235340550541878,-0.08157084882259369,-0.4591582715511322,-1.2383028268814087,0.01825224794447422,0
138,-0.022631874307990074,0.04611726477742195,0.03820427134633064,-0.4588819742202759,-1.2363598346710205,0.01784490793943405,0
139,0.05738198012113571,0.10599257051944733,0.046849679201841354,-0.5338476896286011,-1.2388895750045776,0.019335750490427017,0
140,0.04732494056224823,-0.06482469290494919,0.04606139287352562,-0.4420849680900574,-1.2413852214813232,0.018052199855446815,0
141,-0.042523857206106186,0.09307927638292313,0.007810501381754875,-0.44187435507774353,-1.23976731300354,0.018132751807570457,0
142,-0.11316856741905212,0.029042573645710945,0.014643257483839989,-0.44175100326538086,-1.2382477521896362,0.01871495135128498,0
143,0.031109899282455444,0.15322019159793854,0.0961788147687912,-0.517037570476532,-1.2421561479568481,0.020023440942168236,0
144,-0.03370308876037598,-0.04779326543211937,0.12242553383111954,-0.5009716153144836,-1.2453447580337524,0.020369965583086014,0
145,-0.07551193982362747,0.09040205925703049,0.09227432310581207,-0.4164714217185974,-1.2485294342041016,0.02030458301305771,0
146,-0.1166076734662056,-0.1107368990778923,0.057315826416015625,-0.4237370491027832,-1.2519904375076294,0.02125038392841816,0
147,-0.1092013493180275,0.08323990553617477,0.07897647470235825,-0.4283647835254669,-1.2547121047973633,0.022041471675038338,0
148,0.013672759756445885,0.06130867451429367,0.08571232855319977,-0.5037210583686829,-1.2569568157196045,0.023645510897040367,0
149,-0.05131174996495247,-0.061217814683914185,0.10972917824983597,-0.41930460929870605,-1.2587071657180786,0.023471089079976082,0
150,0.10848348587751389,0.02726575918495655,-0.023168236017227173,-0.42629244923591614,-1.2600547075271606,0.024468451738357544,0
151,-0.03308780863881111,-0.02154698222875595,0.07823782414197922,-0.42619484663009644,-1.2581344842910767,0.02499048225581646,0
152,-0.03972821682691574,0.02082829363644123,0.026126641780138016,-0.42563050985336304,-1.2564690113067627,0.025618767365813255,0
153,0.016704952344298363,-0.11660271883010864,0.12138748914003372,-0.4249061644077301,-1.2553625106811523,0.02574666403234005,0
154,0.05086691305041313,-0.0039041531272232533,-0.012926694937050343,-0.4268537163734436,-1.3257226943969727,0.027344055473804474,0
155,0.024423008784651756,0.009195706807076931,0.06934370845556259,-0.49806997179985046,-1.3094557523727417,0.02838665060698986,0
156,0.0042066085152328014,0.06014690175652504,0.036793842911720276,-0.4143625795841217,-1.2973188161849976,0.027329690754413605,0
157,0.06778241693973541,0.06354416906833649,0.08226390928030014,-0.4199393391609192,-1.288649082183838,0.028193021193146706,0
158,-0.11229193955659866,0.18034914135932922,0.05268441513180733,-0.42007818818092346,-1.287163257598877,0.028787225484848022,0
159,0.0022931986022740602,0.014580883085727692,-0.04039245843887329,-0.42074212431907654,-1.2864418029785156,0.0294562466442585,0
160,-0.006012186873704195,0.12577494978904724,0.084565170109272,-0.4901585876941681,-1.2839131355285645,0.030343210324645042,0
161,-0.028117848560214043,-0.01599358767271042,0.07480055838823318,-0.407370001077652,-1.2825802564620972,0.029580557718873024,0
162,0.008747443556785583,0.06373871117830276,0.09318273514509201,-0.47945624589920044,-1.282212257385254,0.031137533485889435,0
163,-0.05080704018473625,0.028284985572099686,-0.03354335576295853,-0.3999035954475403,-1.2818725109100342,0.030959952622652054,0
164,-0.02048969268798828,-0.007862896658480167,0.1327180713415146,-0.40742960572242737,-1.2821158170700073,0.03127363324165344,0
165,-0.01971880905330181,0.11183933168649673,0.15874230861663818,-0.413878858089447,-1.2825168371200562,0.03244893252849579,0
166,-0.01369970291852951,0.10549648106098175,0.07219551503658295,-0.41431334614753723,-1.2814611196517944,0.03370293974876404,0
167,0.053991056978702545,-0.019882410764694214,0.07835555821657181,-0.41475194692611694,-1.2802714109420776,0.034756023436784744,0
168,-0.07514063268899918,-0.04892316460609436,0.08488510549068451,-0.41442903876304626,-1.2788991928100586,0.035008739680051804,0
169,-0.04840659350156784,0.0644083097577095,-0.03160202130675316,-0.4823629856109619,-1.280505895614624,0.036527641117572784,0
170,0.06964842975139618,-0.12013909220695496,0.07159355282783508,-0.46679794788360596,-1.2811161279678345,0.03668414056301117,0
171,0.029981054365634918,-0.0009679588838480413,-0.008562473580241203,-0.4541553258895874,-1.2811542749404907,0.0368565209209919,0
172,-0.01464187353849411,0.001390913617797196,0.09201862663030624,-0.44513675570487976,-1.2820496559143066,0.037074510008096695,0
173,0.06406479328870773,0.03957211971282959,0.08210194855928421,-0.43874919414520264,-1.2833406925201416,0.03774312138557434,0
174,-0.1049240455031395,-0.039319854229688644,0.09873677045106888,-0.36880525946617126,-1.2850755453109741,0.03821577504277229,0
175,0.005242131184786558,-0.040062110871076584,0.06941968202590942,-0.3823595345020294,-1.2868692874908447,0.03912120312452316,0
176,0.008734384551644325,0.006090277805924416,0.01385572925209999,-0.3923540413379669,-1.28804349899292,0.039614010602235794,0
177,-0.08808870613574982,0.07811705023050308,0.1860305666923523,-0.3999369144439697,-1.2242887020111084,0.03956686332821846,0
178,0.024218786507844925,0.015848597511649132,0.03827260807156563,-0.40619096159935,-1.1771974563598633,0.04025990888476372,0
179,-0.15111137926578522,-0.040089793503284454,-0.023215830326080322,-0.4108774960041046,-1.2078386545181274,0.041189197450876236,0
180,0.0797610655426979,-0.0016508362023159862,0.07868816703557968,-0.4146089553833008,-1.296502709388733,0.041624974459409714,0
181,0.011300882324576378,-0.08300252258777618,-0.03819867968559265,-0.41422492265701294,-1.2947149276733398,0.04235119745135307,0
182,0.0428328737616539,0.0018106598872691393,0.06294874101877213,-0.41308388113975525,-1.293977975845337,0.041926123201847076,0
183,-0.009207860566675663,-0.010511644184589386,0.02304362691938877,-0.4128098487854004,-1.2926487922668457,0.04224005714058876,0
184,0.0898825153708458,0.0555146299302578,0.024640055373311043,-0.4124511778354645,-1.2914360761642456,0.041989490389823914,0
185,-0.06653514504432678,-0.017091751098632812,-0.024096418172121048,-0.4790237247943878,-1.2919236421585083,0.04271959885954857,0
186,-0.046707816421985626,0.010629603639245033,0.00508375046774745,-0.46429964900016785,-1.293493390083313,0.04212714359164238,0
187,0.02961844950914383,0.12639696896076202,0.040276963263750076,-0.3892160654067993,-1.2949992418289185,0.04272627830505371,0
188,0.0663791298866272,0.05736812204122543,-0.034939639270305634,-0.39820846915245056,-1.2957661151885986,0.04308776557445526,0
189,0.026378057897090912,0.08974660933017731,0.08512932062149048,-0.4056086540222168,-1.2958457469940186,0.042909394949674606,0
190,0.07112961262464523,-0.019127903506159782,0.012843908742070198,-0.4059329330921173,-1.29407799243927,0.04347619414329529,0
191,0.09781629592180252,-0.09426605701446533,0.039832036942243576,-0.4055808186531067,-1.2919992208480835,0.0436878576874733,0
192,0.05512438341975212,0.11450916528701782,0.09222206473350525,-0.4044327437877655,-1.289806604385376,0.043793193995952606,0
193,0.006378521677106619,0.03535204008221626,0.04058513045310974,-0.47264179587364197,-1.2911245822906494,0.04490744322538376,0
194,0.002866163616999984,-0.11757801473140717,0.00400563795119524,-0.4591752290725708,-1.2928121089935303,0.04552746191620827,0
195,0.02175052836537361,0.021228207275271416,-0.03144806623458862,-0.4484776556491852,-1.2945083379745483,0.04591166228055954,0
196,0.014601201750338078,-0.09008563309907913,0.005107503850013018,-0.43938112258911133,-1.2957699298858643,0.04589908570051193,0
197,-0.038939159363508224,-0.0013520929496735334,0.019861120730638504,-0.36793220043182373,-1.2973623275756836,0.04583517089486122,0
198,-0.03133150562644005,-0.060640525072813034,0.08831257373094559,-0.3782482445240021,-1.2993855476379395,0.04583186283707619,0
199,-0.08049921691417694,-0.012008091434836388,-0.021114692091941833,-0.3857335150241852,-1.301455020904541,0.047018617391586304,0
200,-0.01656913384795189,-0.054121073335409164,-0.015847409144043922,-0.39253944158554077,-1.3030734062194824,0.047101207077503204,0
201,-0.00418018689379096,-0.0034967358224093914,0.10657583922147751,-0.3982830345630646,-1.3043899536132812,0.04692259430885315,0
202,-0.024945521727204323,-0.01812133751809597,0.004108965862542391,-0.3980230391025543,-1.3034063577651978,0.04774622619152069,0
203,-0.007794070523232222,0.08822876214981079,0.08535903692245483,-0.39766258001327515,-1.3023895025253296,0.04775136336684227,0
204,0.11305751651525497,0.06519874930381775,0.08636908233165741,-0.39816075563430786,-1.3014068603515625,0.04809562861919403,0
205,-0.08636090159416199,0.05112878978252411,0.030939482152462006,-0.3984670042991638,-1.2997428178787231,0.048976831138134,0
206,0.00698249414563179,-0.022201279178261757,0.026375604793429375,-0.39854955673217773,-1.298782229423523,0.04918583855032921,0
207,-0.02275092713534832,-0.02973799780011177,0.06659933179616928,-0.3981753885746002,-1.2977670431137085,0.049539823085069656,0
208,-0.0012235038448125124,-0.0168878436088562,0.08281119167804718,-0.39735475182533264,-1.2966879606246948,0.050251174718141556,0
209,-0.09957225620746613,0.05535034462809563,0.04128934442996979,-0.4619542062282562,-1.2983858585357666,0.05114040523767471,0
210,0.02573471888899803,0.14115934073925018,0.03934802860021591,-0.44639521837234497,-1.2955507040023804,0.05179863050580025,0
211,-0.016661707311868668,-0.012487172149121761,-0.028583507984876633,-0.30603158473968506,-1.286726713180542,0.05208849161863327,0
212,-0.08654201030731201,0.0756184458732605,0.6250098943710327,-0.3242563307285309,-1.275261402130127,0.05154692009091377,0
213,-0.5452540516853333,-0.25004684925079346,-1.3883041143417358,-0.4639587700366974,-1.260521411895752,0.051436662673950195,0
214,-0.9825947880744934,-0.14011260867118835,-2.3348724842071533,-0.4398273527622223,-1.2411683797836304,0.04703798145055771,0
215,0.12662573158740997,-0.14669518172740936,-2.4213037490844727,-0.35583096742630005,-1.2238253355026245,0.044750332832336426,0
216,0.1160094141960144,-0.2849651575088501,1.2323232889175415,-0.3541158139705658,-1.1974703073501587,0.04508392512798309,0
217,0.027338147163391113,-0.3694438338279724,0.5528514981269836,-0.35472583770751953,-1.1802233457565308,0.04554029926657677,0
218,0.04704955965280533,-0.7758081555366516,-0.7650183439254761,-0.3559121787548065,-1.1606956720352173,0.041057538241147995,0
219,0.5626368522644043,-1.832506537437439,-0.14043140411376953,-0.43106698989868164,-1.1256247758865356,0.04099331796169281,0
220,4.482944488525391,4.43201208114624,-4.080685138702393,-0.352498859167099,-1.0291498899459839,0.03136351332068443,0
221,-4.066847324371338,-2.6892571449279785,-4.777829647064209,-0.35986974835395813,-1.0886216163635254,0.0048183840699493885,0
222,2.4295201301574707,0.6539022922515869,-5.562897205352783,-0.47303682565689087,-1.0806156396865845,-0.04785844683647156,0
223,0.29595592617988586,0.5227648019790649,-9.769881248474121,-0.42838171124458313,-1.0662802457809448,-0.09790074825286865,0
224,3.520026922225952,-11.951872825622559,-6.872270107269287,-0.2693600058555603,-1.1775749921798706,-0.17401033639907837,0
225,-1.133096694946289,-0.5900551080703735,-2.2462663650512695,-0.1856558918952942,-1.2026128768920898,-0.25744274258613586,0
226,-0.16752634942531586,5.102390766143799,-1.0859063863754272,-0.1555934101343155,-1.3114101886749268,-0.2881351113319397,0
227,3.2918293476104736,-2.3757164478302,2.129802942276001,-0.17554084956645966,-1.1855254173278809,-0.30654940009117126,0
228,6.610820770263672,5.315908432006836,4.345395088195801,-0.2129994034767151,-1.1542624235153198,-0.29984569549560547,0
229,-0.551545262336731,13.062589645385742,6.70461893081665,-0.33416977524757385,-1.0194103717803955,-0.26539722084999084,0
230,0.6154448390007019,9.248404502868652,9.353818893432617,-0.4125535786151886,-0.8571722507476807,-0.21119318902492523,0
231,13.62067985534668,-7.741805553436279,8.730636596679688,-0.49547767639160156,-0.847868025302887,-0.12595674395561218,0
232,20.611711502075195,-28.79625129699707,7.8856282234191895,-0.2805507183074951,-0.611699104309082,-0.029181959107518196,0
233,23.604650497436523,-41.328369140625,8.40197467803955,0.307456374168396,-0.48593202233314514,0.07338912785053253,0
234,14.403084754943848,-24.018836975097656,10.516566276550293,0.49357864260673523,-0.8215019702911377,0.16934409737586975,0
235,11.41088581085205,0.17615151405334473,11.343512535095215,0.5043739676475525,-0.3991183936595917,0.2273968905210495,0
236,12.306327819824219,10.399065017700195,10.654550552368164,0.5132931470870972,0.1410195529460907,0.2954193651676178,0
237,7.76097297668457,17.107196807861328,9.728682518005371,0.411077618598938,0.3850852847099304,0.38465404510498047,0
238,-8.239832878112793,17.753244400024414,8.40746784210205,0.661614179611206,1.5092389583587646,0.424340158700943,0
239,-20.852157592773438,13.040903091430664,8.553780555725098,0.6118417978286743,1.7151950597763062,0.512330949306488,0
240,-31.58626937866211,-1.4022564888000488,7.2308478355407715,1.0090583562850952,1.5232923030853271,0.7670992612838745,0
241,-32.24349594116211,-15.076898574829102,5.252372741699219,1.085883378982544,1.6085877418518066,0.8144242167472839,0
242,-33.1917610168457,-11.789107322692871,3.6475605964660645,1.0392314195632935,1.0267207622528076,0.8569881916046143,0
243,-38.8390007019043,1.3410574197769165,3.3901422023773193,1.4061133861541748,0.1967773288488388,1.0894020795822144,0
244,-40.283233642578125,13.75932788848877,1.597822666168213,0.9044577479362488,-0.6262774467468262,1.0564873218536377,0
245,-34.802425384521484,24.224321365356445,1.4758391380310059,-0.7258720397949219,-0.7205016016960144,0.5818421840667725,0
246,-18.545560836791992,22.614200592041016,4.960597515106201,-0.9186183214187622,-1.4724334478378296,0.6514844298362732,0
247,-9.810468673706055,10.838862419128418,5.729563236236572,-2.3538925647735596,-1.7502853870391846,0.49867933988571167,0
248,6.65612268447876,-2.1102964878082275,7.106225490570068,-1.9183006286621094,-1.9064621925354004,0.5872054696083069,0
249,21.86815643310547,-22.23720359802246,6.967180252075195,-2.761110305786133,-2.4817984104156494,0.5785583853721619,0
250,32.59450149536133,-39.730892181396484,6.728466510772705,-2.108307361602783,-1.8015910387039185,0.7042065262794495,0
251,41.99524688720703,-55.04820251464844,5.921782970428467,-0.7732019424438477,-1.7499521970748901,0.6311361193656921,0
252,44.78131866455078,-60.9891242980957,6.730639457702637,0.4127393662929535,-2.645503282546997,0.3984978199005127,0
253,38.69657897949219,-56.01795959472656,7.067192554473877,1.0170165300369263,-1.7479928731918335,0.5175452828407288,0
254,31.5299072265625,-39.34672546386719,7.10191535949707,1.954759955406189,-0.5697392225265503,0.5488095879554749,0
255,21.20974349975586,-19.939876556396484,7.426415920257568,3.055171012878418,0.5146381258964539,0.506695568561554,0
256,2.897160291671753,3.547032594680786,8.386357307434082,3.3781673908233643,0.6715211272239685,0.5961741209030151,0
257,-17.876487731933594,25.496410369873047,7.844734191894531,3.683871269226074,1.7058510780334473,0.37744343280792236,0
258,-41.41744613647461,46.15269088745117,8.187276840209961,3.385789632797241,1.2499862909317017,0.586531937122345,0
259,-54.27269744873047,59.710941314697266,7.453217029571533,3.2411081790924072,0.7080584168434143,0.8267596960067749,0
260,-56.5776481628418,65.12629699707031,7.199830055236816,2.2510061264038086,-0.08195044845342636,0.9448592066764832,0
261,-49.62702941894531,66.30760192871094,7.070609092712402,1.8473012447357178,-0.32292014360427856,0.9029125571250916,0
262,-35.664283752441406,59.818363189697266,7.988743305206299,0.7984462380409241,-1.1984138488769531,1.0523592233657837,0
263,-16.29094123840332,49.087120056152344,6.88723611831665,-0.03250431641936302,-1.6676690578460693,1.1100341081619263,0
264,4.787817478179932,32.710174560546875,6.059288024902344,-0.43774592876434326,-2.093214988708496,1.2294899225234985,0
265,20.04500389099121,14.426701545715332,5.246301651000977,-0.9643903374671936,-1.993833303451538,1.2563133239746094,0
266,30.276887893676758,1.626082420349121,5.22172737121582,-1.3185110092163086,-1.8640007972717285,1.314956545829773,0
267,32.92905807495117,-7.70518684387207,4.894203186035156,-1.17478346824646,-1.49740731716156,1.3454712629318237,0
268,26.910669326782227,-15.7361421585083,5.3708271980285645,-1.3214020729064941,-1.504948377609253,1.3978502750396729,0
269,16.662294387817383,-18.11449432373047,4.8777852058410645,-1.150712490081787,-1.1261745691299438,1.4586803913116455,0
270,7.690118312835693,-15.215797424316406,4.152088165283203,-0.939536452293396,-0.9092295169830322,1.5119527578353882,0
271,-0.6602224707603455,-6.802922248840332,3.0657522678375244,-0.7805035710334778,-0.830824077129364,1.5569870471954346,0
272,-7.212718963623047,4.128642559051514,2.1860761642456055,-0.6948583722114563,-0.29759398102760315,1.6708917617797852,0
273,-12.579818725585938,13.085855484008789,0.9520280957221985,-0.5122743248939514,-0.494796484708786,1.669358730316162,0
274,-17.169933319091797,17.288278579711914,0.4014645516872406,-0.7052406668663025,-0.6251324415206909,1.6791735887527466,0
275,-16.684825897216797,18.20269012451172,-0.06469596922397614,-1.0982853174209595,-0.9246996641159058,1.6582058668136597,0
276,-11.792326927185059,18.92749786376953,0.16752195358276367,-1.408022403717041,-1.1833689212799072,1.6405584812164307,0
277,-2.731241226196289,14.69688892364502,0.9534823894500732,-1.4918421506881714,-1.456700086593628,1.6098668575286865,0
278,8.171403884887695,10.359116554260254,1.3539639711380005,-1.7367531061172485,-1.4364773035049438,1.6316719055175781,0
279,19.590702056884766,4.440920352935791,1.3802266120910645,-1.9363435506820679,-1.3206729888916016,1.6641775369644165,0
280,22.361574172973633,-2.523590564727783,2.290584087371826,-1.8910242319107056,-1.1895684003829956,1.6605782508850098,0
281,17.348934173583984,-10.520665168762207,2.049506664276123,-1.9474204778671265,-1.0709325075149536,1.6531507968902588,0
282,8.172699928283691,-15.034219741821289,1.615344524383545,-1.9314662218093872,-0.7982957363128662,1.7050541639328003,0
283,1.9278700351715088,-16.292802810668945,0.6755834817886353,-1.5678434371948242,-0.601788341999054,1.7419424057006836,0
284,-0.6089940071105957,-13.288437843322754,-0.3431831896305084,-1.4176547527313232,-0.6470491886138916,1.7301278114318848,0
285,-0.08773477375507355,-6.63702392578125,-1.0931408405303955,-1.2994285821914673,-0.4491371512413025,1.7898772954940796,0
286,0.349441796541214,1.1194472312927246,-1.8355482816696167,-0.7039414048194885,-0.29781869053840637,1.8328977823257446,0
287,-0.43138477206230164,6.815675258636475,-2.4391894340515137,-0.8937754034996033,-0.36837226152420044,1.791314721107483,0
288,-2.440110206604004,12.10496997833252,-2.1958961486816406,-1.0052015781402588,-0.4374067187309265,1.7513386011123657,0
289,-3.5151288509368896,14.19943618774414,-2.1479547023773193,-1.303831696510315,-0.699901819229126,1.667771577835083,0
290,-3.0005342960357666,12.804570198059082,-1.8855541944503784,-1.195198655128479,-0.27866557240486145,1.7476173639297485,0
291,-2.3006722927093506,9.418353080749512,-2.744951009750366,-1.6987731456756592,-0.5978511571884155,1.645708680152893,0
292,-2.4792122840881348,4.4688005447387695,-2.6031758785247803,-1.1612478494644165,-0.4526662826538086,1.6984755992889404,0
293,-2.28088116645813,-0.039002418518066406,-3.2192351818084717,-1.401355266571045,-0.5432098507881165,1.6449074745178223,0
294,1.661302924156189,-3.7961513996124268,-3.465471029281616,-1.6505351066589355,-0.6003251671791077,1.5912041664123535,0
295,5.31722354888916,-5.555938720703125,-3.254093885421753,-1.778478980064392,-0.5956143140792847,1.5474165678024292,0
296,7.196629047393799,-7.768662452697754,-3.0488121509552,-1.694772720336914,-0.593722939491272,1.5065759420394897,0
297,6.898427486419678,-8.657244682312012,-2.989800214767456,-1.6477502584457397,-0.6798269152641296,1.4387383460998535,0
298,7.321460247039795,-11.79622745513916,-2.7385900020599365,-1.1776556968688965,-0.5338056087493896,1.445327877998352,0
299,8.63132095336914,-12.423471450805664,-2.936882972717285,-0.7651296854019165,-0.39584383368492126,1.4487850666046143,0
300,9.408041954040527,-7.654473781585693,-3.1453521251678467,-0.11703351140022278,-0.3763810694217682,1.4387648105621338,0
301,5.0258402824401855,3.3997766971588135,-3.192046642303467,-0.2872788906097412,-0.3464648425579071,1.3863967657089233,0
302,0.29247844219207764,16.292430877685547,-2.7436654567718506,-0.7312960028648376,-0.2349250614643097,1.3286608457565308,0
303,-1.0539653301239014,24.834993362426758,-2.2682242393493652,-1.0801907777786255,-0.19718033075332642,1.285362958908081,0
304,-0.7402834296226501,23.092430114746094,-1.8096556663513184,-1.4858102798461914,-0.18407687544822693,1.2475613355636597,0
305,1.2040119171142578,16.86699104309082,-1.4121149778366089,-1.8571975231170654,-0.2918927073478699,1.2037156820297241,0
306,1.8769111633300781,-1.5802109241485596,-1.74123215675354,-1.707947015762329,-0.23370616137981415,1.2264364957809448,0
307,4.994144439697266,-16.04265022277832,-1.5778961181640625,-0.44018012285232544,0.3320200443267822,1.416297435760498,0
308,5.884499549865723,-24.23265266418457,-1.8134407997131348,-0.7642503976821899,0.2567530870437622,1.3326207399368286,0
309,3.6395065784454346,-19.729276657104492,-0.5888374447822571,-0.7661596536636353,0.22768455743789673,1.2738381624221802,0
310,-2.0770456790924072,-9.449389457702637,0.21655191481113434,-0.9936584234237671,0.23310986161231995,1.1977262496948242,0
311,-7.924924850463867,-2.24316668510437,0.6784318089485168,-1.1145167350769043,0.14883704483509064,1.1576985120773315,0
312,-10.972492218017578,3.4310152530670166,0.9290026426315308,-1.267627477645874,0.06000817194581032,1.1322300434112549,0
313,-10.531805038452148,5.8269171714782715,0.7543327808380127,-1.4540355205535889,-0.06806040555238724,1.1128138303756714,0
314,-7.016444206237793,3.9572324752807617,0.8121756911277771,-1.4410520792007446,-0.16882619261741638,1.1297467947006226,0
315,-2.9278829097747803,-3.517725706100464,-0.07117025554180145,-1.8448928594589233,-0.2854335308074951,1.083019733428955,0
316,1.6155425310134888,-12.71151065826416,-0.2132369726896286,-1.87465500831604,-0.33517923951148987,1.076704978942871,0
317,6.3497538566589355,-26.144344329833984,-0.5557390451431274,-1.8431315422058105,-0.30341166257858276,1.0715372562408447,0
318,7.980520725250244,-32.761470794677734,0.08826376497745514,-1.4889613389968872,-0.1449301540851593,1.0970816612243652,0
319,7.204518795013428,-36.07606506347656,0.42567646503448486,-1.3668749332427979,-0.04952584207057953,1.082287073135376,0
320,2.9840476512908936,-33.229957580566406,0.6237168312072754,-0.9856913089752197,0.022220510989427567,1.0856834650039673,0
321,-2.257749557495117,-29.780004501342773,0.20628486573696136,-0.6288029551506042,0.03181634843349457,1.0882493257522583,0
322,-6.504215240478516,-22.00092887878418,0.49665263295173645,-0.1493002474308014,-0.026844335719943047,1.1023750305175781,0
323,-8.076142311096191,-14.799348831176758,0.35236525535583496,-0.13915233314037323,-0.008441131561994553,1.0873403549194336,0
324,-5.910799980163574,-8.595657348632812,0.481266587972641,0.2502373158931732,-0.15048575401306152,1.113168478012085,0
325,-3.907133102416992,-7.204248428344727,-0.15519380569458008,0.4577649235725403,-0.12591534852981567,1.1266098022460938,0
326,-0.34925273060798645,-4.986144542694092,-0.09012532979249954,0.665000855922699,-0.209250807762146,1.142821192741394,0
327,2.9762370586395264,-7.0076680183410645,-0.04697510600090027,0.4553242325782776,-0.16750960052013397,1.1115752458572388,0
328,4.9805192947387695,-5.428247451782227,0.20428942143917084,0.5431371331214905,-0.08691785484552383,1.1054069995880127,0
329,4.654560089111328,-7.813634872436523,0.4951108992099762,0.612794816493988,-0.12083224207162857,1.1196280717849731,0
330,3.1575634479522705,-10.535958290100098,0.42210838198661804,0.9018291234970093,-0.07917442172765732,1.1432499885559082,0
331,0.9808347225189209,-12.290250778198242,-0.13373759388923645,0.8661466836929321,-0.05831364914774895,1.1406773328781128,0
332,-0.9949086904525757,-10.213763236999512,-0.664580225944519,1.3745343685150146,-0.13314203917980194,1.1947709321975708,0
333,-2.848268747329712,-7.396435737609863,-0.844104528427124,1.0173919200897217,-0.029136478900909424,1.1249366998672485,0
334,-3.39750599861145,-1.7244287729263306,-0.9107938408851624,1.2611089944839478,-0.0947752296924591,1.1423559188842773,0
335,-4.558012008666992,2.0803165435791016,-0.8662745356559753,1.2028379440307617,-0.17114520072937012,1.1381055116653442,0
336,-3.349954843521118,3.237236499786377,-1.0205549001693726,1.2977063655853271,-0.11843463033437729,1.1069270372390747,0
337,-1.9264215230941772,2.830544948577881,-0.5854716300964355,1.3573247194290161,-0.12714390456676483,1.096274495124817,0
338,-1.015062928199768,2.0364139080047607,-0.22714929282665253,1.4013490676879883,-0.183555006980896,1.1062310934066772,0
339,-0.08331232517957687,1.6393648386001587,-0.2929089367389679,1.3090217113494873,-0.22028082609176636,1.1076428890228271,0
340,0.5044355988502502,1.8287664651870728,0.07869908213615417,1.4176266193389893,-0.23976857960224152,1.1189327239990234,0
341,0.6079108119010925,2.1911051273345947,-0.21442797780036926,1.4322638511657715,-0.24859683215618134,1.1250892877578735,0
342,0.3830350339412689,1.9967623949050903,-0.3818112015724182,1.4407469034194946,-0.8396303653717041,1.3334994316101074,0
343,2.797987222671509,3.716407299041748,-1.0366394519805908,1.4278615713119507,0.8776942491531372,0.7273995876312256,0
344,5.125434875488281,6.034027576446533,2.019462823867798,1.3228976726531982,0.7519413232803345,0.7683243751525879,0
345,-1.2567178010940552,8.061020851135254,2.490831136703491,1.2545666694641113,0.657924234867096,0.8281086683273315,0
346,-11.369068145751953,9.046306610107422,1.6212668418884277,1.1508194208145142,0.48597902059555054,0.9126737117767334,0
347,-20.901275634765625,8.281523704528809,1.282643437385559,1.0936009883880615,0.4401397407054901,0.9215818047523499,0
348,-26.53166961669922,5.282873153686523,1.3511205911636353,0.9398695230484009,0.05316896364092827,0.9929682612419128,0
349,-27.823333740234375,3.5416300296783447,1.3395678997039795,0.8993035554885864,-0.39187091588974,1.0650378465652466,0
350,-21.950958251953125,1.8253369331359863,1.1448966264724731,0.8718046545982361,-0.8770907521247864,1.1398146152496338,0
351,-11.834532737731934,0.911080539226532,0.8769840598106384,0.9215472340583801,-1.173099398612976,1.1739745140075684,0
352,0.7822458744049072,1.2785569429397583,0.43351486325263977,0.8319671750068665,-1.424120306968689,1.2089810371398926,0
353,13.286619186401367,1.9992917776107788,0.02357429638504982,0.8776613473892212,-1.3883299827575684,1.199546456336975,0
354,21.908767700195312,3.3485283851623535,-0.0818854495882988,0.7760393023490906,-1.1706937551498413,1.1750177145004272,0
355,24.33637237548828,5.568802833557129,0.1003928855061531,0.7335073947906494,-0.8431745171546936,1.1446456909179688,0
356,19.559242248535156,8.256631851196289,0.38693875074386597,0.6433179974555969,-0.7025911211967468,1.1691138744354248,0
357,9.479117393493652,8.079378128051758,0.3114050030708313,0.3951539993286133,-0.6284214854240417,1.209164023399353,0
358,-0.5601581931114197,6.477376937866211,0.4954991638660431,0.3694968521595001,-0.7536857724189758,1.2563613653182983,0
359,-7.443474769592285,2.6329102516174316,-0.15718726813793182,0.22925785183906555,-0.734188973903656,1.2625328302383423,0
360,-6.42910623550415,-1.8543915748596191,-0.21664823591709137,0.29491207003593445,-0.7953006625175476,1.2564642429351807,0
361,-2.398513078689575,-4.972846984863281,-0.0120503269135952,0.4102480709552765,-0.5192720293998718,1.198442816734314,0
362,4.312288284301758,-5.372984886169434,0.3895455002784729,0.5555626153945923,-0.8118407726287842,1.2278368473052979,0
363,9.296567916870117,-2.833280086517334,-0.35101982951164246,0.4190717041492462,-0.6388337016105652,1.2221347093582153,0
364,12.639561653137207,1.5225629806518555,-0.0754769816994667,0.5902059078216553,-0.6708440780639648,1.2257434129714966,0
365,13.010799407958984,5.337587833404541,-0.010874123312532902,0.6168698072433472,-0.4462742507457733,1.2099515199661255,0
366,12.062078475952148,8.596044540405273,0.2097942978143692,0.5161176323890686,-0.6889752149581909,1.256012201309204,0
367,9.437935829162598,11.047686576843262,-0.23575730621814728,0.3666122853755951,-0.6322252154350281,1.2668243646621704,0
368,7.6865339279174805,9.685203552246094,-1.2055094242095947,0.20128889381885529,-0.47079163789749146,1.2626018524169922,0
369,7.981252670288086,7.839250564575195,-1.1625865697860718,0.05936681479215622,-0.27271223068237305,1.2426389455795288,0
370,9.23400592803955,4.265933036804199,-1.006638765335083,-0.042224906384944916,-0.08313019573688507,1.222546935081482,0
371,9.584593772888184,-0.21985867619514465,-1.106204867362976,-0.019158117473125458,0.043375998735427856,1.2088706493377686,0
372,9.037446975708008,-3.9222683906555176,-1.014535665512085,-0.0032244825270026922,0.10643915086984634,1.200575590133667,0
373,6.395232677459717,-4.83722448348999,-0.9423474669456482,0.062142565846443176,0.28957390785217285,1.1866029500961304,0
374,2.934570550918579,-4.520506858825684,-1.2124320268630981,0.07392498105764389,0.35501205921173096,1.1770654916763306,0
375,0.2381610870361328,-2.192033529281616,-1.0037832260131836,0.011125014163553715,0.43598487973213196,1.1608316898345947,0
376,-2.7539916038513184,0.2614598572254181,-1.3239171504974365,0.05538960173726082,0.46134334802627563,1.1507940292358398,0
377,-3.9933271408081055,1.7388852834701538,-1.887722134590149,0.05797206610441208,0.44068652391433716,1.1377978324890137,0
378,-3.499542713165283,2.886415719985962,-1.9330060482025146,0.03017515316605568,0.7310348749160767,1.114549994468689,0
379,-2.0541887283325195,3.6377522945404053,-1.471280574798584,-0.019107187166810036,0.7935848832130432,1.0927839279174805,0
380,-3.584017515182495,1.1607301235198975,-1.3619496822357178,0.28340786695480347,0.8523125648498535,1.1141557693481445,0
381,-5.789188861846924,1.2855461835861206,-1.9145195484161377,-0.24116815626621246,0.5533579587936401,1.0376591682434082,0
382,-8.6007719039917,0.5754563808441162,-1.322367787361145,-0.24529382586479187,0.6415154933929443,1.022342324256897,0
383,-9.309884071350098,-4.181248664855957,-1.2475539445877075,-0.21682439744472504,0.4072626531124115,1.0104265213012695,0
384,-9.187236785888672,-9.775074005126953,-1.2290045022964478,-0.10127510875463486,0.5077170729637146,1.0138300657272339,0
385,-8.014851570129395,-10.747182846069336,-1.382515788078308,0.08118017017841339,0.9206509590148926,1.0230463743209839,0
386,-9.202733039855957,-8.64554214477539,-1.0794107913970947,0.13178224861621857,0.7537158131599426,0.9977654814720154,0
387,-13.649292945861816,-4.408709526062012,-0.7546665668487549,0.2863950729370117,0.6992485523223877,0.9945370554924011,0
388,-18.869291305541992,0.17065346240997314,-0.70430988073349,0.36468181014060974,0.4406912922859192,0.988530158996582,0
389,-22.08016014099121,4.692662239074707,-0.5001038908958435,0.22722840309143066,0.05620924010872841,0.957054078578949,0
390,-20.62691307067871,7.132375240325928,-0.2036164551973343,0.22923098504543304,-0.27767854928970337,0.9578434824943542,0
391,-15.25827407836914,6.456808567047119,-0.30084624886512756,0.12411507219076157,-0.17756979167461395,0.9501256942749023,0
392,-6.9634928703308105,4.076251983642578,-0.47654643654823303,0.09925878793001175,-0.22230790555477142,0.952976644039154,0
393,-2.533902883529663,0.6169378161430359,-1.0075492858886719,0.045796118676662445,-0.4276929497718811,0.9477003216743469,0
394,0.3222486972808838,-2.262951135635376,-0.8277047872543335,0.04645709693431854,-0.47956809401512146,0.939536988735199,0
395,-0.017590807750821114,-4.643939018249512,-0.64388108253479,0.09308399260044098,-0.5586233139038086,0.9325252771377563,0
396,-1.1762337684631348,-5.945983409881592,-0.6567162275314331,0.17614173889160156,-0.6288819313049316,0.9272141456604004,0
397,-2.52095890045166,-6.421586036682129,-0.5055722594261169,0.21252332627773285,-0.6414502263069153,0.9202794432640076,0
398,-3.4502930641174316,-4.898534774780273,0.011357820592820644,0.3174607753753662,-0.7352275848388672,0.9178684949874878,0
399,-4.195583343505859,-2.345360279083252,-0.11208433657884598,0.3954244554042816,-0.8339082598686218,0.9181236028671265,0
400,-4.021664619445801,0.5674582719802856,-0.16778598725795746,0.3676321506500244,-0.9319786429405212,0.9186323285102844,0
401,-2.5142948627471924,4.538804531097412,0.0587279349565506,0.5441997051239014,-1.0197086334228516,0.9152706861495972,0
402,-0.9639527797698975,7.338788986206055,-0.23509937524795532,0.6286225318908691,-0.4300369620323181,0.895118772983551,0
403,0.4137156307697296,9.04076862335205,0.36322903633117676,0.45563820004463196,-0.4616672396659851,0.897240400314331,0
404,-1.2911990880966187,7.4100799560546875,0.33922716975212097,0.30617091059684753,-0.5360677242279053,0.9035595655441284,0
405,-7.6025896072387695,6.874610900878906,0.45145055651664734,0.19074559211730957,-0.6489835381507874,0.9105320572853088,0
406,-9.937244415283203,5.193831443786621,0.13056188821792603,0.10515254735946655,-0.6312770843505859,0.9117494225502014,0
407,-11.684496879577637,4.902593612670898,0.08533027768135071,0.15952640771865845,-0.7950997948646545,0.9100136160850525,0
408,-10.561521530151367,3.7577428817749023,-0.0345747210085392,0.06235741451382637,-1.0293360948562622,0.9146382808685303,0
409,-8.378257751464844,1.3220282793045044,-0.6459411978721619,0.06027175858616829,-1.2362215518951416,0.9131519794464111,0
410,-3.5239932537078857,-0.06339970231056213,-0.9817797541618347,0.01901066116988659,-1.3876782655715942,0.9104768633842468,0
411,1.5207645893096924,1.5230318307876587,-0.9748321771621704,-0.06596973538398743,-1.3911819458007812,0.9086541533470154,0
412,5.923351287841797,11.375965118408203,-1.075033187866211,-0.1164969950914383,-1.386731505393982,0.9032437801361084,0
413,8.698015213012695,26.188138961791992,-0.49918022751808167,-0.3335956931114197,-1.3119666576385498,0.9035786986351013,0
414,9.7635498046875,38.73978805541992,-0.4612572491168976,-0.5057470202445984,-1.1919718980789185,0.8869147300720215,0
415,9.233733177185059,44.24930953979492,-0.24741807579994202,-1.1301451921463013,-1.0538063049316406,0.9090735912322998,0
416,6.501936435699463,41.73979187011719,-0.7240011096000671,-1.2004276514053345,-0.9988585710525513,0.8524491786956787,0
417,3.352254629135132,29.524288177490234,-0.5793731808662415,-1.7747002840042114,-0.9119528532028198,0.8578746318817139,0
418,1.0214818716049194,18.84671401977539,-0.7132613658905029,-1.967166543006897,-1.0053608417510986,0.815930962562561,0
419,-0.7298308610916138,8.012429237365723,-1.0332531929016113,-2.240030288696289,-0.9979641437530518,0.8110171556472778,0
420,0.16289857029914856,4.724148273468018,-0.8428791165351868,-2.375061273574829,-1.0061085224151611,0.804094672203064,0
421,1.6591509580612183,1.5072964429855347,-0.7474125623703003,-2.3567044734954834,-1.003387451171875,0.7855538725852966,0
422,3.923983097076416,3.5859739780426025,-0.21635079383850098,-2.371248483657837,-0.971390962600708,0.782633900642395,0
423,6.482248783111572,8.838788986206055,0.5167487263679504,-2.4204068183898926,-0.9695265293121338,0.7737892270088196,0
424,8.587912559509277,14.73885440826416,0.5109573602676392,-2.5587427616119385,-0.8580938577651978,0.7980198264122009,0
425,8.727433204650879,16.669200897216797,-0.12566855549812317,-2.7672348022460938,-0.7984824776649475,0.8037341237068176,0
426,8.616759300231934,15.849139213562012,-0.376036673784256,-2.918867588043213,-0.723750650882721,0.7968429327011108,0
427,6.613204479217529,12.351157188415527,-1.0881445407867432,-3.045208692550659,-0.6577919721603394,0.779824435710907,0
428,5.38780403137207,7.5117621421813965,-1.3996798992156982,-3.182912826538086,-0.5461826920509338,0.7851116061210632,0
429,4.777175426483154,2.625246286392212,-1.2513927221298218,-3.3092565536499023,-0.4531014859676361,0.789406418800354,0
430,3.5363285541534424,-4.310657024383545,-1.114018440246582,-3.345412492752075,-0.37391820549964905,0.7890664935112,0
431,2.790976047515869,-14.67969799041748,-0.767301082611084,-3.1850340366363525,-0.3805273771286011,0.7468468546867371,0
432,2.413273572921753,-17.98244857788086,-0.21789208054542542,-2.8390462398529053,-0.327453076839447,0.7319753766059875,0
433,1.0355719327926636,-15.663063049316406,-0.44684356451034546,-2.7907798290252686,-0.4261028468608856,0.6814072728157043,0
434,0.6322662830352783,-6.231185436248779,0.6698234677314758,-2.383749485015869,-0.39103639125823975,0.6748632788658142,0
435,0.6110197305679321,1.0972346067428589,-0.27371349930763245,-2.3277034759521484,-0.16452687978744507,0.7812014818191528,0
436,1.9684677124023438,12.75673770904541,-0.5203312635421753,-2.4766392707824707,-0.1588175892829895,0.7866504788398743,0
437,2.4334967136383057,18.326520919799805,-1.208627700805664,-3.0339760780334473,-0.13456711173057556,0.8022948503494263,0
438,1.8515907526016235,19.669790267944336,-1.1196852922439575,-2.616384983062744,-1.1403908729553223,0.3061584234237671,0
439,4.028188705444336,6.8481926918029785,1.520561695098877,-2.8389673233032227,-1.0240892171859741,0.3364820182323456,0
440,13.210061073303223,-11.316043853759766,1.6760393381118774,-2.8635988235473633,-0.9247933626174927,0.36831754446029663,0
441,24.383333206176758,-29.78669548034668,1.683974266052246,-2.8739168643951416,-0.8242142200469971,0.3867664337158203,0
442,31.741390228271484,-38.74369430541992,1.8255748748779297,-2.410529613494873,-0.4221762716770172,0.48166128993034363,0
443,34.49652862548828,-45.6851921081543,2.3475136756896973,-2.3939597606658936,-0.19296684861183167,0.4855268597602844,0
444,31.30523109436035,-37.62605667114258,2.9777352809906006,-1.8854731321334839,0.2168744057416916,0.533992350101471,0
445,23.9407901763916,-19.372262954711914,3.516155958175659,-1.3178786039352417,0.6371144652366638,0.5952628254890442,0
446,10.723991394042969,0.5416957139968872,2.424553632736206,-1.095604419708252,0.9083513021469116,0.6332060098648071,0
447,-1.7514292001724243,18.394838333129883,1.574997901916504,-1.0396522283554077,0.9100950956344604,0.6088220477104187,0
448,-11.07172679901123,24.053836822509766,2.0322513580322266,-1.2364118099212646,0.9331814646720886,0.6289904117584229,0
449,-14.516901969909668,17.292648315429688,2.361906051635742,-1.4424093961715698,1.0212782621383667,0.7078865766525269,0
450,-12.965149879455566,2.968095541000366,1.7015587091445923,-1.6056976318359375,0.8384717702865601,0.7229726314544678,0
451,-7.466371536254883,-7.411514759063721,0.5614509582519531,-1.493540644645691,0.9619560241699219,0.8354372978210449,0
452,-0.2824624478816986,-11.672155380249023,-0.08699668943881989,-1.3118242025375366,0.8109263181686401,0.8388344049453735,0
453,4.4539475440979,-8.349464416503906,0.04251208156347275,-1.0943577289581299,0.832805871963501,0.8624488711357117,0
454,7.562199115753174,-3.3938777446746826,-0.29739391803741455,-0.9973299503326416,0.7929022908210754,0.8446988463401794,0
455,8.080053329467773,-2.3740620613098145,-0.4786956012248993,-1.4977010488510132,1.003247857093811,0.8022485971450806,0
456,5.582579135894775,3.0077896118164062,0.2543894648551941,-1.3877683877944946,1.2014847993850708,0.8337169289588928,0
457,2.0491836071014404,6.422152519226074,-0.21868188679218292,-1.4840507507324219,1.2860357761383057,0.8278027176856995,0
458,-3.4103169441223145,7.3053998947143555,-0.5792766213417053,-1.495100736618042,1.371960163116455,0.8462994694709778,0
459,-8.693885803222656,0.4928194582462311,-0.9563617706298828,-1.6494027376174927,1.3019739389419556,0.8194711208343506,0
460,-12.94575023651123,-16.90453338623047,-0.7723227143287659,-1.5726767778396606,1.1487544775009155,0.8148756623268127,0
461,-14.811355590820312,-33.406124114990234,-1.0406118631362915,-1.250744104385376,0.9414141178131104,0.8275219798088074,0
462,-14.400294303894043,-44.519371032714844,-1.5412904024124146,-0.7617208361625671,0.9135618805885315,0.8749014735221863,0
463,-10.737955093383789,-41.06324768066406,-1.523887038230896,-0.6201477646827698,0.6908762454986572,0.7862749695777893,0
464,-8.265887260437012,-26.485673904418945,-1.1333900690078735,0.01324605755507946,0.5874089002609253,0.809816300868988,0
465,-5.768213748931885,-6.491878032684326,-1.59342360496521,0.19842258095741272,0.3911377191543579,0.7598398923873901,0
466,-3.6132407188415527,9.171876907348633,-1.564199686050415,0.3684196472167969,0.37454354763031006,0.7572731971740723,0
467,0.8183754682540894,31.070289611816406,-1.5205527544021606,0.27503684163093567,0.47122710943222046,0.7436642050743103,0
468,2.244997262954712,35.619991302490234,-1.5458722114562988,-0.2029268741607666,0.4091967046260834,0.6946869492530823,0
469,2.010732412338257,35.979679107666016,-1.5008879899978638,-0.5532097816467285,0.5024478435516357,0.6836672425270081,0
470,1.085060477256775,23.011289596557617,-2.146104574203491,-1.1305943727493286,0.5176514983177185,0.6344741582870483,0
471,-0.8441426753997803,3.8312108516693115,-2.0191726684570312,-1.011649489402771,0.5152040123939514,0.6812651753425598,0
472,-2.678969621658325,-10.725780487060547,-2.0588088035583496,-1.1124073266983032,0.5530478358268738,0.6588795781135559,0
473,-5.887124061584473,-17.940149307250977,-1.8217796087265015,-1.0599501132965088,0.41895976662635803,0.6325479745864868,0
474,-7.467891216278076,-22.13493537902832,-1.3053081035614014,-0.7419016361236572,0.32860004901885986,0.6358271241188049,0
475,-8.935598373413086,-25.679630279541016,-1.6603907346725464,-0.15424422919750214,0.20381693542003632,0.6776398420333862,0
476,-9.921161651611328,-20.348417282104492,-1.9286469221115112,0.20172196626663208,-0.020315997302532196,0.6764354109764099,0
477,-6.679958820343018,-17.184350967407227,-2.2631685733795166,1.1064136028289795,-0.7097826600074768,0.7750424742698669,0
478,-0.8284264802932739,-10.580235481262207,-3.131762981414795,1.4183428287506104,-0.7549466490745544,0.7698957920074463,0
479,8.956655502319336,2.816375970840454,-2.0771493911743164,1.4468204975128174,-0.7005717158317566,0.7267921566963196,0
480,18.392662048339844,16.632530212402344,-0.8460999727249146,1.4190897941589355,-0.7050013542175293,0.710729718208313,0
481,23.57792854309082,33.302207946777344,-0.6365731358528137,1.2254087924957275,-0.22932732105255127,0.6434366703033447,0
482,27.340356826782227,44.799400329589844,-0.1073264479637146,0.6484593152999878,0.3246263861656189,0.565376877784729,0
483,24.427860260009766,54.046669006347656,-0.13749252259731293,-0.16430391371250153,1.1022552251815796,0.46008414030075073,0
484,12.570737838745117,54.69644546508789,-0.5385047197341919,-0.2426324486732483,1.6991701126098633,0.4403849244117737,0
485,-5.645328998565674,46.836143493652344,-0.7051517963409424,-0.9539469480514526,1.7989639043807983,0.44947028160095215,0
486,-25.261934280395508,35.520751953125,-1.1069916486740112,-1.529542326927185,1.6801220178604126,0.4622957110404968,0
487,-40.83026123046875,22.515827178955078,-0.9737856388092041,-2.0592241287231445,1.2656443119049072,0.4708392322063446,0
488,-47.56539535522461,9.64742374420166,-1.1337028741836548,-2.3792836666107178,0.9097563028335571,0.4567013680934906,0
489,-43.1412467956543,-5.118117809295654,-1.0303900241851807,-2.4680941104888916,0.403052419424057,0.45524606108665466,0
490,-31.767330169677734,-21.884653091430664,-0.2648278474807739,-2.4488770961761475,0.04209001362323761,0.44258224964141846,0
491,-16.322162628173828,-35.263641357421875,-0.093990758061409,-2.1654253005981445,-0.48592230677604675,0.4533061385154724,0
492,-1.4680638313293457,-35.87492752075195,0.2072930634021759,-1.911559820175171,-0.4765874147415161,0.4486105442047119,0
493,9.688850402832031,-25.306922912597656,0.5274413228034973,-1.4012538194656372,-0.5305266976356506,0.46706196665763855,0
494,13.970992088317871,-15.475293159484863,0.5876007080078125,-1.5241901874542236,-0.5645773410797119,0.43905147910118103,0
495,12.911123275756836,-0.38309618830680847,1.0423386096954346,-1.298024296760559,-0.38863605260849,0.45078355073928833,0
496,8.105372428894043,12.513336181640625,0.9290013909339905,-1.4934489727020264,-0.2975023686885834,0.44616830348968506,0
497,-0.6646894216537476,22.361623764038086,0.5025557279586792,-1.6130027770996094,-0.2167518585920334,0.45335057377815247,0
498,-9.19523811340332,27.130910873413086,0.6467220783233643,-1.8959709405899048,-0.26863205432891846,0.45106855034828186,0
499,-16.2866268157959,23.018795013427734,0.8486064076423645,-2.2366371154785156,-0.38538628816604614,0.4497724175453186,0
500,-18.995986938476562,6.368076324462891,0.7225915193557739,-2.4562535285949707,-0.5314996838569641,0.45711541175842285,0
501,-16.489662170410156,-8.47622299194336,-0.36036595702171326,-2.557417869567871,-0.7156873345375061,0.46375855803489685,0
502,-10.553849220275879,-21.503921508789062,-1.1205391883850098,-2.3548054695129395,-0.9923330545425415,0.45005661249160767,0
503,-2.673807144165039,-36.75558853149414,-1.0128107070922852,-2.4189510345458984,-1.0944517850875854,0.4469633996486664,0
504,5.655141353607178,-49.238807678222656,-1.5214662551879883,-1.9555360078811646,-1.0002790689468384,0.45935767889022827,0
505,11.786230087280273,-55.59597396850586,-1.0492876768112183,-1.1751141548156738,-0.9282733798027039,0.44713154435157776,0
506,12.81314754486084,-47.10276412963867,0.3212103247642517,-0.9910195469856262,-0.701168417930603,0.4760454297065735,0
507,9.217944145202637,-26.395450592041016,0.6296047568321228,-0.2525169253349304,-0.5408891439437866,0.471308171749115,0
508,2.000675678253174,-2.8685245513916016,0.7939513921737671,-0.21036992967128754,-0.5817332863807678,0.4831226170063019,0
509,-6.612575054168701,15.947861671447754,0.8829125761985779,-0.2906116843223572,-0.5191858410835266,0.5049103498458862,0
510,-13.407489776611328,21.035551071166992,0.8440658450126648,-0.5347852110862732,-0.6687883734703064,0.5139564275741577,0
511,-16.558507919311523,23.704383850097656,0.5803092122077942,-0.7461702823638916,-0.9148203134536743,0.5123851895332336,0
512,-13.191118240356445,17.824604034423828,0.17559337615966797,-0.9772902131080627,-0.9052087664604187,0.5233498215675354,0
513,-5.695389747619629,4.107500076293945,-0.2786165177822113,-1.10682213306427,-1.1301839351654053,0.5122305154800415,0
514,4.067677021026611,-21.237775802612305,-0.6053547859191895,-1.2414284944534302,-1.351728081703186,0.5056885480880737,0
515,10.681540489196777,-42.17642593383789,-1.222442626953125,-0.7368597388267517,-1.2874715328216553,0.4712945520877838,0
516,16.891950607299805,-59.81904220581055,-0.5817281007766724,-0.19824162125587463,-1.3877073526382446,0.441912442445755,0
517,18.892845153808594,-66.23993682861328,0.2903113067150116,0.4521401524543762,-0.6845217347145081,0.44729557633399963,0
518,17.107694625854492,-53.81793212890625,1.737566351890564,1.1535011529922485,-0.4045320451259613,0.4492046535015106,0
519,8.39629077911377,-29.35911750793457,2.4062085151672363,1.3639994859695435,-0.2522713840007782,0.5129691958427429,0
520,-3.5094330310821533,2.0920896530151367,2.337162733078003,1.6000614166259766,-0.31246721744537354,0.5624268651008606,0
521,-14.09708309173584,22.632484436035156,1.703481674194336,1.6747368574142456,-0.3321475386619568,0.5857188105583191,0
522,-19.3508358001709,34.304443359375,1.7569268941879272,1.4229915142059326,-0.5840267539024353,0.6277719736099243,0
523,-19.683773040771484,44.572052001953125,1.3997929096221924,0.9447422027587891,-0.8389853239059448,0.6643936634063721,0
524,-14.100597381591797,38.775264739990234,1.2938278913497925,0.5111730694770813,-0.8699595928192139,0.6428936719894409,0
525,-3.769850254058838,17.162118911743164,0.8567432761192322,0.14003367722034454,-1.093446969985962,0.6551839113235474,0
526,7.535237789154053,-12.20369815826416,-0.16257572174072266,-0.1685684472322464,-1.289003849029541,0.6911700963973999,0
527,17.640275955200195,-39.150238037109375,-0.40734609961509705,0.19454774260520935,-1.1552400588989258,0.6411842703819275,0
528,23.660268783569336,-52.136898040771484,0.5184371471405029,0.8618901371955872,-0.8678651452064514,0.5755902528762817,0
529,23.181610107421875,-48.568756103515625,1.7142961025238037,2.174933433532715,-0.3611609935760498,0.42311862111091614,0
530,17.317838668823242,-28.31666374206543,3.4940762519836426,3.1422743797302246,-0.09675189107656479,0.3747400641441345,0
531,4.954756736755371,2.8521997928619385,4.388914585113525,3.251194953918457,0.1937427520751953,0.4036006033420563,0
532,-9.03968334197998,33.42578125,3.6668879985809326,3.033766984939575,0.00020508948364295065,0.5635038614273071,0
533,-23.01936912536621,63.017818450927734,3.005960464477539,2.5801966190338135,-0.20499959588050842,0.6713666319847107,0
534,-27.09073257446289,74.0647201538086,2.923989772796631,1.6619120836257935,-0.3752956986427307,0.714824914932251,0
535,-25.472057342529297,76.85050201416016,2.4723470211029053,1.0660061836242676,-0.8210327625274658,0.7960191965103149,0
536,-17.031177520751953,63.661563873291016,1.8926091194152832,-0.2979908287525177,-1.2137969732284546,0.9002902507781982,0
537,-2.3971962928771973,35.42728805541992,0.6886410713195801,0.9823651313781738,-1.4332184791564941,0.7556707262992859,0
538,12.868646621704102,0.11574012041091919,0.8196296095848083,0.5073075890541077,-1.432489275932312,0.7404428720474243,0
539,24.4481201171875,-21.2524471282959,1.3561081886291504,0.3986867368221283,-1.1952520608901978,0.6998336315155029,0
540,33.92039489746094,-30.906095504760742,2.417637825012207,0.4230231046676636,-0.9783363938331604,0.7332462668418884,0
541,32.91874313354492,-21.12202262878418,3.072934627532959,0.634408712387085,-0.5079770684242249,0.723737895488739,0
542,26.020174026489258,2.665118455886841,3.3622379302978516,0.8741399049758911,0.006741225719451904,0.699074387550354,0
543,12.0491943359375,28.522857666015625,3.163792133331299,0.2148440182209015,-0.25654757022857666,0.9696214199066162,0
544,-3.265261650085449,54.30820083618164,1.1867632865905762,-0.2668667137622833,-0.064340740442276,1.0165786743164062,0
545,-12.724513053894043,68.17132568359375,0.6935620307922363,-0.9323462843894958,-0.23953650891780853,1.0942845344543457,0
546,-16.829486846923828,61.36098861694336,0.2515416443347931,-1.8326542377471924,-0.41154417395591736,1.13261079788208,0
547,-13.319198608398438,36.93527603149414,-0.5501249432563782,-2.421264171600342,-0.5574198365211487,1.1247042417526245,0
548,-3.906282663345337,9.032316207885742,-1.125551700592041,-3.0478639602661133,-0.7124226093292236,1.1317394971847534,0
549,7.167064666748047,-20.545257568359375,-1.9877427816390991,-3.11533784866333,-0.5695714950561523,1.096250295639038,0
550,21.855667114257812,-55.402587890625,-2.241879940032959,-2.7304270267486572,-0.4483895003795624,1.0589956045150757,0
551,28.384601593017578,-66.33514404296875,-0.4141941964626312,-2.32357120513916,-0.27645179629325867,1.0440336465835571,0
552,27.297941207885742,-58.666839599609375,0.36440014839172363,-1.3537448644638062,-0.013960259966552258,1.0152430534362793,0
553,20.91526222229004,-35.84206771850586,1.328157901763916,-1.5332478284835815,0.30179718136787415,1.0648142099380493,0
554,10.929889678955078,-7.798964500427246,0.0737532377243042,-0.9633767008781433,0.5058446526527405,1.0657132863998413,0
555,-0.07418321073055267,14.700757026672363,-1.2737646102905273,-0.9658361673355103,0.6093690991401672,1.071030616760254,0
556,-8.86149787902832,29.802026748657227,-1.4299932718276978,-1.1133935451507568,0.5439388155937195,1.057236671447754,0
557,-14.21451187133789,27.793642044067383,-1.2682284116744995,-1.3911404609680176,0.556491494178772,1.049938440322876,0
558,-13.573426246643066,10.859550476074219,-1.1119781732559204,-1.6875509023666382,0.35380929708480835,1.034656047821045,0
559,-7.865511417388916,-15.077642440795898,-1.289198398590088,-2.0479323863983154,0.03256640210747719,1.0032559633255005,0
560,2.330728769302368,-47.042884826660156,-1.7664254903793335,-1.8514976501464844,0.11583227664232254,1.013054609298706,0
561,10.804702758789062,-64.5156478881836,-1.5902698040008545,-1.4324843883514404,-0.08837878704071045,0.9720155596733093,0
562,17.46527862548828,-69.57677459716797,-1.4304624795913696,-0.6670380234718323,0.1351434290409088,0.976027250289917,0
563,20.241304397583008,-57.440025329589844,-0.5916462540626526,-0.009852117858827114,0.17149777710437775,0.9442633390426636,0
564,18.94127082824707,-33.75889587402344,-0.05223233252763748,0.5043985843658447,0.5356613397598267,0.9458890557289124,0
565,14.781063079833984,-5.964405536651611,-0.3326895236968994,0.7839599251747131,0.7980359792709351,0.940697968006134,0
566,7.381192207336426,17.31490135192871,-1.394715666770935,0.9931432604789734,1.0467513799667358,0.9436227083206177,0
567,-1.9614771604537964,33.56132888793945,-2.055832862854004,0.7518194317817688,1.1555804014205933,0.9267007112503052,0
568,-8.574322700500488,41.669063568115234,-2.346897602081299,0.32554754614830017,1.1267871856689453,0.9031996130943298,0
569,-12.206506729125977,35.5824089050293,-2.3258326053619385,-0.17921660840511322,0.9945972561836243,0.8781479001045227,0
570,-12.209700584411621,18.232236862182617,-2.16282057762146,-0.5434064865112305,0.8147294521331787,0.8630608320236206,0
571,-8.679146766662598,1.141825795173645,-2.5298194885253906,-0.663561999797821,0.7162832617759705,0.8566159605979919,0
572,-1.81113862991333,-17.612831115722656,-3.10882568359375,-0.49842748045921326,0.6120876669883728,0.859795093536377,0
573,5.3352789878845215,-30.4879207611084,-3.389636754989624,-0.32917970418930054,0.6156324744224548,0.8328454494476318,0
574,10.006969451904297,-34.372554779052734,-2.788994073867798,-0.10943339765071869,0.7256386280059814,0.7888206243515015,0
575,11.312435150146484,-27.746007919311523,-1.9466087818145752,0.145344540476799,0.9739353060722351,0.7419449687004089,0
576,8.05732536315918,-15.518653869628906,-1.2269337177276611,0.712963342666626,1.1488837003707886,0.7488089799880981,0
577,1.5814300775527954,0.011292794719338417,-1.2173200845718384,0.9315062761306763,1.1207274198532104,0.7392537593841553,0
578,-7.7610673904418945,15.44787883758545,-1.2056028842926025,0.8310900330543518,0.9829145669937134,0.7175768613815308,0
579,-13.547471046447754,24.214937210083008,-0.7118854522705078,0.541286051273346,1.002251386642456,0.672179102897644,0
580,-17.24764060974121,23.761707305908203,-0.7258554697036743,0.3466525375843048,0.8421498537063599,0.6681104898452759,0
581,-15.810759544372559,11.807840347290039,-0.7332725524902344,0.16037596762180328,0.7805250287055969,0.6607927083969116,0
582,-11.341989517211914,-8.307831764221191,-0.8074242472648621,0.08205730468034744,0.5318965315818787,0.6764482259750366,0
583,-5.097113132476807,-31.365028381347656,-1.0328396558761597,0.24348275363445282,0.36377355456352234,0.6971104145050049,0
584,0.9051973819732666,-50.5960693359375,-1.3622300624847412,0.46507054567337036,0.3689489960670471,0.6762219667434692,0
585,4.971956253051758,-60.07733917236328,-0.6365096569061279,1.3111214637756348,0.39336854219436646,0.7199581265449524,0
586,7.221134185791016,-51.74980545043945,-0.19046594202518463,1.475311517715454,0.48634958267211914,0.6438553333282471,0
587,5.797557830810547,-27.371179580688477,0.47814422845840454,2.274426221847534,0.5935856699943542,0.6710995435714722,0
588,0.7141947746276855,-0.1941271871328354,0.12211405485868454,2.139950752258301,0.591101348400116,0.6146906018257141,0
589,-6.133081436157227,24.320077896118164,-0.08925008028745651,2.181682825088501,0.5749710202217102,0.6161267161369324,0
590,-11.733820915222168,36.84347915649414,0.5005243420600891,1.9861795902252197,0.4683248698711395,0.629528284072876,0
591,-12.50167465209961,36.06787109375,0.4858655631542206,1.6127738952636719,0.36347755789756775,0.6355575919151306,0
592,-10.84005355834961,29.82863998413086,1.2333396673202515,1.187669038772583,0.3144467771053314,0.6175920963287354,0
593,-6.201498508453369,18.496461868286133,1.054409384727478,0.9436676502227783,0.22195933759212494,0.6319135427474976,0
594,-0.8402941823005676,6.26951789855957,0.853374183177948,0.7874365448951721,0.12745125591754913,0.6532574892044067,0
595,1.7085729837417603,-0.9758095741271973,0.30062347650527954,0.7294155359268188,0.09717461466789246,0.6659379601478577,0
596,8.076517105102539,-11.000713348388672,0.0069653671234846115,0.869121253490448,0.19935627281665802,0.6597486734390259,0
597,8.863353729248047,-19.697912216186523,0.15067380666732788,1.0072475671768188,0.29033103585243225,0.6572099328041077,0
598,4.914867401123047,-18.783573150634766,1.2098115682601929,1.1201828718185425,0.3868153691291809,0.6462819576263428,0
599,1.0163886547088623,-10.457147598266602,1.0544780492782593,1.4281423091888428,0.43568551540374756,0.6666834950447083,0
600,-3.9236233234405518,-7.884053707122803,0.5457005500793457,1.7148646116256714,0.4170783758163452,0.7007128000259399,0
601,-8.254229545593262,-7.076972007751465,-0.295376718044281,1.8070207834243774,0.3268609344959259,0.7207263708114624,0
602,-12.23803424835205,3.8197429180145264,-0.6326654553413391,1.4735333919525146,0.24571450054645538,0.6855359077453613,0
603,-13.84068775177002,15.272417068481445,-0.8685734868049622,1.4174120426177979,0.11050644516944885,0.6829169392585754,0
604,-10.396191596984863,25.755271911621094,-0.8741486668586731,1.2386246919631958,0.10896472632884979,0.6363852024078369,0
605,-6.83495569229126,29.454486846923828,-0.4798223078250885,0.9916462898254395,-0.0011981022544205189,0.6293503046035767,0
606,-3.3131725788116455,27.128469467163086,-0.2426425963640213,0.7703408002853394,-0.12432602792978287,0.6427457928657532,0
607,0.04041126370429993,19.514047622680664,-0.050062764436006546,0.44243180751800537,-0.11797886341810226,0.6238170266151428,0
608,1.9083505868911743,10.890047073364258,-0.4443953335285187,0.24178895354270935,-0.1334906965494156,0.6263741254806519,0
609,1.9640040397644043,3.0968470573425293,-0.5429799556732178,0.17729143798351288,-0.12361578643321991,0.6268931031227112,0
610,0.3183881342411041,-2.2571442127227783,-0.6173474192619324,0.22667387127876282,-0.11538543552160263,0.628688633441925,0
611,-2.314774513244629,-5.574490547180176,-0.02568241022527218,0.3460366129875183,-0.13562294840812683,0.6312222480773926,0
612,-3.707303285598755,-13.628205299377441,-0.18431462347507477,0.4639771282672882,-0.18974529206752777,0.6387265920639038,0
613,-4.480940341949463,-20.973262786865234,-0.4898904860019684,0.5559325814247131,-0.26426398754119873,0.6450584530830383,0
614,-3.2733702659606934,-20.95953941345215,-0.6278461813926697,0.7368877530097961,-0.3486100733280182,0.6489583253860474,0
615,-2.841844320297241,-11.322208404541016,-0.05013414844870567,1.1226056814193726,-0.4189658463001251,0.6525415182113647,0
616,-1.7697830200195312,1.6368279457092285,0.1169639378786087,1.3583197593688965,-0.4679102599620819,0.655133843421936,0
617,0.3460240066051483,21.394176483154297,0.18438072502613068,1.3458116054534912,-0.4966883361339569,0.657584011554718,0
618,1.531496524810791,38.63288879394531,-0.32435303926467896,0.9655079245567322,-0.3549356162548065,0.6321162581443787,0
619,3.0266032218933105,45.62202072143555,-0.5209842324256897,0.41278818249702454,-0.4053502380847931,0.6434880495071411,0
620,2.679734945297241,47.561378479003906,-0.016612935811281204,-0.26680755615234375,-0.22030845284461975,0.615541934967041,0
621,1.7672690153121948,38.00164031982422,-0.12017218768596649,-0.7888472676277161,-0.3269679546356201,0.6343145370483398,0
622,0.43162503838539124,18.31514549255371,-0.07526931166648865,-1.202871561050415,-0.29407450556755066,0.6313558220863342,0
623,-0.3876107335090637,-8.613279342651367,0.056077878922224045,-1.3457051515579224,-0.27835968136787415,0.6238971948623657,0
624,0.10670412331819534,-30.601152420043945,-0.29416725039482117,-1.2298930883407593,-0.20169949531555176,0.6141435503959656,0
625,0.012970431707799435,-49.675472259521484,-0.11143213510513306,-0.6182227730751038,-0.12985947728157043,0.5935572385787964,0
626,-0.6054489612579346,-59.896942138671875,0.5058914422988892,-0.6323463916778564,-0.06971302628517151,0.6131294965744019,0
627,-3.849782705307007,-50.185970306396484,1.1707366704940796,0.18747317790985107,-0.1049189642071724,0.6054733395576477,0
628,-7.089447498321533,-30.912519454956055,1.1436995267868042,0.706360936164856,-0.1127132996916771,0.6168779134750366,0
629,-9.120134353637695,-3.067807674407959,0.7726393938064575,0.9693430662155151,-0.16989628970623016,0.6316338777542114,0
630,-11.15011978149414,24.679290771484375,-0.11249630153179169,0.998674213886261,-0.1984388381242752,0.6398534774780273,0
631,-11.259328842163086,47.10980224609375,0.07431825995445251,0.6518974900245667,-0.39186838269233704,0.649437427520752,0
632,-8.414620399475098,56.91485595703125,0.8101744651794434,0.2674854099750519,-0.5662174224853516,0.6497950553894043,0
633,-4.468470573425293,54.383201599121094,0.8152093291282654,-0.38632455468177795,-0.6945732831954956,0.6597144603729248,0
634,0.6000955700874329,39.92897415161133,0.49778416752815247,-0.6740622520446777,-0.5435976982116699,0.643325924873352,0
635,5.036514759063721,13.13634967803955,-0.4359299838542938,-1.1930756568908691,-0.5335970520973206,0.651705265045166,0
636,7.870378017425537,-18.77484130859375,-0.8329796195030212,-1.188929796218872,-0.45356056094169617,0.637297511100769,0
637,7.07102108001709,-47.210105895996094,0.110809326171875,-1.0384712219238281,-0.48218289017677307,0.6267980933189392,0
638,3.074139356613159,-56.66196060180664,1.3645527362823486,-0.22311082482337952,-0.3826843500137329,0.6020688414573669,0
639,-2.259176015853882,-49.77197265625,2.41812801361084,0.1953856348991394,-0.35176748037338257,0.6267961263656616,0
640,-7.848572731018066,-28.154212951660156,2.277184009552002,0.8810792565345764,-0.4760468602180481,0.6331533789634705,0
641,-11.050566673278809,6.8966474533081055,1.943434715270996,1.2821348905563354,-0.40200933814048767,0.6558008193969727,0
642,-11.615209579467773,36.8454704284668,1.7704401016235352,1.0210891962051392,-0.5965633988380432,0.695451557636261,0
643,-9.347373008728027,57.41500473022461,2.123934268951416,0.5405048727989197,-0.781538724899292,0.7255561351776123,0
644,-4.829805850982666,58.64554977416992,2.975562810897827,-0.1342904418706894,-0.8513520956039429,0.7500556111335754,0
645,-0.8473217487335205,43.12373733520508,2.8279175758361816,-0.5882760882377625,-0.9314051866531372,0.7555825114250183,0
646,6.02398681640625,16.002620697021484,2.581495523452759,-1.1320359706878662,-0.9203190803527832,0.7847353219985962,0
647,14.418977737426758,-16.734155654907227,2.4461870193481445,-1.2046687602996826,-0.7876150012016296,0.794979989528656,0
648,15.702801704406738,-40.739009857177734,3.2333669662475586,-0.8195380568504333,-0.5596754550933838,0.7941750288009644,0
649,15.222491264343262,-58.22114944458008,3.741539478302002,-0.5044501423835754,-0.37663036584854126,0.8326164484024048,0
650,9.021450996398926,-60.9597053527832,4.118242263793945,0.45361146330833435,-0.2988046109676361,0.819644570350647,0
651,0.5418861508369446,-46.46392059326172,4.926537990570068,0.6970689296722412,-0.24965716898441315,0.8975935578346252,0
652,-6.7151408195495605,-19.5127010345459,5.080983638763428,1.2846426963806152,-0.2546864151954651,0.9389945864677429,0
653,-12.652763366699219,13.344708442687988,4.157148361206055,1.4117443561553955,-0.4515581429004669,0.9997175335884094,0
654,-12.62344741821289,32.402305603027344,4.535089015960693,1.1541332006454468,-0.6391781568527222,1.0572997331619263,0
655,-8.40942096710205,40.62037658691406,4.656932353973389,0.8368799686431885,-0.534000813961029,1.096821665763855,0
656,-2.705965995788574,37.070804595947266,4.212618827819824,0.43906721472740173,-0.6538178324699402,1.139733076095581,0
657,3.3333537578582764,29.519550323486328,2.5632882118225098,0.029937371611595154,-0.6056559085845947,1.1774044036865234,0
658,8.732071876525879,20.10358428955078,1.391869068145752,-0.27277815341949463,-0.5384002923965454,1.2003850936889648,0
659,11.44602108001709,9.585366249084473,0.4807693660259247,-0.5196495056152344,-0.6092973947525024,1.214646816253662,0
660,10.594109535217285,2.2728986740112305,0.012674854137003422,-0.6360250115394592,-0.49676164984703064,1.2175378799438477,0
661,8.463562965393066,-3.564197063446045,0.8235862851142883,-0.5042937994003296,-0.32701605558395386,1.2038065195083618,0
662,4.268928527832031,-14.05017375946045,1.3743270635604858,-0.5356799960136414,-0.20506444573402405,1.2169897556304932,0
663,0.16233621537685394,-17.886451721191406,2.0137393474578857,-0.34315013885498047,-0.21895352005958557,1.2214854955673218,0
664,-3.4529922008514404,-26.365619659423828,1.6860281229019165,-0.05280907079577446,-0.21871310472488403,1.2311022281646729,0
665,-4.198103904724121,-29.914146423339844,1.274061918258667,0.12107577919960022,-0.26333966851234436,1.2547415494918823,0
666,-1.8222291469573975,-22.63460350036621,1.2654155492782593,0.5344512462615967,-0.30899715423583984,1.2606725692749023,0
667,-0.927814245223999,-10.49325942993164,1.3588292598724365,0.8918259739875793,-0.33114689588546753,1.2660129070281982,0
668,2.318687915802002,13.424935340881348,2.0301082134246826,0.9352116584777832,-0.32191067934036255,1.2878963947296143,0
669,4.012069225311279,36.948020935058594,2.126023769378662,0.7093573808670044,-0.3477378189563751,1.3165286779403687,0
670,4.881514072418213,51.44230651855469,1.4601190090179443,0.1493406444787979,-0.27720868587493896,1.3482469320297241,0
671,5.030472278594971,57.448177337646484,1.338121771812439,-0.48778587579727173,-0.2695538401603699,1.3691825866699219,0
672,4.983247756958008,50.95140838623047,1.6572741270065308,-1.1891274452209473,-0.2555730640888214,1.3864703178405762,0
673,4.612962245941162,27.67024803161621,2.1824896335601807,-1.726625680923462,-0.09663879126310349,1.4068529605865479,0
674,5.293196678161621,-5.259145736694336,1.4139220714569092,-2.007389783859253,-0.010985186323523521,1.4293807744979858,0
675,5.828711032867432,-39.94255065917969,1.2315806150436401,-1.8234243392944336,-0.051960539072752,1.4265563488006592,0
676,5.320265293121338,-64.78730010986328,1.4391449689865112,-1.192125916481018,0.06379816681146622,1.4338353872299194,0
677,2.260647773742676,-73.36067199707031,2.0842435359954834,-0.5641695857048035,0.15857034921646118,1.4492125511169434,0
678,-1.7147880792617798,-61.778926849365234,3.1600451469421387,-0.0488487146794796,0.2040654718875885,1.4730796813964844,0
679,-6.153302192687988,-36.142906188964844,3.4748547077178955,0.5699700117111206,0.18673649430274963,1.4997005462646484,0
680,-7.920359134674072,-4.681415557861328,3.72554087638855,1.193603277206421,0.04009406641125679,1.5226964950561523,0
681,-6.987667083740234,28.529367446899414,3.1781375408172607,1.2597808837890625,-0.06095443293452263,1.5576238632202148,0
682,-5.226491928100586,61.77501678466797,3.128713369369507,0.758538007736206,-0.01369248516857624,1.5958384275436401,0
683,-2.2159626483917236,75.72843933105469,3.3011837005615234,0.16866768896579742,-0.08510608971118927,1.6294625997543335,0
684,0.6114329695701599,73.50300598144531,3.2082040309906006,-0.7459215521812439,-0.10702630132436752,1.6616380214691162,0
685,3.9749317169189453,50.51264190673828,2.766514539718628,-1.5324937105178833,-0.07800378650426865,1.6940950155258179,0
686,7.6789069175720215,23.454973220825195,2.0197641849517822,-1.9830080270767212,0.006980735808610916,1.727363109588623,0
687,8.467802047729492,-8.487460136413574,2.1702370643615723,-2.243422269821167,0.059503719210624695,1.748279333114624,0
688,8.078268051147461,-28.82509422302246,2.1419942378997803,-2.0633349418640137,0.19790193438529968,1.7798665761947632,0
689,4.947329044342041,-40.561378479003906,3.09639573097229,-1.5619548559188843,0.31192734837532043,1.8096363544464111,0
690,1.4236022233963013,-38.842681884765625,3.801114082336426,-1.19915771484375,0.3761369585990906,1.83741295337677,0
691,-2.3885498046875,-27.33040428161621,3.5699894428253174,-0.7987475991249084,0.4441032409667969,1.8789921998977661,0
692,-6.958285808563232,-8.220273971557617,2.876593589782715,-0.39701518416404724,0.3007405698299408,1.892927646636963,0
693,-11.37540340423584,13.578121185302734,1.7864493131637573,-0.3211418390274048,0.16146333515644073,1.9058585166931152,0
694,-11.838204383850098,34.39064407348633,2.255906343460083,-0.5237106084823608,0.050745148211717606,1.9202793836593628,0
695,-8.042939186096191,35.87766647338867,2.6250898838043213,-0.9493368268013,-0.12223279476165771,1.9248358011245728,0
696,-3.7824840545654297,30.60347557067871,2.150364398956299,-1.3959676027297974,-0.17508071660995483,1.9479503631591797,0
697,-0.2027580589056015,14.113431930541992,0.9348555207252502,-1.7266894578933716,-0.23235207796096802,1.9632600545883179,0
698,7.276045799255371,-9.108278274536133,0.9136013388633728,-1.803403377532959,-0.2118551880121231,1.983136534690857,0
699,10.583085060119629,-27.234193801879883,0.2246643751859665,-1.568473219871521,-0.10855699330568314,2.0108344554901123,0
700,9.367029190063477,-38.68545150756836,0.7341946363449097,-1.3388546705245972,0.10420563071966171,2.0435917377471924,0
701,7.351871490478516,-44.3856201171875,1.0004425048828125,-1.0674792528152466,0.23787839710712433,2.054913282394409,0
702,2.0198962688446045,-32.76081466674805,1.3892910480499268,-0.6797046661376953,0.25911465287208557,2.0500001907348633,0
703,-4.05336856842041,-15.099002838134766,1.5259504318237305,-0.16711099445819855,0.26900216937065125,2.0644924640655518,0
704,-9.397616386413574,1.6721471548080444,0.9063936471939087,0.13122810423374176,0.18321046233177185,2.071544647216797,0
705,-13.987519264221191,13.360638618469238,0.35141801834106445,0.1595415621995926,0.011721646413207054,2.0660266876220703,0
706,-15.253748893737793,26.14078140258789,0.4848235249519348,-0.5772759914398193,-0.22014158964157104,2.0273759365081787,0
707,-11.509190559387207,31.294952392578125,1.7540366649627686,-0.8770850300788879,-0.45014894008636475,2.017340898513794,0
708,-5.609912395477295,24.85944938659668,2.043290853500366,-1.0832228660583496,-0.4699957072734833,2.050804615020752,0
709,1.3335423469543457,12.089556694030762,1.9349316358566284,-1.3403501510620117,-0.5460296869277954,2.0678491592407227,0
710,7.989864349365234,-9.667156219482422,0.6383155584335327,-1.4398231506347656,-0.5049226880073547,2.0935871601104736,0
711,12.402113914489746,-33.01054763793945,-0.08012780547142029,-1.1230818033218384,-0.364719420671463,2.1162991523742676,0
712,12.644908905029297,-43.28787612915039,-0.2836998403072357,-0.9228339791297913,-0.31197845935821533,2.103712558746338,0
713,12.91431999206543,-53.5385627746582,-0.07060598582029343,-0.15951736271381378,-0.1689630150794983,2.1062753200531006,0
714,8.67733383178711,-46.97421646118164,-0.13847145438194275,-0.04149948060512543,-0.051768455654382706,2.1031811237335205,0
715,4.125247478485107,-34.66585159301758,-0.29106876254081726,0.5737323760986328,0.06981107592582703,2.1076338291168213,0
716,-4.029825210571289,-10.84222412109375,0.03623897582292557,0.8211129903793335,0.031102605164051056,2.0985770225524902,0
717,-7.157570838928223,9.349289894104004,0.21201063692569733,1.0410866737365723,-0.024118291214108467,2.097292900085449,0
718,-8.520599365234375,26.102638244628906,0.31070536375045776,0.7670993208885193,-0.14305636286735535,2.0914969444274902,0
719,-8.522961616516113,38.33106994628906,0.029432570561766624,0.42874521017074585,-0.2790367305278778,2.0872247219085693,0
720,-3.9843616485595703,34.36628723144531,0.3189432919025421,-0.038948290050029755,-0.38538506627082825,2.083430528640747,0
721,2.59016489982605,21.196510314941406,0.5665165781974792,-0.33880525827407837,-0.4182373583316803,2.0835652351379395,0
722,8.35433292388916,5.591751575469971,-0.953866183757782,-0.40061119198799133,-0.34892430901527405,2.087616443634033,0
723,12.173640251159668,-10.714412689208984,-1.5467400550842285,-0.3687838613986969,-0.19528089463710785,2.081306219100952,0
724,13.518514633178711,-14.55587100982666,-1.525544285774231,-0.1394859254360199,-0.0652393326163292,2.065650701522827,0
725,9.534744262695312,-19.151199340820312,-0.7672081589698792,0.1662214696407318,0.1386442482471466,2.0508291721343994,0
726,5.794715404510498,-19.64085578918457,-0.8586751222610474,0.30285194516181946,0.2188895344734192,2.040706157684326,0
727,0.018431585282087326,-16.456172943115234,-0.6699553728103638,0.6410646438598633,0.29530009627342224,2.0309982299804688,0
728,-5.512238502502441,-6.57102108001709,-0.7208908796310425,0.932790219783783,0.20591841638088226,2.027308702468872,0
729,-11.157308578491211,13.507454872131348,-1.5077189207077026,0.3804887533187866,0.09937264770269394,2.0130369663238525,0
730,-9.478666305541992,16.603191375732422,-2.0320401191711426,0.28801634907722473,-0.06652665138244629,2.0025100708007812,0
731,-7.045228958129883,20.747283935546875,-2.249582290649414,0.10384783893823624,-0.1509033590555191,1.986116886138916,0
732,-1.4860719442367554,13.784667015075684,-1.9136041402816772,-0.14468452334403992,-0.2535722553730011,1.96755051612854,0
733,4.360804557800293,4.69523811340332,-1.472861409187317,-0.27625226974487305,-0.2567693293094635,1.9482955932617188,0
734,9.885819435119629,-1.2949389219284058,-2.075890302658081,-0.29095810651779175,-0.16475634276866913,1.9310712814331055,0
735,13.097402572631836,-6.479647636413574,-1.7347567081451416,-0.21660061180591583,-0.13233578205108643,1.9156386852264404,0
736,10.973994255065918,-7.330602169036865,-1.7419583797454834,-0.15221007168293,0.07994865626096725,1.8941857814788818,0
737,6.71272087097168,-4.929140090942383,-1.5320121049880981,0.059701912105083466,0.19103142619132996,1.8773859739303589,0
738,0.9076282978057861,-0.5160839557647705,-2.0418267250061035,0.21638788282871246,0.30259600281715393,1.8589842319488525,0
739,-4.117325305938721,8.497626304626465,-2.846437692642212,0.20720314979553223,0.3155578672885895,1.8373934030532837,0
740,-7.140477657318115,12.485119819641113,-3.3935186862945557,0.15445171296596527,0.25463682413101196,1.8117694854736328,0
741,-8.50015640258789,16.985214233398438,-3.84218430519104,0.0073880222626030445,0.14496555924415588,1.7829358577728271,0
742,-7.76417875289917,18.564613342285156,-3.622971296310425,-0.27439752221107483,0.020555539056658745,1.7475404739379883,0
743,-4.394248962402344,9.772917747497559,-2.780144453048706,-0.3748350441455841,0.06132498383522034,1.710747241973877,0
744,-1.4034863710403442,-6.972766399383545,-3.883206605911255,-0.4016851484775543,0.0013136842753738165,1.6856474876403809,0
745,4.185871601104736,-23.792591094970703,-3.387545347213745,-0.36340978741645813,0.010412978008389473,1.6501084566116333,0
746,6.706143379211426,-29.12482261657715,-2.8815712928771973,-0.24535663425922394,0.08542029559612274,1.6102176904678345,0
747,6.157036781311035,-22.916309356689453,-2.1390833854675293,0.01387311052531004,0.1202244758605957,1.5815258026123047,0
748,3.6534571647644043,-8.528717041015625,-1.6749851703643799,0.37047213315963745,0.14697760343551636,1.5628916025161743,0
749,0.10993728786706924,8.865586280822754,-1.4121168851852417,0.5090685486793518,0.21079537272453308,1.543897032737732,0
750,-3.749720573425293,23.655832290649414,-2.523750066757202,0.3676467537879944,0.2072972059249878,1.5244050025939941,0
751,-5.0961384773254395,33.35606384277344,-2.7302911281585693,0.07194013148546219,0.15018171072006226,1.4974758625030518,0
752,-5.914126873016357,35.11943817138672,-2.446303606033325,-0.36481231451034546,0.06987090408802032,1.4681031703948975,0
753,-4.651478290557861,22.508760452270508,-2.365865707397461,-0.7059212923049927,-0.015004370361566544,1.4439125061035156,0
754,-0.33031368255615234,-0.7686777114868164,-2.24858021736145,-0.8958444595336914,-3.855116665363312e-05,1.4211280345916748,0
755,3.24354887008667,-24.590890884399414,-2.1977319717407227,-0.7258239984512329,-0.06838662922382355,1.408656358718872,0
756,8.123795509338379,-39.000518798828125,-2.685434341430664,-0.24608354270458221,0.05819234251976013,1.395864486694336,0
757,7.544333457946777,-33.98533248901367,-1.7209186553955078,-0.36432960629463196,-0.04050204157829285,1.357109546661377,0
758,5.8117241859436035,-20.984119415283203,-1.7471829652786255,0.11424103379249573,0.08476986736059189,1.3429208993911743,0
759,3.4149396419525146,-3.935582160949707,-2.3896970748901367,0.29645219445228577,-0.02679591067135334,1.325162410736084,0
760,2.9109597206115723,15.211946487426758,-2.75714111328125,0.36657586693763733,0.04725082963705063,1.3015202283859253,0
761,-0.14779014885425568,27.022178649902344,-3.6738264560699463,0.21911495923995972,0.09247726947069168,1.2708652019500732,0
762,1.3784376382827759,35.872013092041016,-3.896704912185669,-0.11163529753684998,0.11314937472343445,1.232083797454834,0
763,0.724886417388916,32.404014587402344,-4.772782802581787,-0.4046981632709503,0.06027504801750183,1.1964926719665527,0
764,1.223907709121704,23.197208404541016,-5.48042631149292,-0.8053836822509766,0.08385466784238815,1.1496965885162354,0
765,2.5861096382141113,10.326297760009766,-5.576447486877441,-1.0628204345703125,0.12737993896007538,1.100903868675232,0
766,4.568519592285156,-8.741436004638672,-5.543153285980225,-1.0725078582763672,0.19703014194965363,1.0539458990097046,0
767,3.3194305896759033,-18.609712600708008,-5.0807671546936035,-0.8941714763641357,0.2902538478374481,1.0046732425689697,0
768,2.183277130126953,-22.561861038208008,-5.000655174255371,-0.5521964430809021,0.24030949175357819,0.9552258253097534,0
769,0.46612289547920227,-17.711009979248047,-4.58622407913208,-0.3089848458766937,0.31713008880615234,0.9077194929122925,0
770,-0.3055998384952545,-7.27151346206665,-4.328017711639404,-0.20774205029010773,0.3600519001483917,0.8577782511711121,0
771,-1.1639204025268555,3.9644076824188232,-5.365911960601807,-0.14574582874774933,0.2315812110900879,0.8033918738365173,0
772,-1.8799716234207153,18.12824058532715,-5.1895751953125,-0.1262773871421814,0.22807542979717255,0.7522169947624207,0
773,-1.36204195022583,25.522706985473633,-5.433082103729248,-0.36487478017807007,0.2136187106370926,0.693993330001831,0
774,0.23687715828418732,19.87434959411621,-5.735775470733643,-0.608902096748352,0.21069996058940887,0.6410385966300964,0
775,2.8914549350738525,1.9835212230682373,-5.443378925323486,-0.7420461773872375,0.23967356979846954,0.5921772122383118,0
776,4.895366191864014,-5.963255405426025,-5.597306251525879,-0.6757970452308655,0.3043048083782196,0.5455482006072998,0
777,5.276544094085693,-11.351237297058105,-5.579089641571045,-0.7687458992004395,0.25570887327194214,0.47957903146743774,0
778,3.759380340576172,-17.50274658203125,-4.913554668426514,-0.47151321172714233,0.36123785376548767,0.43693286180496216,0
779,3.469902753829956,-16.340547561645508,-4.070154190063477,-0.17510059475898743,0.4495120644569397,0.3928930163383484,0
780,1.333627700805664,-8.371304512023926,-3.694194793701172,-0.04711190238595009,0.3019818365573883,0.33327439427375793,0
781,-1.8122798204421997,2.9861326217651367,-3.9519498348236084,0.02309413067996502,0.3402464985847473,0.2865045666694641,0
782,-3.715822696685791,13.579896926879883,-3.8747293949127197,-0.09764914214611053,0.33962851762771606,0.2359691560268402,0
783,-3.5622446537017822,12.834022521972656,-3.8174402713775635,0.13702347874641418,0.31620344519615173,0.21709229052066803,0
784,1.2215540409088135,3.0269551277160645,-3.833698034286499,-0.5368842482566833,0.31456872820854187,0.14708279073238373,0
785,2.0606114864349365,-8.811452865600586,-3.422208547592163,-0.5322911143302917,0.3642805814743042,0.11525871604681015,0
786,4.559029579162598,-13.673408508300781,-3.1710751056671143,-0.4401976764202118,0.44839853048324585,0.0829937607049942,0
787,7.278171539306641,-10.067127227783203,-2.9630775451660156,-0.2877689301967621,0.5559314489364624,0.05405641347169876,0
788,6.019694805145264,-5.544150352478027,-3.0928854942321777,-0.10945457220077515,0.6778503656387329,0.029789751395583153,0
789,1.7293778657913208,2.212392568588257,-3.6285173892974854,0.04489782825112343,0.6261075735092163,0.002724546240642667,0
790,-2.7656338214874268,3.373635768890381,-3.9131383895874023,0.10951140522956848,0.7266499400138855,-0.02414366789162159,0
791,-6.543963432312012,9.189895629882812,-4.330867290496826,-0.08324908465147018,0.46688172221183777,-0.07681512832641602,0
792,-6.739696025848389,14.509964942932129,-3.9428040981292725,-0.05155748128890991,0.5970669388771057,-0.10620027035474777,0
793,-3.1741020679473877,15.83570671081543,-3.6409668922424316,-0.09734652936458588,0.568688154220581,-0.13628482818603516,0
794,-0.22811239957809448,14.075807571411133,-3.479874610900879,-0.8747453093528748,0.37151092290878296,-0.2275417149066925,0
795,3.225201368331909,2.7039906978607178,-3.1472220420837402,-0.9245094060897827,0.4432513117790222,-0.2510000467300415,0
796,7.129663944244385,-15.147490501403809,-2.770171642303467,-0.8634657859802246,0.4221104383468628,-0.27418139576911926,0
797,8.316493034362793,-25.1307373046875,-2.8032968044281006,-0.7091922163963318,0.5229065418243408,-0.29894256591796875,0
798,4.497087001800537,-24.137374877929688,-2.9121999740600586,-0.34810271859169006,0.633998453617096,-0.31627121567726135,0
799,-0.7961523532867432,-15.848231315612793,-3.15464448928833,0.12539488077163696,0.6938905715942383,-0.3282405138015747,0
800,-5.56477689743042,-5.367101669311523,-2.993014335632324,-0.11266772449016571,0.6057209968566895,-0.40281012654304504,0
801,-9.887463569641113,7.79004430770874,-3.430690288543701,-0.09767431765794754,0.5160948038101196,-0.4407746493816376,0
802,-10.161953926086426,18.305463790893555,-3.1910557746887207,-0.07099992036819458,0.373211532831192,-0.4669303297996521,0
803,-7.036153316497803,16.967775344848633,-4.187151908874512,-0.2400379627943039,0.2399187833070755,-0.4981176555156708,0
804,-0.8980764150619507,4.690774440765381,-4.000973224639893,-0.4382394850254059,0.31055304408073425,-0.5314157009124756,0
805,5.8581624031066895,-15.037162780761719,-3.8395001888275146,-0.41819432377815247,0.2561538815498352,-0.5584675073623657,0
806,8.735150337219238,-31.849205017089844,-3.8825457096099854,-0.2377583086490631,0.3599885106086731,-0.5882906913757324,0
807,8.400554656982422,-44.01727294921875,-3.0320029258728027,0.15655650198459625,0.35944822430610657,-0.6209424138069153,0
808,4.396722793579102,-47.17496109008789,-1.9550877809524536,0.4604269862174988,0.5644398331642151,-0.6640628576278687,0
809,-0.7072663903236389,-37.3499870300293,-1.0964772701263428,1.2134480476379395,0.564920961856842,-0.6694507002830505,0
810,-6.595962047576904,-19.93505859375,-1.0208269357681274,1.5488965511322021,0.697166383266449,-0.6980705857276917,0
811,-10.997825622558594,9.403107643127441,-0.9990395903587341,1.599390983581543,0.5828784704208374,-0.721930205821991,0
812,-13.175177574157715,26.90791130065918,-0.79879230260849,1.441185712814331,0.3973385989665985,-0.7332802414894104,0
813,-10.51396369934082,44.707401275634766,-0.41445547342300415,1.0273629426956177,0.11610625684261322,-0.7359881401062012,0
814,-6.070212364196777,49.68436813354492,0.027492666617035866,0.547285795211792,0.0845184400677681,-0.7578217387199402,0
815,1.5337501764297485,30.98932456970215,-0.8095797896385193,0.08332376927137375,0.0007781007443554699,-0.7596307992935181,0
816,8.899843215942383,8.274782180786133,-0.9470252990722656,-0.23720930516719818,0.0404108501970768,-0.7707949280738831,0
817,13.571818351745605,-21.013103485107422,-2.115828275680542,-0.12689921259880066,0.12693069875240326,-0.7730572819709778,0
818,14.712239265441895,-43.84325408935547,-1.5368411540985107,0.17694880068302155,0.211719810962677,-0.7837995290756226,0
819,12.74736213684082,-50.83163833618164,-0.3335643410682678,0.7136927247047424,0.4450050890445709,-0.8068220615386963,0
820,5.992358684539795,-44.57109451293945,0.5954686403274536,1.352943778038025,0.6247563362121582,-0.8225513100624084,0
821,-3.941480875015259,-25.098142623901367,0.9925822615623474,1.9292303323745728,0.6945757865905762,-0.8241164684295654,0
822,-12.29454517364502,0.9491752982139587,0.09546808898448944,1.891848087310791,0.550868034362793,-0.8170570731163025,0
823,-17.918563842773438,26.753522872924805,-0.8444731831550598,1.7090240716934204,0.35762566328048706,-0.8105477094650269,0
824,-15.899678230285645,47.68250274658203,-0.03966393694281578,1.3887416124343872,0.23764455318450928,-0.8269621133804321,0
825,-10.18896484375,61.17605209350586,0.931808352470398,0.9057574272155762,0.06110731139779091,-0.8236174583435059,0
826,-2.6857378482818604,60.6703987121582,1.050687551498413,0.4224955141544342,-0.10066249221563339,-0.8023840188980103,0
827,5.0671563148498535,47.55204772949219,0.7699409127235413,-0.21601150929927826,-0.06586810946464539,-0.8121060132980347,0
828,12.428078651428223,21.338510513305664,0.5878649950027466,-0.7032548189163208,-0.0422012135386467,-0.8015324473381042,0
829,14.037740707397461,1.532867431640625,0.5032517313957214,-0.9263527989387512,0.164223775267601,-0.8080645799636841,0
830,15.475286483764648,-14.874955177307129,1.1518512964248657,-0.9780632853507996,0.20044033229351044,-0.7881700396537781,0
831,10.338424682617188,-27.072599411010742,1.6483545303344727,-0.7170223593711853,0.3744199872016907,-0.777320921421051,0
832,5.429356098175049,-26.292024612426758,1.9134916067123413,-0.382820188999176,0.5444208383560181,-0.7663727402687073,0
833,-1.2211209535598755,-17.70132064819336,1.7552136182785034,-0.11631333827972412,0.611939013004303,-0.7510610818862915,0
834,-9.022721290588379,-4.9433488845825195,0.8649879693984985,0.03149569779634476,0.5009650588035583,-0.730366587638855,0
835,-15.501534461975098,9.447178840637207,0.5919723510742188,0.19939693808555603,0.5025222301483154,-0.7226955890655518,0
836,-14.426244735717773,21.081342697143555,1.0645710229873657,0.08430847525596619,0.2955067455768585,-0.7109808921813965,0
837,-10.580077171325684,27.978540420532227,1.2743624448776245,-0.06394217908382416,0.16539424657821655,-0.7011898159980774,0
838,-5.649998664855957,23.0416316986084,1.700063705444336,-0.35756510496139526,0.019160529598593712,-0.692887008190155,0
839,2.00638484954834,3.2926814556121826,1.3979105949401855,-0.48520326614379883,-0.03880615532398224,-0.6796326041221619,0
840,6.167374610900879,-13.690535545349121,1.246826171875,-0.49985262751579285,0.007062808144837618,-0.6668524146080017,0
841,10.65052604675293,-36.88542175292969,0.7084500193595886,-0.293574720621109,0.12838214635849,-0.6548309326171875,0
842,10.41198444366455,-38.96893310546875,1.5028352737426758,-0.06695455312728882,0.14845585823059082,-0.644577145576477,0
843,6.700051307678223,-26.731605529785156,2.494184732437134,0.11315512657165527,0.22595515847206116,-0.6275365352630615,0
844,2.4496848583221436,-7.426966667175293,2.801471471786499,0.5603426098823547,0.3141545057296753,-0.6028350591659546,0
845,-1.9644782543182373,8.573302268981934,2.0015175342559814,0.5961931943893433,0.32442185282707214,-0.5752095580101013,0
846,-7.285260200500488,26.78977394104004,1.1395424604415894,0.4910902678966522,0.26607242226600647,-0.5524899959564209,0
847,-7.114488124847412,33.48375701904297,0.14787077903747559,0.12848058342933655,0.2279902547597885,-0.5386480689048767,0
848,-4.789149761199951,37.99095153808594,0.36473190784454346,-0.28451475501060486,0.11431697756052017,-0.5290089845657349,0
849,-3.1331560611724854,30.46087646484375,0.8718858957290649,-0.6387130618095398,0.1014111116528511,-0.52290278673172,0
850,2.711378812789917,15.5436372756958,0.5821241140365601,-0.9087351560592651,0.05615467578172684,-0.5134242177009583,0
851,3.9287383556365967,-13.702942848205566,0.8078795671463013,-0.9413319230079651,0.07591962814331055,-0.507708728313446,0
852,4.994443416595459,-19.203121185302734,0.9883178472518921,-0.6196244359016418,0.14442355930805206,-0.502617359161377,0
853,4.494074821472168,-22.113147735595703,1.0685325860977173,-0.5745365023612976,0.1652553230524063,-0.4953049123287201,0
854,0.54018235206604,-19.283966064453125,0.5835602283477783,-0.08900753408670425,0.24032504856586456,-0.4882392883300781,0
855,0.10030876100063324,-15.169510841369629,0.4347282946109772,0.17093530297279358,0.1990908682346344,-0.483801007270813,0
856,-2.71574330329895,-1.2832506895065308,-0.8618882298469543,0.4439024329185486,0.19807539880275726,-0.4809141755104065,0
857,-2.865915536880493,14.063684463500977,-1.6415014266967773,0.27739500999450684,0.1570575088262558,-0.483672559261322,0
858,-2.2515814304351807,32.123374938964844,-1.5136981010437012,0.21948523819446564,0.09918094426393509,-0.4963538348674774,0
859,-1.702258586883545,37.80931091308594,-1.579944133758545,-0.20902714133262634,0.05014763027429581,-0.5085106492042542,0
860,2.0191566944122314,40.84406280517578,-1.7133690118789673,-0.7209456562995911,0.10746494680643082,-0.5194873213768005,0
861,5.301276206970215,26.699316024780273,-2.241021156311035,-1.2103650569915771,0.14156575500965118,-0.5336138010025024,0
862,7.5557169914245605,8.406537055969238,-2.4259567260742188,-1.3606369495391846,0.23099015653133392,-0.552848756313324,0
863,7.912747383117676,-4.342916965484619,-2.112410306930542,-1.3937711715698242,0.28258201479911804,-0.579638659954071,0
864,3.84322452545166,-10.95600414276123,-2.2457900047302246,-1.3013992309570312,0.4029575288295746,-0.5980109572410583,0
865,-0.2628925144672394,-13.6627779006958,-1.9851791858673096,-1.0242228507995605,0.4667205214500427,-0.6216601729393005,0
866,-4.470315456390381,-11.235016822814941,-2.290591239929199,-0.8060952425003052,0.45691338181495667,-0.6454287171363831,0
867,-8.464858055114746,-3.694795608520508,-2.2677903175354004,-0.5237321853637695,0.5886699557304382,-0.6485684514045715,0
868,-8.195093154907227,0.6379600167274475,-2.188446283340454,-1.4595696926116943,0.30571678280830383,-0.7020350694656372,0
869,-9.820106506347656,3.2982699871063232,-1.7539628744125366,-1.4249835014343262,0.15801164507865906,-0.7335317730903625,0
870,-6.8038458824157715,2.9200620651245117,-1.5833406448364258,-1.3709031343460083,0.01615177094936371,-0.7588028907775879,0
871,-1.5441101789474487,0.9695860147476196,-1.115155577659607,-1.3809536695480347,-0.006581594236195087,-0.7643436193466187,0
872,4.433062553405762,-3.612015724182129,-1.6691598892211914,-1.4760823249816895,-0.021696407347917557,-0.7745010256767273,0
873,8.95241928100586,-14.798990249633789,-1.5616658926010132,-1.3098914623260498,0.04766710475087166,-0.7842497229576111,0
874,10.149908065795898,-20.086029052734375,-1.4573136568069458,-1.0721344947814941,0.17236022651195526,-0.7926880717277527,0
875,6.97532844543457,-18.27678680419922,-0.7443744540214539,-0.6268008351325989,0.2321176677942276,-0.8205827474594116,0
876,1.01787269115448,-12.058152198791504,-0.771009087562561,-0.7183807492256165,0.3850274980068207,-0.8145459294319153,0
877,-5.69618034362793,-2.1923046112060547,-0.7038187384605408,-0.6217832565307617,0.3711208701133728,-0.8320645093917847,0
878,-10.862858772277832,6.323082447052002,-0.9813550710678101,-0.540276825428009,0.26162248849868774,-0.8542168140411377,0
879,-12.401845932006836,11.143193244934082,-0.5519987940788269,-0.5915658473968506,0.0870329886674881,-0.8793251514434814,0
880,-8.849881172180176,10.74047565460205,-0.14481714367866516,-0.6390132904052734,0.048406098037958145,-0.8718652725219727,0
881,-3.9738564491271973,0.3020196259021759,0.3174246549606323,-0.6439493298530579,-0.014427833259105682,-0.8682522177696228,0
882,0.9992216229438782,-8.953612327575684,0.5366949439048767,-0.5934275984764099,-0.07568272203207016,-0.8675659894943237,0
883,3.906261682510376,-10.890942573547363,0.5821397304534912,-0.4240514934062958,0.0032626388128846884,-0.8504253625869751,0
884,6.109004020690918,-9.834389686584473,0.8994519114494324,-0.14822421967983246,0.054696761071681976,-0.845409095287323,0
885,4.425531387329102,-4.205655574798584,1.1441991329193115,-0.5451751351356506,0.04828415438532829,-0.8344957232475281,0
886,1.8308008909225464,4.935351848602295,0.9476125240325928,-0.4457486867904663,0.16045911610126495,-0.8172747492790222,0
887,-2.664289951324463,8.276016235351562,0.43408203125,-0.4657019078731537,0.08373245596885681,-0.8218328952789307,0
888,-4.931849956512451,12.443035125732422,0.7437013387680054,-0.5530736446380615,0.09895742684602737,-0.8115147352218628,0
889,-6.187835693359375,8.106541633605957,0.8236398696899414,-0.7331334948539734,0.007425590883940458,-0.8097153306007385,0
890,-6.836084365844727,5.840455055236816,0.8103863000869751,-0.7281649112701416,-0.09515842795372009,-0.8099257349967957,0
891,-3.253754138946533,-1.4293662309646606,1.685621976852417,-0.6645034551620483,-0.18510904908180237,-0.8068355917930603,0
892,0.5553284883499146,-5.517146110534668,1.5657482147216797,-0.5916929244995117,-0.2309201955795288,-0.7960232496261597,0
893,4.538320064544678,-6.594395160675049,1.4770073890686035,-0.3955084979534149,-0.21541506052017212,-0.7851988077163696,0
894,6.100690841674805,-6.8149003982543945,0.9796445965766907,-0.6136054992675781,-0.1477348953485489,-0.7556743025779724,0
895,6.466002464294434,-8.534220695495605,1.119830846786499,-0.713653564453125,-0.12240520119667053,-0.7410919070243835,0
896,5.536603927612305,-21.974843978881836,0.6969928741455078,-0.5057520270347595,0.04966609179973602,-0.7268844842910767,0
897,2.385744094848633,-23.230226516723633,1.0339951515197754,-0.11272858083248138,0.04901697486639023,-0.7369903326034546,0
898,-2.4072585105895996,-16.808704376220703,1.5846130847930908,0.2746419310569763,0.06927088648080826,-0.7364394664764404,0
899,-6.8631134033203125,-6.0098161697387695,1.6580981016159058,0.40400877594947815,0.015275336802005768,-0.7224465012550354,0
900,-7.40529727935791,7.109499931335449,1.7609279155731201,0.15153127908706665,-0.08987854421138763,-0.6928085088729858,0
901,-6.279172420501709,18.11155891418457,1.9416165351867676,0.14019431173801422,-0.2034582495689392,-0.6785004138946533,0
902,-2.5727579593658447,21.3758544921875,1.9464519023895264,-0.094152070581913,-0.22010348737239838,-0.6569262742996216,0
903,2.3477425575256348,20.011573791503906,1.6287240982055664,-0.3049052953720093,-0.24697424471378326,-0.6391058564186096,0
904,6.283570766448975,13.010644912719727,1.282660722732544,-0.4790155589580536,-0.20350442826747894,-0.624271035194397,0
905,9.38854694366455,2.5615012645721436,1.2111483812332153,-0.5383928418159485,-0.10055260360240936,-0.616375744342804,0
906,11.023697853088379,-1.6455678939819336,1.2078529596328735,-0.5810848474502563,-0.025401420891284943,-0.6053432822227478,0
907,8.988901138305664,-26.669546127319336,0.8101059198379517,-0.37491151690483093,0.13523966073989868,-0.6027524471282959,0
908,6.204821586608887,-41.0418815612793,1.5209136009216309,-0.036596834659576416,0.2675493657588959,-0.6016921401023865,0
909,1.993545651435852,-41.03823471069336,1.8932832479476929,0.6969419717788696,0.34676849842071533,-0.6099767684936523,0
910,-5.678380966186523,-28.114688873291016,2.149963617324829,0.4735928177833557,0.20143182575702667,-0.5647463798522949,0
911,-11.644391059875488,-5.807882308959961,2.5646209716796875,0.9112004637718201,0.09855423867702484,-0.5468589663505554,0
912,-13.250174522399902,12.833992958068848,2.457780122756958,1.0038425922393799,-0.08670703321695328,-0.516977071762085,0
913,-10.718443870544434,32.42440414428711,1.620137333869934,0.8477819561958313,-0.21265172958374023,-0.4902375340461731,0
914,-4.322746753692627,40.261009216308594,1.5242631435394287,0.5103092789649963,-0.2165919691324234,-0.4802172780036926,0
915,3.1525299549102783,38.91477584838867,1.4312794208526611,0.06259498000144958,-0.1992987096309662,-0.4720056354999542,0
916,9.040060043334961,28.9558162689209,0.6678160429000854,-0.2711182236671448,-0.14275124669075012,-0.46649491786956787,0
917,12.042390823364258,13.67790412902832,-0.26358160376548767,-0.5879836082458496,-0.0020367030519992113,-0.46422359347343445,0
918,11.263586044311523,-1.1026020050048828,-0.5307331681251526,-0.6743503212928772,0.031932294368743896,-0.46337661147117615,0
919,6.649925231933594,-12.358233451843262,-0.5617508888244629,-0.6100203394889832,0.1144917756319046,-0.47115662693977356,0
920,-0.15351995825767517,-17.824546813964844,-0.47199562191963196,-0.525181770324707,0.12520292401313782,-0.47326698899269104,0
921,-5.327446937561035,-25.059646606445312,-0.7264339923858643,-0.10258147865533829,0.1147119402885437,-0.48798102140426636,0
922,-8.449283599853516,-22.23601722717285,-0.988438069820404,-0.25732266902923584,0.09734003245830536,-0.482083261013031,0
923,-8.108142852783203,-12.221661567687988,-0.5530768036842346,0.05081817880272865,0.10310767590999603,-0.4978124797344208,0
924,-5.924243927001953,0.4285600185394287,-1.248210072517395,0.1901317536830902,-0.036807313561439514,-0.5061131715774536,0
925,-4.452395439147949,13.756633758544922,-1.9731955528259277,0.19530469179153442,-0.13820451498031616,-0.5185849070549011,0
926,-1.158266305923462,22.31499671936035,-2.477358102798462,0.0753520056605339,-0.19507206976413727,-0.5382097363471985,0
927,3.205166816711426,24.991313934326172,-3.019334554672241,-0.16837768256664276,-0.19442138075828552,-0.5634327530860901,0
928,7.910584449768066,20.98569679260254,-2.813289165496826,-0.4394407272338867,-0.12585917115211487,-0.5933210253715515,0
929,9.382689476013184,13.447028160095215,-3.2493481636047363,-0.646196186542511,-0.0024751743767410517,-0.6241743564605713,0
930,8.837464332580566,4.772251129150391,-3.5846447944641113,-0.7298828363418579,0.13862864673137665,-0.6599714159965515,0
931,4.619377613067627,-2.588581085205078,-3.5276987552642822,-0.680533766746521,0.25490328669548035,-0.6996260285377502,0
932,-0.15969349443912506,-6.723207473754883,-4.133553981781006,-0.6010821461677551,0.30791106820106506,-0.7383906841278076,0
933,-6.2281813621521,-7.896832466125488,-3.4509031772613525,-0.47157254815101624,0.209658682346344,-0.7777025103569031,0
934,-9.491904258728027,-12.914778709411621,-3.8907618522644043,-0.5064516067504883,0.16991406679153442,-0.811619222164154,0
935,-9.676787376403809,-20.263277053833008,-3.785658597946167,-0.4447385370731354,0.012999219819903374,-0.8479308485984802,0
936,-8.858080863952637,-16.211334228515625,-3.9681220054626465,-0.23327048122882843,-0.07504579424858093,-0.8866838216781616,0
937,-5.0319108963012695,-11.627242088317871,-4.384707450866699,0.08161450922489166,-0.20899558067321777,-0.9294412136077881,0
938,-0.7852381467819214,-1.2087082862854004,-4.216996192932129,0.20696581900119781,-0.28494009375572205,-0.9721706509590149,0
939,2.5162460803985596,10.393233299255371,-3.7022924423217773,0.3015041649341583,-0.29376113414764404,-1.0164527893066406,0
940,5.797818183898926,18.605792999267578,-3.2649292945861816,0.06427960097789764,-0.17269980907440186,-1.053635597229004,0
941,7.714453220367432,18.26563835144043,-2.822186231613159,-0.06310775876045227,-0.08088480681180954,-1.0908697843551636,0
942,8.206360816955566,17.96721649169922,-2.683947801589966,-0.33733513951301575,-0.03450006619095802,-1.117173194885254,0
943,6.221094131469727,10.650870323181152,-2.6319077014923096,-0.5094864964485168,-0.05359843373298645,-1.1417063474655151,0
944,1.684926986694336,9.85108757019043,-2.728156328201294,-0.6083053946495056,0.03576689586043358,-1.1705560684204102,0
945,-0.37336865067481995,-0.0006224382668733597,-3.1234521865844727,-0.7872095108032227,0.12391246855258942,-1.195881962776184,0
946,-3.3362326622009277,-1.8796679973602295,-2.7997069358825684,-0.7209462523460388,0.09632232040166855,-1.229109287261963,0
947,-4.473020076751709,-12.545164108276367,-2.9313108921051025,-0.5509714484214783,0.043687570840120316,-1.2613223791122437,0
948,-4.5953593254089355,-15.019091606140137,-2.9504175186157227,-0.8166931867599487,-0.024003595113754272,-1.280022144317627,0
949,-3.7362794876098633,-14.009425163269043,-3.523651123046875,-0.45600682497024536,-0.09585178643465042,-1.3138623237609863,0
950,-3.0885872840881348,-5.376797199249268,-2.422797441482544,-0.35762324929237366,-0.15712541341781616,-1.3444570302963257,0
951,-0.906102180480957,0.5338202118873596,-2.4204506874084473,-0.15782107412815094,-0.19810229539871216,-1.3752795457839966,0
952,2.0623762607574463,10.554295539855957,-2.2500152587890625,-0.18433986604213715,-0.19944645464420319,-1.3982257843017578,0
953,3.8386452198028564,15.956357955932617,-2.675779104232788,-0.2567688226699829,-0.15232375264167786,-1.4214270114898682,0
954,4.932545185089111,17.512535095214844,-2.9546802043914795,-0.39747118949890137,-0.07265258580446243,-1.445778727531433,0
955,5.9870429039001465,16.488101959228516,-3.1098546981811523,-0.5774876475334167,0.022813985124230385,-1.4715417623519897,0
956,5.758699417114258,14.65006160736084,-2.3525807857513428,-0.8831008076667786,0.1194501668214798,-1.494423270225525,0
957,3.191150665283203,11.117284774780273,-2.423940420150757,-0.9161580801010132,0.1219799816608429,-1.52352774143219,0
958,-0.09182217717170715,6.067013263702393,-1.8908790349960327,-1.0773425102233887,0.15410837531089783,-1.5444245338439941,0
959,-2.830838680267334,0.8000215888023376,-1.569296956062317,-1.0627323389053345,0.13892759382724762,-1.5670394897460938,0
960,-3.392718553543091,-12.24620246887207,-1.3472871780395508,-1.1294529438018799,0.16100169718265533,-1.5795958042144775,0
961,-4.483342170715332,-29.52181053161621,-1.125110149383545,-0.8404567837715149,0.16923967003822327,-1.5957541465759277,0
962,-3.5854878425598145,-42.8329963684082,-1.324002742767334,-0.5295044779777527,0.10993089526891708,-1.6130905151367188,0
963,-3.046140670776367,-41.279998779296875,-1.1282627582550049,-0.2875329852104187,0.056740887463092804,-1.627997636795044,0
964,-3.851947546005249,-25.128252029418945,-1.086256742477417,0.3176107704639435,-0.002940420527011156,-1.6439682245254517,0
965,-6.926196575164795,-3.3328185081481934,-1.1296138763427734,0.5090895891189575,-0.07186423987150192,-1.6556814908981323,0
966,-4.21657133102417,20.23453140258789,-0.4202616512775421,0.6459972858428955,-0.08640795946121216,-1.6649794578552246,0
967,-0.7290757894515991,32.11968231201172,-0.9725219011306763,0.4436137080192566,-0.14984188973903656,-1.6721168756484985,0
968,1.7790372371673584,37.897438049316406,-0.5832704901695251,-0.03984574228525162,-0.16133710741996765,-1.6786121129989624,0
969,3.758453845977783,39.2724494934082,-0.3738330602645874,-0.44172409176826477,-0.12988241016864777,-1.6864534616470337,0
970,5.773518085479736,27.485374450683594,-0.43995943665504456,-0.8634688854217529,-0.0556354746222496,-1.6916790008544922,0
