,gyro.x,gyro.y,gyro.z,stabilizer.pitch,stabilizer.roll,stabilizer.yaw,label
0,0.07572709023952484,-0.025634072721004486,-0.028084808960556984,-0.6649882793426514,-0.10689963400363922,0.4198857843875885,0
1,-0.16850416362285614,-0.04995494708418846,-0.029263101518154144,-0.7929670810699463,-0.4333525598049164,0.4172365367412567,0
2,0.07194265723228455,0.03459010273218155,-0.14499995112419128,-0.7632632255554199,-0.17863868176937103,0.41830483078956604,0
3,0.019538987427949905,0.08072849363088608,-0.07530432194471359,-0.7404579520225525,-0.36106815934181213,0.4141427278518677,0
4,-0.12677417695522308,0.03637147322297096,-0.13524553179740906,-0.660006046295166,-0.249356210231781,0.41349735856056213,0
5,0.009919091127812862,0.020601747557520866,-0.04799661785364151,-0.6622374653816223,-0.10080356150865555,0.41398322582244873,0
6,0.04099271073937416,0.05377635359764099,-0.02288113161921501,-0.6007272601127625,-0.05146852880716324,0.4133016765117645,0
7,-0.07127515226602554,0.084272600710392,-0.03546242415904999,-0.6184859275817871,-0.07752060145139694,0.41255322098731995,0
8,-0.12789569795131683,0.019523169845342636,-0.011795862577855587,-0.6321526169776917,-0.09977740049362183,0.41168108582496643,0
9,-0.0703648179769516,0.11541999876499176,-0.0771481990814209,-0.7681222558021545,-0.18001292645931244,0.40971675515174866,0
10,0.010026458650827408,0.004095910582691431,-0.0739051103591919,-0.7455979585647583,-0.365742027759552,0.4074724614620209,0
11,0.09554173052310944,0.07213063538074493,-0.030192000791430473,-0.6009072661399841,-0.3783063590526581,0.40616101026535034,0
12,-0.0171307735145092,-0.12034980952739716,0.0017731428379192948,-0.617658257484436,-0.07225979119539261,0.40770959854125977,0
13,0.02331480197608471,0.09694995731115341,-0.1695786863565445,-0.692536473274231,-0.15589691698551178,0.40632933378219604,0
14,-0.027821902185678482,0.12679119408130646,-0.04707999899983406,-0.6879576444625854,-0.09336438775062561,0.4059462547302246,0
15,0.07127583026885986,0.01843586377799511,-0.014991166070103645,-0.6846933364868164,-0.04685628041625023,0.4053267538547516,0
16,-0.09909714013338089,-0.011184618808329105,0.022927111014723778,-0.7437080144882202,-0.011790507473051548,0.40497806668281555,0
17,0.07586409896612167,0.05581007897853851,-0.11323767900466919,-0.5360304117202759,-0.11297384649515152,0.4052627682685852,0
18,0.04870271682739258,0.002767796628177166,-0.09843198210000992,-0.6319147348403931,-0.06256011128425598,0.4026505649089813,0
19,0.00014782797370571643,0.08783773332834244,-0.013351870700716972,-0.6416205167770386,-0.08799473941326141,0.40216174721717834,0
20,-0.006064123939722776,0.08371191471815109,-0.016020558774471283,-0.6501581072807312,-0.2341591715812683,0.4012429416179657,0
21,0.01976703479886055,0.08210045844316483,0.008629398420453072,-0.7834914326667786,-0.09285841137170792,0.39962127804756165,0
22,-0.08131486177444458,0.04303710535168648,-0.062415268272161484,-0.6325101256370544,0.013847722671926022,0.40148666501045227,0
23,0.0672496035695076,0.03142782673239708,-0.0051146517507731915,-0.705193042755127,-0.15827400982379913,0.3988058269023895,0
24,0.07611919939517975,0.05331306904554367,-0.01616576872766018,-0.5720865726470947,-0.16108565032482147,0.3999124765396118,0
25,-0.05679405853152275,0.1421562135219574,-0.16528940200805664,-0.7239899635314941,-0.352947860956192,0.3968604505062103,0
26,0.08920558542013168,-0.07456573843955994,0.013854742050170898,-0.7128900289535522,0.00592370331287384,0.39792540669441223,0
27,0.03855141997337341,0.1300511360168457,0.04915538430213928,-0.6404104232788086,-0.16280406713485718,0.3970385789871216,0
28,0.09419240802526474,0.037845831364393234,-0.10791433602571487,-0.6507140398025513,-0.03828657045960426,0.39638033509254456,0
29,0.07820399105548859,0.13356168568134308,-0.03895360603928566,-0.6581166982650757,-0.26007041335105896,0.3944573700428009,0
30,-0.11021808534860611,0.10919231921434402,-0.029577460139989853,-0.6648240089416504,-0.49124690890312195,0.39271238446235657,0
31,-0.005106559954583645,0.18607856333255768,0.05053325369954109,-0.6700026392936707,-0.10029279440641403,0.394056499004364,0
32,0.0298520028591156,-0.08887505531311035,-0.13615384697914124,-0.673154890537262,-0.1796279400587082,0.3922095000743866,0
33,-0.09264153242111206,0.11904861032962799,-0.13224397599697113,-0.6742072701454163,-0.3030024766921997,0.38995447754859924,0
34,0.03489787131547928,0.06083780154585838,-0.059099677950143814,-0.8024995923042297,-0.39549046754837036,0.38915809988975525,0
35,-0.03805021941661835,-0.03989003598690033,0.007766216993331909,-0.7719486355781555,0.10178430378437042,0.3940720558166504,0
36,0.05190785229206085,0.013722448609769344,0.021087905392050743,-0.5592027306556702,-0.026328399777412415,0.39141207933425903,0
37,-0.08430738002061844,0.08280721306800842,0.04575169086456299,-0.6510047316551208,-0.1865321695804596,0.3898215591907501,0
38,0.05028462037444115,0.04749114811420441,-0.045291751623153687,-0.72115558385849,-0.18181069195270538,0.38934919238090515,0
39,0.009703227318823338,0.05836491286754608,0.009202173911035061,-0.7734334468841553,-0.17779596149921417,0.3882710933685303,0
40,-0.007821681909263134,0.14482298493385315,0.008797993883490562,-0.6868433952331543,-0.3008367717266083,0.3868476152420044,0
41,0.13418002426624298,-0.0012662385124713182,0.029542844742536545,-0.6219435334205627,0.04755033552646637,0.39002859592437744,0
42,-0.15319706499576569,0.08677959442138672,-0.024576794356107712,-0.5729304552078247,-0.19402720034122467,0.38801875710487366,0
43,0.0472433939576149,0.1264883428812027,-0.010622345842421055,-0.9154938459396362,-0.44099462032318115,0.38527756929397583,0
44,0.12956324219703674,0.08367341756820679,-0.07250641286373138,-0.7345012426376343,0.06732720881700516,0.3908834457397461,0
45,-0.050674501806497574,-0.02551017701625824,0.045597609132528305,-0.7221503853797913,-0.42902353405952454,0.3828481435775757,0
46,0.0712994709610939,0.07122579962015152,-0.00445778900757432,-0.7122597098350525,-0.04988386854529381,0.38834795355796814,0
47,0.041571296751499176,-0.04135717451572418,0.0198646392673254,-0.6411197185516357,-0.07591722160577774,0.3872498869895935,0
48,0.01016130018979311,0.08289137482643127,0.022241199389100075,-0.7759562730789185,0.030336393043398857,0.38781777024269104,0
49,-0.06901554763317108,0.09775711596012115,-0.08156200498342514,-0.6254332661628723,-0.14338122308254242,0.3858925998210907,0
50,0.09226449579000473,0.07056479901075363,-0.06930268555879593,-0.7013177275657654,-0.33778494596481323,0.3821218013763428,0
51,0.10710437595844269,-0.07106371223926544,0.021678391844034195,-0.6322237253189087,-0.4194944202899933,0.38077330589294434,0
52,0.013955941423773766,0.09937156736850739,-0.06073988601565361,-0.706382155418396,0.0849972739815712,0.38463371992111206,0
53,0.020820453763008118,-0.02651255577802658,0.10138503462076187,-0.636960506439209,-0.29035982489585876,0.3816663324832916,0
54,0.12290148437023163,0.07304219901561737,0.05902682617306709,-0.6469319462776184,-0.1311928927898407,0.3822912573814392,0
55,0.0385473296046257,0.01146435085684061,-0.09956438839435577,-0.6550087928771973,-0.3866976797580719,0.38052475452423096,0
56,0.011196404695510864,0.08665401488542557,-0.032877422869205475,-0.6611301898956299,-0.2034938931465149,0.38035619258880615,0
57,0.05830630287528038,0.10627419501543045,-0.14626328647136688,-0.6670947074890137,-0.0004827129887416959,0.3801392912864685,0
58,0.013706413097679615,-0.024691076949238777,-0.05660288408398628,-0.7350579500198364,-0.35180455446243286,0.3775064945220947,0
59,-0.013397520408034325,-0.09736981987953186,-0.12780289351940155,-0.6576313376426697,0.011609023436903954,0.3781028985977173,0
60,-0.11090721935033798,0.14677992463111877,0.00621528085321188,-0.6633778214454651,-0.029595505446195602,0.3773317337036133,0
61,0.008264836855232716,-0.05577705800533295,-0.07431744039058685,-0.6682705879211426,-0.24985957145690918,0.37505775690078735,0
62,-0.04194040969014168,0.09975770115852356,-0.027664463967084885,-0.7334579825401306,-0.1630721539258957,0.3747572898864746,0
63,-0.0012410713825374842,0.046805549412965775,-0.05313742905855179,-0.6581531763076782,-0.09774550795555115,0.3739243745803833,0
64,0.050805043429136276,0.017758861184120178,0.0037849703803658485,-0.6002386808395386,-0.11099795252084732,0.37332600355148315,0
65,0.019119709730148315,0.06106448546051979,-0.0749143436551094,-0.6196969747543335,-0.12129038572311401,0.3730291724205017,0
66,-0.035296481102705,-0.053555238991975784,-0.154781311750412,-0.7609357833862305,-0.06563541293144226,0.3706493675708771,0
67,0.05551149696111679,-0.01247231662273407,-0.05224411189556122,0.0,0.0,0.0,0
68,-0.008580922149121761,-0.006928700488060713,-0.061205483973026276,-0.00017216685228049755,0.0004122401587665081,-0.0004558773653116077,0
69,-0.029789946973323822,0.022217636927962303,-0.08314076066017151,0.13613849878311157,-0.3541005551815033,-0.0007238099933601916,0
70,0.010648967698216438,0.01446770690381527,-0.028627928346395493,1.3251186609268188,0.7439653873443604,-0.013788914307951927,0
71,0.014121283777058125,0.08208417147397995,-0.059708122164011,0.37995100021362305,0.2202501893043518,-0.005479300860315561,0
72,0.011413799598813057,0.051174066960811615,-0.03814349323511124,0.13531994819641113,-1.811997652053833,0.006861386355012655,0
73,0.047194503247737885,-0.06450499594211578,-0.04460592940449715,-0.05933958664536476,-1.4788539409637451,0.004177440423518419,0
74,-0.025422504171729088,-0.010581408627331257,-0.14635929465293884,-0.20111651718616486,-0.10658169537782669,0.0027569844387471676,0
75,-0.011338501237332821,-0.05070421099662781,-0.12956543266773224,-1.3712455034255981,-3.4372718334198,-0.03252566605806351,0
76,0.027497628703713417,0.01782514899969101,-0.16108867526054382,-1.093027114868164,-1.5026131868362427,0.0014332616701722145,0
77,0.026118552312254906,0.1316421777009964,0.050183504819869995,0.0020553735084831715,-1.147250771522522,-0.0024587863590568304,0
78,0.06503505259752274,0.05949169769883156,0.014684447087347507,-1.0177912712097168,-2.1250126361846924,-0.01053895428776741,0
79,-0.038335561752319336,-0.010092053562402725,0.007265777792781591,-0.48789048194885254,-0.017254963517189026,0.02086820639669895,0
80,0.008843767456710339,-0.10663808882236481,-0.060836415737867355,-0.8636230826377869,0.25567513704299927,0.029901152476668358,0
81,-0.05477298051118851,0.08027489483356476,-0.02000650204718113,-0.7699624300003052,-0.2367650270462036,0.018888330087065697,0
82,0.045095544308423996,0.004787356127053499,0.05188843980431557,-0.4053581953048706,-0.2460022121667862,0.020679907873272896,0
83,0.02322380803525448,0.031367603689432144,-0.1661389023065567,-0.7355841994285583,-0.25078848004341125,0.017283454537391663,0
84,-0.012376630678772926,-0.010629363358020782,-0.03281867876648903,-0.6888965368270874,0.2747093439102173,0.027999065816402435,0
85,0.0898357555270195,0.05075497925281525,-0.14785291254520416,-0.6583757996559143,-0.12218088656663895,0.01917473040521145,0
86,0.01294637843966484,-0.042278945446014404,-0.08235374838113785,-0.6386051774024963,0.07480122894048691,0.022977275773882866,0
87,0.007492497563362122,0.0871686041355133,0.07950498163700104,-0.18857641518115997,-0.2324233204126358,0.02702554315328598,0
88,0.002407999709248543,0.004836502019315958,-0.08283159881830215,-0.3029974400997162,-0.0313328392803669,0.026903819292783737,0
89,-0.11795074492692947,0.0967814177274704,-0.02159363031387329,-0.19145414233207703,-0.48066285252571106,0.025986764580011368,0
90,0.037664901465177536,0.08720339834690094,-0.08393243700265884,-0.4934154450893402,-0.4163643419742584,0.018429310992360115,0
91,0.12330641597509384,0.09172386676073074,-0.10728785395622253,-1.0579309463500977,-0.8948167562484741,0.0008269997197203338,0
92,0.06063747778534889,0.030211348086595535,-0.06951341778039932,-0.604957640171051,-0.20864872634410858,0.019068101420998573,0
93,-0.011268199421465397,0.09895133227109909,0.0027834936045110226,-0.7710626125335693,-0.2127624750137329,0.01657850481569767,0
94,0.042110372334718704,-0.038452740758657455,-0.0063028582371771336,-0.4234430193901062,-0.2138444185256958,0.02148597501218319,0
95,0.062400467693805695,0.09740213304758072,-0.14338740706443787,-0.7753615379333496,0.08544890582561493,0.02071313187479973,0
96,0.010560140013694763,0.056207068264484406,-0.07840236276388168,-0.5959983468055725,-0.4234282672405243,0.012658193707466125,0
97,-0.12027869373559952,0.003898423397913575,-0.06714485585689545,-0.7458652853965759,-0.3684915006160736,0.009904695674777031,0
98,0.040414486080408096,-0.023007061332464218,-0.02745634876191616,-0.7157829999923706,-0.3258424401283264,0.010753875598311424,0
99,-0.029466507956385612,0.08706717938184738,-0.1953396052122116,-0.3034662902355194,-0.16468748450279236,0.019861435517668724,0
100,0.030204880982637405,-0.032887089997529984,-0.034552864730358124,-0.7688614130020142,-0.17442767322063446,0.010228177532553673,0
101,0.050181299448013306,0.06314501911401749,-0.10236203670501709,-0.48928651213645935,-0.18003064393997192,0.01481274701654911,0
102,0.01834031194448471,0.023763196542859077,-0.1332351267337799,-0.8872287273406982,-0.5419539213180542,-0.001389752491377294,0
103,0.07702621072530746,0.10842069983482361,-0.06253558397293091,-0.5927109122276306,-0.4535813629627228,0.004780202638357878,0
104,0.01758606918156147,-0.0892079621553421,-0.1348016858100891,-0.6075865030288696,-0.04688524082303047,0.012223226949572563,0
105,-0.015628719702363014,0.05166284739971161,0.060173649340867996,-0.6157251000404358,0.3586488962173462,0.019899815320968628,0
106,0.07784624397754669,-0.03728451952338219,0.026720469817519188,-0.8408318758010864,-0.5379820466041565,-0.005197023041546345,0
107,0.0599137619137764,-0.010064167901873589,-0.19672630727291107,-0.4732877314090729,-0.4496014416217804,0.005043220706284046,0
108,-0.013900387100875378,0.0957457423210144,-0.0339193269610405,-0.7260182499885559,-0.07280898094177246,0.007072100881487131,0
109,-0.10764221847057343,0.07974135130643845,-0.07563046365976334,-0.7094243764877319,0.3034420311450958,0.015247485600411892,0
110,-0.11300986260175705,-0.03555494546890259,-0.05576895922422409,-0.3968248665332794,0.17360202968120575,0.021472591906785965,0
111,0.010197626426815987,-0.040924493223428726,-0.05775224417448044,-0.6569191813468933,-0.21505160629749298,0.004643575754016638,0
112,0.1065966784954071,0.05929684266448021,-0.10950256139039993,-0.8490096926689148,-0.11569879949092865,-0.0014173281379044056,0
113,0.0017620631260797381,-0.010609561577439308,-0.007963609881699085,-0.6121975183486938,-0.13606518507003784,0.006006121169775724,0
114,0.12164328247308731,0.07723601162433624,-0.06554178148508072,-0.8090256452560425,-0.4313226640224457,-0.0075620729476213455,0
115,0.001740215695463121,0.06760184466838837,0.03227032348513603,-0.4055885672569275,0.0862957090139389,0.014061661437153816,0
116,-0.02446262165904045,-0.020124908536672592,-0.012481843121349812,-0.5588306784629822,-0.4369730055332184,0.0013975600013509393,0
117,0.11211775243282318,-0.025854408740997314,-0.03455643728375435,-0.6721467971801758,-0.2887420356273651,0.0007259038393385708,0
118,0.0071720220148563385,0.03538840264081955,-0.0791926234960556,-0.6683753728866577,-0.17621393501758575,0.002196741523221135,0
119,-0.054138004779815674,0.031418249011039734,-0.10321647673845291,-0.6672295331954956,0.07917677611112595,0.005920060910284519,0
120,0.01207819115370512,0.06899522244930267,0.03409596160054207,-0.49526429176330566,0.0100630484521389,0.008684564381837845,0
121,0.02519572339951992,0.015610480681061745,-0.12516963481903076,-0.7067134976387024,-0.2960436940193176,-0.002184557728469372,0
122,-0.006569983437657356,0.032625533640384674,-0.06184575334191322,-0.6965534687042236,-0.35439425706863403,-0.003509876551106572,0
123,0.05493805557489395,-0.024556182324886322,-0.1234050765633583,-0.7705495953559875,-0.31533607840538025,-0.005034173838794231,0
124,-0.015794090926647186,-0.060524631291627884,-0.02282620035111904,-0.7414960265159607,-0.28482064604759216,-0.0047975569032132626,0
125,0.0044348277151584625,0.09714292734861374,-0.030966753140091896,-0.8002691268920898,-0.26144516468048096,-0.004831730853766203,0
126,-0.14789985120296478,0.015953324735164642,-0.07177814841270447,-0.523650586605072,-0.1645122766494751,0.00011952225759159774,0
127,0.02788512594997883,0.02888474613428116,0.013662069104611874,-0.6363322138786316,0.06695783138275146,0.003622240386903286,0
128,0.10071154683828354,0.0035939051304012537,-0.05556147173047066,-0.6414185762405396,-0.15471044182777405,-0.0013001266634091735,0
129,-0.03922225907444954,0.08027427643537521,-0.005595988128334284,-0.6463162302970886,-0.24229013919830322,-0.003658978035673499,0
130,-0.04997807368636131,0.11623158305883408,-0.03589106723666191,-0.7272735834121704,-0.2313569039106369,-0.0055316356010735035,0
131,-0.022287169471383095,0.025811944156885147,-0.06551408767700195,-0.7110625505447388,-0.22302187979221344,-0.005804352927953005,0
132,-0.012622512876987457,0.0077965897507965565,-0.08869297802448273,-0.6220492720603943,-0.29301783442497253,-0.006349461153149605,0
133,-0.03515487164258957,0.08407505601644516,-0.11993870139122009,-0.6306189894676208,-0.49653056263923645,-0.01119587104767561,0
134,0.025705916807055473,-0.000965727842412889,-0.042901478707790375,-0.6380206346511841,-0.12244052439928055,-0.004995956085622311,0
135,-0.0719749927520752,0.04579795151948929,0.02127932943403721,-0.7176596522331238,0.08508630096912384,-0.0020847925916314125,0
136,0.007762583438307047,-0.04897216707468033,-0.13524067401885986,-0.6292772889137268,-0.3538007438182831,-0.009187898598611355,0
137,-0.03188052400946617,-0.020391201600432396,-0.0890258178114891,-0.6351288557052612,-0.4616089165210724,-0.011851200833916664,0
138,0.012264073826372623,0.0009099312592297792,-0.03132770210504532,-0.7134339213371277,-0.3937453627586365,-0.011633367277681828,0
139,-0.14724791049957275,0.019767438992857933,-0.10814522206783295,-0.69904625415802,-0.05173405259847641,-0.006004731636494398,0
140,0.018326973542571068,-0.024891652166843414,-0.0765829086303711,-0.6159680485725403,-0.08577865362167358,-0.006906602997332811,0
141,-0.04359949380159378,-0.012899871915578842,-0.10553469508886337,-0.625711977481842,-0.1824934333562851,-0.009961876086890697,0
142,-0.04224194213747978,0.13769413530826569,-0.09381651133298874,-0.6345502734184265,-0.11230672895908356,-0.00943626556545496,0
143,0.07023485749959946,-0.05892142280936241,0.015574897639453411,-0.6412891745567322,-0.415875107049942,-0.014331820420920849,0
144,-0.01723388209939003,0.047900546342134476,0.015390772372484207,-0.6455075144767761,-0.3590165078639984,-0.013197733089327812,0
145,-0.05458472669124603,0.001730054267682135,-0.16870997846126556,-0.6494130492210388,-0.033675242215394974,-0.009761177003383636,0
146,0.02732660062611103,-0.01627041958272457,0.017534278333187103,-0.652264416217804,-0.42364901304244995,-0.015701454132795334,0
147,0.054476529359817505,0.015413639135658741,-0.07970160990953445,-0.7251381278038025,-0.36380520462989807,-0.015753494575619698,0
148,-0.11864522844552994,-0.011536657810211182,-0.053241994231939316,-0.7103095650672913,0.24036332964897156,-0.005866599269211292,0
149,-0.03330820053815842,0.09496500343084335,-0.07014703750610352,-0.700675368309021,-0.3493061661720276,-0.016880927607417107,0
150,-0.046307437121868134,0.05178266763687134,-0.035022612661123276,-0.6940877437591553,-0.17015525698661804,-0.013844192028045654,0
151,-0.03291355073451996,-0.10240011662244797,-0.0826997309923172,-0.6868000626564026,-0.035646889358758926,-0.011566272005438805,0
152,-0.04232390224933624,0.11629287898540497,-0.05346553400158882,-0.6811832189559937,-0.4152536392211914,-0.019103890284895897,0
153,-0.05614746734499931,0.07235906273126602,-0.05911697447299957,-0.6786862015724182,-0.15336598455905914,-0.014894504100084305,0
154,0.061196792870759964,-0.10288883000612259,-0.01588236726820469,-0.537676990032196,-0.1593584418296814,-0.013763993978500366,0
155,-0.02286057360470295,0.0820341408252716,-0.06491982191801071,-0.8413733839988708,-0.1630593091249466,-0.017761217430233955,0
156,0.035937029868364334,-0.0017220681766048074,-0.05648358538746834,-0.593995213508606,-0.30354613065719604,-0.018199393525719643,0
157,0.027514318004250526,0.0813823714852333,-0.1017894446849823,-0.6775087714195251,-0.13691647350788116,-0.01699356734752655,0
158,-0.11182498186826706,0.00741231394931674,0.010298439301550388,-0.6069746017456055,-0.1473478376865387,-0.0166411604732275,0
159,-0.0910060778260231,0.053694501519203186,-0.00556118693202734,-0.6198523044586182,0.18070168793201447,-0.012569030746817589,0
160,-0.025442196056246758,0.02741779386997223,-0.06776788830757141,-0.49720892310142517,0.09126997739076614,-0.011497044004499912,0
161,-0.03437964990735054,0.12359929829835892,-0.13246981799602509,-0.7389981150627136,-0.043582383543252945,-0.02097819186747074,0
162,0.04475703090429306,0.09220696985721588,-0.16779951751232147,-0.654452919960022,-0.012623106129467487,-0.0190983135253191,0
163,-0.13307903707027435,0.008679633028805256,0.03269164636731148,-0.5242980718612671,-0.05651532858610153,-0.015708163380622864,0
164,-1.4797043377257069e-06,0.13740962743759155,-0.09004006534814835,-0.625963568687439,-0.29169702529907227,-0.02064596861600876,0
165,-0.02390272729098797,0.14942701160907745,-0.051128823310136795,-0.7702999711036682,-0.26694586873054504,-0.02493351325392723,0
166,0.005676707252860069,0.09085787087678909,-0.03995877876877785,-0.6150568723678589,-0.04938383400440216,-0.0196604635566473,0
167,0.047685954719781876,0.09190727025270462,-0.08464986830949783,-0.6295289993286133,-0.2824006974697113,-0.022773128002882004,0
168,-0.03586728870868683,0.06988462805747986,-0.05266652628779411,-0.7730981707572937,-0.26077431440353394,-0.02467803843319416,0
169,0.06011763587594032,0.16265664994716644,-0.0020052578765898943,-0.748874306678772,-0.2433099001646042,-0.024963775649666786,0
170,-0.0013945152750238776,0.20423062145709991,-0.10464102029800415,-0.7307184338569641,-0.36033540964126587,-0.02680816501379013,0
171,-0.10163180530071259,0.005558628123253584,-0.0022488743998110294,-0.716891348361969,-0.12144912034273148,-0.02271542325615883,0
172,-0.06310681998729706,-0.03640254586935043,-0.02052915468811989,-0.7043095827102661,-0.2040216475725174,-0.024331845343112946,0
173,0.004831523634493351,0.05187559127807617,-0.020480193197727203,-0.6295032501220703,-0.1996634155511856,-0.02410656027495861,0
174,-0.02209324948489666,0.021075021475553513,-0.04448816180229187,-0.6381142139434814,-0.0002499050460755825,-0.021250534802675247,0
175,-0.07406662404537201,0.1341133415699005,-0.002258030930534005,-0.6456006169319153,-0.5681332349777222,-0.02908293716609478,0
176,0.040839582681655884,0.037094295024871826,-0.16064085066318512,-0.7169672250747681,0.043353453278541565,-0.021658100187778473,0
177,0.006469114683568478,0.04016924276947975,-0.012682575732469559,-0.7053012251853943,-0.20651589334011078,-0.02576998807489872,0
178,0.2049493044614792,0.06608758866786957,-0.07434147596359253,-0.6304711103439331,-0.20001132786273956,-0.025740228593349457,0
179,-0.1004738062620163,0.08036938309669495,0.04473268613219261,-0.6390319466590881,-0.5189566016197205,-0.030083686113357544,0
180,0.12453030794858932,0.12677422165870667,0.0072993626818060875,-0.6469854712486267,0.08054488897323608,-0.022917000576853752,0
181,-0.005607693921774626,0.14086540043354034,-0.0552627332508564,-0.6471322774887085,0.0807647854089737,-0.023170839995145798,0
182,-0.12761190533638,0.19518886506557465,-0.009088368155062199,-0.7171629667282104,-0.5658302903175354,-0.031352803111076355,0
183,-0.010277029126882553,0.039117079228162766,-0.08507303148508072,-0.705456018447876,0.04274573549628258,-0.024319948628544807,0
184,0.022828683257102966,0.05753238499164581,-0.07733916491270065,-0.69480961561203,-0.4636523723602295,-0.03210495039820671,0
185,-0.03610224276781082,0.02958490699529648,-0.024248667061328888,-0.6872373819351196,0.056501396000385284,-0.02536141127347946,0
186,-0.10941193252801895,0.004473099019378424,-0.008209376595914364,-0.6168181896209717,-0.2593780755996704,-0.02899889461696148,0
187,0.05044396594166756,0.10248003900051117,-0.055552463978528976,-0.6286457180976868,-0.24078696966171265,-0.029193051159381866,0
188,-0.0766494944691658,-0.02343885228037834,0.03933233767747879,-0.6376266479492188,0.0333629809319973,-0.026825858280062675,0
189,0.01095241867005825,-0.02736544795334339,-0.1254929006099701,-0.6445620656013489,-0.21147169172763824,-0.029577255249023438,0
190,0.036363955587148666,-0.01413861196488142,0.0038629474584013224,-0.7134278416633606,-0.20375949144363403,-0.03087499551475048,0
191,0.04752632603049278,0.08554258942604065,-0.04448336362838745,-0.7014939785003662,-0.003539219731464982,-0.028195079416036606,0
192,0.05379859730601311,-0.036964770406484604,-0.14619441330432892,-0.5646890997886658,-0.17383034527301788,-0.029077604413032532,0
193,-0.08858314156532288,0.033823128789663315,-0.16835293173789978,-0.5243924856185913,-0.046821605414152145,-0.02901129052042961,0
194,0.03590447083115578,0.1469508558511734,-0.11647607386112213,-0.5596100687980652,-0.0794699490070343,-0.030872194096446037,0
195,0.0010646468726918101,0.09311796724796295,-0.058624036610126495,-0.7785539031028748,-0.10432536900043488,-0.03551442548632622,0
196,-0.0782841369509697,0.04916662350296974,-0.0009324522106908262,-0.6881303191184998,-0.12269435077905655,-0.03502107411623001,0
197,-0.0645662173628807,0.09679112583398819,0.004844756796956062,-0.746600329875946,-0.2652934789657593,-0.037192780524492264,0
198,0.05403047055006027,-0.023665500804781914,-0.0005174098187126219,-0.7258896231651306,-0.6284163594245911,-0.0413646474480629,0
199,0.014339059591293335,0.001430189935490489,-0.049462124705314636,-0.519828736782074,-0.00996869895607233,-0.034587666392326355,0
200,-0.02877657115459442,-0.08652258664369583,-0.011149171739816666,-0.7454907894134521,-0.24158495664596558,-0.03707650676369667,0
201,-0.06643408536911011,0.1004728153347969,-0.0655159205198288,-0.6604467630386353,-0.35272613167762756,-0.038034092634916306,0
202,0.06866409629583359,0.053802043199539185,-0.0044378191232681274,-0.6612457036972046,-0.24461227655410767,-0.037011392414569855,0
203,0.01441569346934557,0.07872779667377472,-0.11542244255542755,-0.9159569144248962,-0.2250649333000183,-0.03604556620121002,0
204,-0.027791155502200127,0.01728760451078415,-0.05023922398686409,-0.4729664623737335,0.04294690489768982,-0.03372076526284218,0
205,-0.03209294378757477,-0.01681862398982048,-0.08283087611198425,-0.5185806155204773,-0.009263437241315842,-0.03565274551510811,0
206,0.06437497586011887,0.1541721671819687,-0.09708061069250107,-0.7444666028022766,-0.2397356778383255,-0.03978504240512848,0
207,-0.05864964798092842,0.014268485829234123,-0.03755683824419975,-0.6617576479911804,-0.03205050900578499,-0.03784032166004181,0
208,-0.02820553630590439,0.041335467249155045,-0.0934932678937912,-0.7244893908500671,-0.5111567378044128,-0.043293144553899765,0
209,-0.006137679796665907,0.13553400337696075,-0.11410392820835114,-0.7099745869636536,-0.17454703152179718,-0.04023507982492447,0
210,-0.04980245605111122,-0.18257571756839752,0.3578716218471527,-0.6975106596946716,-0.1727394312620163,-0.03957904130220413,0
211,0.3018832504749298,0.7136184573173523,0.12886950373649597,-0.6882504820823669,-0.4267521798610687,-0.04076641798019409,0
212,0.023040391504764557,-0.12689241766929626,-1.7440855503082275,-0.48839300870895386,0.08944335579872131,-0.04582614451646805,0
213,-0.41728582978248596,0.8371245265007019,1.6237846612930298,-0.723861813545227,-0.4175787568092346,-0.03025864064693451,0
214,-0.6418142914772034,-0.004908404778689146,2.995884418487549,-0.6332416534423828,-0.16642291843891144,-0.027390368282794952,0
215,-1.2255640029907227,0.5710658431053162,-0.2408166229724884,-0.6314854025840759,-0.35416194796562195,-0.013291739858686924,0
216,-2.0242605209350586,-1.5019317865371704,3.0660111904144287,-0.6404862999916077,0.12858141958713531,0.0014302372001111507,0
217,1.110727310180664,2.609443426132202,5.485158920288086,-0.8765307664871216,-0.14421817660331726,0.04494119808077812,0
218,1.367722749710083,1.8727014064788818,7.120357036590576,-0.7230795621871948,0.038434360176324844,0.11786144226789474,0
219,-3.347027540206909,-1.7227225303649902,8.411043167114258,-0.6926141381263733,-0.010148611851036549,0.19828368723392487,0
220,-3.062030076980591,-1.1701157093048096,8.847770690917969,-0.801659345626831,0.00872870348393917,0.2787139117717743,0
221,4.445397853851318,-3.6554460525512695,8.882661819458008,-0.23297378420829773,-0.23611456155776978,0.38151898980140686,0
222,2.5827367305755615,6.390331745147705,6.834286689758301,-0.3086511194705963,-0.1911933720111847,0.4558941721916199,0
223,-10.981217384338379,-4.160501480102539,6.275404453277588,-0.38650423288345337,-0.19044943153858185,0.5215290784835815,0
224,13.874984741210938,10.526205062866211,3.461688756942749,-0.4328264892101288,-0.1839800626039505,0.5672107338905334,0
225,-6.329263687133789,-1.4241338968276978,-0.39852452278137207,-0.550933301448822,-0.1781204491853714,0.5760716795921326,0
226,13.318624496459961,1.929556965827942,-1.6097339391708374,-0.5371686816215515,0.001595997018739581,0.5679014325141907,0
227,-7.571202754974365,0.7468270063400269,-3.8011085987091064,-0.5427824854850769,0.05526154488325119,0.5324627757072449,0
228,-8.670788764953613,1.083054780960083,-3.100888967514038,-0.6366010308265686,-0.1074189841747284,0.5019816756248474,0
229,-4.202341556549072,-0.06902895122766495,-2.811994791030884,-0.5620355606079102,-0.24347418546676636,0.47203636169433594,0
230,13.216069221496582,5.763159275054932,-2.013540744781494,-0.6132792234420776,-0.16828805208206177,0.4494471251964569,0
231,0.6618684530258179,-7.571483135223389,-0.5048581957817078,-0.5697987675666809,-0.04127827286720276,0.4403620958328247,0
232,8.033683776855469,5.098729133605957,-2.5014631748199463,-0.5123173594474792,0.013344827108085155,0.42260491847991943,0
233,-10.907028198242188,1.8669393062591553,-5.219936847686768,-0.5787733793258667,0.038254305720329285,0.3880540728569031,0
234,-13.044774055480957,8.520901679992676,-8.708455085754395,-0.5727262496948242,-0.26254796981811523,0.3137947916984558,0
235,16.9196834564209,13.055941581726074,-5.146942615509033,-0.748406171798706,-0.17543038725852966,0.24832479655742645,0
236,6.467833042144775,0.21702682971954346,0.4984521269798279,-0.9312328696250916,0.08598155528306961,0.22858035564422607,0
237,-7.807239055633545,-19.12688636779785,1.6720645427703857,-0.7121347188949585,0.01720365136861801,0.2535563111305237,0
238,-5.558523654937744,-16.73637580871582,-0.4917786419391632,-0.403512567281723,-0.12304462492465973,0.2620173990726471,0
239,10.820096015930176,-7.87572717666626,-0.4799668788909912,-0.2079804688692093,-0.10281885415315628,0.25339874625205994,0
240,21.057418823242188,-2.1336236000061035,-0.32009461522102356,-0.1678190529346466,0.13929171860218048,0.2453511655330658,0
241,30.605127334594727,-6.636484146118164,0.06039659306406975,-0.08044544607400894,0.21006853878498077,0.2513323724269867,0
242,20.387874603271484,-16.36943817138672,-0.4030250906944275,-0.11591797322034836,0.5245510339736938,0.2414456307888031,0
243,6.428053855895996,-14.330474853515625,-1.651823878288269,0.1220334991812706,0.4886229634284973,0.23545296490192413,0
244,-1.551818609237671,-17.916711807250977,-3.959474802017212,0.22081202268600464,-0.05442849174141884,0.23399701714515686,0
245,-4.149625778198242,-33.32441711425781,-3.3368794918060303,0.48299285769462585,-0.1745208203792572,0.19997826218605042,0
246,0.5086653828620911,-35.07646942138672,-3.6147351264953613,0.7464470863342285,-0.6961870193481445,0.2058936059474945,0
247,13.39538860321045,-16.485204696655273,-2.459852933883667,0.8840411305427551,-0.7796251177787781,0.19810907542705536,0
248,33.630462646484375,2.0698115825653076,-1.953498363494873,0.5797563195228577,-2.31510329246521,0.45426538586616516,0
249,50.73003387451172,10.020100593566895,-2.828123092651367,0.20381753146648407,-2.7279443740844727,0.586151123046875,0
250,55.22259521484375,9.781147956848145,-3.8259634971618652,-0.1333719789981842,-2.6657793521881104,0.6705095171928406,0
251,48.34294891357422,6.293994903564453,-5.6608123779296875,0.3691278100013733,-3.374689817428589,0.6191830635070801,0
252,37.97993469238281,5.7314276695251465,-6.618940830230713,0.7377837896347046,-2.993565559387207,0.3990359604358673,0
253,36.381690979003906,-2.501858949661255,-6.884578227996826,0.7328264117240906,-4.586524963378906,0.6597766280174255,0
254,33.846092224121094,-2.737398624420166,-8.787757873535156,1.140098214149475,-4.41657018661499,0.42426222562789917,0
255,39.160125732421875,-8.32320785522461,-9.93386173248291,1.5270969867706299,-4.383113861083984,0.23500680923461914,0
256,53.977142333984375,-7.065868854522705,-9.495080947875977,1.8873224258422852,-3.507371425628662,-0.12478924542665482,0
257,64.1131820678711,3.1393415927886963,-6.933882236480713,1.7921695709228516,-2.5369510650634766,-0.2363692820072174,0
258,70.339599609375,17.7806396484375,-5.980990409851074,1.7228552103042603,-1.2263306379318237,-0.5277142524719238,0
259,69.39630889892578,39.49073791503906,-4.0307393074035645,1.6754270792007446,-0.3242934048175812,-0.7717384099960327,0
260,61.587806701660156,51.52081298828125,-1.7507641315460205,1.2081553936004639,1.278172492980957,-1.1376540660858154,0
261,48.18178939819336,53.25101089477539,0.23376820981502533,0.32652196288108826,2.353865385055542,-1.2114033699035645,0
262,28.94814682006836,53.80775451660156,-0.7022092342376709,0.21716386079788208,3.2787325382232666,-1.3613172769546509,0
263,0.23991228640079498,48.5330810546875,0.4224008023738861,-0.482538104057312,3.547272205352783,-1.3855825662612915,0
264,-29.572641372680664,39.747188568115234,2.70717716217041,-1.098925232887268,3.5253067016601562,-1.4179487228393555,0
265,-54.96308135986328,29.91248893737793,4.364506244659424,-1.1063276529312134,3.8562259674072266,-1.2432305812835693,0
266,-77.80595397949219,15.502552032470703,4.161101818084717,-1.3820959329605103,3.5290844440460205,-1.2486881017684937,0
267,-93.80974578857422,6.4162445068359375,3.0881235599517822,-1.4649721384048462,2.360332727432251,-1.2822850942611694,0
268,-104.6219711303711,2.4442718029022217,2.3025929927825928,-1.7428231239318848,0.949065089225769,-1.4818928241729736,0
269,-96.85893249511719,-0.190108522772789,2.1510324478149414,-2.0299510955810547,0.8790155649185181,-1.4500638246536255,0
270,-73.8878173828125,0.11363980174064636,1.5832488536834717,-2.483001470565796,-0.6508943438529968,-1.9080755710601807,0
271,-46.8286247253418,0.10436293482780457,2.85184907913208,-2.2252564430236816,-0.7819681167602539,-1.6559044122695923,0
272,-17.257064819335938,-1.5493261814117432,1.672831416130066,-2.387338638305664,-1.536018967628479,-1.8513026237487793,0
273,3.9035046100616455,-10.428610801696777,2.665297269821167,-2.3866078853607178,-2.4354326725006104,-2.1078755855560303,0
274,21.51514434814453,-22.04030418395996,3.543977975845337,-2.318166732788086,-2.4817192554473877,-2.1305058002471924,0
275,33.30982208251953,-25.93151092529297,5.330554962158203,-1.9188232421875,-1.5846905708312988,-1.9120445251464844,0
276,37.89812088012695,-31.367807388305664,5.63980770111084,-1.7677514553070068,-0.5964738726615906,-1.6122934818267822,0
277,31.305204391479492,-34.27970886230469,5.6409125328063965,-1.5958508253097534,-0.3079533576965332,-1.5536620616912842,0
278,10.684873580932617,-35.959136962890625,7.230262756347656,-0.9943485856056213,-0.38999053835868835,-1.6043353080749512,0
279,-15.325491905212402,-35.56599044799805,7.507808208465576,-0.39004793763160706,-1.1496846675872803,-1.739442229270935,0
280,-39.796817779541016,-27.78052520751953,6.403247356414795,0.10986838489770889,-1.5830881595611572,-1.7031346559524536,0
281,-54.70120620727539,-14.181392669677734,5.015821933746338,0.2615509331226349,-2.536093235015869,-1.6941860914230347,0
282,-55.30598449707031,0.3737808167934418,4.673181056976318,0.36562585830688477,-3.1590139865875244,-1.6550681591033936,0
283,-39.7327995300293,14.04625415802002,3.609854221343994,-0.741077721118927,-3.8248908519744873,-1.4099994897842407,0
284,-13.90744686126709,21.46263313293457,3.612927198410034,-0.26237377524375916,-4.756142616271973,-1.5942425727844238,0
285,14.802713394165039,18.0457763671875,3.793562173843384,-0.5383246541023254,-4.5308074951171875,-1.5248481035232544,0
286,46.75194549560547,14.906227111816406,3.166816234588623,-0.7977471947669983,-3.952967882156372,-1.469693660736084,0
287,69.6157455444336,6.9676899909973145,1.9170295000076294,-0.8612139821052551,-3.490769147872925,-1.4767950773239136,0
288,81.76228332519531,-6.000375270843506,2.0770444869995117,-1.325356125831604,-2.0527615547180176,-1.1704870462417603,0
289,80.01543426513672,-7.18930196762085,2.964439630508423,-0.666054904460907,-0.9844911694526672,-1.4404429197311401,0
290,66.24528503417969,-12.091595649719238,5.14412784576416,-1.0599387884140015,0.18495890498161316,-1.1740124225616455,0
291,42.6029052734375,-18.97003936767578,5.69394063949585,-0.4202061593532562,0.9774014949798584,-1.2777248620986938,0
292,9.354243278503418,-27.465970993041992,6.269683361053467,-0.3852267265319824,1.2124844789505005,-1.1709802150726318,0
293,-24.49441146850586,-28.00015640258789,5.594804763793945,-1.2444614171981812,1.6406917572021484,-1.0227830410003662,0
294,-54.964500427246094,-24.610288619995117,5.640355110168457,-0.5550779700279236,2.1696507930755615,-0.9043738842010498,0
295,-77.55057525634766,-26.990428924560547,4.014171600341797,-0.3111303746700287,1.9947994947433472,-0.8927894234657288,0
296,-93.39266967773438,-25.950733184814453,4.619659423828125,0.11072517186403275,1.0327050685882568,-0.7649804949760437,0
297,-100.15188598632812,-21.012331008911133,4.241757869720459,0.3634442389011383,-0.7025040984153748,-0.6473224759101868,0
298,-94.89118194580078,-13.795321464538574,2.803265333175659,1.4310232400894165,-1.9074658155441284,-0.2974928617477417,0
299,-69.69074249267578,-3.9390268325805664,0.13534334301948547,1.508340835571289,-3.489017963409424,-0.20115283131599426,0
300,-32.845619201660156,4.894855976104736,-2.3427257537841797,1.8921523094177246,-3.9421839714050293,-0.193926140666008,0
301,1.904946208000183,8.831192970275879,-4.381300449371338,1.7283273935317993,-3.4146087169647217,-0.37203356623649597,0
302,36.484134674072266,20.127065658569336,-3.693512201309204,1.6210658550262451,-2.170306444168091,-0.7697275280952454,0
303,52.39388656616211,25.087501525878906,-3.3540852069854736,1.1882662773132324,-1.7795802354812622,-0.741983950138092,0
304,50.56389617919922,28.45842933654785,-4.763748645782471,0.3700546324253082,-2.411924123764038,-0.18495088815689087,0
305,35.09793472290039,27.201873779296875,-7.555553436279297,0.7152642607688904,-1.7237544059753418,-0.4915929138660431,0
306,10.962470054626465,23.231592178344727,-5.882223129272461,-0.41207510232925415,-1.9030801057815552,-0.2412988841533661,0
307,-15.495538711547852,16.882999420166016,-5.015320777893066,-0.04425295814871788,-2.198401927947998,-0.3951413333415985,0
308,-32.642391204833984,2.7267017364501953,-3.9755799770355225,-0.407656192779541,-2.7972865104675293,-0.3075404167175293,0
309,-41.299129486083984,-9.427968978881836,-4.741617679595947,-0.4201810359954834,-3.6459500789642334,-0.2888791859149933,0
310,-38.099178314208984,-17.61804962158203,-5.212304592132568,-0.27124956250190735,-3.6794300079345703,-0.3616770803928375,0
311,-22.778593063354492,-25.751426696777344,-6.020084381103516,0.5359901785850525,-4.323984146118164,-0.577852725982666,0
312,-0.4736272692680359,-26.310089111328125,-5.166899681091309,0.3946370780467987,-4.466158390045166,-0.443387508392334,0
313,23.666139602661133,-20.169755935668945,-4.877617835998535,1.0446243286132812,-3.8738436698913574,-0.6994413733482361,0
314,46.026309967041016,-9.116122245788574,-2.0514724254608154,1.010184407234192,-3.731513500213623,-0.6175981163978577,0
315,59.037254333496094,4.735433101654053,-2.0319695472717285,1.149630069732666,-2.9146978855133057,-0.745958149433136,0
316,65.25000762939453,15.256346702575684,-1.3929895162582397,0.7359710931777954,-1.9999415874481201,-0.6633744835853577,0
317,58.3625373840332,23.354267120361328,-2.3842599391937256,0.5661912560462952,-1.8103870153427124,-0.6297059655189514,0
318,39.31215286254883,25.997753143310547,-2.255530834197998,0.31213948130607605,-0.013892639428377151,-0.8959269523620605,0
319,16.402774810791016,26.14598274230957,-0.020440319553017616,0.14181363582611084,0.98662269115448,-1.0455156564712524,0
320,-14.53585147857666,20.599761962890625,1.9883910417556763,-0.12549111247062683,0.9115961790084839,-1.0156521797180176,0
321,-44.633968353271484,9.854992866516113,0.7255203723907471,-0.25828275084495544,0.08948423713445663,-0.9537165760993958,0
322,-64.72345733642578,-2.6187028884887695,0.09923174977302551,-0.9134585857391357,-1.084349274635315,-0.9492996335029602,0
323,-70.39554595947266,-16.60291862487793,-0.6802173852920532,0.3726947009563446,-2.3604230880737305,-0.7994084358215332,0
324,-58.855186462402344,-25.795787811279297,-2.5967862606048584,0.19220170378684998,-2.010634183883667,-0.9136449098587036,0
325,-35.944183349609375,-26.765762329101562,-2.6181514263153076,0.5050208568572998,-2.1604163646698,-0.9391922354698181,0
326,-14.16588020324707,-22.501195907592773,-2.005586862564087,0.6586920619010925,-2.0607447624206543,-0.9524770975112915,0
327,1.7625701427459717,-14.570635795593262,-1.704234004020691,1.0979866981506348,-2.594820976257324,-0.9423729777336121,0
328,15.557001113891602,-6.184072494506836,-2.677144765853882,1.0098851919174194,-3.2014567852020264,-0.8785281777381897,0
329,24.033472061157227,7.28448486328125,-3.293104887008667,0.5049468874931335,-3.2116472721099854,-0.8143563866615295,0
330,31.65253448486328,19.58373260498047,-3.7268638610839844,0.31466561555862427,-2.3618016242980957,-0.9206581115722656,0
331,34.712093353271484,23.59349250793457,-4.165520668029785,0.17337597906589508,-2.5869076251983643,-0.9206286668777466,0
332,29.241613388061523,20.455116271972656,-3.697098731994629,0.3317766487598419,-2.559105157852173,-1.0166071653366089,0
333,25.22825813293457,13.624165534973145,-2.693911552429199,0.16667291522026062,-2.311161994934082,-1.050703763961792,0
334,22.0485782623291,6.696462631225586,-1.826564908027649,0.33062875270843506,-0.7957995533943176,-1.2867146730422974,0
335,16.7626895904541,-0.06993365287780762,-0.7492908239364624,0.22510063648223877,-0.35684317350387573,-1.306236982345581,0
336,2.9701406955718994,-3.466330051422119,-1.8434590101242065,0.30359578132629395,0.659113883972168,-1.4013736248016357,0
337,-13.88006591796875,-4.571208953857422,-1.8030885457992554,0.351019948720932,0.6657695770263672,-1.4226534366607666,0
338,-35.01873779296875,-2.561234474182129,-1.4146596193313599,0.3533802628517151,0.9359718561172485,-1.46674644947052,0
339,-52.75320816040039,0.344939649105072,-3.1896908283233643,0.25395917892456055,0.30461400747299194,-1.5020356178283691,0
340,-66.24087524414062,3.7224063873291016,-3.4315528869628906,0.2644272744655609,-0.36817795038223267,-1.530620813369751,0
341,-71.54955291748047,6.970758438110352,-3.7153608798980713,0.33034318685531616,-0.6347518563270569,-1.565149188041687,0
342,-67.88056945800781,8.500709533691406,-4.7326273918151855,0.2259880006313324,-1.6568388938903809,-1.6069813966751099,0
343,-59.00604248046875,11.80270004272461,-4.968369483947754,0.06036406755447388,-1.8301252126693726,-1.7013903856277466,0
344,-45.61305236816406,14.974799156188965,-5.948437213897705,-0.19243593513965607,-2.7695438861846924,-1.7618454694747925,0
345,-33.59007263183594,17.327547073364258,-5.8505539894104,-0.2894926071166992,-3.486954689025879,-1.805283784866333,0
346,-16.808361053466797,15.56635856628418,-6.062682151794434,-0.38684648275375366,-3.4157063961029053,-1.8861019611358643,0
347,-1.9786367416381836,13.050687789916992,-6.709323883056641,-0.529228925704956,-3.6289236545562744,-1.9642205238342285,0
348,9.025662422180176,10.668200492858887,-5.849011421203613,-0.585033118724823,-3.2256693840026855,-2.0388829708099365,0
349,11.524864196777344,8.204366683959961,-4.842321872711182,-0.8021934628486633,-3.158698797225952,-2.066019296646118,0
350,6.708801746368408,6.275888919830322,-3.6735293865203857,-0.8140050172805786,-2.7161502838134766,-2.098754644393921,0
351,-7.496671676635742,4.2218170166015625,-2.665609836578369,-0.8683968186378479,-2.9952456951141357,-2.157130002975464,0
352,-20.15384292602539,2.042966842651367,-2.4609501361846924,-0.937835693359375,-3.37284517288208,-2.2026567459106445,0
353,-32.007667541503906,0.22753627598285675,-2.6627848148345947,-0.8108282685279846,-3.354374647140503,-2.2335317134857178,0
354,-36.092037200927734,-2.1772685050964355,-2.709188222885132,-0.9000162482261658,-4.046976566314697,-2.2728335857391357,0
355,-35.33566665649414,-2.845081329345703,-2.919541358947754,-0.8779942393302917,-4.054840087890625,-2.2557930946350098,0
356,-27.027029037475586,-1.0259571075439453,-2.6710870265960693,-0.7162749767303467,-4.397711277008057,-2.3444507122039795,0
357,-16.890316009521484,0.6029220819473267,-2.072967529296875,-0.768196165561676,-4.707160949707031,-2.3608644008636475,0
358,-5.554440498352051,4.899659156799316,-1.473423957824707,-0.8840488791465759,-4.37877893447876,-2.281748056411743,0
359,3.074716329574585,6.141308307647705,-1.4789822101593018,-0.9507982730865479,-4.457605838775635,-2.310992479324341,0
360,6.420295238494873,6.2110819816589355,-0.7288647890090942,-1.0050710439682007,-4.307669639587402,-2.3113415241241455,0
361,7.437650203704834,4.609452247619629,0.5802927613258362,-1.0371958017349243,-4.411182880401611,-2.3525431156158447,0
362,4.512165069580078,2.4407150745391846,1.0789344310760498,-1.054429054260254,-4.397077560424805,-2.36633038520813,0
363,2.6582353115081787,0.1450919806957245,1.2864910364151,-0.8515541553497314,-4.2323222160339355,-2.437537431716919,0
364,0.21493315696716309,-2.0903475284576416,1.6735590696334839,-0.8830732703208923,-4.345328330993652,-2.422048807144165,0
365,-2.162755250930786,-2.5248711109161377,1.7615225315093994,-0.8079183101654053,-4.398505687713623,-2.4279417991638184,0
366,-2.971794843673706,-1.4125699996948242,2.1375608444213867,-0.7003687024116516,-4.2680768966674805,-2.4249672889709473,0
367,-5.817195892333984,-0.9789713621139526,2.360717296600342,-0.7212020754814148,-4.22461462020874,-2.3655147552490234,0
368,-5.746500492095947,1.2948096990585327,3.1857805252075195,-0.7994306683540344,-4.493109226226807,-2.344545364379883,0
369,-4.889264106750488,3.900249481201172,3.1125614643096924,-0.863689124584198,-4.276729583740234,-2.275235652923584,0
370,-2.554131507873535,3.885946750640869,3.012772560119629,-0.9062819480895996,-4.268752098083496,-2.2389607429504395,0
371,0.7935242652893066,2.3713269233703613,2.787825107574463,-0.9589914679527283,-4.490927219390869,-2.2224183082580566,0
372,4.1092023849487305,-0.2177518606185913,1.9037498235702515,-0.9267635345458984,-4.324097156524658,-2.2001004219055176,0
373,9.097208023071289,-0.7693887948989868,1.6856529712677002,-0.9238083362579346,-4.143735408782959,-2.1737680435180664,0
374,12.173629760742188,-0.6071566939353943,1.5803123712539673,-0.9446247220039368,-4.113883018493652,-2.1571948528289795,0
375,13.154494285583496,0.15848809480667114,1.4723373651504517,-0.9653321504592896,-3.960611343383789,-2.1276144981384277,0
376,12.82419490814209,0.6401086449623108,1.7299424409866333,-0.9252632856369019,-3.8667819499969482,-2.135589361190796,0
377,12.760735511779785,-0.8869955539703369,0.8512163162231445,-0.9425665736198425,-3.757727861404419,-2.1160802841186523,0
378,12.479179382324219,-1.2356773614883423,1.045191764831543,-0.9491159915924072,-3.7076027393341064,-2.1082494258880615,0
379,8.947198867797852,-2.982583999633789,2.0152029991149902,-0.9407620429992676,-3.6474366188049316,-2.0975115299224854,0
380,7.7205047607421875,-2.678727865219116,1.6313024759292603,-0.8871711492538452,-3.618745803833008,-2.1069083213806152,0
381,8.153165817260742,-3.094026565551758,3.257594347000122,-0.8435223698616028,-3.7501425743103027,-2.107555627822876,0
382,9.064895629882812,-4.866021156311035,2.548327922821045,-0.7365325093269348,-4.026954650878906,-2.1335859298706055,0
383,11.822957038879395,-6.173858642578125,2.601018190383911,-0.9887657761573792,-3.5473344326019287,-1.9573637247085571,0
384,19.901857376098633,-5.749180793762207,2.5895137786865234,-0.9156413674354553,-2.4810824394226074,-1.8223564624786377,0
385,22.414457321166992,-7.683440208435059,2.128871202468872,-0.8851264715194702,-2.3486454486846924,-1.7973462343215942,0
386,18.983379364013672,-10.307090759277344,2.0844924449920654,-0.7166857123374939,-2.2102103233337402,-1.801451563835144,0
387,12.499090194702148,-12.26871109008789,2.77968168258667,-0.6349797248840332,-2.201568126678467,-1.7882360219955444,0
388,3.4635207653045654,-12.831482887268066,2.467965602874756,-0.4086401164531708,-2.1672215461730957,-1.7804574966430664,0
389,-3.4151079654693604,-10.620397567749023,3.178765058517456,-0.29209083318710327,-2.1916983127593994,-1.7443902492523193,0
390,-9.289868354797363,-7.922876834869385,2.641505002975464,-0.23187792301177979,-2.408379077911377,-1.7234649658203125,0
391,-11.326857566833496,-5.062637805938721,3.1454968452453613,-0.13942550122737885,-2.5360536575317383,-1.697892427444458,0
392,-9.40172004699707,-3.2478058338165283,3.4049718379974365,-0.05949103832244873,-2.743837594985962,-1.6745777130126953,0
393,0.041485030204057693,-2.1575710773468018,2.551701784133911,-0.016303585842251778,-2.8302133083343506,-1.646116852760315,0
394,9.528178215026855,0.09115489572286606,2.1028521060943604,0.035714372992515564,-2.6173641681671143,-1.6168667078018188,0
395,19.3636474609375,2.4237120151519775,1.7395466566085815,0.07670777291059494,-2.569409132003784,-1.6068017482757568,0
396,25.525903701782227,5.11566686630249,2.0552480220794678,0.03297185152769089,-2.3757593631744385,-1.5897088050842285,0
397,27.77742576599121,6.017150402069092,2.502126932144165,0.01711159013211727,-2.0773065090179443,-1.5693880319595337,0
398,27.497684478759766,4.866863250732422,2.1809651851654053,-0.14907100796699524,-1.75359308719635,-1.5411397218704224,0
399,20.9068660736084,3.002079725265503,2.217411756515503,-0.199149489402771,-1.4107003211975098,-1.522962212562561,0
400,14.319663047790527,-0.8800633549690247,0.9574907422065735,-0.240048348903656,-1.6061880588531494,-1.4943466186523438,0
401,5.618170261383057,-3.352839946746826,0.3200976252555847,-0.18701088428497314,-1.5401040315628052,-1.4889075756072998,0
402,2.4012246131896973,-5.331228256225586,0.7738876342773438,-0.17223474383354187,-1.5647408962249756,-1.4778283834457397,0
403,3.6766598224639893,-6.008090972900391,0.6080218553543091,-0.060833290219306946,-1.478083848953247,-1.467230200767517,0
404,8.682905197143555,-5.020439147949219,0.2920443117618561,-0.007776280865073204,-1.3989793062210083,-1.459641933441162,0
405,14.011027336120605,-2.655783176422119,0.6433145999908447,-0.03679560869932175,-1.1732701063156128,-1.4675533771514893,0
406,18.918550491333008,0.651864767074585,1.691098690032959,-0.037356629967689514,-0.9345115423202515,-1.458756923675537,0
407,20.516695022583008,3.4486122131347656,1.968544602394104,-0.012052117846906185,-0.6454911828041077,-1.4442733526229858,0
408,18.22414779663086,4.033802509307861,2.74790620803833,-0.021699337288737297,-0.557199239730835,-1.416962742805481,0
409,13.1912260055542,2.4674954414367676,3.335181713104248,-0.0465681254863739,-0.4604320526123047,-1.3853133916854858,0
410,8.959575653076172,-1.5071691274642944,3.2173471450805664,-0.029269209131598473,-0.2272598296403885,-1.3576265573501587,0
411,5.393174648284912,-4.1682329177856445,2.6029603481292725,-0.026090135797858238,-0.3226414620876312,-1.3326590061187744,0
412,2.568535089492798,0.6525787711143494,2.421260118484497,-0.028296615928411484,-0.27027931809425354,-1.3190194368362427,0
413,1.6083027124404907,2.848076581954956,3.2109107971191406,-0.1472356766462326,-0.2486221045255661,-1.3212279081344604,0
414,4.11952018737793,12.015172958374023,2.9349889755249023,-0.20334358513355255,-0.15297897160053253,-1.2956455945968628,0
415,8.696885108947754,20.53939437866211,2.3184573650360107,-0.4182855784893036,-0.013686266727745533,-1.2875398397445679,0
416,11.283967971801758,20.376567840576172,1.8881821632385254,-0.642952561378479,0.049099911004304886,-1.2709652185440063,0
417,11.710051536560059,15.576998710632324,2.688328981399536,-0.9580433964729309,0.28120389580726624,-1.3003231287002563,0
418,11.957334518432617,14.763944625854492,2.4770452976226807,-1.065134048461914,0.23787444829940796,-1.2625341415405273,0
419,10.19252872467041,14.422833442687988,2.589815139770508,-1.1840492486953735,0.32953351736068726,-1.2278258800506592,0
420,7.816084384918213,15.189892768859863,3.296262264251709,-1.3406133651733398,0.4624365568161011,-1.2132182121276855,0
421,5.892578125,7.975863456726074,3.5362186431884766,-1.5012133121490479,0.5464012026786804,-1.1899514198303223,0
422,2.25022029876709,-4.6059370040893555,2.8490562438964844,-1.4219732284545898,0.514431357383728,-1.1249033212661743,0
423,-0.021844634786248207,-16.970624923706055,2.1724724769592285,-1.2111414670944214,0.525409460067749,-1.0710549354553223,0
424,-3.346519708633423,-19.29605484008789,1.5974020957946777,-0.8698071241378784,0.5551275014877319,-0.9901169538497925,0
425,-2.7894668579101562,-12.564156532287598,0.6134293079376221,-0.8316273093223572,0.5381192564964294,-1.028607726097107,0
426,-0.46125665307044983,0.08261114358901978,-0.09368976205587387,-0.8138744235038757,0.5396944284439087,-1.032511830329895,0
427,3.3251569271087646,15.061301231384277,-0.4086875319480896,-0.9422868490219116,0.5734455585479736,-1.0466030836105347,0
428,4.752772808074951,28.636438369750977,0.20859166979789734,-1.2300020456314087,0.675573468208313,-1.0625602006912231,0
429,6.65837287902832,28.6369571685791,0.5632471442222595,-1.6461886167526245,0.7722004652023315,-1.1025080680847168,0
430,5.745144844055176,18.015365600585938,0.7502297759056091,-1.8604568243026733,0.892788290977478,-1.0722806453704834,0
431,1.5589408874511719,-0.6116916537284851,0.8364711999893188,-1.995639443397522,0.9682954549789429,-1.0684748888015747,0
432,-3.3289616107940674,-20.834346771240234,1.1337436437606812,-1.7741349935531616,0.9182683229446411,-1.0192867517471313,0
433,-8.417407989501953,-38.359561920166016,0.5894938111305237,-1.3096975088119507,0.83805912733078,-0.9482365250587463,0
434,-12.922599792480469,-40.37369155883789,0.761786699295044,-0.5828336477279663,0.6789213418960571,-0.8159600496292114,0
435,-12.492959022521973,-31.10915184020996,-0.13020849227905273,-0.8060826063156128,0.49404168128967285,-1.1101056337356567,0
436,-9.569764137268066,-10.442800521850586,1.2216827869415283,-0.5577471256256104,0.38400375843048096,-1.0801490545272827,0
437,-3.397737503051758,8.890132904052734,0.5256473422050476,-0.6372142434120178,0.281850129365921,-1.1137018203735352,0
438,0.9593596458435059,26.661808013916016,0.6689609289169312,-0.7843415141105652,0.4059686064720154,-1.0779157876968384,0
439,5.6002278327941895,37.09476852416992,0.28258606791496277,-1.1998443603515625,0.38969284296035767,-1.1160907745361328,0
440,7.527658462524414,37.388458251953125,-0.7681030035018921,-1.6966739892959595,0.5073618292808533,-1.1671662330627441,0
441,5.4096784591674805,31.92768096923828,0.025337805971503258,-2.0928730964660645,0.622810959815979,-1.1784485578536987,0
442,1.0551429986953735,14.986272811889648,0.23349617421627045,-2.317290782928467,0.684628963470459,-1.1640545129776,0
443,-1.8562698364257812,-0.2252977341413498,0.6382404565811157,-2.343963623046875,0.6740766763687134,-1.141892671585083,0
444,-7.470167636871338,-12.93923282623291,0.41431352496147156,-2.139456033706665,0.6737321615219116,-1.0740301609039307,0
445,-12.138627052307129,-21.779823303222656,0.012462825514376163,-1.8298306465148926,0.639046311378479,-1.0089353322982788,0
446,-17.6247501373291,-23.49739646911621,-0.7426625490188599,-1.4315048456192017,0.3924041986465454,-0.9685000777244568,0
447,-17.5772705078125,-19.05213737487793,-0.9789229035377502,-1.2546017169952393,0.1655266433954239,-1.0078691244125366,0
448,-14.950037956237793,-9.098485946655273,-2.3759689331054688,-0.7789989709854126,-0.10965563356876373,-0.917302668094635,0
449,-9.478789329528809,5.174463748931885,-1.8859490156173706,-1.1202812194824219,0.0325995571911335,-1.0272310972213745,0
450,-3.0922248363494873,17.36565399169922,-1.5225002765655518,-1.2613751888275146,-0.019038312137126923,-1.0477735996246338,0
451,2.3339920043945312,23.722332000732422,-2.2944281101226807,-1.4903523921966553,-0.047440845519304276,-1.078604817390442,0
452,4.936260223388672,25.120601654052734,-1.5923044681549072,-1.9228941202163696,0.06284260749816895,-1.1463195085525513,0
453,4.327477931976318,21.320714950561523,-0.6445044279098511,-2.123063802719116,0.25768622756004333,-1.1190916299819946,0
454,1.2861446142196655,6.76945161819458,-1.221469759941101,-2.2496702671051025,0.3493594825267792,-1.1191151142120361,0
455,-4.710155010223389,-14.549152374267578,-0.6149942278862,-2.207717180252075,0.23601287603378296,-1.14255952835083,0
456,-11.230713844299316,-37.13459777832031,-0.24124333262443542,-1.8394293785095215,0.09093615412712097,-1.13174569606781,0
457,-16.478864669799805,-54.58433532714844,-0.6852478981018066,-1.1358833312988281,-0.08377120643854141,-1.0759949684143066,0
458,-20.025299072265625,-57.74857711791992,-0.8810848593711853,-0.4596564471721649,-0.3369956910610199,-1.0663243532180786,0
459,-19.87948989868164,-47.39153289794922,-0.9376577138900757,0.051031891256570816,-0.6819477081298828,-1.1051949262619019,0
460,-15.369068145751953,-28.21346092224121,-1.0263456106185913,0.4581975042819977,-0.9094448685646057,-1.1107534170150757,0
461,-7.535655975341797,-2.9089996814727783,-0.915586531162262,0.4265855848789215,-0.9595282673835754,-1.1521257162094116,0
462,2.496934175491333,21.150087356567383,-0.9885913133621216,0.20884904265403748,-1.0213115215301514,-1.1971722841262817,0
463,10.179546356201172,39.97121810913086,-0.38080132007598877,-0.21586966514587402,-0.7197287082672119,-1.21165132522583,0
464,15.995640754699707,46.02934646606445,-1.2748661041259766,-0.7067571878433228,-0.6020181179046631,-1.2382447719573975,0
465,16.045177459716797,38.15250015258789,-0.4926905035972595,-1.1463775634765625,-0.48222601413726807,-1.2569187879562378,0
466,14.928544044494629,18.70780372619629,-0.5910497903823853,-1.449031114578247,-0.2342095971107483,-1.2609251737594604,0
467,10.318181037902832,-6.72260046005249,-0.3939805030822754,-1.4456998109817505,-0.036103930324316025,-1.255301833152771,0
468,3.629019021987915,-26.973188400268555,0.47670361399650574,-1.2617954015731812,0.06403607130050659,-1.2531150579452515,0
469,-6.123846530914307,-37.805267333984375,1.035637378692627,-0.6932553648948669,-0.09136294573545456,-1.216235637664795,0
470,-12.227578163146973,-39.03358840942383,0.23181433975696564,0.03901364654302597,-0.24177038669586182,-1.1607050895690918,0
471,-17.195587158203125,-31.0990047454834,-0.7627408504486084,0.029684174805879593,-0.3472314476966858,-1.2128937244415283,0
472,-15.251909255981445,-14.970504760742188,-0.5643664598464966,0.25702300667762756,-0.5524479746818542,-1.2163602113723755,0
473,-11.202705383300781,2.5290768146514893,-0.8976406455039978,0.347242146730423,-0.6411346197128296,-1.216302514076233,0
474,-4.71211576461792,18.9954776763916,-0.3232409358024597,0.2303680181503296,-0.8025436401367188,-1.2242791652679443,0
475,0.9468835592269897,22.10986328125,0.6461952328681946,-0.19308708608150482,-0.7113202214241028,-1.255170464515686,0
476,5.604261875152588,16.150575637817383,0.1178712248802185,-0.2533693313598633,-0.6757228374481201,-1.2388328313827515,0
477,9.16245174407959,11.886537551879883,0.37666696310043335,-0.3772146701812744,-0.5696937441825867,-1.2360769510269165,0
478,7.641546726226807,6.7333526611328125,0.2071816772222519,-0.48984551429748535,-0.42408517003059387,-1.240147352218628,0
479,5.178828716278076,1.4645838737487793,0.2623688876628876,-0.6626332402229309,-0.39984533190727234,-1.2464401721954346,0
480,2.4577813148498535,-4.5414838790893555,0.49819839000701904,-0.602557361125946,-0.41951125860214233,-1.2357704639434814,0
481,-2.075961112976074,-14.359698295593262,1.211153268814087,-0.6392640471458435,-0.4155851900577545,-1.2351109981536865,0
482,-6.288369178771973,-26.25663185119629,0.8266913294792175,-0.21889524161815643,-0.4858705401420593,-1.2021291255950928,0
483,-7.750481128692627,-29.63286781311035,0.812220573425293,0.06882445514202118,-0.6153252124786377,-1.1882035732269287,0
484,-8.700807571411133,-34.297515869140625,0.5507317781448364,0.5764046907424927,-0.6106275320053101,-1.17807936668396,0
485,-7.475192070007324,-27.94605255126953,0.07274869829416275,0.5921418070793152,-0.6873519420623779,-1.1968454122543335,0
486,-3.9187169075012207,-15.154023170471191,-0.6008521318435669,0.7478696703910828,-0.781405508518219,-1.1967953443527222,0
487,0.12410775572061539,-0.7041853070259094,-0.5251159071922302,0.8909606337547302,-0.81608647108078,-1.1964610815048218,0
488,6.074892997741699,12.970849990844727,-0.5241288542747498,0.8356024622917175,-0.7035773396492004,-1.2033908367156982,0
489,10.549370765686035,24.505924224853516,0.21957243978977203,0.6312836408615112,-0.5186828374862671,-1.2140382528305054,0
490,10.245829582214355,27.836040496826172,-0.13848650455474854,0.3252365291118622,-0.446778267621994,-1.2193148136138916,0
491,6.871821880340576,27.56780433654785,1.1396933794021606,-0.0033269093837589025,-0.3241949677467346,-1.2239741086959839,0
492,2.723917007446289,16.213851928710938,1.3406940698623657,-0.19119180738925934,-0.284313440322876,-1.2096377611160278,0
493,-1.6583478450775146,8.361297607421875,1.4767146110534668,-0.28630733489990234,-0.2899216115474701,-1.194628119468689,0
494,-4.291826248168945,-6.386988639831543,1.1888664960861206,-0.22715742886066437,-0.33385488390922546,-1.1699146032333374,0
495,-6.709174156188965,-16.048858642578125,0.408756285905838,0.041013218462467194,-0.4782754182815552,-1.1381361484527588,0
496,-8.053081512451172,-18.24047088623047,0.8671590089797974,-0.14415033161640167,-0.500343382358551,-1.1470857858657837,0
497,-7.176576137542725,-13.534615516662598,1.7454148530960083,-0.11670558154582977,-0.5563344955444336,-1.140317678451538,0
498,-5.012473106384277,-7.083643436431885,2.4468531608581543,0.0410255528986454,-0.6667686700820923,-1.108997106552124,0
499,-1.3662900924682617,-2.7185323238372803,2.2691001892089844,0.18364055454730988,-0.7334271669387817,-1.0794283151626587,0
500,2.0109357833862305,-5.967159271240234,2.4497578144073486,0.30873656272888184,-0.7363548874855042,-1.0522444248199463,0
501,5.078245162963867,-14.3574857711792,1.723385214805603,0.4226124584674835,-0.6468040347099304,-1.033155083656311,0
502,8.181203842163086,-15.467072486877441,1.4351752996444702,0.33103400468826294,-0.5303393006324768,-1.0200058221817017,0
503,9.20482063293457,-11.376364707946777,1.3519631624221802,0.6599594950675964,-0.39913809299468994,-1.0022759437561035,0
504,8.547828674316406,-6.252254962921143,0.3647380769252777,0.7231618762016296,-0.3461964726448059,-0.9886788725852966,0
505,7.687612533569336,3.3356211185455322,0.40865010023117065,0.7762530446052551,-0.2972963750362396,-0.9860432744026184,0
506,6.145183086395264,12.099815368652344,0.5206946134567261,0.7362727522850037,-0.2449623942375183,-0.9821649193763733,0
507,1.7838274240493774,18.276460647583008,-0.04295099526643753,0.6206092834472656,-0.14001528918743134,-0.9924429655075073,0
508,-0.8229082822799683,20.850664138793945,-0.22016914188861847,0.3507671058177948,-0.11926029622554779,-1.0032490491867065,0
509,-2.4767348766326904,13.263051986694336,-0.7067065238952637,0.06957917660474777,-0.12934139370918274,-1.0046755075454712,0
510,-3.661958932876587,7.90390157699585,-1.7089645862579346,-0.07385961711406708,-0.1739548146724701,-1.0081100463867188,0
511,-4.15627908706665,1.8707900047302246,-2.399864435195923,-0.12720990180969238,-0.2394876331090927,-1.018329381942749,0
512,-3.161940097808838,-3.218111753463745,-2.5187573432922363,-0.015890656039118767,-0.2936677932739258,-1.0332905054092407,0
513,-2.4557735919952393,-6.438328266143799,-2.7250120639801025,-0.0587521493434906,-0.2617156207561493,-1.0675405263900757,0
514,0.6831682324409485,-7.192389488220215,-3.121394634246826,0.05981050431728363,-0.28122618794441223,-1.0872061252593994,0
515,3.6850669384002686,-6.615280628204346,-3.140888214111328,0.03908631205558777,-0.3258073031902313,-1.1076674461364746,0
516,5.674866199493408,-4.113481521606445,-3.2658133506774902,0.07995527982711792,-0.2687426209449768,-1.1387720108032227,0
517,7.738150596618652,-0.9209578037261963,-3.1452860832214355,0.2280854880809784,-0.1757134050130844,-1.1648333072662354,0
518,8.748348236083984,2.9818954467773438,-2.7277612686157227,0.11726026982069016,-0.06282462179660797,-1.204562783241272,0
519,6.535623550415039,5.6162261962890625,-4.037450790405273,0.14300991594791412,-0.08616048842668533,-1.218313217163086,0
520,2.8895599842071533,9.345815658569336,-2.359715461730957,0.16785992681980133,-0.004008656833320856,-1.2545381784439087,0
521,-0.12377041578292847,9.41573429107666,-3.364609718322754,0.04733986780047417,-0.044782642275094986,-1.278733491897583,0
522,-1.607098937034607,9.477210998535156,-3.74361515045166,-0.008578705601394176,-0.05128399282693863,-1.3113528490066528,0
523,-2.2213797569274902,8.075377464294434,-4.22229528427124,-0.05270129814743996,-0.0762832760810852,-1.3486618995666504,0
524,-2.8201470375061035,7.775075435638428,-4.198216915130615,-0.5009257197380066,-0.10615995526313782,-1.4115782976150513,0
525,0.14341920614242554,5.437057971954346,-3.8349123001098633,-0.47964221239089966,-0.12079747766256332,-1.4448662996292114,0
526,1.418689250946045,2.5392332077026367,-3.9539825916290283,-0.444915771484375,-0.0464165024459362,-1.4865745306015015,0
527,1.642326831817627,-1.6589595079421997,-3.662346839904785,-0.40608710050582886,-0.016043754294514656,-1.5235846042633057,0
528,3.8964922428131104,-11.098563194274902,-2.2281837463378906,-0.5299691557884216,0.012579275295138359,-1.5586650371551514,0
529,2.920616626739502,-24.93524742126465,-2.6914360523223877,-0.15285040438175201,0.07292933762073517,-1.5660767555236816,0
530,-0.0722801461815834,-36.74368667602539,-2.653884172439575,0.21831992268562317,0.09477446228265762,-1.5884003639221191,0
531,-3.8457694053649902,-39.756675720214844,-3.5027894973754883,0.6815469861030579,0.059842292219400406,-1.6170215606689453,0
532,-3.7421815395355225,-38.80427169799805,-2.5404248237609863,1.1500113010406494,-0.001362109323963523,-1.642258882522583,0
533,-3.583808183670044,-32.99635696411133,-2.7916970252990723,1.4943712949752808,-0.05740795657038689,-1.6714882850646973,0
534,-3.580170154571533,-22.429405212402344,-2.3814499378204346,1.8392127752304077,-0.1068558469414711,-1.686203956604004,0
535,1.0622854232788086,-4.252875328063965,-1.8507336378097534,1.6844701766967773,-0.1264391392469406,-1.7297749519348145,0
536,3.8059937953948975,18.054536819458008,-0.5742065906524658,1.5674138069152832,-0.13412731885910034,-1.739232063293457,0
537,7.543305397033691,32.8894157409668,-1.439530611038208,1.335648775100708,-0.015997566282749176,-1.7563813924789429,0
538,8.773943901062012,35.16865158081055,-1.2816412448883057,0.8577620387077332,0.12490877509117126,-1.7881300449371338,0
539,9.168549537658691,27.396469116210938,-1.1847641468048096,0.45289552211761475,0.2835225462913513,-1.8147039413452148,0
540,6.760724067687988,20.94270896911621,-0.7428156733512878,0.24611784517765045,0.409479022026062,-1.831751823425293,0
541,3.263465642929077,12.333585739135742,-0.06972365826368332,0.1780138611793518,0.5094814300537109,-1.8406009674072266,0
542,-3.364475727081299,3.653801918029785,1.2307989597320557,0.15564683079719543,0.42573311924934387,-1.8166413307189941,0
543,-7.563101291656494,-2.5973329544067383,0.7830610871315002,0.17816689610481262,0.35377758741378784,-1.805545449256897,0
544,-12.60581111907959,-4.710928916931152,0.48736971616744995,0.34746912121772766,0.11128926277160645,-1.769397497177124,0
545,-12.625771522521973,-4.286838054656982,0.7624963521957397,0.38176441192626953,-0.0740448459982872,-1.7487772703170776,0
546,-10.157529830932617,-1.3283923864364624,1.523972988128662,0.5207898020744324,-0.17808230221271515,-1.7290408611297607,0
547,-5.552349090576172,-3.962498426437378,1.9900206327438354,0.37355390191078186,-0.22089146077632904,-1.7247917652130127,0
548,-2.066450595855713,-7.895110607147217,2.2385900020599365,0.5469091534614563,-0.3209807872772217,-1.6809813976287842,0
549,4.265380859375,-12.744099617004395,1.7169158458709717,0.7671858668327332,-0.32517462968826294,-1.65498685836792,0
550,8.02086067199707,-9.62986946105957,2.295105218887329,0.9867326021194458,-0.07157069444656372,-1.658644676208496,0
551,12.149429321289062,-1.904896855354309,2.51572322845459,1.1542710065841675,-0.11784598231315613,-1.6027660369873047,0
552,12.489389419555664,8.987565994262695,2.4420793056488037,0.9340349435806274,0.10230804234743118,-1.5983208417892456,0
553,11.687758445739746,21.601436614990234,2.0893027782440186,0.7147183418273926,0.2806709110736847,-1.5949620008468628,0
554,8.669516563415527,31.23285675048828,1.928604245185852,0.17677533626556396,0.43658146262168884,-1.6026277542114258,0
555,2.5865206718444824,35.203941345214844,1.7846912145614624,-0.2779616117477417,0.3953253924846649,-1.5778896808624268,0
556,-2.2982027530670166,33.17670440673828,2.558570623397827,-0.5380092859268188,0.39585795998573303,-1.5468721389770508,0
557,-7.795644283294678,23.79937171936035,3.0008506774902344,-0.9554224014282227,0.3403639793395996,-1.5225180387496948,0
558,-8.936310768127441,11.961189270019531,2.7752697467803955,-1.0817179679870605,0.2767523527145386,-1.4900367259979248,0
559,-12.18651294708252,-5.324584007263184,3.2473552227020264,-1.0426607131958008,0.07763990014791489,-1.449884057044983,0
560,-10.785551071166992,-24.327428817749023,3.0487682819366455,-0.7139390110969543,-0.10499585419893265,-1.3976047039031982,0
561,-4.631566047668457,-31.75954818725586,2.980576992034912,-0.29347261786460876,-0.11276710778474808,-1.3601354360580444,0
562,-2.0586769580841064,-33.697021484375,2.4310977458953857,0.12780186533927917,-0.1117962971329689,-1.3379838466644287,0
563,5.274361610412598,-18.9030704498291,2.6040852069854736,0.4464576840400696,-0.11482863873243332,-1.3083007335662842,0
564,7.086645126342773,-2.992149829864502,2.592635154724121,0.5956305265426636,-0.046890757977962494,-1.2758456468582153,0
565,12.033913612365723,17.05211067199707,2.979818105697632,0.3155534267425537,0.24228517711162567,-1.263350009918213,0
566,10.027186393737793,27.823780059814453,2.824091672897339,0.10737872868776321,0.378190815448761,-1.2318694591522217,0
567,6.6120405197143555,36.234683990478516,3.184335708618164,-0.22246624529361725,0.27778616547584534,-1.199175238609314,0
568,2.5197129249572754,32.152767181396484,4.021430015563965,-0.6778180003166199,0.27808186411857605,-1.1745030879974365,0
569,-1.3860113620758057,16.24209976196289,4.198502540588379,-1.002989411354065,0.34738627076148987,-1.1387851238250732,0
570,-5.359332084655762,-5.819014072418213,3.6163744926452637,-0.9299992322921753,0.3007734417915344,-1.097748041152954,0
571,-8.232004165649414,-18.58318328857422,3.1224684715270996,-0.6358625292778015,0.18232813477516174,-1.0533018112182617,0
572,-8.583914756774902,-24.2341365814209,2.0381526947021484,-0.22364147007465363,0.19646726548671722,-1.02094566822052,0
573,-7.310741424560547,-19.38396644592285,2.074939250946045,0.20828792452812195,0.04763686656951904,-0.9852163195610046,0
574,-4.747162342071533,-8.878617286682129,0.6292287707328796,0.11333973705768585,0.08633559942245483,-0.999323308467865,0
575,1.5958796739578247,9.158319473266602,1.1376773118972778,-0.09847879409790039,0.0521325021982193,-1.0072145462036133,0
576,4.429224014282227,23.43595314025879,1.277425765991211,-0.24694621562957764,0.09311554580926895,-1.002042531967163,0
577,4.7237138748168945,30.95516014099121,0.8781827092170715,-0.6891675591468811,0.15019729733467102,-1.0017802715301514,0
578,3.1016743183135986,24.546951293945312,0.6928421854972839,-1.0530704259872437,0.28850027918815613,-1.000004529953003,0
579,2.0901997089385986,11.973492622375488,1.585984706878662,-1.1637682914733887,0.2349909096956253,-0.9930213093757629,0
580,0.25331786274909973,-2.544851064682007,1.2322874069213867,-1.1060069799423218,0.2465108186006546,-0.9768756031990051,0
581,-5.475982189178467,-11.953346252441406,1.9853765964508057,-0.8840628862380981,0.2800830602645874,-0.952631950378418,0
582,-7.425782203674316,-16.911611557006836,1.082694172859192,-0.683188259601593,0.1567160189151764,-0.941125214099884,0
583,-8.438559532165527,-16.166770935058594,0.40036386251449585,-0.5599064230918884,0.08284228295087814,-0.9362119436264038,0
584,-8.235130310058594,-9.308085441589355,1.4422788619995117,-0.3276594281196594,-0.003977478481829166,-0.9194042682647705,0
585,-8.069599151611328,-8.751473426818848,0.4339379370212555,-0.28772470355033875,-0.020896121859550476,-0.8977010846138,0
586,-6.643044948577881,-4.5387163162231445,0.7013484239578247,-0.23078188300132751,-0.08633097261190414,-0.8903089761734009,0
587,-4.473178863525391,1.9545162916183472,0.7352185845375061,-0.1290053427219391,-0.19462347030639648,-0.8835972547531128,0
588,-2.2505152225494385,1.4715585708618164,0.05599932745099068,-0.671425461769104,-0.2579886317253113,-0.9038412570953369,0
589,-1.0686633586883545,-5.349781513214111,0.28140494227409363,-0.5267938375473022,-0.17615582048892975,-0.8846902251243591,0
590,-1.9383677244186401,-5.943317413330078,-0.0384172685444355,-0.2995713949203491,-0.20763736963272095,-0.8737503886222839,0
591,-2.367523193359375,-3.0807712078094482,0.7353930473327637,-0.22160373628139496,-0.17953705787658691,-0.8708913326263428,0
592,-2.527909517288208,1.9297051429748535,1.3881560564041138,-0.18551184237003326,-0.24181827902793884,-0.8622870445251465,0
593,-3.4023613929748535,6.279726505279541,1.4672402143478394,-0.17833340167999268,-0.08475495129823685,-0.8415271639823914,0
594,-7.076988697052002,10.865575790405273,0.5768963694572449,-0.3393629491329193,-0.1828612983226776,-0.844138503074646,0
595,-8.093225479125977,13.599299430847168,1.5163860321044922,-0.44259822368621826,-0.3381200134754181,-0.8372202515602112,0
596,-9.32065200805664,13.72215747833252,1.5732667446136475,-0.5679677128791809,-0.5002767443656921,-0.8301511406898499,0
597,-8.256842613220215,13.451712608337402,1.9306215047836304,-0.6918307542800903,-0.6622875928878784,-0.8235188126564026,0
598,-5.639990329742432,9.391744613647461,2.972726821899414,-0.7880319356918335,-0.719857394695282,-0.8005530834197998,0
599,-2.5450387001037598,-0.9052829742431641,3.1331686973571777,-0.8550897836685181,-0.6628257036209106,-0.7614483833312988,0
600,-0.8329819440841675,-14.873937606811523,3.554384469985962,-0.8393778204917908,-0.7189144492149353,-0.7292832732200623,0
601,1.1149110794067383,-30.242963790893555,1.9405766725540161,-0.5920385718345642,-0.5237067341804504,-0.6825829744338989,0
602,1.7804456949234009,-35.03388977050781,2.0336711406707764,-0.335484117269516,-0.5250974297523499,-0.6585166454315186,0
603,1.7323071956634521,-28.158248901367188,2.798004150390625,0.06350795179605484,-0.4647079110145569,-0.6263455748558044,0
604,-0.05019202083349228,-19.086849212646484,2.697737216949463,0.6346122026443481,-0.607130229473114,-0.6186939477920532,0
605,-1.4067413806915283,-3.0744810104370117,3.2993414402008057,0.295205682516098,-0.44677576422691345,-0.5572816729545593,0
606,-2.108560800552368,13.84659194946289,3.2720866203308105,0.23044486343860626,-0.5242491960525513,-0.5290435552597046,0
607,-4.5708909034729,26.171592712402344,3.2040557861328125,-0.08302668482065201,-0.5314531326293945,-0.49897879362106323,0
608,-7.455053806304932,31.087556838989258,3.2886533737182617,-0.38191425800323486,-0.6441921591758728,-0.4784371256828308,0
609,-7.545688629150391,29.38155746459961,3.636021852493286,-0.7411860227584839,-0.6398173570632935,-0.4490014612674713,0
610,-5.846035957336426,19.16160011291504,2.569122791290283,-0.8720142841339111,-0.6266176104545593,-0.42775726318359375,0
611,-4.1519775390625,0.6583912372589111,2.845648765563965,-0.8771136403083801,-0.6905450820922852,-0.4111075699329376,0
612,-5.021712779998779,-20.075458526611328,2.9227633476257324,-0.6874743700027466,-0.8027119636535645,-0.385110467672348,0
613,-6.46594762802124,-41.00438690185547,1.889572262763977,-0.23145082592964172,-0.9256882071495056,-0.3610386252403259,0
614,-5.73343563079834,-46.97589111328125,2.2811851501464844,0.16454802453517914,-0.9821634292602539,-0.32842814922332764,0
615,-3.9290897846221924,-40.59739303588867,1.9080718755722046,0.5433167815208435,-1.0004874467849731,-0.2928433418273926,0
616,0.8388521671295166,-22.38788604736328,2.1379451751708984,0.9709176421165466,-1.0580646991729736,-0.2770811915397644,0
617,3.701798915863037,0.27042874693870544,2.5553765296936035,0.9557980298995972,-1.038507342338562,-0.24522079527378082,0
618,5.995795249938965,21.920564651489258,3.1094017028808594,0.7854676842689514,-0.9099469780921936,-0.21444644033908844,0
619,8.748054504394531,34.34791564941406,2.562364339828491,0.4498412609100342,-0.7442127466201782,-0.1851627230644226,0
620,7.205402374267578,35.675331115722656,2.8298747539520264,0.0034385966137051582,-0.6415917277336121,-0.15378986299037933,0
621,4.631049156188965,23.99679946899414,2.4316020011901855,-0.4547850787639618,-0.5724724531173706,-0.10928389430046082,0
622,-1.3346951007843018,3.1712679862976074,2.0440242290496826,-0.5148066878318787,-0.6520945429801941,-0.09195924550294876,0
623,-6.688745975494385,-13.826399803161621,1.1566733121871948,-0.3069409132003784,-0.7420000433921814,-0.09101072698831558,0
624,-10.251138687133789,-31.42491912841797,1.4268604516983032,0.07200057059526443,-0.891150951385498,-0.08913381397724152,0
625,-10.411062240600586,-44.92015838623047,0.5084391236305237,0.4514616131782532,-0.9273366332054138,-0.08045841008424759,0
626,-7.885024070739746,-43.176910400390625,0.2788114547729492,0.8795265555381775,-1.1016145944595337,-0.06388840079307556,0
627,-4.2404255867004395,-30.78209686279297,-0.6629577279090881,1.3472272157669067,-1.2134512662887573,-0.06575031578540802,0
628,2.482410192489624,-10.423577308654785,-1.202390432357788,1.47846519947052,-1.0364234447479248,-0.07164693623781204,0
629,7.604075908660889,9.603343963623047,-1.7538659572601318,1.330625057220459,-0.9632468819618225,-0.06778652220964432,0
630,12.162720680236816,28.349300384521484,-1.625730276107788,1.141676425933838,-0.7709357738494873,-0.10546821355819702,0
631,12.38339900970459,34.83268737792969,-1.7461965084075928,0.7400171756744385,-0.6709386110305786,-0.12034358829259872,0
632,10.346431732177734,29.674848556518555,-2.0195846557617188,0.3627168536186218,-0.50956791639328,-0.1427791714668274,0
633,5.251588821411133,23.667076110839844,-1.0084894895553589,0.020178738981485367,-0.5425264239311218,-0.13835494220256805,0
634,-1.9603660106658936,13.496956825256348,-0.2798716723918915,-0.12923789024353027,-0.5435528755187988,-0.1453324556350708,0
635,-6.374858856201172,3.5067033767700195,-1.5826032161712646,-0.1602943390607834,-0.6204742789268494,-0.15927597880363464,0
636,-10.219008445739746,-4.761124134063721,-0.7826699614524841,-0.044367969036102295,-0.7549391388893127,-0.17501391470432281,0
637,-10.313410758972168,-10.172577857971191,-0.995288610458374,0.1503971368074417,-0.9237266778945923,-0.18892012536525726,0
638,-9.244294166564941,-10.500977516174316,-1.11898934841156,0.21746259927749634,-1.0220509767532349,-0.1944141685962677,0
639,-3.263735294342041,-7.324886798858643,-1.828853726387024,0.36528465151786804,-0.9986085891723633,-0.22179719805717468,0
640,1.7229938507080078,-8.519052505493164,-2.033972978591919,0.46075305342674255,-1.0203173160552979,-0.24876654148101807,0
641,6.8158721923828125,-11.325215339660645,-1.393442153930664,0.5673094987869263,-0.9469215869903564,-0.26314711570739746,0
642,9.252718925476074,-17.31136131286621,-1.5103143453598022,0.5978109836578369,-0.8105471730232239,-0.26169437170028687,0
643,10.152482986450195,-19.97703742980957,-2.2943785190582275,0.8461347222328186,-0.6560289859771729,-0.29041367769241333,0
644,8.19397258758545,-13.7381591796875,-0.18870088458061218,1.02353835105896,-0.511650800704956,-0.30729031562805176,0
645,4.016361236572266,-5.455358028411865,-0.8592119216918945,1.1918989419937134,-0.3926945626735687,-0.3249182403087616,0
646,-0.27079248428344727,8.698604583740234,-0.35372695326805115,1.2576534748077393,-0.3594117760658264,-0.33901074528694153,0
647,-4.5809550285339355,21.301240921020508,-1.3082354068756104,1.0460796356201172,-0.4640633463859558,-0.33293548226356506,0
648,-6.440854072570801,31.5611629486084,-1.2113494873046875,0.6542054414749146,-0.4937859773635864,-0.3432937264442444,0
649,-7.594414234161377,35.46046447753906,-1.4539060592651367,0.2737557888031006,-0.6218636631965637,-0.3505983054637909,0
650,-5.94489860534668,34.29692077636719,-1.4094113111495972,-0.2252347618341446,-0.7448199987411499,-0.35168352723121643,0
651,-3.630929946899414,22.420146942138672,-1.1279491186141968,-0.5205398201942444,-0.6827736496925354,-0.3793973922729492,0
652,-0.626338005065918,0.4413754343986511,-1.144250512123108,-0.6978359222412109,-0.8892800211906433,-0.3628285527229309,0
653,1.0940877199172974,-19.645498275756836,-1.5975197553634644,-0.45943841338157654,-0.8722853660583496,-0.384982705116272,0
654,3.3649189472198486,-40.25742721557617,-2.0171475410461426,0.010139744728803635,-0.9040679335594177,-0.4039432108402252,0
655,7.854314804077148,-46.53755187988281,-1.0061665773391724,0.6843675971031189,-0.7442411184310913,-0.43379995226860046,0
656,9.313708305358887,-39.64065933227539,-1.6129724979400635,0.7839818596839905,-0.6286380887031555,-0.4161011874675751,0
657,11.928926467895508,-22.79228973388672,-2.1412413120269775,1.2616597414016724,-0.4406375586986542,-0.4467272162437439,0
658,13.711316108703613,-1.3741971254348755,-1.762682557106018,1.3434876203536987,-0.2989197373390198,-0.46220022439956665,0
659,11.522686004638672,22.971378326416016,-2.6483349800109863,1.2310051918029785,-0.07046859711408615,-0.49809786677360535,0
660,8.387031555175781,40.653568267822266,-2.547248125076294,0.811204195022583,-0.061593957245349884,-0.5093372464179993,0
661,1.3673443794250488,43.95367431640625,-2.6718883514404297,0.20312882959842682,0.02630605734884739,-0.5337419509887695,0
662,-2.5092685222625732,37.4277458190918,-2.1304092407226562,-0.2777565121650696,-0.1251436024904251,-0.5302074551582336,0
663,-7.304411888122559,25.68852424621582,-2.563185930252075,-0.46303513646125793,-0.20533090829849243,-0.554980993270874,0
664,-11.130417823791504,10.250040054321289,-1.4574369192123413,-0.6801684498786926,-0.34662848711013794,-0.5700269937515259,0
665,-9.722044944763184,-2.619353771209717,-1.6343625783920288,-0.6953614354133606,-0.45388561487197876,-0.5825208425521851,0
666,-7.560593128204346,-10.91014575958252,-3.209982395172119,-0.5696065425872803,-0.5825121998786926,-0.6049448251724243,0
667,-2.090019702911377,-15.30823040008545,-3.6094448566436768,-0.44519373774528503,-0.5168956518173218,-0.6393498778343201,0
668,3.204291820526123,-11.846308708190918,-2.4347195625305176,-0.23800750076770782,-0.41730090975761414,-0.6691082119941711,0
669,7.163703918457031,-8.728531837463379,-2.439627170562744,0.021014973521232605,-0.31907838582992554,-0.6924664974212646,0
670,12.630660057067871,-1.0783095359802246,-2.1658990383148193,0.09376772493124008,-0.4011085331439972,-0.7107058763504028,0
671,11.062233924865723,0.5510931015014648,-1.8938090801239014,-0.00947859138250351,-0.06992264837026596,-0.736213207244873,0
672,9.384109497070312,-3.057619571685791,-1.6973320245742798,0.02481224574148655,-0.042401254177093506,-0.7547286152839661,0
673,6.039121150970459,-7.984525203704834,-1.552932858467102,0.1747664362192154,0.026305319741368294,-0.7705740928649902,0
674,0.8421253561973572,-9.41695785522461,-2.3482420444488525,0.05738864839076996,0.09415703266859055,-0.8006981611251831,0
675,-4.185815334320068,-13.235435485839844,-1.8177499771118164,0.41864848136901855,0.06815170496702194,-0.8189781904220581,0
676,-6.870803356170654,-15.692377090454102,-1.3218817710876465,0.4885728359222412,-0.017845433205366135,-0.8325785398483276,0
677,-8.941901206970215,-13.059292793273926,-1.3061658143997192,0.614350438117981,-0.12746380269527435,-0.8501904606819153,0
678,-8.01367473602295,-3.728679656982422,-1.3646879196166992,0.7946240305900574,-0.3258240520954132,-0.868020236492157,0
679,-5.279611587524414,10.336167335510254,-1.958178162574768,0.6937751770019531,-0.3519677519798279,-0.888156533241272,0
680,1.8722225427627563,22.596294403076172,-1.0533158779144287,0.5064435005187988,-0.35982468724250793,-0.9036017656326294,0
681,7.27441930770874,25.26108169555664,-1.190500259399414,0.17637529969215393,-0.2758597135543823,-0.91983562707901,0
682,11.360888481140137,28.599849700927734,-0.8947579860687256,-0.1739400029182434,-0.16537077724933624,-0.9313260316848755,0
683,13.343574523925781,19.64359474182129,-0.6340230703353882,-0.44787517189979553,0.06632370501756668,-0.9409487843513489,0
684,10.935150146484375,4.422833442687988,0.28635549545288086,-0.5966002941131592,0.19915735721588135,-0.9415008425712585,0
685,5.3576884269714355,-13.762810707092285,0.3957488536834717,-0.4567689299583435,0.3439127504825592,-0.935846745967865,0
686,-1.3411158323287964,-31.498929977416992,0.5283178091049194,-0.008047867566347122,0.38843831419944763,-0.9260997772216797,0
687,-8.126309394836426,-37.432098388671875,1.403620719909668,0.6196312308311462,0.3107363283634186,-0.9120264649391174,0
688,-12.627570152282715,-32.340293884277344,1.4949976205825806,1.2105785608291626,0.14901207387447357,-0.8888713121414185,0
689,-16.54292106628418,-22.884119033813477,2.3261148929595947,1.020311951637268,-0.138108491897583,-0.9059102535247803,0
690,-16.332536697387695,-5.748063564300537,0.8819689750671387,1.3004764318466187,-0.254373162984848,-0.8860548138618469,0
691,-8.40732192993164,13.879404067993164,2.7432596683502197,1.172575831413269,-0.45736631751060486,-0.8726446032524109,0
692,-0.5184768438339233,32.4721565246582,3.027702808380127,0.8813340067863464,-0.43136242032051086,-0.8529531955718994,0
693,7.49864387512207,45.36549377441406,2.6314847469329834,0.29914799332618713,-0.34366488456726074,-0.8434447050094604,0
694,14.250983238220215,49.369991302490234,2.545797824859619,-0.2924004793167114,-0.08186730742454529,-0.832225501537323,0
695,16.388242721557617,40.90910339355469,2.261352777481079,-0.9671735167503357,0.09268203377723694,-0.8213234543800354,0
696,13.741732597351074,17.337905883789062,2.0087900161743164,-1.1053327322006226,0.3564075529575348,-0.7909805178642273,0
697,8.317232131958008,-10.343478202819824,1.5733500719070435,-1.0569829940795898,0.47069990634918213,-0.7683098912239075,0
698,-2.015693426132202,-34.77882766723633,1.7253650426864624,-0.7043328285217285,0.45568302273750305,-0.7444057464599609,0
699,-11.659153938293457,-53.32719421386719,1.9857275485992432,-0.11958517134189606,0.34438109397888184,-0.7231797575950623,0
700,-19.427776336669922,-56.77364730834961,2.0939135551452637,0.8167546987533569,0.07453852891921997,-0.6782690286636353,0
701,-22.395864486694336,-45.74991226196289,1.2048734426498413,1.4352754354476929,-0.27003058791160583,-0.6522805094718933,0
702,-20.60390853881836,-29.6851806640625,1.6204115152359009,1.4761072397232056,-0.5624407529830933,-0.6655327081680298,0
703,-13.391427040100098,-9.344578742980957,2.079643964767456,1.5240826606750488,-0.647151529788971,-0.6586716175079346,0
704,-0.43787816166877747,15.974762916564941,0.9205472469329834,1.5811764001846313,-0.7845349311828613,-0.6370595097541809,0
705,8.395374298095703,38.27949142456055,0.8796789050102234,1.1328990459442139,-0.631278932094574,-0.644284188747406,0
706,18.474088668823242,54.21037673950195,1.3731225728988647,0.43371790647506714,-0.4803028702735901,-0.6443134546279907,0
707,20.92198371887207,59.55284118652344,2.1646838188171387,-0.21277031302452087,-0.15549835562705994,-0.6425191164016724,0
708,19.73503303527832,52.297767639160156,1.7724107503890991,-0.7602415680885315,0.13740691542625427,-0.6359520554542542,0
709,12.45986557006836,31.231056213378906,2.1182472705841064,-1.1891512870788574,0.3454156517982483,-0.6238857507705688,0
710,4.790584087371826,4.7605695724487305,2.0002312660217285,-1.3594030141830444,0.41425514221191406,-0.5991924405097961,0
711,-5.506671905517578,-25.203176498413086,1.761422872543335,-1.1316285133361816,0.4021204710006714,-0.5744388103485107,0
712,-16.195850372314453,-42.70241165161133,1.2615786790847778,-0.5690510272979736,0.15565980970859528,-0.5476964712142944,0
713,-23.275413513183594,-46.286800384521484,0.8514954447746277,-0.1981300562620163,-0.0890500396490097,-0.5472469329833984,0
714,-23.93645477294922,-38.034217834472656,0.7576597332954407,0.5739023089408875,-0.48178496956825256,-0.5183524489402771,0
715,-18.313669204711914,-29.022104263305664,-0.7599412798881531,0.9012117981910706,-0.5391740202903748,-0.5171986222267151,0
716,-10.245431900024414,-12.60401725769043,0.04183206334710121,1.1722724437713623,-0.7036685943603516,-0.5154960751533508,0
717,-2.2819676399230957,0.5859545469284058,-0.46878549456596375,1.1915721893310547,-0.7372874617576599,-0.5259553790092468,0
718,8.20374584197998,18.403343200683594,-0.19254937767982483,0.6877353191375732,-0.47095656394958496,-0.5549049377441406,0
719,13.49274730682373,25.973892211914062,-0.1849052459001541,0.4001169502735138,-0.3176533877849579,-0.5599874258041382,0
720,13.5516939163208,32.515113830566406,0.5849291086196899,0.07310663908720016,-0.10852846503257751,-0.559988796710968,0
721,10.982439994812012,29.64472007751465,0.4048973619937897,-0.37192144989967346,0.017086252570152283,-0.5620288848876953,0
722,5.026266098022461,25.017099380493164,0.4659070074558258,-0.7314885854721069,0.010208356194198132,-0.5574261546134949,0
723,-2.5812675952911377,14.320491790771484,1.1484986543655396,-0.7942007184028625,-0.04256753250956535,-0.550121009349823,0
724,-10.149290084838867,-5.998963356018066,1.7862504720687866,-0.7085973620414734,-0.06280935555696487,-0.5341458320617676,0
725,-14.929369926452637,-16.012691497802734,1.9509421586990356,-0.4536685049533844,-0.20381441712379456,-0.5126171112060547,0
726,-17.45902442932129,-20.553373336791992,1.530207872390747,-0.14231261610984802,-0.4779870808124542,-0.4981173574924469,0
727,-18.013696670532227,-16.849567413330078,1.256137728691101,0.010446980595588684,-0.6945539712905884,-0.4827536940574646,0
728,-11.318453788757324,-7.738612651824951,1.308772087097168,0.1289878487586975,-0.8711569905281067,-0.4683331847190857,0
729,-4.7720770835876465,6.124069690704346,2.6909847259521484,0.076956607401371,-0.942280650138855,-0.44821032881736755,0
730,3.7042484283447266,18.394542694091797,3.113032817840576,-0.046830616891384125,-0.9044204950332642,-0.41969913244247437,0
731,8.860942840576172,28.250732421875,3.4462759494781494,-0.3380202353000641,-0.8097890019416809,-0.3900843560695648,0
732,10.570863723754883,32.309478759765625,4.10707426071167,-0.7391782999038696,-0.7852923274040222,-0.36214008927345276,0
733,13.207465171813965,29.311859130859375,3.528491973876953,-1.1681644916534424,-0.5815708041191101,-0.31954148411750793,0
734,10.195884704589844,22.21160316467285,3.297114372253418,-1.24454927444458,-0.368577778339386,-0.28343117237091064,0
735,7.137701988220215,12.931363105773926,3.355253219604492,-1.4076069593429565,-0.2946372926235199,-0.2511867582798004,0
736,0.12949508428573608,0.7193576693534851,2.5723607540130615,-1.502103567123413,-0.21738982200622559,-0.22444795072078705,0
737,-4.301995277404785,-14.500327110290527,2.934088706970215,-1.3367607593536377,-0.39653530716896057,-0.21767795085906982,0
738,-7.277153015136719,-30.676349639892578,2.7934327125549316,-0.9957696199417114,-0.4734092354774475,-0.19066570699214935,0
739,-8.174724578857422,-35.62334060668945,1.7644118070602417,-0.677554190158844,-0.45832881331443787,-0.14729689061641693,0
740,-7.398403644561768,-30.259387969970703,2.4212777614593506,-0.12818636000156403,-0.5833173394203186,-0.13426625728607178,0
741,-4.221070766448975,-16.444488525390625,1.8577455282211304,0.21724343299865723,-0.6766570806503296,-0.12171564251184464,0
742,0.8853307366371155,3.7021853923797607,2.127519130706787,-0.16316863894462585,-0.7135910987854004,-0.09088408946990967,0
743,4.968916893005371,23.093502044677734,2.079350709915161,-0.40616294741630554,-0.6591076850891113,-0.06829644739627838,0
744,9.205005645751953,35.53553009033203,2.650035858154297,-0.6323996782302856,-0.6101248264312744,-0.054806146770715714,0
745,9.598299980163574,38.898189544677734,3.246476650238037,-1.2070585489273071,-0.4344210624694824,-0.014426320791244507,0
746,7.862098693847656,33.40385437011719,3.343554973602295,-1.6321502923965454,-0.4117189943790436,0.008392836898565292,0
747,5.960159778594971,20.367958068847656,3.414520025253296,-1.95139479637146,-0.4093438386917114,0.04017869755625725,0
748,2.9679553508758545,1.1009166240692139,3.2060132026672363,-1.9964805841445923,-0.31326308846473694,0.08531351387500763,0
749,-1.3591781854629517,-27.311674118041992,2.844487428665161,-1.7827208042144775,-0.27744123339653015,0.11873526871204376,0
750,-4.959959030151367,-42.276546478271484,2.826671600341797,-1.172202229499817,-0.3755205571651459,0.12451987713575363,0
751,-6.823771953582764,-46.95713806152344,2.2626125812530518,-0.6955757141113281,-0.4489331543445587,0.14688396453857422,0
752,-7.247883319854736,-47.344215393066406,1.6724098920822144,-0.03549480065703392,-0.5371824502944946,0.15951012074947357,0
753,-3.9574902057647705,-37.02431106567383,0.9566931128501892,0.4855268597602844,-0.6187037229537964,0.16861629486083984,0
754,-2.7360761165618896,-17.276399612426758,0.42628213763237,0.536978006362915,-0.6529721021652222,0.1823177933692932,0
755,2.8859925270080566,-1.9086151123046875,-0.46235960721969604,0.6539225578308105,-0.6437142491340637,0.1870703101158142,0
756,7.583510398864746,12.484193801879883,-1.5024081468582153,0.5977522730827332,-0.5220593214035034,0.1826094090938568,0
757,10.817770957946777,18.382984161376953,-1.0662257671356201,0.41168978810310364,-0.4185529351234436,0.16912323236465454,0
758,12.326834678649902,14.841971397399902,-1.1573048830032349,0.1998908966779709,-0.34559178352355957,0.1545965075492859,0
759,11.723852157592773,14.552949905395508,-0.9840348958969116,0.03160131350159645,-0.1185111403465271,0.1526678502559662,0
760,9.288715362548828,13.35508918762207,-0.7535941004753113,-0.12467729300260544,0.0064048017375171185,0.14690254628658295,0
761,4.368258953094482,10.823517799377441,-1.37267005443573,-0.2513895034790039,0.010529066435992718,0.13073940575122833,0
762,-0.2951206862926483,8.000004768371582,-1.6874091625213623,-0.3990512490272522,0.07124314457178116,0.1210702434182167,0
763,-4.0307207107543945,6.0630292892456055,-2.5810658931732178,-0.42636606097221375,0.056699059903621674,0.0987374559044838,0
764,-4.219062805175781,4.232946395874023,-2.6263835430145264,-0.5000877976417542,0.004570998717099428,0.07340697199106216,0
765,-4.740650177001953,-3.5383529663085938,-3.6889121532440186,-0.4310169517993927,-0.047070059925317764,0.04263273626565933,0
766,-3.852372646331787,-6.456972122192383,-3.661830425262451,-0.47435057163238525,-0.09896625578403473,0.006194289308041334,0
767,-1.680867314338684,-13.551976203918457,-3.9469683170318604,-0.326680451631546,-0.20410852134227753,-0.034068066626787186,0
768,0.9981053471565247,-13.27186107635498,-3.995065689086914,-0.4329085052013397,-0.2506401538848877,-0.07783748209476471,0
769,5.556094646453857,-8.71523666381836,-3.60954213142395,-0.35015636682510376,-0.1688532531261444,-0.11185973882675171,0
770,11.374417304992676,-0.5029283165931702,-3.1124730110168457,-0.1733141392469406,-0.06857974827289581,-0.14669141173362732,0
771,14.432035446166992,7.184818267822266,-2.3582942485809326,-0.08506590873003006,0.15249556303024292,-0.16951332986354828,0
772,14.453710556030273,14.176348686218262,-2.3703200817108154,-0.17438609898090363,0.3271807134151459,-0.19139209389686584,0
773,11.795666694641113,20.27515411376953,-1.9566000699996948,-0.36492374539375305,0.2136937379837036,-0.22053168714046478,0
774,7.266952037811279,22.267024993896484,-1.5106741189956665,-0.5909191966056824,0.4975864589214325,-0.23189851641654968,0
775,3.502110719680786,22.202199935913086,-0.4502643942832947,-0.8426122069358826,0.5570921301841736,-0.24258850514888763,0
776,-0.03848583996295929,17.621150970458984,0.15387672185897827,-1.077574610710144,0.6337969303131104,-0.24207250773906708,0
777,-5.9532952308654785,4.967889308929443,0.4843704104423523,-1.2063579559326172,0.48517969250679016,-0.24704307317733765,0
778,-8.748956680297852,-13.90937614440918,0.7335518002510071,-1.2064900398254395,0.47937238216400146,-0.23785263299942017,0
779,-10.311656951904297,-32.21083068847656,0.6247649192810059,-0.7251592874526978,0.33721742033958435,-0.21776306629180908,0
780,-8.845632553100586,-40.758056640625,-0.7995828986167908,-0.5590253472328186,0.13271328806877136,-0.2525719106197357,0
781,-6.737210750579834,-36.647640228271484,-0.3769678473472595,0.10053391009569168,0.038070593029260635,-0.2409152388572693,0
782,-1.2235010862350464,-24.935190200805664,-0.3485502004623413,0.31896302103996277,-0.04551214724779129,-0.25963711738586426,0
783,5.553715229034424,-7.365912437438965,-0.9286487102508545,0.7094902396202087,0.11917769908905029,-0.2350796014070511,0
784,12.12031364440918,15.453357696533203,-0.5064913630485535,0.30899497866630554,0.29540252685546875,-0.2649715840816498,0
785,14.081483840942383,28.40699577331543,-1.8406109809875488,0.00479258643463254,0.5237475037574768,-0.27605143189430237,0
786,12.386590003967285,37.59019470214844,-2.7695088386535645,-0.4136301875114441,0.6650165915489197,-0.3049505352973938,0
787,8.511035919189453,37.668113708496094,-3.83258318901062,-0.8197447061538696,0.6373676657676697,-0.3482181131839752,0
788,1.8069175481796265,30.215726852416992,-3.3423960208892822,-1.1752408742904663,0.7414306402206421,-0.38324442505836487,0
789,-3.2663185596466064,13.419147491455078,-2.9908316135406494,-1.2662235498428345,0.667313814163208,-0.40799930691719055,0
790,-9.636785507202148,-13.314189910888672,-2.6410698890686035,-1.1303141117095947,0.5916150212287903,-0.42943528294563293,0
791,-13.202237129211426,-26.773611068725586,-2.37965989112854,-0.7716676592826843,0.42334362864494324,-0.44293490052223206,0
792,-14.868376731872559,-35.08401107788086,-3.8655948638916016,-0.3642571270465851,0.21376220881938934,-0.4765864610671997,0
793,-11.115242004394531,-31.06014060974121,-4.094421863555908,0.18491140007972717,0.09981584548950195,-0.4953036904335022,0
794,-7.137377738952637,-19.87574005126953,-4.334474563598633,0.5096848011016846,0.04209696874022484,-0.5281466245651245,0
795,-0.8656026721000671,-1.0448495149612427,-4.722940921783447,0.7095468044281006,0.15167760848999023,-0.5515500903129578,0
796,4.8981523513793945,15.682494163513184,-5.242545127868652,0.12000662833452225,0.19041909277439117,-0.6598963141441345,0
797,8.14822769165039,32.31658935546875,-4.425309181213379,-0.13119640946388245,0.22573456168174744,-0.7100675106048584,0
798,10.365190505981445,39.05645751953125,-4.885647296905518,-0.5529429912567139,0.31320828199386597,-0.7706385850906372,0
799,8.698740005493164,39.53119659423828,-4.046949863433838,-0.8782752752304077,0.48542681336402893,-0.8015122413635254,0
800,7.868589878082275,29.46519660949707,-4.569447040557861,-1.3494282960891724,0.5105381011962891,-0.8577668070793152,0
801,3.2173731327056885,10.651191711425781,-4.973686695098877,-1.5912904739379883,0.4893420934677124,-0.9115155935287476,0
802,-0.06053658574819565,-15.13481616973877,-4.567788124084473,-1.4003229141235352,0.5430676937103271,-0.9418814182281494,0
803,-7.0179877281188965,-43.367103576660156,-4.785128116607666,-0.8923089504241943,0.5223792791366577,-0.9736508727073669,0
804,-10.563050270080566,-54.60662841796875,-4.923749923706055,-0.3343885540962219,0.37985652685165405,-1.0243974924087524,0
805,-11.441414833068848,-50.885677337646484,-5.017515182495117,0.5142257213592529,0.28756123781204224,-1.0422409772872925,0
806,-11.862138748168945,-34.105220794677734,-5.898554801940918,0.5481791496276855,0.10964290797710419,-1.1480103731155396,0
807,-9.39700698852539,-11.197423934936523,-5.5961198806762695,0.8977991938591003,-0.044400278478860855,-1.191654086112976,0
808,-2.8242716789245605,11.837363243103027,-4.840149402618408,0.9038894772529602,-0.05879916623234749,-1.2362040281295776,0
809,3.615168333053589,30.322057723999023,-5.265925884246826,0.5065464973449707,-0.03215361759066582,-1.3049356937408447,0
810,11.22730827331543,42.91973876953125,-3.6347312927246094,-0.016535114496946335,0.10838916152715683,-1.3547401428222656,0
811,14.388927459716797,47.12053680419922,-3.284018039703369,-0.39258527755737305,0.332621306180954,-1.388842225074768,0
812,14.412981986999512,40.237709045410156,-3.024535894393921,-0.9977330565452576,0.5260841250419617,-1.434625506401062,0
813,10.297685623168945,15.619682312011719,-3.7742502689361572,-1.3142881393432617,0.6856609582901001,-1.47001314163208,0
814,5.071198463439941,-8.19401741027832,-2.7256078720092773,-1.1394166946411133,0.6652555465698242,-1.4889973402023315,0
815,-1.2473423480987549,-34.1925163269043,-3.848912000656128,-0.7536023855209351,0.6351591348648071,-1.5118566751480103,0
816,-8.361444473266602,-49.43867111206055,-3.1446011066436768,-0.3257400691509247,0.437406450510025,-1.560685157775879,0
817,-14.42586898803711,-60.33320236206055,-3.447134494781494,0.49641546607017517,0.3617234230041504,-1.5669217109680176,0
818,-15.814650535583496,-56.39027404785156,-5.614570140838623,0.8479373455047607,0.19670887291431427,-1.6390817165374756,0
819,-14.486573219299316,-38.73508071899414,-5.767018795013428,1.29994797706604,-0.040909264236688614,-1.6912871599197388,0
820,-7.830910682678223,-8.486123085021973,-4.784605026245117,1.8457908630371094,-0.230942964553833,-1.7130436897277832,0
821,-0.14760085940361023,17.3550968170166,-5.005194664001465,1.3262044191360474,-0.1220627948641777,-1.8100320100784302,0
822,8.132859230041504,40.98057174682617,-4.531414985656738,0.9090335369110107,-0.10744716227054596,-1.8659473657608032,0
823,14.282888412475586,52.59412384033203,-4.620660781860352,0.338482141494751,0.01954883150756359,-1.9196566343307495,0
824,17.606718063354492,52.29602813720703,-4.694926738739014,-0.1950564980506897,0.29304957389831543,-1.9775385856628418,0
825,15.806596755981445,42.754276275634766,-5.751209735870361,-0.8613281846046448,0.3713834881782532,-2.028130292892456,0
826,12.148268699645996,23.98688316345215,-4.9986443519592285,-1.1588737964630127,0.6256259679794312,-2.086360454559326,0
827,5.166303634643555,3.087393045425415,-3.9454967975616455,-1.1109716892242432,0.6145646572113037,-2.1141481399536133,0
828,2.0872480869293213,-16.510540008544922,-3.9560956954956055,-0.9221392273902893,0.6249855756759644,-2.1437017917633057,0
829,-7.35255765914917,-36.1708869934082,-3.3976078033447266,-0.3726367950439453,0.6084740161895752,-2.1679694652557373,0
830,-13.332216262817383,-46.7765007019043,-3.835301637649536,-0.03762645646929741,0.5270146727561951,-2.2132246494293213,0
831,-15.360997200012207,-38.598670959472656,-4.538296222686768,0.5368269681930542,0.22058944404125214,-2.2456576824188232,0
832,-13.194841384887695,-24.382741928100586,-3.9842870235443115,1.1172739267349243,0.0808093473315239,-2.2658865451812744,0
833,-5.625726699829102,-5.842536449432373,-4.638484001159668,1.0343406200408936,-0.056882183998823166,-2.32297420501709,0
834,1.3522920608520508,18.788524627685547,-4.804244041442871,0.8345563411712646,-0.05478998273611069,-2.381100654602051,0
835,9.177145957946777,40.264427185058594,-4.017697334289551,0.4596870243549347,0.06657594442367554,-2.431645154953003,0
836,16.02688217163086,45.70193862915039,-4.379479885101318,-0.21885386109352112,0.27791258692741394,-2.4907097816467285,0
837,17.05665397644043,47.90176773071289,-4.272510051727295,-0.6962835192680359,0.48214665055274963,-2.5363476276397705,0
838,19.529964447021484,36.828311920166016,-4.89492130279541,-0.9884817600250244,0.6460689306259155,-2.5700981616973877,0
839,14.17581844329834,16.35807228088379,-4.414251327514648,-1.3255237340927124,0.8739719390869141,-2.625180244445801,0
840,7.004864692687988,-10.889910697937012,-3.348097085952759,-1.183733582496643,0.9312652945518494,-2.660792350769043,0
841,-0.6796364188194275,-27.665157318115234,-4.105727672576904,-0.8319194912910461,0.9332450032234192,-2.691445827484131,0
842,-10.030034065246582,-33.331241607666016,-3.5995397567749023,-0.4774385690689087,0.876327633857727,-2.7370381355285645,0
843,-14.069649696350098,-28.912555694580078,-3.6439335346221924,-0.05512607842683792,0.6976284384727478,-2.7724316120147705,0
844,-15.963286399841309,-17.817373275756836,-4.278417110443115,0.23617352545261383,0.4601573944091797,-2.8106343746185303,0
845,-11.967682838439941,-3.2961809635162354,-4.390742778778076,0.23857790231704712,0.2520586848258972,-2.8631484508514404,0
846,-4.411801338195801,15.313783645629883,-3.33428692817688,0.115495465695858,0.1294960379600525,-2.907072067260742,0
847,4.1599626541137695,28.174381256103516,-2.9869821071624756,-0.13412173092365265,0.2118440717458725,-2.9388720989227295,0
848,11.466236114501953,35.117610931396484,-2.3759961128234863,-0.4805411398410797,0.3530340790748596,-2.9670956134796143,0
849,17.708528518676758,33.67649841308594,-2.192133903503418,-0.9510501027107239,0.5909132361412048,-2.993983745574951,0
850,22.7182674407959,22.17624282836914,-1.7645182609558105,-1.1718955039978027,0.7827955484390259,-3.0097415447235107,0
851,18.23885154724121,10.818288803100586,-1.7331016063690186,-1.278558373451233,1.1332464218139648,-3.0181562900543213,0
852,14.238607406616211,-6.227895736694336,-1.1484830379486084,-1.2335408926010132,1.131261944770813,-3.0366623401641846,0
853,3.334214925765991,-15.831863403320312,0.39994966983795166,-1.0928833484649658,1.0908647775650024,-3.045236587524414,0
854,-6.326340198516846,-19.416866302490234,0.6280492544174194,-0.981568455696106,1.07667875289917,-3.0501489639282227,0
855,-12.064414978027344,-17.53751564025879,0.9141678214073181,-0.6870510578155518,0.8806387782096863,-3.0472640991210938,0
856,-15.489056587219238,-15.36650562286377,1.043492317199707,-0.5283856391906738,0.6850584745407104,-3.042935848236084,0
857,-14.826362609863281,-8.325728416442871,3.240872383117676,-0.4266846776008606,0.503735363483429,-3.023221015930176,0
858,-8.875960350036621,-12.462255477905273,3.253912925720215,-0.33948859572410583,0.32605358958244324,-3.0010695457458496,0
859,-3.2643747329711914,-10.883544921875,3.5891780853271484,-0.37174275517463684,0.2768476605415344,-2.9884583950042725,0
860,1.9364069700241089,-11.699570655822754,3.8743574619293213,-0.14077244699001312,0.3171837031841278,-2.9384889602661133,0
861,7.570532321929932,-9.596410751342773,4.325267314910889,-0.03318803384900093,0.5048100352287292,-2.880350112915039,0
862,13.026328086853027,-11.94349479675293,2.9959750175476074,0.08479149639606476,0.6845546364784241,-2.8329951763153076,0
863,13.751047134399414,-14.020511627197266,2.633878469467163,-0.014835485257208347,0.7628664374351501,-2.830453634262085,0
864,12.120861053466797,-9.767600059509277,4.1229987144470215,0.17858900129795074,0.9751614332199097,-2.7887792587280273,0
865,5.853602409362793,-4.744317531585693,3.8039681911468506,0.2972716987133026,0.995544970035553,-2.751061201095581,0
866,0.2751519978046417,4.4670915603637695,4.353013038635254,0.17026926577091217,1.0462055206298828,-2.721545457839966,0
867,-7.956726551055908,15.934931755065918,5.738806247711182,0.10478946566581726,1.0115156173706055,-2.669161558151245,0
868,-15.036248207092285,16.558063507080078,5.8059797286987305,-0.08331289142370224,0.8612385392189026,-2.6095433235168457,0
869,-18.669815063476562,16.102733612060547,5.768894672393799,-0.25493907928466797,0.6665182709693909,-2.548301935195923,0
870,-14.572372436523438,6.837977886199951,5.3545637130737305,-0.3378600478172302,0.43686342239379883,-2.482963800430298,0
871,-11.361377716064453,1.9960004091262817,5.044642448425293,-0.425461083650589,0.29806703329086304,-2.436995506286621,0
872,-5.5636491775512695,-3.151014566421509,4.892529487609863,-0.3698137402534485,0.3698190152645111,-2.381943941116333,0
873,0.20197822153568268,-4.3680620193481445,4.77630090713501,-0.1579507440328598,0.3114701211452484,-2.3196542263031006,0
874,4.180307388305664,-1.140432357788086,5.474848747253418,-0.31289374828338623,0.2759595811367035,-2.2891154289245605,0
875,3.0227534770965576,1.7766143083572388,6.471456050872803,-0.39262181520462036,0.358671635389328,-2.2400505542755127,0
876,0.3293401896953583,0.8860412836074829,6.479437828063965,-0.3304539918899536,0.4153200685977936,-2.1650171279907227,0
877,-0.5777334570884705,1.3753026723861694,5.83834981918335,-0.3092787265777588,0.3929927945137024,-2.098517417907715,0
878,-4.289028167724609,0.40131741762161255,5.262197017669678,-0.2729727625846863,0.4150577783584595,-2.039794921875,0
879,-5.58675479888916,3.911010980606079,5.3007731437683105,-0.3645634055137634,0.31778204441070557,-1.9965029954910278,0
880,-5.68398904800415,4.125822067260742,4.960058689117432,-0.3091908395290375,0.22043932974338531,-1.939290165901184,0
881,-6.778972625732422,5.546433448791504,4.680605888366699,-0.4613316059112549,0.33095455169677734,-1.8975518941879272,0
882,-6.02964448928833,7.360604286193848,4.310824394226074,-0.5601796507835388,0.21101482212543488,-1.858005166053772,0
883,-5.8625311851501465,7.968628883361816,4.379047870635986,-0.6067025661468506,0.12257631868124008,-1.8149333000183105,0
884,-7.004830837249756,2.910874843597412,4.716795921325684,-0.6186753511428833,0.013004951179027557,-1.764715313911438,0
885,-10.208938598632812,0.06340453773736954,5.009507656097412,-0.5250217914581299,-0.13477571308612823,-1.7117388248443604,0
886,-6.826883316040039,-1.8688170909881592,4.625672817230225,-0.6821340918540955,-0.17125637829303741,-1.6648149490356445,0
887,-3.210742235183716,-3.7228546142578125,3.871960401535034,-0.5087905526161194,-0.21001791954040527,-1.617753267288208,0
888,1.4840209484100342,-2.58213472366333,4.448371410369873,-0.455454558134079,-0.18245533108711243,-1.5771100521087646,0
889,3.746704339981079,-0.6726121306419373,4.435934543609619,-0.43406423926353455,-0.154929056763649,-1.5354468822479248,0
890,4.141218662261963,2.36891770362854,4.554332733154297,-0.4486094117164612,-0.08703429251909256,-1.4924190044403076,0
891,2.811807632446289,4.85453987121582,4.231350421905518,-0.3749246597290039,-0.04212493076920509,-1.4513999223709106,0
892,2.12667179107666,7.664021968841553,3.538705825805664,-0.689268946647644,-0.05985217168927193,-1.4066296815872192,0
893,-4.634814739227295,8.536920547485352,5.111398696899414,-0.8593605756759644,0.008196781389415264,-1.3567267656326294,0
894,-8.153857231140137,3.878758430480957,4.721609592437744,-0.934897243976593,-0.10618098080158234,-1.3045912981033325,0
895,-11.799180030822754,-0.5940664410591125,4.75626802444458,-0.9615522623062134,-0.3489830791950226,-1.2654039859771729,0
896,-11.038865089416504,-12.861856460571289,4.581600666046143,-0.7410659193992615,-0.5524486899375916,-1.2261228561401367,0
897,-7.391785621643066,-27.215734481811523,3.7587594985961914,-0.30762240290641785,-0.5778356790542603,-1.186002254486084,0
898,-3.1661927700042725,-34.54786682128906,3.1295576095581055,-0.20675261318683624,-0.532656729221344,-1.1279292106628418,0
899,1.8622028827667236,-29.869524002075195,3.6766395568847656,0.24307510256767273,-0.5709817409515381,-1.1031384468078613,0
900,6.830590724945068,-20.362430572509766,4.425195693969727,0.3782210648059845,-0.47165966033935547,-1.0471105575561523,0
901,9.158341407775879,-4.132040023803711,4.152701377868652,0.6358446478843689,-0.3546886146068573,-1.0177258253097534,0
902,9.456939697265625,11.33578109741211,4.610576629638672,0.59881991147995,-0.279186487197876,-0.9748028516769409,0
903,7.346550464630127,25.7794132232666,4.589352130889893,0.45681118965148926,-0.125752255320549,-0.9344814419746399,0
904,2.7554855346679688,30.517711639404297,4.902731418609619,0.023567132651805878,-0.022018440067768097,-0.872465968132019,0
905,-1.7727272510528564,33.11808776855469,5.989262104034424,-0.30377301573753357,-0.027478277683258057,-0.818986177444458,0
906,-6.183151721954346,25.552770614624023,5.4636430740356445,-0.7031477689743042,-0.0917956754565239,-0.7478768229484558,0
907,-9.355363845825195,14.557479858398438,4.813406467437744,-0.9186116456985474,-0.24142244458198547,-0.6935173869132996,0
908,-9.933463096618652,2.4375603199005127,4.441706657409668,-0.7331949472427368,-0.3449261784553528,-0.6704204678535461,0
909,-9.332328796386719,-18.89335823059082,4.112721920013428,-0.6826231479644775,-0.5055289268493652,-0.6214549541473389,0
910,-7.878406524658203,-26.4260196685791,3.994819164276123,-0.6902558207511902,-0.5183241367340088,-0.5504570007324219,0
911,-4.652332305908203,-27.22901725769043,3.583199977874756,-0.31706541776657104,-0.6314193606376648,-0.5235229134559631,0
912,0.5368649363517761,-23.497121810913086,2.328026533126831,0.08332475274801254,-0.5403962731361389,-0.5052064657211304,0
913,4.651790618896484,-14.601480484008789,2.0091378688812256,0.22620032727718353,-0.5851221084594727,-0.47405827045440674,0
914,6.308768272399902,-1.2448875904083252,2.2225325107574463,0.1385042518377304,-0.512216329574585,-0.4311821758747101,0
915,8.523177146911621,12.185800552368164,2.3523757457733154,0.11211221665143967,-0.4129539430141449,-0.41352537274360657,0
916,6.996406078338623,14.480186462402344,2.6976845264434814,-0.03221863508224487,-0.217904195189476,-0.3919975161552429,0
917,5.096989631652832,13.591832160949707,2.201915979385376,-0.20876474678516388,-0.1978278011083603,-0.3619783818721771,0
918,1.008018970489502,12.203380584716797,2.7377851009368896,-0.4258143901824951,-0.16995736956596375,-0.32558777928352356,0
919,-2.3634204864501953,8.13331413269043,3.1081459522247314,-0.443020224571228,-0.3434297740459442,-0.3027142882347107,0
920,-6.412113666534424,2.556104898452759,3.319369077682495,-0.4469756782054901,-0.4182949662208557,-0.27557897567749023,0
921,-8.243008613586426,-3.9219539165496826,3.995229959487915,-0.3145040273666382,-0.4674704074859619,-0.25411689281463623,0
922,-8.113851547241211,-13.1415433883667,4.203897476196289,-0.26597118377685547,-0.5299277901649475,-0.20550450682640076,0
923,-5.724599838256836,-17.792966842651367,5.044534206390381,0.09005960822105408,-0.6476494669914246,-0.1844322234392166,0
924,-3.541858673095703,-16.709848403930664,4.75501012802124,-0.025120891630649567,-0.7299728393554688,-0.0904107391834259,0
925,3.0126311779022217,-11.06878662109375,5.187628746032715,0.11238306015729904,-0.7554226517677307,-0.03959674760699272,0
926,7.3522047996521,-4.487514019012451,4.086877346038818,0.21374857425689697,-0.6015294194221497,0.0058282408863306046,0
927,9.839441299438477,3.1396915912628174,3.283360481262207,0.3425465226173401,-0.6175777912139893,0.0317753404378891,0
928,9.423432350158691,9.215991973876953,2.6247897148132324,0.3014005422592163,-0.44819575548171997,0.05605078861117363,0
929,8.18690013885498,14.55880069732666,3.9947240352630615,0.09016897529363632,-0.44553524255752563,0.10348313301801682,0
930,6.697869300842285,16.24283790588379,3.2769434452056885,-0.03187181428074837,-0.37559330463409424,0.13369473814964294,0
931,2.9545135498046875,13.713456153869629,3.295508623123169,-0.15925200283527374,-0.2899342477321625,0.15848706662654877,0
932,1.3116419315338135,10.232672691345215,3.0147366523742676,-0.35587382316589355,-0.23216040432453156,0.2010491043329239,0
933,-1.0513228178024292,4.8738884925842285,2.1420998573303223,-0.33112573623657227,-0.22237110137939453,0.21010906994342804,0
934,-3.2023966312408447,0.010069502517580986,3.004578113555908,-0.30470553040504456,-0.2482660710811615,0.23072990775108337,0
935,-6.203986167907715,-11.472738265991211,3.5760843753814697,-0.23925742506980896,-0.3081074357032776,0.2673456370830536,0
936,-5.642629623413086,-17.68919563293457,3.7127716541290283,-0.030397534370422363,-0.40310436487197876,0.30039864778518677,0
937,-2.772719144821167,-18.474945068359375,4.164786338806152,0.29878392815589905,-0.3933367431163788,0.31992149353027344,0
938,-0.9066481590270996,-17.89279556274414,4.760466575622559,0.3546610176563263,-0.41644221544265747,0.3787240982055664,0
939,3.80135178565979,-12.983779907226562,4.969705104827881,0.5706419944763184,-0.4587000608444214,0.4255049526691437,0
940,6.098637580871582,-3.3470163345336914,5.31283712387085,0.5313379168510437,-0.35838934779167175,0.4901089072227478,0
941,10.389932632446289,4.634563446044922,5.0668535232543945,0.255002498626709,-0.21890993416309357,0.5687534213066101,0
942,10.116581916809082,15.962970733642578,5.707948207855225,0.16344180703163147,-0.040784887969493866,0.6149671673774719,0
943,7.675230503082275,19.62034797668457,6.502666473388672,-0.11715076118707657,0.09291491657495499,0.6826661825180054,0
944,4.629435062408447,17.611324310302734,5.701857089996338,-0.32205259799957275,-0.016239628195762634,0.760170578956604,0
945,-1.9126325845718384,12.687138557434082,5.331562042236328,-0.4546455442905426,0.004481702111661434,0.8120105862617493,0
946,-4.153277397155762,2.5229361057281494,4.173153877258301,-0.4820291996002197,-0.040085677057504654,0.8616989850997925,0
947,-6.580502986907959,-7.6622185707092285,4.789904594421387,-0.46027928590774536,-0.05373042821884155,0.9045698046684265,0
948,-8.229782104492188,-23.515642166137695,5.156758785247803,-0.17934775352478027,-0.15250514447689056,0.9484143257141113,0
949,-7.668278217315674,-31.706647872924805,3.9878501892089844,0.36047932505607605,-0.2785584628582001,0.9808403253555298,0
950,-5.92559289932251,-29.719881057739258,3.430767059326172,0.3399781286716461,-0.3124634623527527,1.03673255443573,0
951,0.19862760603427887,-20.3886661529541,2.3402416706085205,0.8763080835342407,-0.34798142313957214,1.0543807744979858,0
952,5.3927412033081055,-7.251971244812012,2.4094583988189697,0.9197855591773987,-0.3075740337371826,1.0864768028259277,0
953,9.286806106567383,7.006088733673096,1.4142708778381348,0.8965268731117249,-0.19013728201389313,1.1047619581222534,0
954,13.723343849182129,21.69044303894043,1.1146512031555176,0.6579890847206116,-0.08909299969673157,1.1246684789657593,0
955,13.84726619720459,30.567228317260742,1.3006222248077393,0.43711358308792114,0.13355450332164764,1.1205960512161255,0
956,9.756172180175781,33.58667755126953,1.317042589187622,0.044515032321214676,0.1984539031982422,1.142629861831665,0
957,4.2817702293396,29.99137306213379,1.1853846311569214,-0.2818339169025421,0.33623799681663513,1.148745059967041,0
958,0.0043708691373467445,17.720294952392578,0.37089815735816956,-0.43151989579200745,0.3776944577693939,1.149380087852478,0
959,-4.781551837921143,6.464134693145752,0.19170528650283813,-0.4320227801799774,0.25814568996429443,1.1597684621810913,0
960,-10.67077350616455,-9.037671089172363,0.7860899567604065,-0.2933008372783661,0.14420120418071747,1.162928819656372,0
961,-14.450813293457031,-20.399723052978516,-0.33378469944000244,-0.16538769006729126,-0.046048615127801895,1.1666886806488037,0
962,-13.253408432006836,-24.432741165161133,-1.3333940505981445,0.15912090241909027,-0.26268270611763,1.1603025197982788,0
963,-7.798166751861572,-20.82330894470215,-2.395961046218872,0.6325097680091858,-0.43765828013420105,1.1463028192520142,0
964,-1.514825463294983,-9.497676849365234,-2.2440409660339355,0.489750474691391,-0.38077276945114136,1.1162506341934204,0
965,5.3239288330078125,6.8031697273254395,-2.312892436981201,0.439045250415802,-0.3447723686695099,1.091506004333496,0
966,11.465460777282715,21.558534622192383,-2.6395041942596436,0.33320391178131104,-0.19290950894355774,1.0587214231491089,0
