,gyro.x,gyro.y,gyro.z,stabilizer.pitch,stabilizer.roll,stabilizer.yaw,label
0,-0.011022612452507019,0.002416010247543454,0.12152907997369766,0.2852100729942322,-0.8811762928962708,-7.687713146209717,4
1,-0.07597294449806213,0.043897539377212524,0.0916261300444603,0.28498008847236633,-0.7959793210029602,-7.678796291351318,4
2,-0.10971657931804657,0.0003420179709792137,0.03475476801395416,0.2140951156616211,-0.8032146692276001,-7.672030925750732,4
3,-0.019969359040260315,-0.08264077454805374,0.06584018468856812,0.231710746884346,-0.8097025156021118,-7.6635870933532715,4
4,-0.07641413807868958,0.0010688919574022293,0.10345136374235153,0.246042400598526,-0.8833644986152649,-7.655994415283203,4
5,-0.058436088263988495,0.022187627851963043,0.07725142687559128,0.32545116543769836,-0.8000485301017761,-7.644460678100586,4
6,-0.08690103888511658,0.06872034817934036,0.092269666492939,0.3148045241832733,-0.8061771988868713,-7.636518955230713,4
7,-0.1429728865623474,-0.016440287232398987,0.0957079529762268,0.30649328231811523,-0.8114888668060303,-7.6282639503479,4
8,-0.12380717694759369,-0.05297379568219185,0.12915611267089844,0.3062696158885956,-0.8119345903396606,-7.619637489318848,4
9,-0.08838654309511185,0.0389564111828804,0.140165314078331,0.3064282536506653,-0.8122622966766357,-7.611143112182617,4
10,-0.1216849833726883,-0.032320283353328705,0.10670918226242065,0.3028242588043213,-0.8837964534759521,-7.602737903594971,4
11,-0.13057711720466614,0.002633730648085475,0.07018191367387772,0.30048978328704834,-0.8008139729499817,-7.594396591186523,4
12,-0.025482721626758575,0.1258920133113861,0.11398109048604965,0.2976445257663727,-0.8073723316192627,-7.586155891418457,4
13,-0.1430637389421463,-0.09967859089374542,0.15158697962760925,0.29706713557243347,-0.8071500658988953,-7.577595233917236,4
14,-0.006408234592527151,0.007455756422132254,-0.05731659010052681,0.3650206923484802,-0.811382532119751,-7.567432403564453,4
15,-0.0912606492638588,-0.004187289625406265,0.07392151653766632,0.2798409163951874,-0.8135164380073547,-7.562152862548828,4
16,-0.1598053127527237,0.0820404589176178,-0.037715665996074677,0.2852400243282318,-0.8025490045547485,-7.553498268127441,4
17,-0.02240077219903469,-0.048100538551807404,0.05520074814558029,0.28427383303642273,-0.803088903427124,-7.545957565307617,4
18,-0.014732321724295616,-0.031058287248015404,0.15365691483020782,0.28476718068122864,-0.8024082779884338,-7.537871360778809,4
19,-0.15629033744335175,-0.09407483041286469,0.09142965823411942,0.28662818670272827,-0.8734980821609497,-7.529333114624023,4
20,-0.15551865100860596,-0.008904494345188141,0.027123719453811646,0.3554079532623291,-0.8618345856666565,-7.519894599914551,4
21,0.01472693681716919,-0.03690611571073532,0.08753661066293716,0.3395899832248688,-0.8529013395309448,-7.512366771697998,4
22,0.03212985023856163,0.00424042996019125,0.0857328325510025,0.2608337998390198,-0.777739405632019,-7.506159782409668,4
23,-0.1302119493484497,-0.026983771473169327,0.020615292713046074,0.2678616940975189,-0.7869569659233093,-7.497950553894043,4
24,-0.06485837697982788,-0.0559779517352581,0.09460251778364182,0.27769213914871216,-0.8028590083122253,-7.48972225189209,4
25,0.03778383508324623,0.07826360315084457,0.12307845056056976,0.2775292992591858,-0.8029616475105286,-7.48137903213501,4
26,-0.04983384907245636,0.007299169898033142,0.18638403713703156,0.2767886519432068,-0.8020032644271851,-7.472559452056885,4
27,-0.17982551455497742,0.09401492774486542,-0.041174981743097305,0.27841717004776,-0.8726489543914795,-7.4640984535217285,4
28,-0.049118999391794205,-0.09773866832256317,0.08274239301681519,0.28033676743507385,-0.793528139591217,-7.456356525421143,4
29,-0.024166835471987724,-0.09468264877796173,0.12840761244297028,0.28087127208709717,-0.793491542339325,-7.448307991027832,4
30,-0.036870650947093964,0.0890650525689125,-0.02530078776180744,0.28130075335502625,-0.7933486104011536,-7.439823150634766,4
31,-0.020515982061624527,0.07716739177703857,0.09156487137079239,0.2804831266403198,-0.793237030506134,-7.432800769805908,4
32,0.016224533319473267,-0.04678741842508316,0.07746899127960205,0.2800624668598175,-0.7926231622695923,-7.424874782562256,4
33,-0.029199576005339622,-0.0007727969205006957,0.02796272188425064,0.28067871928215027,-0.8597003817558289,-7.417535305023193,4
34,-0.2041819840669632,-0.10066348314285278,0.09444116055965424,0.28164228796958923,-0.8458955883979797,-7.409244537353516,4
35,0.028780046850442886,-0.06694857776165009,0.10519681125879288,0.3480204641819,-0.8348627090454102,-7.3995771408081055,4
36,-0.1260857731103897,0.09884504228830338,0.03560126572847366,0.3322924077510834,-0.8259314298629761,-7.391601085662842,4
37,-0.07875937968492508,-0.06752823293209076,0.040761347860097885,0.2562185525894165,-0.820137619972229,-7.385454177856445,4
38,-0.03647333383560181,-0.14295101165771484,0.08871276676654816,0.26446354389190674,-0.751527726650238,-7.377018928527832,4
39,-0.14765918254852295,-0.0822606310248375,0.11575505882501602,0.2708530128002167,-0.7645233273506165,-7.368639945983887,4
40,-0.07930990308523178,-0.016451561823487282,-0.045725855976343155,0.2752385139465332,-0.8394778370857239,-7.36067008972168,4
41,-0.1174420714378357,-0.0889623761177063,-0.048345379531383514,0.2790193557739258,-0.8314725160598755,-7.3532538414001465,4
42,-0.09883753955364227,-0.02856704406440258,0.06065654382109642,0.2815147042274475,-0.7616381049156189,-7.3456130027771,4
43,-0.2078549861907959,-0.15387585759162903,-0.018791286274790764,0.2840058505535126,-0.7742541432380676,-7.337348937988281,4
44,-0.11835755407810211,0.0011568610789254308,0.04208315163850784,0.2857952415943146,-0.7837854623794556,-7.329528331756592,4
45,0.020325642079114914,0.04009760543704033,0.021823758259415627,0.2869888246059418,-0.7903653383255005,-7.32170295715332,4
46,-0.0981556847691536,-0.038976892828941345,0.07120244204998016,0.2864640951156616,-0.7899646162986755,-7.3144755363464355,4
47,-0.11111962050199509,-0.043840356171131134,0.10150744765996933,0.28633323311805725,-0.7901015281677246,-7.306421279907227,4
48,-0.06981708854436874,-0.10172615200281143,0.11079888790845871,0.2862536907196045,-0.7904021739959717,-7.298260688781738,4
49,-0.21552853286266327,-0.0324249193072319,0.11823595315217972,0.2869611084461212,-0.7904455661773682,-7.290069580078125,4
50,-0.04503239318728447,-0.1144021600484848,-0.004538527224212885,0.28730955719947815,-0.7909941077232361,-7.281740188598633,4
51,-0.11517457664012909,0.05848919600248337,0.11086169630289078,0.2876393795013428,-0.8534201979637146,-7.274548053741455,4
52,-0.24070623517036438,0.09239131212234497,-0.09863998740911484,0.28638800978660583,-0.7781474590301514,-7.266202449798584,4
53,-0.02280312217772007,-0.056584183126688004,0.11157536506652832,0.28645187616348267,-0.8448749780654907,-7.259686470031738,4
54,-0.07812481373548508,-0.038189250975847244,0.12747816741466522,0.2875809073448181,-0.8323307037353516,-7.251547336578369,4
55,0.03717251494526863,-0.07798410952091217,0.08905182033777237,0.2886089086532593,-0.8219476342201233,-7.243450164794922,4
56,0.04393297806382179,-0.10267399996519089,0.030027810484170914,0.3518630266189575,-0.8137112259864807,-7.234192848205566,4
57,-0.06152292713522911,0.022632669657468796,0.04258986935019493,0.27377763390541077,-0.7458651065826416,-7.228386878967285,4
58,-0.016655800864100456,-0.04009730741381645,0.18106552958488464,0.27778124809265137,-0.7582974433898926,-7.220561504364014,4
59,-0.17314277589321136,0.027297640219330788,0.1243632361292839,0.2810277044773102,-0.7685698866844177,-7.2116780281066895,4
60,-0.13460245728492737,-0.020260844379663467,0.017502181231975555,0.2838858962059021,-0.7777416110038757,-7.203436374664307,4
61,0.004096063785254955,-0.015240740962326527,-0.030492672696709633,0.28566741943359375,-0.783892035484314,-7.196022033691406,4
62,-0.12780843675136566,0.06433644145727158,0.08957979083061218,0.28528445959091187,-0.7829344272613525,-7.188619136810303,4
63,-0.06449064612388611,0.07101920247077942,0.02233937568962574,0.28446877002716064,-0.7834017872810364,-7.180543422698975,4
64,-0.08907709270715714,-0.0372011736035347,0.12902237474918365,0.28362837433815,-0.7835878133773804,-7.17257833480835,4
65,-0.10907050967216492,-0.004707300569862127,0.021158626303076744,0.2837497591972351,-0.7833842039108276,-7.164231300354004,4
66,-0.0668390691280365,0.030394237488508224,0.08640944957733154,0.28346285223960876,-0.7835635542869568,-7.156686305999756,4
67,-0.19558385014533997,0.1078440472483635,0.17593926191329956,0.28248733282089233,-0.7836353778839111,-7.148837566375732,4
68,-0.1347222626209259,-0.020640358328819275,0.04290737211704254,0.28109923005104065,-0.7841693162918091,-7.140285968780518,4
69,-0.05145154893398285,-0.014949643984436989,0.03881534934043884,0.28058546781539917,-0.7841074466705322,-7.132489204406738,4
70,-0.17577846348285675,0.06294424831867218,0.004810289014130831,0.0,0.0,0.0,4
71,-0.1670108586549759,0.009319632314145565,0.0427088625729084,0.00025777751579880714,-0.001516563119366765,-0.00010887484677368775,4
72,-0.008313266560435295,0.007003869861364365,0.12310715019702911,0.014825073070824146,-0.39346134662628174,0.00044138228986412287,4
73,-0.03328947350382805,-0.03502922132611275,0.05048871412873268,0.0350322462618351,0.19956466555595398,0.0012779866810888052,4
74,-0.0059914966113865376,0.07505020499229431,0.11652684211730957,0.05526193231344223,0.0801081731915474,0.001974609214812517,4
75,0.05908883363008499,0.043344348669052124,0.12628580629825592,0.07931406795978546,-0.03566751629114151,0.0027721324004232883,4
76,-0.04827529191970825,0.012597771361470222,0.05452685058116913,0.10587175190448761,-0.6820855140686035,0.0048624370247125626,4
77,-0.12054570764303207,-0.01961449161171913,0.155032217502594,0.13286927342414856,-0.07339531183242798,0.004365683067589998,4
78,-0.1571975201368332,0.19967876374721527,0.008881699293851852,-0.3321877717971802,-0.20513656735420227,0.006351092364639044,4
79,-0.048053059726953506,-0.06705739349126816,0.05681714788079262,-0.1420641839504242,-0.3023117184638977,0.006342756561934948,4
80,-0.047004394233226776,0.035173043608665466,0.04182970151305199,-0.016449647024273872,-0.7898463606834412,0.006210278254002333,4
81,-0.08455803990364075,-0.03627540543675423,0.033484283834695816,0.4515189230442047,-0.33166375756263733,0.005936079192906618,4
82,-0.01805092580616474,-0.046509552747011185,0.11904434114694595,0.38837653398513794,-0.4062035083770752,0.007283016573637724,4
83,-0.1395871639251709,0.07991151511669159,0.03488801047205925,0.3420904576778412,-0.46569186449050903,0.008550385013222694,4
84,-0.10332224518060684,-0.11539483815431595,-0.011064535938203335,0.316847562789917,-0.5123094916343689,0.009318919852375984,4
85,-0.1956043839454651,-0.05840972438454628,0.06850600987672806,0.30023154616355896,-0.5523437857627869,0.009676164947450161,4
86,-0.15221817791461945,0.09392544627189636,0.08803588151931763,0.286446213722229,-0.5841892957687378,0.010579532012343407,4
87,-0.16550542414188385,-0.06657508760690689,0.03954863175749779,0.28038713335990906,-0.6102865934371948,0.011397024616599083,4
88,0.015479495748877525,-0.06480839848518372,0.0784321054816246,0.05093245953321457,-0.6282467246055603,0.013630075380206108,4
89,-0.06368760764598846,-0.03311868757009506,0.06978701055049896,0.11776919662952423,-0.6441872715950012,0.014139029197394848,4
90,-0.13096049427986145,-0.043791066855192184,0.050105877220630646,0.1652960330247879,-0.6598175764083862,0.014608648605644703,4
91,-0.16169358789920807,0.03442057967185974,0.09872360527515411,0.19756972789764404,-0.6743254661560059,0.014954858459532261,4
92,-0.09009511768817902,0.03846940025687218,0.08738211542367935,0.22016969323158264,-0.6851645112037659,0.015775971114635468,4
93,-0.039888620376586914,-0.11170763522386551,0.054966021329164505,0.2383275181055069,-0.6923980712890625,0.01627465896308422,4
94,-0.037595588713884354,0.025515969842672348,-0.05869161710143089,0.41729816794395447,-0.8657724857330322,0.016254106536507607,4
95,-0.021323049440979958,0.0522792711853981,0.005884287878870964,0.37433773279190063,-0.8216230869293213,0.01612601801753044,4
96,-0.1577681303024292,-0.017558274790644646,0.05343781039118767,0.3450380265712738,-0.7924572229385376,0.01665123738348484,4
97,-0.02138742245733738,-0.04042034223675728,0.07570579648017883,0.32523342967033386,-0.6208174824714661,0.015211107209324837,4
98,-0.07558216154575348,0.01513986848294735,0.05388977378606796,0.3111729621887207,-0.651496946811676,0.016555091366171837,4
99,-0.07984326779842377,0.06950747966766357,0.13294099271297455,0.30002492666244507,-0.6737014055252075,0.01766693778336048,4
100,-0.17492054402828217,0.12418948113918304,0.1492241770029068,0.43002966046333313,-0.6910063624382019,0.01752600446343422,4
101,-0.13149523735046387,-0.14383187890052795,0.1029420867562294,0.387347012758255,-0.7036139965057373,0.01949797198176384,4
102,-0.08093924075365067,-0.044511426240205765,0.08627840876579285,0.22598448395729065,-0.7125406861305237,0.022675031796097755,4
103,-0.04767513647675514,-0.025602469220757484,0.11886293441057205,0.24241234362125397,-0.8465883731842041,0.02524249628186226,4
104,-0.01213882677257061,-0.04333096370100975,0.008259949274361134,0.2543801963329315,-0.813389241695404,0.026105253025889397,4
105,-0.07959438860416412,0.06834437698125839,0.02497870661318302,0.26213401556015015,-0.7909024357795715,0.026072977110743523,4
106,-0.037790168076753616,0.04934033751487732,0.080790676176548,0.26732754707336426,-0.7756786942481995,0.026150044053792953,4
107,-0.033574752509593964,-0.06753357499837875,0.05723249167203903,0.2723606526851654,-0.7651413083076477,0.02691899985074997,4
108,0.026189249008893967,-0.05707572400569916,0.055981289595365524,0.27650731801986694,-0.6424648761749268,0.026572832837700844,4
109,-0.05826013535261154,0.0918005034327507,-0.03429873287677765,0.2779155373573303,-0.6709109544754028,0.02748819813132286,4
110,-0.07276879251003265,-0.09124372154474258,0.11761962622404099,0.2804531157016754,-0.6933405995368958,0.0273380596190691,4
111,-0.11040821671485901,-0.1275966614484787,0.020202483981847763,0.28407737612724304,-0.7107904553413391,0.028220299631357193,4
112,-0.111687071621418,-0.10470971465110779,0.04940672218799591,0.2872334420681,-0.7242849469184875,0.02822938747704029,4
113,-0.060672931373119354,-0.021885856986045837,0.0989823117852211,0.28868550062179565,-0.7341944575309753,0.028627146035432816,4
114,-0.02813781425356865,-0.029987996444106102,0.0015436033718287945,0.18466810882091522,-0.7420752644538879,0.03082949109375477,4
115,-0.0560138002038002,-0.022736795246601105,0.057732436805963516,0.214814230799675,-0.7484530210494995,0.030754778534173965,4
116,-0.07054967433214188,0.02196994051337242,0.11069365590810776,0.23623773455619812,-0.857014000415802,0.03168557211756706,4
117,-0.016303492709994316,-0.031666189432144165,0.10703384876251221,0.2524784505367279,-0.8320726752281189,0.03233196586370468,4
118,-0.08539040386676788,0.08491364121437073,0.012953365221619606,0.26381564140319824,-0.8135704398155212,0.03280520439147949,4
119,-0.029543286189436913,-0.10771999508142471,0.1259913593530655,0.27363869547843933,-0.7989526987075806,0.032739076763391495,4
120,-0.06559912115335464,-0.006520021706819534,0.04437122493982315,0.2811422646045685,-0.788051426410675,0.03334266319870949,4
121,-0.11532101780176163,0.02999882586300373,0.09663362801074982,0.28574126958847046,-0.7803739905357361,0.03401060402393341,4
122,-0.06196282058954239,0.06933151185512543,0.06207951903343201,0.4984283745288849,-0.7756970524787903,0.03172753006219864,4
123,-0.0671975314617157,-0.057256367057561874,0.13079547882080078,0.34381869435310364,-0.772784948348999,0.034456416964530945,4
124,-0.07257183641195297,-0.04789242893457413,0.04756529629230499,0.34386494755744934,-0.7727898359298706,0.035411760210990906,4
125,-0.09714295715093613,-0.043336305767297745,0.08520292490720749,0.33231285214424133,-0.6686586141586304,0.03483504056930542,4
126,-0.06013277918100357,-0.1546245962381363,0.023674115538597107,0.32400521636009216,-0.6944076418876648,0.03608568012714386,4
127,-0.10531601309776306,0.03361509367823601,0.0642969086766243,0.3194042146205902,-0.8138486742973328,0.03810149431228638,4
128,-0.19200807809829712,0.051308777183294296,0.040213409811258316,0.3131396472454071,-0.8043692708015442,0.03840034082531929,4
129,-0.08457396924495697,0.055444180965423584,0.09103621542453766,0.3078158497810364,-0.7989220023155212,0.03857617825269699,4
130,-0.05146392062306404,-0.04527472332119942,0.06878368556499481,0.303524911403656,-0.6971885561943054,0.03826162964105606,4
131,-0.040407441556453705,0.033373311161994934,0.0924210473895073,0.3009154796600342,-0.7184028029441833,0.03957602381706238,4
132,-0.1178104430437088,-0.051999617367982864,0.16479076445102692,0.2980550229549408,-0.7346377968788147,0.040791068226099014,4
133,-0.0482037179172039,-0.1381557434797287,0.17712686955928802,0.2971937954425812,-0.7493222951889038,0.042298149317502975,4
134,-0.026478584855794907,-0.01184840127825737,0.15691111981868744,0.29813674092292786,-0.7593355774879456,0.043515369296073914,4
135,-0.06886769831180573,-0.1651928722858429,0.08325821161270142,0.29677072167396545,-0.7666123509407043,0.04461336135864258,4
136,-0.09898904711008072,-0.06625974923372269,0.08462127298116684,0.29779765009880066,-0.7729150652885437,0.04547259956598282,4
137,-0.10810011625289917,-0.11712298542261124,0.09203211963176727,0.29749593138694763,-0.7788348197937012,0.04615192115306854,4
138,-0.15031051635742188,-0.06317257881164551,0.08350382000207901,0.29803919792175293,-0.7793946862220764,0.04691247642040253,4
139,-0.17516908049583435,-0.04669886827468872,0.18902817368507385,0.2124280333518982,-0.7845368981361389,0.04885783791542053,4
140,-0.04911664500832558,-0.06524693965911865,0.11471785604953766,0.2334240972995758,-0.7889286279678345,0.050262194126844406,4
141,-0.07057475298643112,-0.057433001697063446,0.07075822353363037,0.2498866766691208,-0.7917218208312988,0.05125916376709938,4
142,0.03688948228955269,-0.043060384690761566,0.0802372619509697,0.26217013597488403,-0.7939428687095642,0.05194786936044693,4
143,-0.19485582411289215,-0.044262852519750595,0.06929919123649597,0.2708672881126404,-0.8758140802383423,0.05286450684070587,4
144,-0.09131623059511185,-0.03230643644928932,0.0753832459449768,0.27704930305480957,-0.8590437769889832,0.0533343143761158,4
145,-0.03244076669216156,-0.0038412960711866617,0.06374814361333847,0.2814957797527313,-0.8452328443527222,0.05373259261250496,4
146,-0.08531975001096725,0.021134542301297188,0.142010897397995,0.3633946478366852,-0.7553155422210693,0.052711620926856995,4
147,-0.2697412371635437,0.018110012635588646,0.06554987281560898,0.3453446924686432,-0.7673560976982117,0.0541645772755146,4
148,-0.10443626344203949,-0.06690561026334763,-0.05008747801184654,0.3313203454017639,-0.7791229486465454,0.055180393159389496,4
149,-0.007545237895101309,-0.029304353520274162,0.10711771249771118,0.3219064772129059,-0.7861382961273193,0.05529622733592987,4
150,-0.14594101905822754,0.00028434087289497256,0.10795574635267258,0.3147181570529938,-0.8660446405410767,0.05731899291276932,4
151,-0.05838422104716301,0.005921763367950916,0.03254697844386101,0.3086160719394684,-0.7766305208206177,0.05753179267048836,4
152,-0.0718805193901062,0.074393130838871,0.08170361071825027,0.22892597317695618,-0.7830374836921692,0.05896097049117088,4
153,-0.13316334784030914,0.0484701506793499,0.059296220541000366,0.2430334836244583,-0.7881188988685608,0.05974295362830162,4
154,-0.043498314917087555,-0.004896997474133968,-0.027137212455272675,0.2542518973350525,-0.7933998107910156,0.060220032930374146,4
155,-0.019755488261580467,-0.020840605720877647,0.0978507399559021,0.2629411518573761,-0.7971389889717102,0.05997594818472862,4
156,-0.08734007179737091,-0.05403898283839226,0.13535627722740173,0.3432781994342804,-0.7999598979949951,0.06029573455452919,4
157,-0.15684351325035095,0.038234103471040726,0.0890113115310669,0.33080315589904785,-0.8025140166282654,0.06153629347681999,4
158,-0.11407214403152466,0.08558934926986694,0.10352155566215515,0.3123718500137329,-0.7895888686180115,0.062354154884815216,4
159,-0.04789634048938751,0.0683090090751648,0.026200631633400917,0.31141963601112366,-0.7897981405258179,0.063188336789608,4
160,-0.14088311791419983,-0.031759172677993774,0.13471372425556183,0.31075459718704224,-0.7897709608078003,0.06352896988391876,4
161,-0.05491781234741211,-0.01251426711678505,0.020724114030599594,0.3108193576335907,-0.7903798222541809,0.06455183029174805,4
162,-0.07503601163625717,-0.08111278712749481,0.10699346661567688,0.31054022908210754,-0.7902143597602844,0.06483496725559235,4
163,-0.0984930694103241,-0.0453282855451107,0.05772705748677254,0.3108983337879181,-0.7904545068740845,0.06580135971307755,4
164,-0.03913399204611778,0.024981699883937836,0.02467762492597103,0.30922988057136536,-0.8625802993774414,0.0669410228729248,4
165,-0.08368092030286789,-0.024236604571342468,0.018846964463591576,0.30676373839378357,-0.7777608036994934,0.06621189415454865,4
166,-0.01911120116710663,-0.04344376176595688,0.04365910217165947,0.30554166436195374,-0.850058913230896,0.06689911335706711,4
167,-0.09982267767190933,0.005521724466234446,0.1115959957242012,0.3048902750015259,-0.8352597951889038,0.06711307913064957,4
168,-0.10581673681735992,-0.05642421171069145,0.1367398053407669,0.32087281346321106,-0.8170401453971863,0.06740625202655792,4
169,0.030860591679811478,-0.07129411399364471,0.07498987019062042,0.31716057658195496,-0.742458701133728,0.06794281303882599,4
170,-0.11339680850505829,-0.019500797614455223,0.0009400296839885414,0.314148873090744,-0.8240422010421753,0.06944859772920609,4
171,-0.1382216513156891,-0.07364257425069809,0.043182920664548874,0.31161412596702576,-0.7490657567977905,0.06935129314661026,4
172,-0.16488511860370636,-0.038250748068094254,0.043028805404901505,0.30997082591056824,-0.7624812722206116,0.07037775218486786,4
173,-0.10601756721735,0.026947956532239914,0.12194962799549103,0.3084627389907837,-0.7731837630271912,0.07092437148094177,4
174,-0.017151257023215294,-0.04699813947081566,0.19120152294635773,0.3070526719093323,-0.7811964154243469,0.0718391165137291,4
175,-0.09811598062515259,0.0692995935678482,0.06637649983167648,0.3047284483909607,-0.7877303957939148,0.0731932669878006,4
176,-0.08325912803411484,-0.02958635240793228,0.1180926263332367,0.3040269911289215,-0.7879284620285034,0.07342053204774857,4
177,-0.08001489192247391,-0.011203736998140812,0.03294457495212555,0.30397671461105347,-0.788061261177063,0.0743493065237999,4
178,0.005948723293840885,0.09963108599185944,0.07798635214567184,0.303716242313385,-0.7879304885864258,0.07480589300394058,4
179,-0.06165199354290962,0.046966228634119034,0.14782990515232086,0.3023654818534851,-0.7871300578117371,0.07557649910449982,4
180,-0.04197264835238457,-0.09714018553495407,0.06583794951438904,0.3015696704387665,-0.7868608236312866,0.07690802216529846,4
181,0.010888157412409782,-0.03914596512913704,0.0033255068119615316,0.23460420966148376,-0.7882346510887146,0.07788020372390747,4
182,-0.107721246778965,-0.05668104439973831,0.1583867222070694,0.3174789547920227,-0.7900347113609314,0.07806141674518585,4
183,-0.0017392023000866175,-0.009165293537080288,0.13880079984664917,0.3173002302646637,-0.7904828190803528,0.07943234592676163,4
184,-0.15173275768756866,0.05164818465709686,0.12845371663570404,0.3169756233692169,-0.7900643944740295,0.08066093921661377,4
185,-0.1546749770641327,-0.01283086184412241,0.10737671703100204,0.3162134885787964,-0.790619969367981,0.08170425146818161,4
186,-0.03513979911804199,0.005555369425565004,0.136849045753479,0.31582140922546387,-0.791459858417511,0.08268489688634872,4
187,-0.06631452590227127,-0.020553141832351685,0.1027316302061081,0.3140360414981842,-0.8547223806381226,0.08410321921110153,4
188,-0.13242873549461365,-0.05951026454567909,0.09409062564373016,0.3128931522369385,-0.7758424282073975,0.08457101136445999,4
189,-0.03338214382529259,0.08110129833221436,0.09689165651798248,0.3129463493824005,-0.7763908505439758,0.08541855961084366,4
190,-0.11449632793664932,-0.009361553005874157,0.10957452654838562,0.3121178150177002,-0.7762733101844788,0.08620568364858627,4
191,-0.05225355923175812,0.0068801650777459145,0.01057018805295229,0.31179383397102356,-0.7764931321144104,0.08710062503814697,4
192,-0.031932223588228226,0.09017569571733475,0.06522442400455475,0.311471164226532,-0.7761247754096985,0.08711021393537521,4
193,-0.1394537389278412,0.0408865362405777,0.052202675491571426,0.24772454798221588,-0.7789725065231323,0.0876479297876358,4
194,-0.17461775243282318,-0.07120446860790253,0.054948482662439346,0.26432594656944275,-0.8452996015548706,0.08853524178266525,4
195,-0.12742982804775238,0.0050993687473237514,0.10842689126729965,0.27774205803871155,-0.8311254978179932,0.08927766978740692,4
196,-0.01169213093817234,-0.05291813239455223,0.061510976403951645,0.2877345383167267,-0.7561878561973572,0.09032318741083145,4
197,-0.1084488183259964,-0.014775322750210762,-0.0366358608007431,0.29532045125961304,-0.7645278573036194,0.09094962477684021,4
198,0.005923841614276171,-0.0985061526298523,0.1382007747888565,0.30129632353782654,-0.7707062363624573,0.09089979529380798,4
199,-0.11596346646547318,-0.056331343948841095,-0.007498571183532476,0.30189985036849976,-0.7702198624610901,0.09184426814317703,4
200,-0.002605428919196129,0.0028668073937296867,0.11087625473737717,0.4332369565963745,-0.8386461138725281,0.09269338846206665,4
201,-0.028130078688263893,0.06432382017374039,0.18779809772968292,0.33527567982673645,-0.7594699263572693,0.09270618855953217,4
202,-0.00990759115666151,-0.0696905255317688,0.1321522295475006,0.3269614279270172,-0.7656458020210266,0.09434524178504944,4
203,-0.11900485306978226,0.019687963649630547,-0.007778687868267298,0.320726215839386,-0.7713542580604553,0.09530399739742279,4
204,-0.08094824850559235,-0.08514478802680969,0.1124378964304924,0.3201616108417511,-0.7717052698135376,0.09531862288713455,4
205,-0.08354711532592773,0.050079986453056335,0.033099912106990814,0.38162335753440857,-0.7755070924758911,0.09652935713529587,4
206,-0.0015441542491316795,0.013672035187482834,0.14128579199314117,0.3607324957847595,-0.7781510949134827,0.09676177054643631,4
207,-0.10874942690134048,-0.026469437405467033,0.12289148569107056,0.2798016369342804,-0.7808206081390381,0.09761375188827515,4
208,-0.12696473300457,-0.137299582362175,0.07124711573123932,0.28569701313972473,-0.7833073139190674,0.09868087619543076,4
209,-0.03950092941522598,-0.09442993253469467,0.1318240463733673,0.28617820143699646,-0.7836538553237915,0.09939368069171906,4
210,-0.06828635931015015,-0.03535734862089157,0.069833904504776,0.28960171341896057,-0.850473165512085,0.1006038635969162,4
211,-0.0287240631878376,0.05006914958357811,0.22697465121746063,0.2903170585632324,-0.7654973864555359,0.10067964345216751,4
212,-0.10731960833072662,0.11151174455881119,0.227031871676445,0.2899892330169678,-0.7662045955657959,0.10268434137105942,4
213,0.26437607407569885,0.004723905585706234,1.3996659517288208,0.2876102030277252,-0.7607482671737671,0.10333521664142609,4
214,0.21048228442668915,1.2422353029251099,-1.8490514755249023,0.3445303738117218,-0.7527886629104614,0.11070334911346436,4
215,-0.4783945679664612,0.11113453656435013,1.3116930723190308,0.32461270689964294,-0.7484725117683411,0.10205211490392685,4
216,0.27371862530708313,0.6116817593574524,0.0651739165186882,0.24102935194969177,-0.7377575039863586,0.11274903267621994,4
217,-0.7173480987548828,-0.642749547958374,-1.5891833305358887,0.2480265349149704,-0.7350289821624756,0.11088544875383377,4
218,-3.8409759998321533,3.8566858768463135,3.5891690254211426,0.23673853278160095,-0.7413520812988281,0.1048983559012413,4
219,1.4492088556289673,-0.8778311610221863,5.41282844543457,0.23658405244350433,-0.7250946164131165,0.12942752242088318,4
220,-0.35255417227745056,0.7801221609115601,-0.3469390869140625,0.23538252711296082,-0.711397111415863,0.17248433828353882,4
221,-1.5013065338134766,0.7070152759552002,-3.8961451053619385,0.02048562280833721,-0.7833063006401062,0.16910304129123688,4
222,-1.6841596364974976,2.4200918674468994,-3.682332754135132,0.12588395178318024,-0.42638126015663147,0.13893267512321472,4
223,11.7670316696167,-9.64522647857666,0.490665078163147,0.19952476024627686,-0.35843339562416077,0.10751184821128845,4
224,-3.3924522399902344,1.5643978118896484,5.966983318328857,0.3423434793949127,0.2436477690935135,0.1222512274980545,4
225,-1.037246584892273,-1.2437191009521484,8.226051330566406,0.4667097330093384,0.4094773530960083,0.1897868812084198,4
226,-13.396055221557617,15.966302871704102,13.271225929260254,0.7739160060882568,1.0864038467407227,0.296030193567276,4
227,4.866323471069336,-0.09138830006122589,13.17763614654541,0.5647726058959961,1.1566472053527832,0.40891996026039124,4
228,-0.9332596659660339,-4.183211803436279,12.143640518188477,0.8287340402603149,1.771065354347229,0.567119836807251,4
229,-17.743120193481445,-12.655558586120605,10.385250091552734,1.0193027257919312,1.6375066041946411,0.7261857390403748,4
230,-24.421630859375,0.4673399031162262,10.550397872924805,1.379977822303772,2.388592481613159,0.815911054611206,4
231,-32.91191864013672,13.402690887451172,11.246237754821777,1.5240848064422607,2.2226333618164062,0.9539477229118347,4
232,-54.77846145629883,12.023239135742188,8.97825813293457,1.5233358144760132,2.6934690475463867,0.9951909780502319,4
233,-81.08216094970703,8.835107803344727,6.4411797523498535,1.3890788555145264,2.048178195953369,1.1023298501968384,4
234,-81.9084701538086,10.835193634033203,6.8852643966674805,1.573154330253601,2.302295446395874,1.1032488346099854,4
235,-83.86246490478516,30.691179275512695,9.058211326599121,1.5300049781799316,1.0434740781784058,1.2911639213562012,4
236,-82.5859603881836,38.1217155456543,12.124476432800293,1.6716188192367554,0.4600144028663635,1.4775086641311646,4
237,-68.64933776855469,49.562767028808594,12.23758602142334,1.444703221321106,0.01340359728783369,1.6063817739486694,4
238,-65.39213562011719,52.375308990478516,10.394159317016602,0.42329689860343933,-1.2729743719100952,1.723908543586731,4
239,-74.37263488769531,49.479705810546875,8.474348068237305,-0.5556888580322266,-3.0737216472625732,1.9050047397613525,4
240,-67.42522430419922,31.378049850463867,5.272865295410156,-1.0419398546218872,-4.553054332733154,1.9791008234024048,4
241,-45.05706787109375,14.412897109985352,6.1024065017700195,-1.6705243587493896,-6.105427265167236,2.016188383102417,4
242,-26.542203903198242,7.261894226074219,8.152059555053711,-0.8302143812179565,-7.792751789093018,1.5691331624984741,4
243,6.305718421936035,5.016374111175537,8.463174819946289,-1.6379547119140625,-8.253304481506348,1.981699824333191,4
244,42.77389144897461,-3.1149237155914307,6.812798023223877,-1.4811772108078003,-9.563225746154785,1.607366919517517,4
245,71.16119384765625,-3.31290864944458,6.703442096710205,-1.8834482431411743,-7.999123573303223,2.4270365238189697,4
246,100.9189453125,-2.5410518646240234,3.808588743209839,-3.8032586574554443,-6.3128204345703125,4.489209175109863,4
247,127.95049285888672,6.620947360992432,2.596607208251953,-3.829139471054077,-5.312391757965088,4.55501651763916,4
248,140.5990753173828,13.448830604553223,-0.052567824721336365,-4.560537338256836,-3.755319833755493,5.145924091339111,4
249,128.59457397460938,5.019654750823975,-5.156101703643799,-4.445023059844971,-2.1049649715423584,5.133372783660889,4
250,98.47510528564453,-22.73440933227539,-8.985158920288086,-4.414940357208252,-1.748745322227478,4.456568717956543,4
251,49.86423110961914,-50.06778335571289,-9.53199291229248,-3.9333302974700928,-0.7548936009407043,4.235246181488037,4
252,-8.854333877563477,-73.8021469116211,-13.090606689453125,-3.244905471801758,-0.9987325072288513,3.549274206161499,4
253,-58.69731140136719,-94.1788101196289,-16.3593807220459,-1.7513134479522705,-1.1295872926712036,3.24843430519104,4
254,-91.84095001220703,-103.77928161621094,-22.249235153198242,0.06143529340624809,-1.6059551239013672,3.0003795623779297,4
255,-104.50432586669922,-105.34388732910156,-31.800067901611328,1.3817256689071655,-2.631150007247925,2.733771800994873,4
256,-103.17689514160156,-85.64971923828125,-36.531063079833984,1.566793441772461,-3.273641586303711,2.6824514865875244,4
257,-92.10237884521484,-50.50640869140625,-39.47780990600586,2.5631566047668457,-4.355216026306152,2.3405802249908447,4
258,-51.08281707763672,-3.294214963912964,-40.92060089111328,2.669597625732422,-4.980512619018555,2.0604865550994873,4
259,3.368255615234375,28.392026901245117,-40.36337661743164,2.5360774993896484,-5.403928279876709,1.7145251035690308,4
260,62.5768928527832,53.47886276245117,-38.88664627075195,2.416210412979126,-5.343152046203613,1.227254033088684,4
261,118.84685516357422,71.12532043457031,-37.31867218017578,1.5398584604263306,-4.546957969665527,0.9003754258155823,4
262,147.9844207763672,74.93553924560547,-39.17941665649414,1.2749110460281372,-3.9261162281036377,0.4481262266635895,4
263,158.17062377929688,73.67793273925781,-41.96779251098633,0.4637085199356079,-1.9193735122680664,-0.07519781589508057,4
264,148.97076416015625,67.25973510742188,-43.14381408691406,0.06339588761329651,-0.8491638898849487,-0.5244801640510559,4
265,122.04573059082031,57.40629577636719,-44.4149284362793,-0.9152594804763794,1.1034680604934692,-0.9485735297203064,4
266,89.49267578125,43.69057083129883,-43.545989990234375,-1.5182191133499146,2.3629493713378906,-1.3706549406051636,4
267,46.83710861206055,29.37659454345703,-41.800113677978516,-2.1171960830688477,3.513993501663208,-1.7932071685791016,4
268,7.989920139312744,8.906710624694824,-38.43271255493164,-2.1868839263916016,3.3859541416168213,-2.181741237640381,4
269,-28.443073272705078,-9.812729835510254,-34.739906311035156,-2.289837598800659,3.680842161178589,-2.5351486206054688,4
270,-57.37737274169922,-24.475418090820312,-29.35599708557129,-2.443183183670044,3.5032715797424316,-2.9764106273651123,4
271,-81.12458801269531,-35.677127838134766,-23.710710525512695,-2.2293193340301514,2.9360806941986084,-3.282249689102173,4
272,-94.21363830566406,-47.605709075927734,-21.04724884033203,-1.6192373037338257,2.515589714050293,-3.2964744567871094,4
273,-88.52970123291016,-55.088966369628906,-19.291236877441406,-1.182687759399414,1.3121999502182007,-3.6077961921691895,4
274,-64.72535705566406,-51.180580139160156,-16.106544494628906,-0.9663335084915161,1.0651525259017944,-3.829569101333618,4
275,-35.86576461791992,-44.51759719848633,-9.342976570129395,-0.37472638487815857,0.24213993549346924,-3.9913599491119385,4
276,-1.627610445022583,-31.667898178100586,-2.837625503540039,-0.20062747597694397,0.4435432553291321,-4.094196796417236,4
277,22.140382766723633,-22.036401748657227,2.0099847316741943,0.23297731578350067,0.30317577719688416,-4.099372386932373,4
278,28.249006271362305,-5.604539394378662,6.559741973876953,0.16690552234649658,0.8118103742599487,-4.159353256225586,4
279,23.28835678100586,12.973823547363281,11.01693344116211,0.41323480010032654,1.1365394592285156,-4.029340744018555,4
280,9.230107307434082,27.499740600585938,13.598017692565918,0.29851457476615906,1.1528048515319824,-3.9255921840667725,4
281,-13.375075340270996,32.032386779785156,16.322908401489258,0.03637532889842987,1.2537068128585815,-3.7852296829223633,4
282,-28.229867935180664,25.14643096923828,19.275480270385742,-0.32515835762023926,0.8543210029602051,-3.633598566055298,4
283,-26.3145694732666,4.425954341888428,22.753061294555664,-0.557001531124115,0.9219626784324646,-3.427964925765991,4
284,-15.443342208862305,-21.2691650390625,24.221874237060547,-0.5012850761413574,1.0267114639282227,-3.1636087894439697,4
285,-15.510149002075195,-41.17306137084961,24.17849349975586,-0.22261853516101837,0.8283304572105408,-2.9032633304595947,4
286,-20.347126007080078,-41.35384750366211,25.7611026763916,0.3243192732334137,1.0063285827636719,-2.616328239440918,4
287,-24.829729080200195,-30.34197425842285,28.475139617919922,0.4746963679790497,1.2796738147735596,-2.4604923725128174,4
288,-34.55630111694336,-15.46834945678711,32.23360061645508,0.8287726044654846,0.7181435227394104,-2.168485164642334,4
289,-45.875633239746094,-2.74304461479187,32.83146286010742,0.9406163692474365,0.8725674748420715,-1.9091936349868774,4
290,-55.952980041503906,5.205708980560303,31.260103225708008,0.9382028579711914,0.0439537912607193,-1.554273009300232,4
291,-51.21550750732422,5.218252182006836,27.250499725341797,0.9949955344200134,0.0765877515077591,-1.2987120151519775,4
292,-31.427757263183594,1.8791383504867554,26.12078094482422,1.027197241783142,-0.7048169374465942,-0.9640108346939087,4
293,-13.518939971923828,-0.2040061354637146,24.454090118408203,0.9469579458236694,-0.7758078575134277,-0.7580629587173462,4
294,-9.243446350097656,3.3175315856933594,25.93845558166504,1.0078016519546509,-1.07572603225708,-0.4822373688220978,4
295,-8.924528121948242,17.559106826782227,26.13397216796875,1.0612705945968628,-0.966582179069519,-0.26166847348213196,4
296,-12.017365455627441,31.456809997558594,26.62174415588379,0.9351378083229065,-1.3456707000732422,0.05109793320298195,4
297,-23.654441833496094,37.60409927368164,24.961666107177734,0.8154476284980774,-1.2533979415893555,0.259400337934494,4
298,-23.314916610717773,33.31616973876953,21.025745391845703,0.3984582722187042,-1.5677528381347656,0.5159193873405457,4
299,-25.04186248779297,17.1082706451416,17.421947479248047,0.19058075547218323,-1.6863240003585815,0.686019241809845,4
300,-32.537784576416016,-3.6581943035125732,18.908926010131836,-0.04944929853081703,-2.324869155883789,0.9046575427055359,4
301,-41.52919006347656,-30.817737579345703,18.682435989379883,0.0909116119146347,-2.471534252166748,1.0558879375457764,4
302,-49.39904022216797,-44.17612075805664,15.218392372131348,0.3366617262363434,-3.0570199489593506,1.2704578638076782,4
303,-51.76995086669922,-45.62286376953125,11.203241348266602,0.7396231293678284,-3.8956122398376465,1.471545934677124,4
304,-51.173072814941406,-36.50968551635742,7.84138298034668,0.8502302765846252,-4.025007724761963,1.6973320245742798,4
305,-36.48872756958008,-17.46708106994629,5.682553291320801,1.307649850845337,-4.838263988494873,1.7927619218826294,4
306,-15.688889503479004,4.836765289306641,5.7389702796936035,1.3182674646377563,-4.763254642486572,1.9038519859313965,4
307,4.576303005218506,28.56471824645996,5.875758171081543,1.1953530311584473,-5.199150562286377,2.0533390045166016,4
308,22.23275375366211,45.657501220703125,4.524985313415527,1.0112946033477783,-5.171210289001465,2.0359387397766113,4
309,39.12516784667969,56.892578125,2.254136085510254,0.6143771409988403,-4.970625400543213,2.0084168910980225,4
310,51.6584358215332,54.51957321166992,0.5356375575065613,0.22281339764595032,-4.702234745025635,1.8794946670532227,4
311,59.64546203613281,44.76435852050781,0.46814948320388794,-0.3418606221675873,-4.126842975616455,1.8468815088272095,4
312,60.41743087768555,32.23771286010742,-0.7125906944274902,-0.531098484992981,-3.7160043716430664,1.656812310218811,4
313,44.114463806152344,19.526639938354492,-4.3212456703186035,-1.1121882200241089,-3.185746908187866,1.7900124788284302,4
314,16.529634475708008,4.06005334854126,-8.196660041809082,-1.2865856885910034,-2.9377899169921875,1.7077620029449463,4
315,-6.930374622344971,-8.879119873046875,-8.840327262878418,-1.3837121725082397,-2.8208394050598145,1.6345818042755127,4
316,-24.164213180541992,-24.974870681762695,-10.463544845581055,-1.3052457571029663,-2.7481589317321777,1.5621447563171387,4
317,-26.93347930908203,-39.604591369628906,-13.225862503051758,-1.538753628730774,-2.9544646739959717,1.6698949337005615,4
318,-21.41152572631836,-47.135093688964844,-15.000089645385742,0.012914614751935005,-1.5823540687561035,1.4622528553009033,4
319,-10.021199226379395,-51.96382522583008,-15.08193588256836,0.4793497920036316,-2.129275321960449,1.2593379020690918,4
320,-3.769005537033081,-41.38459777832031,-12.959358215332031,0.7556905746459961,-2.463808298110962,1.1731388568878174,4
321,2.952887535095215,-16.442668914794922,-12.279356956481934,1.0966260433197021,-2.6664185523986816,1.0711172819137573,4
322,8.812065124511719,7.645493507385254,-15.71969985961914,1.0884954929351807,-2.792617082595825,1.0039466619491577,4
323,15.083548545837402,24.677494049072266,-20.88787269592285,1.5934531688690186,-2.2611238956451416,0.6884946823120117,4
324,20.398923873901367,37.7906494140625,-22.636005401611328,1.299858808517456,-2.2392024993896484,0.5030836462974548,4
325,22.62407684326172,48.36126708984375,-22.248632431030273,0.7032319903373718,-2.102470636367798,0.3247733414173126,4
326,20.43181037902832,59.28260040283203,-22.262353897094727,0.22929677367210388,-1.8682132959365845,0.0872240662574768,4
327,10.975128173828125,65.64450073242188,-19.478160858154297,-0.3108556270599365,-1.836073637008667,-0.13905493915081024,4
328,-3.696669340133667,57.14193344116211,-18.18495750427246,-0.7720102667808533,-1.7515499591827393,-0.37773653864860535,4
329,-5.9446024894714355,34.54059600830078,-19.13265609741211,-1.5603493452072144,-1.8674899339675903,-0.5471104979515076,4
330,1.3638620376586914,15.95769214630127,-20.80799674987793,-1.7403768301010132,-1.9165509939193726,-0.763446569442749,4
331,8.823453903198242,-2.8231966495513916,-20.216724395751953,-1.956067681312561,-1.9068523645401,-0.967073917388916,4
332,7.022751808166504,-14.87519359588623,-21.274921417236328,-1.8959287405014038,-1.8282268047332764,-1.1713365316390991,4
333,-4.415529251098633,-12.549168586730957,-21.42957878112793,-1.76055109500885,-1.7770026922225952,-1.376169204711914,4
334,-11.017674446105957,2.038287878036499,-20.103260040283203,-1.7076027393341064,-1.841259479522705,-1.5824329853057861,4
335,-9.431071281433105,21.223388671875,-19.819936752319336,-1.8519493341445923,-1.7613221406936646,-1.7244009971618652,4
336,-7.555627822875977,31.057689666748047,-18.31951332092285,-2.10052227973938,-1.6886274814605713,-1.8772581815719604,4
337,-10.68735408782959,32.04672622680664,-16.882774353027344,-2.5589563846588135,-1.841100811958313,-2.0799782276153564,4
338,-20.112653732299805,22.90350341796875,-12.8526611328125,-2.87393856048584,-1.9951318502426147,-2.270003080368042,4
339,-26.46042251586914,6.223764896392822,-11.47363567352295,-2.9428305625915527,-2.12638521194458,-2.392443895339966,4
340,-9.649286270141602,-24.69037628173828,-15.54281234741211,-2.877427816390991,-2.230548143386841,-2.453151226043701,4
341,12.429478645324707,-51.77436447143555,-17.5772647857666,-2.625349283218384,-2.340275287628174,-2.5934157371520996,4
342,31.724609375,-61.307167053222656,-14.819740295410156,-2.0351099967956543,-2.107253074645996,-2.6986823081970215,4
343,29.384723663330078,-44.626243591308594,-8.586888313293457,-1.585228681564331,-1.7082587480545044,-2.7746951580047607,4
344,8.60531997680664,-29.61928367614746,-5.970402240753174,-1.0806803703308105,-1.5223560333251953,-2.8944361209869385,4
345,-7.055459022521973,-9.4547119140625,-7.364694595336914,-0.8555365800857544,-1.2602134943008423,-2.888418197631836,4
346,-18.345495223999023,7.215545177459717,-9.677971839904785,-0.7541280388832092,-1.322495698928833,-2.9588513374328613,4
347,-34.470367431640625,15.186978340148926,-11.95129108428955,-0.8114279508590698,-1.4497071504592896,-3.0452141761779785,4
348,-33.62162780761719,18.169530868530273,-9.389303207397461,-1.0380494594573975,-1.8078700304031372,-3.1697769165039062,4
349,-15.719650268554688,16.16750144958496,-7.434614658355713,-1.072177529335022,-1.9192243814468384,-3.2251882553100586,4
350,3.4700024127960205,9.939444541931152,-7.164240837097168,-1.2000062465667725,-1.982858657836914,-3.2852718830108643,4
351,21.327543258666992,-3.1705515384674072,-4.657670021057129,-1.318235993385315,-2.024259567260742,-3.370192289352417,4
352,29.1717529296875,-14.749716758728027,-2.2878804206848145,-1.2423028945922852,-1.752424955368042,-3.40627121925354,4
353,16.301359176635742,-21.973796844482422,-0.18963736295700073,-1.0845767259597778,-1.4151040315628052,-3.417825937271118,4
354,-2.900982618331909,-28.037626266479492,1.3403786420822144,-0.6814931035041809,-1.3750669956207275,-3.4421262741088867,4
355,-19.972957611083984,-32.26941680908203,2.488452911376953,-0.41784146428108215,-0.9362471699714661,-3.3580377101898193,4
356,-32.0589714050293,-27.386037826538086,6.739799499511719,-0.13417401909828186,-1.2671996355056763,-3.3429861068725586,4
357,-40.13777160644531,-22.84394073486328,13.34627628326416,0.15227240324020386,-1.5452854633331299,-3.267122745513916,4
358,-34.163421630859375,-16.563325881958008,19.63903045654297,0.34302234649658203,-2.004737138748169,-3.1345272064208984,4
359,-23.37270736694336,-10.069037437438965,23.442293167114258,0.3694978654384613,-2.3366196155548096,-2.9388647079467773,4
360,-12.179610252380371,4.79541015625,23.69736099243164,0.4549626111984253,-2.8287954330444336,-2.702099561691284,4
361,7.8105902671813965,20.835649490356445,25.338022232055664,0.36338916420936584,-2.4286606311798096,-2.4857277870178223,4
362,33.52833938598633,38.20376205444336,28.827821731567383,0.0769360288977623,-2.2952089309692383,-2.2438015937805176,4
363,40.685455322265625,42.76860046386719,29.93027114868164,-0.26202642917633057,-1.9383450746536255,-1.9807066917419434,4
364,34.0785026550293,25.086631774902344,28.313339233398438,-0.8405077457427979,-1.6678638458251953,-1.6825613975524902,4
365,20.43268585205078,-2.283323287963867,24.95942497253418,-0.9388051629066467,-1.5746514797210693,-1.4131217002868652,4
366,-5.546849250793457,-18.36833381652832,19.604238510131836,-0.8990881443023682,-1.31040358543396,-1.1637840270996094,4
367,-22.246431350708008,-20.048255920410156,13.997346878051758,-0.6745145916938782,-1.1968870162963867,-0.9606042504310608,4
368,-20.123605728149414,-16.219186782836914,9.192230224609375,-0.36907368898391724,-1.6824369430541992,-0.8181267380714417,4
369,-15.363354682922363,-16.722002029418945,4.737109184265137,-0.2025958150625229,-1.8862676620483398,-0.71988445520401,4
370,-4.528405666351318,-23.606748580932617,5.100875377655029,-0.05084102228283882,-1.737626552581787,-0.6620302200317383,4
371,0.462872713804245,-24.384960174560547,8.106348037719727,0.04967354238033295,-1.6500495672225952,-0.6044154763221741,4
372,6.179722785949707,-9.824454307556152,8.083460807800293,0.2997487187385559,-1.763848066329956,-0.5167053937911987,4
373,4.678729057312012,-0.7302501797676086,6.459261417388916,0.3587513864040375,-1.8162709474563599,-0.43030253052711487,4
374,3.5027899742126465,9.711701393127441,5.3504838943481445,0.32680049538612366,-1.6473991870880127,-0.3703041672706604,4
375,3.005502223968506,12.360987663269043,1.959357738494873,0.259610116481781,-1.644992709159851,-0.31913498044013977,4
376,1.1542564630508423,11.305290222167969,0.3460657298564911,0.0788288563489914,-1.2236912250518799,-0.32554545998573303,4
377,-8.215497970581055,14.438408851623535,2.560472011566162,-0.039017148315906525,-1.4327753782272339,-0.30864009261131287,4
378,-13.269160270690918,10.326189994812012,7.624012470245361,-0.07664208114147186,-1.4408950805664062,-0.2902151346206665,4
379,-16.207719802856445,0.7812027931213379,11.777493476867676,-0.1881689876317978,-1.5777183771133423,-0.2222083956003189,4
380,-15.39462661743164,-8.214139938354492,15.923173904418945,-0.1901511698961258,-1.5565099716186523,-0.11517467349767685,4
381,-5.204002380371094,-14.933012962341309,18.366098403930664,-0.11295722424983978,-1.7020351886749268,0.043338626623153687,4
382,4.945246696472168,-18.130342483520508,17.673891067504883,-0.009011267684400082,-1.677758812904358,0.2247774600982666,4
383,8.146858215332031,-9.161239624023438,16.187259674072266,0.23369228839874268,-1.520728349685669,0.3995543420314789,4
384,5.374101638793945,1.124031901359558,13.974894523620605,0.17703652381896973,-1.5022095441818237,0.5653449892997742,4
385,-5.048176288604736,9.92271614074707,10.818890571594238,0.12669232487678528,-1.6342662572860718,0.7166195511817932,4
386,-14.228806495666504,17.741947174072266,8.66167163848877,0.027983976528048515,-1.6791749000549316,0.8227022290229797,4
387,-22.259178161621094,13.645594596862793,8.142313957214355,-0.3013438284397125,-1.3868006467819214,0.8772090077400208,4
388,-32.65347671508789,10.57395076751709,8.040441513061523,-0.44345152378082275,-1.7253906726837158,0.9582062363624573,4
389,-38.17411422729492,6.06055212020874,9.482379913330078,-0.5786710977554321,-1.9894070625305176,1.0323879718780518,4
390,-33.234710693359375,-5.419408321380615,9.146910667419434,-0.6178485751152039,-2.494119882583618,1.1293612718582153,4
391,-16.491029739379883,-22.697349548339844,7.7365617752075195,-0.6188544034957886,-2.7280125617980957,1.2192554473876953,4
392,0.3185754418373108,-37.765132904052734,5.691626071929932,-0.25355812907218933,-3.069502592086792,1.3107774257659912,4
393,14.401780128479004,-40.61099624633789,4.188772201538086,0.18584103882312775,-2.7245962619781494,1.3795795440673828,4
394,18.935976028442383,-35.66371154785156,3.3158857822418213,0.6724388003349304,-2.4853594303131104,1.4349600076675415,4
395,5.39146614074707,-23.311315536499023,3.266934871673584,0.903870701789856,-2.3500635623931885,1.4911742210388184,4
396,-14.421545028686523,-3.0656445026397705,6.40781831741333,1.223669171333313,-2.3603971004486084,1.5315560102462769,4
397,-28.6831111907959,15.276591300964355,8.879136085510254,1.140774130821228,-2.5255637168884277,1.6060813665390015,4
398,-30.78099822998047,30.587879180908203,11.47164249420166,0.8927281498908997,-3.068180561065674,1.7159459590911865,4
399,-33.2362174987793,28.956266403198242,9.090587615966797,0.5660198926925659,-3.460519313812256,1.8201407194137573,4
400,-33.49654006958008,19.399429321289062,3.7560806274414062,0.11518269032239914,-3.9503514766693115,1.9248439073562622,4
401,-25.36818504333496,7.086426734924316,-0.2828429341316223,-0.08669200539588928,-3.964341878890991,1.9188034534454346,4
402,-5.9945807456970215,-4.114917755126953,-3.0044286251068115,-0.14978203177452087,-4.065117359161377,1.895966649055481,4
403,23.479957580566406,0.6372966170310974,-0.5150622129440308,-0.06636617332696915,-4.293155670166016,1.8770073652267456,4
404,47.19486618041992,10.92300033569336,0.7632018327713013,-0.10003164410591125,-3.8979341983795166,1.8621714115142822,4
405,65.82515716552734,12.931061744689941,2.4011080265045166,-0.24959532916545868,-3.373889446258545,1.8682130575180054,4
406,68.41291046142578,12.671079635620117,3.379770278930664,-0.4283399283885956,-2.804884433746338,1.8952224254608154,4
407,55.40805435180664,2.5145554542541504,4.262712001800537,-0.45492157340049744,-1.878928542137146,1.886574387550354,4
408,32.125709533691406,-6.509850978851318,10.533147811889648,-0.7844877243041992,-1.4797263145446777,1.995502233505249,4
409,9.872474670410156,-10.88034439086914,13.027485847473145,-0.3498397469520569,-0.9018630385398865,2.023439407348633,4
410,-10.197320938110352,-13.784411430358887,12.128732681274414,-0.3557545244693756,-1.239238977432251,2.175250291824341,4
411,-23.07366371154785,-18.01907730102539,12.7207670211792,-0.05473821610212326,-1.208424687385559,2.2793545722961426,4
412,-23.671533584594727,-11.056062698364258,9.182004928588867,0.3007277250289917,-1.628340721130371,2.396372079849243,4
413,-10.458746910095215,5.57979679107666,5.474217891693115,0.5365403294563293,-1.8032748699188232,2.4812357425689697,4
414,6.599368095397949,17.7821044921875,5.168455123901367,0.531561553478241,-1.9008560180664062,2.5347256660461426,4
415,23.00278091430664,27.28925895690918,3.958258628845215,0.23822657763957977,-1.7156713008880615,2.5820930004119873,4
416,43.22026062011719,35.52278137207031,1.0256190299987793,-0.41624367237091064,-0.8621596693992615,2.609173536300659,4
417,50.551116943359375,38.75893020629883,-0.2274235635995865,-1.2882357835769653,-0.5707219243049622,2.639544725418091,4
418,34.4406623840332,47.6554069519043,-0.01923391781747341,-1.5236375331878662,0.24194900691509247,2.634199619293213,4
419,0.5179585814476013,48.1556396484375,1.7935142517089844,-2.2310540676116943,-1.6214886903762817,2.5678157806396484,4
420,-29.235082626342773,43.518714904785156,5.22859525680542,-2.9065752029418945,-1.7643619775772095,2.551675319671631,4
421,-43.52833557128906,39.36274337768555,10.793172836303711,-3.278919219970703,-1.7418657541275024,2.619391918182373,4
422,-39.40200424194336,26.580604553222656,14.794708251953125,-3.658878803253174,-1.8761200904846191,2.7528204917907715,4
423,-21.491838455200195,4.875014781951904,16.127805709838867,-3.7724075317382812,-2.1804680824279785,2.911689519882202,4
424,3.7169442176818848,-21.516273498535156,16.021690368652344,-3.7313644886016846,-2.1477675437927246,3.132768392562866,4
425,28.704021453857422,-36.85323715209961,14.227770805358887,-3.4880502223968506,-1.8710983991622925,3.366298198699951,4
426,56.49457550048828,-50.110721588134766,13.131234169006348,-2.773282766342163,-1.2608213424682617,3.6273419857025146,4
427,71.60697174072266,-48.55864715576172,12.473231315612793,-2.704130172729492,-0.6823068857192993,3.766463279724121,4
428,61.45754623413086,-36.429595947265625,11.934167861938477,-2.0728321075439453,0.14831553399562836,3.9360170364379883,4
429,37.022674560546875,-30.975345611572266,10.390718460083008,-1.6085822582244873,0.9430826902389526,4.109804630279541,4
430,4.74751091003418,-25.385658264160156,11.639549255371094,-1.3254938125610352,1.3401070833206177,4.210742473602295,4
431,-23.99651527404785,-19.667869567871094,14.56348705291748,-1.2762067317962646,1.3746974468231201,4.284119606018066,4
432,-44.135440826416016,-12.47059440612793,22.00608253479004,-1.0156091451644897,1.137397289276123,4.431280136108398,4
433,-49.17804718017578,-8.665538787841797,25.501789093017578,-0.7739869952201843,0.5898707509040833,4.632854461669922,4
434,-40.87388610839844,0.7619977593421936,27.70411491394043,-1.0246530771255493,0.25876298546791077,4.8467183113098145,4
435,-29.97599983215332,8.512128829956055,30.119304656982422,-0.9400027990341187,0.0667426735162735,5.192533493041992,4
436,-20.700510025024414,12.75340461730957,29.933364868164062,-1.0531585216522217,-0.2272227704524994,5.5215325355529785,4
437,-14.708264350891113,14.137943267822266,27.528121948242188,-1.4370042085647583,-0.35574057698249817,5.767625331878662,4
438,-6.811778545379639,13.746147155761719,22.594482421875,-1.5165596008300781,-0.15279363095760345,6.121811866760254,4
439,1.756933569908142,9.195375442504883,17.884193420410156,-1.7118916511535645,-0.1456349790096283,6.347428321838379,4
440,2.3426060676574707,-7.4826273918151855,13.808137893676758,-1.58443021774292,0.022906584665179253,6.605178356170654,4
441,-4.496293067932129,-20.8070068359375,12.645790100097656,-1.442753553390503,-0.08985383063554764,6.733339786529541,4
442,-8.01244831085205,-31.290563583374023,11.13640308380127,-1.0263946056365967,-0.2709057331085205,6.883501052856445,4
443,-23.748821258544922,-31.218643188476562,8.987434387207031,-1.2726675271987915,-0.16071611642837524,6.887995719909668,4
444,-45.731266021728516,-24.982524871826172,9.548690795898438,-0.6313413381576538,-0.4360214173793793,7.0630269050598145,4
445,-59.75604248046875,-21.401395797729492,9.7385835647583,-0.2359846979379654,-1.2997769117355347,7.136105060577393,4
446,-68.20549774169922,-17.373992919921875,12.505635261535645,-0.08664712309837341,-1.5313923358917236,7.277617454528809,4
447,-67.30913543701172,-7.666745662689209,17.22138023376465,0.0545572005212307,-2.665578842163086,7.354702949523926,4
448,-55.64786911010742,6.617466449737549,23.281949996948242,0.048840396106243134,-2.652491807937622,7.57973051071167,4
449,-30.395204544067383,17.15720558166504,28.489334106445312,-0.07245655357837677,-3.200226068496704,7.801697731018066,4
450,-2.9022388458251953,28.56536102294922,31.124876022338867,-0.30964648723602295,-3.534813404083252,8.068243980407715,4
451,20.477787017822266,30.67037010192871,29.176401138305664,-0.6677036881446838,-3.509465217590332,8.354317665100098,4
452,40.77015686035156,24.377086639404297,25.475345611572266,-0.9295886754989624,-3.117138624191284,8.636192321777344,4
453,55.06595993041992,6.831217288970947,20.614654541015625,-1.2193503379821777,-2.513549327850342,8.881634712219238,4
454,58.43607711791992,-9.254146575927734,16.367666244506836,-1.2375866174697876,-1.9855860471725464,9.083377838134766,4
455,48.56114196777344,-24.217300415039062,13.84512710571289,-0.8426202535629272,-1.4107894897460938,9.246861457824707,4
456,32.086631774902344,-31.448579788208008,10.312893867492676,-1.1485270261764526,-0.9827789068222046,9.387860298156738,4
457,16.634775161743164,-33.41965103149414,6.07273006439209,-0.5307174324989319,-0.653869092464447,9.492616653442383,4
458,-1.3997362852096558,-32.841243743896484,0.9300321936607361,-0.20343732833862305,-0.6736831068992615,9.54564380645752,4
459,-29.235380172729492,-34.712745666503906,-1.38955819606781,0.2069975882768631,-0.8966326117515564,9.5538911819458,4
460,-52.61626052856445,-31.754852294921875,-1.9749804735183716,0.3133864998817444,-1.171371579170227,9.538372039794922,4
461,-77.44528198242188,-22.173070907592773,-1.227638602256775,0.8569474220275879,-2.1250643730163574,9.543561935424805,4
462,-83.37588500976562,-8.292930603027344,-0.8868680000305176,1.109361171722412,-2.5904598236083984,9.532818794250488,4
463,-80.57243347167969,10.324435234069824,0.28216052055358887,1.109596848487854,-3.8518030643463135,9.553442001342773,4
464,-65.29485321044922,24.78913688659668,0.7696511149406433,0.9872961044311523,-4.286631107330322,9.518342971801758,4
465,-33.23527526855469,29.72203826904297,-0.6824122071266174,0.5520352721214294,-5.106812953948975,9.53103256225586,4
466,7.633185386657715,26.384502410888672,-2.5177948474884033,0.2356097400188446,-5.096257209777832,9.464279174804688,4
467,41.725276947021484,10.636662483215332,-4.569641590118408,0.06596101820468903,-5.003221035003662,9.405165672302246,4
468,65.59465789794922,-9.034749031066895,-6.89061975479126,-0.0577240064740181,-4.2750983238220215,9.318865776062012,4
469,81.85011291503906,-27.917028427124023,-6.748060703277588,0.28472134470939636,-3.432339906692505,9.186922073364258,4
470,78.77360534667969,-43.66141128540039,-6.603747367858887,0.9040929079055786,-2.6052701473236084,9.061861038208008,4
471,60.697139739990234,-53.57835388183594,-7.500500202178955,2.1302688121795654,-1.4877671003341675,8.79098129272461,4
472,34.02083206176758,-47.212554931640625,-8.864185333251953,2.9780311584472656,-0.6136212944984436,8.6075439453125,4
473,-3.636718988418579,-31.01449966430664,-9.794471740722656,3.360281467437744,-1.3358724117279053,8.7826509475708,4
474,-36.841392517089844,-1.1139261722564697,-10.948043823242188,3.5282013416290283,-1.332680583000183,8.7035493850708,4
475,-60.96293640136719,35.43898010253906,-9.240978240966797,3.2302708625793457,-2.0406768321990967,8.737879753112793,4
476,-67.81915283203125,64.99547576904297,-5.592655181884766,2.6988472938537598,-2.350693941116333,8.554221153259277,4
477,-60.27003479003906,83.90247344970703,1.1324520111083984,1.7629363536834717,-3.2700793743133545,8.590832710266113,4
478,-42.053375244140625,95.5355224609375,3.4800357818603516,0.7351691722869873,-3.542109966278076,8.461925506591797,4
479,-15.423738479614258,93.2565689086914,2.884737253189087,-0.5877304673194885,-4.052147388458252,8.516228675842285,4
480,14.721205711364746,78.9888687133789,-1.1059643030166626,-1.480130672454834,-4.090895175933838,8.440960884094238,4
481,48.08090591430664,52.20634460449219,-4.656789779663086,-2.195953369140625,-3.690035581588745,8.306363105773926,4
482,72.82282257080078,14.427915573120117,-6.45652961730957,-2.7076034545898438,-2.9770700931549072,8.181796073913574,4
483,82.4361343383789,-21.298601150512695,-6.287515640258789,-2.6672799587249756,-2.2533762454986572,8.079206466674805,4
484,74.26475524902344,-47.624691009521484,-6.368784427642822,-2.3230271339416504,-1.3457565307617188,7.994561195373535,4
485,44.71406555175781,-61.11895751953125,-8.983163833618164,-1.6441946029663086,-0.7304818630218506,7.9095540046691895,4
486,-3.0268023014068604,-53.315773010253906,-11.887600898742676,-0.9952222108840942,-0.4141707718372345,7.821874141693115,4
487,-52.33643341064453,-35.87089157104492,-14.054967880249023,-1.0234696865081787,-0.7885506749153137,7.7826995849609375,4
488,-90.87207794189453,-11.903881072998047,-12.87089729309082,-0.619287371635437,-1.8163459300994873,7.657164096832275,4
489,-106.7392578125,5.672402858734131,-8.605710983276367,-0.5004065036773682,-2.7276878356933594,7.536872386932373,4
490,-106.3084945678711,17.704254150390625,0.0012803622521460056,-0.6788780093193054,-3.8930346965789795,7.4660868644714355,4
491,-86.93903350830078,15.650261878967285,7.075509548187256,-0.9668920040130615,-4.77175235748291,7.464480876922607,4
492,-52.484130859375,-1.204760193824768,11.167296409606934,-1.0486797094345093,-5.611222743988037,7.511936187744141,4
493,-4.627727031707764,-19.402359008789062,13.117849349975586,-0.9971278309822083,-6.064042568206787,7.619548797607422,4
494,44.963035583496094,-34.287025451660156,11.580964088439941,-0.5294379591941833,-5.856000900268555,7.721315860748291,4
495,88.72654724121094,-47.188453674316406,9.274884223937988,-0.6592921614646912,-5.46724796295166,7.968769550323486,4
496,113.79476928710938,-57.010555267333984,9.622079849243164,0.10668238997459412,-4.108866214752197,8.032339096069336,4
497,115.46766662597656,-57.23002624511719,10.46549129486084,0.2790698707103729,-3.2730133533477783,8.26766300201416,4
498,93.7328109741211,-52.00817108154297,10.13172435760498,1.069602608680725,-2.1666219234466553,8.340632438659668,4
499,61.653114318847656,-37.34518814086914,8.916038513183594,1.3759567737579346,-1.9446828365325928,8.53010368347168,4
500,31.496702194213867,-14.910840034484863,7.803654193878174,1.9172706604003906,-1.285307765007019,8.58181381225586,4
501,10.01572322845459,10.85994815826416,5.8068037033081055,2.0522384643554688,-0.9839068651199341,8.660558700561523,4
502,-5.720372200012207,31.358890533447266,1.452075481414795,1.7568858861923218,-0.7031590938568115,8.732507705688477,4
503,-14.028173446655273,41.15835952758789,-5.202479839324951,1.2830133438110352,-0.9105858206748962,8.775979042053223,4
504,-21.892841339111328,34.638370513916016,-11.724566459655762,0.7678022384643555,-1.0980379581451416,8.728919982910156,4
505,-25.54766845703125,10.033491134643555,-17.798791885375977,0.4794178903102875,-1.181352972984314,8.57491397857666,4
506,-24.458829879760742,-15.74354362487793,-23.899070739746094,0.462586909532547,-1.7011829614639282,8.41785717010498,4
507,-10.923089027404785,-34.06779098510742,-26.31700325012207,0.9553601741790771,-1.6918656826019287,8.127095222473145,4
508,10.34130573272705,-39.638946533203125,-23.974096298217773,1.6921374797821045,-1.6783713102340698,7.843664169311523,4
509,25.791908264160156,-32.436527252197266,-19.236080169677734,2.459192991256714,-1.3206660747528076,7.563470840454102,4
510,36.24294662475586,-11.862689971923828,-13.446028709411621,3.4388980865478516,-0.6350263953208923,7.28635311126709,4
511,44.619102478027344,20.158557891845703,-9.924583435058594,3.9067864418029785,0.11021759361028671,7.069030284881592,4
512,43.34599685668945,53.318416595458984,-10.41601276397705,3.390730142593384,-1.496370553970337,7.50980806350708,4
513,40.452552795410156,82.16350555419922,-12.38821792602539,2.575428009033203,-0.6700475215911865,7.273993015289307,4
514,40.39569091796875,93.66881561279297,-13.947046279907227,1.3916133642196655,-0.7885313630104065,7.2895426750183105,4
515,44.941436767578125,91.87620544433594,-13.995229721069336,0.21940024197101593,-0.07130184769630432,7.044506072998047,4
516,46.1566276550293,66.58275604248047,-14.802502632141113,-1.383947491645813,0.297500878572464,6.886696815490723,4
517,37.5632209777832,37.96579360961914,-17.223230361938477,-2.077850818634033,1.1718502044677734,6.6473917961120605,4
518,28.33639144897461,5.3159918785095215,-20.324655532836914,-2.3410916328430176,0.9865341186523438,6.576971054077148,4
519,16.531723022460938,-27.362863540649414,-23.924619674682617,-2.2620925903320312,1.5349676609039307,6.351130485534668,4
520,8.899775505065918,-48.603782653808594,-27.16651153564453,-1.7309209108352661,1.6480356454849243,6.142569541931152,4
521,4.372592449188232,-60.12063980102539,-29.353233337402344,-1.5070552825927734,1.3482787609100342,5.808809757232666,4
522,4.770627021789551,-63.276832580566406,-31.362342834472656,-0.7368261218070984,1.1933051347732544,5.544457912445068,4
523,13.711651802062988,-58.209415435791016,-33.64571762084961,-0.07329346239566803,1.6177388429641724,5.2228684425354,4
524,25.867408752441406,-48.89580535888672,-33.57246780395508,0.2122727483510971,1.4865729808807373,4.794676303863525,4
525,36.26797866821289,-31.542293548583984,-32.82474136352539,0.7152445912361145,2.1981911659240723,4.4445414543151855,4
526,42.72100067138672,-8.16659164428711,-31.71421241760254,1.0781081914901733,2.2991349697113037,4.144970417022705,4
527,45.39781188964844,13.382204055786133,-30.10207176208496,0.9670001864433289,2.909956455230713,3.772587299346924,4
528,43.90474319458008,30.06449317932129,-29.020954132080078,0.7004070281982422,3.108572244644165,3.4543631076812744,4
529,43.519371032714844,37.42179870605469,-28.366008758544922,0.24265573918819427,3.7078726291656494,3.1180031299591064,4
530,40.62602233886719,29.4836483001709,-26.849557876586914,-0.13677965104579926,3.7030751705169678,2.8783018589019775,4
531,27.797670364379883,13.984946250915527,-25.983779907226562,-0.3814806044101715,4.224717617034912,2.6437909603118896,4
532,15.719305992126465,-2.8874523639678955,-25.86536979675293,-0.36756017804145813,4.517620086669922,2.4707400798797607,4
533,11.25098991394043,-17.043609619140625,-26.030317306518555,-0.330071359872818,4.666524887084961,2.207948923110962,4
534,7.842813491821289,-27.175186157226562,-26.824573516845703,-0.2580240070819855,4.738927364349365,1.8814218044281006,4
535,11.548245429992676,-43.8582878112793,-27.848499298095703,0.21020770072937012,4.960918426513672,1.7116968631744385,4
536,21.034292221069336,-55.34156799316406,-29.052635192871094,0.24052651226520538,4.741267204284668,1.1455976963043213,4
537,28.682092666625977,-54.4901008605957,-31.75291633605957,1.0481812953948975,5.075201511383057,0.9983931183815002,4
538,22.134601593017578,-47.55082702636719,-36.79269027709961,1.5227357149124146,5.573093891143799,0.6101453900337219,4
539,1.7393949031829834,-29.766016006469727,-39.49215316772461,1.6927740573883057,5.455624580383301,0.03552119806408882,4
540,-20.97555923461914,-9.323909759521484,-39.60170364379883,1.9713852405548096,5.161550045013428,-0.3500475287437439,4
541,-36.20750045776367,9.954839706420898,-39.04106903076172,1.9165563583374023,5.184966087341309,-0.8462775349617004,4
542,-44.61761474609375,21.449420928955078,-36.16017150878906,1.7424907684326172,4.72947359085083,-1.2394523620605469,4
543,-36.367210388183594,31.181074142456055,-29.937557220458984,1.4744484424591064,4.331821918487549,-1.596976637840271,4
544,-13.629301071166992,36.905330657958984,-23.177024841308594,1.1598700284957886,4.077657699584961,-1.8680120706558228,4
545,21.281253814697266,48.728824615478516,-16.94676399230957,0.5416304469108582,3.985992431640625,-2.2537620067596436,4
546,61.901153564453125,56.36738204956055,-11.977677345275879,0.1719856560230255,4.505513668060303,-2.304241180419922,4
547,89.66211700439453,51.80405807495117,-11.893534660339355,-0.6480055451393127,5.053830623626709,-2.563883066177368,4
548,97.95561218261719,35.00133514404297,-12.994026184082031,-1.1912163496017456,6.299112319946289,-2.6647067070007324,4
549,101.62639617919922,1.9919909238815308,-9.34683895111084,-1.1867754459381104,7.006734848022461,-2.46968936920166,4
550,77.75405883789062,-25.96841812133789,-7.158732891082764,-0.9095757007598877,8.19042682647705,-2.31596302986145,4
551,38.725242614746094,-46.79331588745117,-3.6345338821411133,-0.6609151363372803,8.555288314819336,-2.4230146408081055,4
552,-8.795190811157227,-41.425575256347656,0.690839409828186,-0.07044931501150131,8.670082092285156,-2.413257360458374,4
553,-49.44081497192383,-8.510320663452148,1.929419994354248,0.23048678040504456,8.531895637512207,-2.5643701553344727,4
554,-74.03459930419922,24.679954528808594,2.296327829360962,0.20195256173610687,7.719901084899902,-2.6611719131469727,4
555,-73.93083953857422,39.94398498535156,2.89703631401062,-0.23713134229183197,6.996030330657959,-2.7953572273254395,4
556,-71.78472900390625,48.0375862121582,3.9611504077911377,-0.869333028793335,6.121535778045654,-2.9646756649017334,4
557,-67.65737915039062,46.965755462646484,10.033296585083008,-1.4553223848342896,5.68358039855957,-2.9826295375823975,4
558,-37.944854736328125,30.502792358398438,10.915152549743652,-1.899924635887146,4.867905139923096,-2.8613059520721436,4
559,-2.898048162460327,1.727420687675476,3.811776876449585,-2.1349799633026123,4.897069931030273,-2.6389970779418945,4
560,30.34151268005371,-30.44988250732422,-4.536375522613525,-1.7954645156860352,5.008344650268555,-2.2569403648376465,4
561,46.54671859741211,-57.084808349609375,-9.421347618103027,-1.2844246625900269,5.374866485595703,-2.1311237812042236,4
562,48.676963806152344,-72.45579528808594,-10.590459823608398,-0.2687566578388214,6.048069000244141,-1.8350694179534912,4
563,38.334903717041016,-68.82510375976562,-10.824165344238281,-0.12270811945199966,6.507251262664795,-2.5130841732025146,4
564,12.529182434082031,-39.506011962890625,-11.827116012573242,0.8391175270080566,6.81689453125,-2.437760353088379,4
565,-16.422178268432617,-3.5549099445343018,-13.972095489501953,1.2196375131607056,6.7485456466674805,-2.599290132522583,4
566,-36.82289123535156,26.974082946777344,-16.049659729003906,0.9562894105911255,6.352634906768799,-3.0051329135894775,4
567,-50.08853530883789,43.78475570678711,-13.658670425415039,0.6185203790664673,6.117189407348633,-3.1653146743774414,4
568,-59.27469253540039,45.506473541259766,-12.806670188903809,-0.03702867031097412,5.447113513946533,-3.4689061641693115,4
569,-63.82167434692383,41.333465576171875,-11.408384323120117,-0.6599690318107605,5.180924415588379,-3.6708850860595703,4
570,-53.06686782836914,45.91419219970703,-8.501891136169434,-1.1133356094360352,4.463301658630371,-3.7909860610961914,4
571,-27.712196350097656,45.48659133911133,-6.183001518249512,-1.6743892431259155,3.8837122917175293,-3.9401912689208984,4
572,-3.1187219619750977,34.22129821777344,-6.132904052734375,-2.06019926071167,3.871021032333374,-3.8881771564483643,4
573,9.145480155944824,14.341462135314941,-7.395100116729736,-2.350144147872925,3.853013277053833,-3.8990564346313477,4
574,7.996914863586426,-10.187499046325684,-4.673858642578125,-2.5074105262756348,3.7149200439453125,-4.025932788848877,4
575,-15.412297248840332,-33.91849899291992,-1.3009158372879028,-2.476473093032837,3.9308223724365234,-4.10317850112915,4
576,-41.88056182861328,-49.21430969238281,1.2739824056625366,-1.6497743129730225,3.7976062297821045,-3.809495210647583,4
577,-73.90668487548828,-51.0676383972168,2.6403563022613525,-1.0017451047897339,3.2507262229919434,-3.755126476287842,4
578,-105.19384765625,-45.57528305053711,5.316900730133057,-0.0834287628531456,1.728553295135498,-3.682758331298828,4
579,-118.27677154541016,-30.37266731262207,10.776969909667969,1.0129247903823853,-0.49651604890823364,-3.5036840438842773,4
580,-109.22410583496094,-12.920544624328613,15.118102073669434,1.1453677415847778,-2.3143985271453857,-3.6055495738983154,4
581,-77.45014953613281,9.273770332336426,18.30080223083496,1.2395641803741455,-4.153692245483398,-3.580174684524536,4
582,-19.829790115356445,30.753070831298828,19.955257415771484,0.9405476450920105,-4.858316421508789,-3.460874319076538,4
583,48.35048294067383,44.860347747802734,17.857820510864258,0.4272136092185974,-4.451157569885254,-3.2728030681610107,4
584,113.1375961303711,51.97577667236328,11.588369369506836,-0.1124444529414177,-2.920104503631592,-3.047445774078369,4
585,161.80528259277344,44.873870849609375,4.212218284606934,-0.8675097823143005,-0.4272281527519226,-2.817081928253174,4
586,192.57827758789062,21.294897079467773,-2.678586006164551,-1.20880925655365,1.9981392621994019,-2.6844310760498047,4
587,200.65333557128906,-12.90908145904541,-7.290421009063721,-1.1595025062561035,5.351871490478516,-2.538574457168579,4
588,184.58612060546875,-36.363468170166016,-5.875889301300049,-0.7095409035682678,8.64360523223877,-2.458819627761841,4
589,142.01449584960938,-44.45649719238281,-2.7049758434295654,-0.45406097173690796,10.651420593261719,-2.5475895404815674,4
590,90.7116928100586,-42.64126205444336,1.5199756622314453,0.23884932696819305,12.233465194702148,-2.610091209411621,4
591,32.67674255371094,-29.389497756958008,6.709905624389648,1.484883189201355,13.181827545166016,-2.517615556716919,4
592,-39.94752502441406,-6.343652725219727,9.509334564208984,1.157231092453003,12.66488265991211,-2.768157720565796,4
593,-127.83600616455078,29.915977478027344,12.832711219787598,0.9309055209159851,10.969402313232422,-2.8679606914520264,4
594,-222.31402587890625,64.64698028564453,21.44734001159668,0.4603310227394104,8.490074157714844,-2.8192315101623535,4
595,-291.9393615722656,79.78358459472656,29.8044490814209,-0.7822434902191162,3.972424030303955,-2.991910696029663,4
596,-321.5476379394531,77.90658569335938,33.5278205871582,-1.5859326124191284,-0.9546574950218201,-2.815037488937378,4
597,-339.54669189453125,72.86798095703125,38.88242721557617,-2.6721181869506836,-6.520849704742432,-2.91892409324646,4
598,-341.03326416015625,58.52606201171875,43.64860534667969,-3.934727907180786,-11.789119720458984,-3.1323723793029785,4
599,-320.3595275878906,27.383712768554688,43.906639099121094,-4.61237907409668,-16.3161678314209,-3.050856828689575,4
600,-270.5393371582031,-13.37194538116455,39.00895690917969,-3.800509452819824,-20.336450576782227,-2.8659133911132812,4
601,-201.02828979492188,-61.27303695678711,33.3064079284668,-3.4542694091796875,-24.046815872192383,-2.7278411388397217,4
602,-123.74626159667969,-98.97891998291016,33.7126350402832,-2.101200580596924,-25.6673526763916,-2.528693914413452,4
603,-46.37989044189453,-120.68049621582031,37.455867767333984,-0.19529485702514648,-26.408283233642578,-2.5100982189178467,4
604,28.849884033203125,-123.23477935791016,43.07588195800781,1.6241133213043213,-25.913679122924805,-2.3983523845672607,4
605,98.81940460205078,-110.17031860351562,44.67473602294922,3.2662599086761475,-24.309083938598633,-2.2228503227233887,4
606,169.37754821777344,-84.47931671142578,46.198848724365234,4.126326560974121,-21.755802154541016,-1.5106920003890991,4
607,233.84072875976562,-48.63008499145508,41.40651321411133,4.833213806152344,-17.999792098999023,-1.1230818033218384,4
608,282.2861633300781,-11.992025375366211,34.48274230957031,5.314463138580322,-13.51828384399414,-1.121254563331604,4
609,313.6824645996094,30.563283920288086,29.48052215576172,4.607852935791016,-8.231622695922852,0.08687940239906311,4
610,332.32354736328125,74.35115051269531,21.539735794067383,3.373413324356079,-3.343649387359619,1.8281875848770142,4
611,336.3023376464844,109.72190856933594,7.092928409576416,1.6717722415924072,3.801447868347168,3.4863553047180176,4
612,327.6357727050781,125.00362396240234,-7.187575817108154,0.12980157136917114,5.853872776031494,4.654722213745117,4
613,318.2250671386719,128.0899658203125,-19.52846336364746,-1.4499708414077759,9.836108207702637,5.383799076080322,4
614,308.29736328125,112.57537078857422,-28.427989959716797,-2.732637405395508,13.037014961242676,5.479072093963623,4
615,291.5408630371094,80.98243713378906,-34.29350280761719,-3.7341017723083496,15.622071266174316,5.20589542388916,4
616,253.91854858398438,43.54426574707031,-37.088172912597656,-4.685190677642822,19.67215347290039,5.422732353210449,4
617,203.58428955078125,10.144356727600098,-40.911949157714844,-5.30810022354126,22.10597801208496,5.40131950378418,4
618,138.57679748535156,-3.0183568000793457,-43.944149017333984,-5.474433898925781,24.484195709228516,5.098282337188721,4
619,55.961463928222656,-2.841163396835327,-44.34320831298828,-5.636215686798096,25.056072235107422,4.508218288421631,4
620,-32.083656311035156,-1.161755919456482,-43.539405822753906,-5.6832098960876465,25.306543350219727,4.047428131103516,4
621,-137.36961364746094,-0.4728456735610962,-39.45220184326172,-6.102242946624756,24.21221923828125,3.389650344848633,4
622,-242.6868438720703,-10.409241676330566,-31.369869232177734,-6.204635143280029,21.866962432861328,2.7667534351348877,4
623,-302.1552734375,-25.79301643371582,-27.924148559570312,-6.883882999420166,17.90672492980957,1.5704518556594849,4
624,-322.8497009277344,-37.49696350097656,-27.17349624633789,-6.6959991455078125,15.41318130493164,1.2212505340576172,4
625,-313.337646484375,-49.47972869873047,-24.590415954589844,-6.2654194831848145,11.372823715209961,0.5558052062988281,4
626,-284.8912048339844,-61.43498229980469,-17.735532760620117,-5.928732395172119,8.786710739135742,0.42355257272720337,4
627,-236.5478057861328,-75.58740234375,-11.452506065368652,-5.070479393005371,4.941971302032471,-0.20265859365463257,4
628,-177.0208282470703,-96.45265197753906,-4.913328647613525,-4.31687068939209,2.84136962890625,-0.256287544965744,4
629,-122.29670715332031,-111.11780548095703,-3.139727830886841,-2.880528211593628,0.4606964588165283,-0.29802405834198,4
630,-78.82366180419922,-113.15621948242188,-2.690270185470581,-1.6549984216690063,-0.7203944325447083,-0.20538504421710968,4
631,-51.768489837646484,-107.63700103759766,-3.9562180042266846,-0.02308381162583828,-1.81855309009552,0.07596264034509659,4
632,-35.15464782714844,-94.71617889404297,-7.612257480621338,0.7143903374671936,-2.3616116046905518,-0.28908488154411316,4
633,-25.28491973876953,-73.0550308227539,-13.206634521484375,2.007439374923706,-2.952073335647583,-0.19393621385097504,4
634,-28.10137176513672,-31.41461181640625,-19.731576919555664,2.1600754261016846,-2.8149569034576416,-0.46211734414100647,4
635,-40.72040939331055,-2.4695427417755127,-24.999910354614258,2.8009374141693115,-3.173741340637207,-0.46852079033851624,4
636,-56.87664031982422,18.335609436035156,-29.1184139251709,2.055788278579712,-3.876931667327881,-1.216647744178772,4
637,-65.52002716064453,30.745208740234375,-30.44542121887207,1.7326468229293823,-4.898722171783447,-1.7498557567596436,4
638,-61.03242492675781,30.516769409179688,-31.29084587097168,1.3116830587387085,-5.31754207611084,-2.040362596511841,4
639,-47.453590393066406,24.762794494628906,-31.88693618774414,1.0879448652267456,-6.401979923248291,-2.525485038757324,4
640,-26.06391716003418,19.419193267822266,-30.520164489746094,0.7811917662620544,-6.52091121673584,-2.7884178161621094,4
641,-2.927220106124878,7.727047920227051,-28.870609283447266,0.7495617866516113,-6.964981555938721,-3.1679415702819824,4
642,8.83119010925293,-7.993557929992676,-27.6480712890625,0.6205363869667053,-6.945646286010742,-3.4315733909606934,4
643,12.251667976379395,-20.436798095703125,-27.74825096130371,1.0757428407669067,-6.976290225982666,-3.810826063156128,4
644,10.345908164978027,-25.672897338867188,-28.79279136657715,1.6753060817718506,-6.857054233551025,-4.1933088302612305,4
645,5.845389366149902,-25.698301315307617,-29.072683334350586,2.9496519565582275,-7.206706523895264,-4.934981346130371,4
646,-1.0741230249404907,-22.42404556274414,-30.914012908935547,3.4524765014648438,-7.454161643981934,-5.313170433044434,4
647,-7.421952724456787,-10.853421211242676,-31.932754516601562,3.9548299312591553,-6.869410514831543,-5.762993335723877,4
648,-14.087739944458008,1.8874406814575195,-32.1339111328125,4.15238094329834,-6.416057586669922,-6.143461227416992,4
649,-18.89192771911621,17.481582641601562,-31.913976669311523,4.033357620239258,-6.715987682342529,-6.362363338470459,4
650,-18.984262466430664,39.786338806152344,-28.427471160888672,3.4346978664398193,-7.007052898406982,-6.410800933837891,4
651,-7.784790515899658,58.644927978515625,-25.138248443603516,2.808466672897339,-7.256560802459717,-6.551144123077393,4
652,15.709811210632324,67.07168579101562,-24.9774112701416,1.9001123905181885,-7.257894515991211,-6.608129501342773,4
653,41.372840881347656,66.71054077148438,-25.62569236755371,0.90779709815979,-6.921115875244141,-6.664061546325684,4
654,60.72575378417969,58.237850189208984,-25.48250389099121,0.04402818903326988,-6.554051399230957,-6.756657123565674,4
655,69.88504791259766,36.02804946899414,-26.360700607299805,-0.6986377835273743,-5.638115882873535,-6.915622234344482,4
656,75.01216125488281,-3.49224591255188,-27.330198287963867,-1.0825364589691162,-5.213515281677246,-7.021113395690918,4
657,76.80973052978516,-56.54419708251953,-25.57839012145996,-0.784373939037323,-4.237736225128174,-7.424960136413574,4
658,63.981998443603516,-93.78912353515625,-25.8604679107666,-0.45297032594680786,-3.8013534545898438,-7.251272678375244,4
659,50.49466323852539,-107.6069564819336,-27.097951889038086,1.1270785331726074,-3.1249375343322754,-8.049942970275879,4
660,49.118934631347656,-102.69705200195312,-21.336713790893555,3.0026116371154785,-2.3148117065429688,-9.080750465393066,4
661,53.21012878417969,-91.06880950927734,-18.62405014038086,2.3693597316741943,-2.3840155601501465,-7.564747333526611,4
662,58.050689697265625,-62.98483657836914,-18.589855194091797,4.112252712249756,-1.5331436395645142,-8.607416152954102,4
663,45.96185302734375,-16.13900375366211,-13.259946823120117,2.834299087524414,-1.5309545993804932,-7.00889778137207,4
664,32.857486724853516,30.805870056152344,-9.032320976257324,3.0287606716156006,-0.933755099773407,-7.3112287521362305,4
665,21.4476318359375,61.44442367553711,-1.5020288228988647,2.7850053310394287,-0.24478460848331451,-7.605462074279785,4
666,-0.3463011085987091,85.9669189453125,4.2170891761779785,1.515863299369812,-0.6628429889678955,-6.9820876121521,4
667,-15.596227645874023,95.36820983886719,7.819070339202881,0.3272891938686371,-0.7667664885520935,-6.706996440887451,4
668,-25.18439292907715,87.98218536376953,9.189767837524414,-0.7100063562393188,-0.9442223906517029,-6.581853866577148,4
669,-30.444154739379883,53.902244567871094,13.225859642028809,-1.533758282661438,-1.2727811336517334,-6.4680914878845215,4
670,-33.20405197143555,7.473679542541504,16.29802703857422,-1.9705393314361572,-1.6092312335968018,-6.358601093292236,4
671,-29.561664581298828,-41.94554138183594,18.86935043334961,-1.613486647605896,-2.054105758666992,-6.362142086029053,4
672,-16.58680534362793,-96.94029998779297,19.88215446472168,-0.7472655773162842,-2.312814235687256,-6.338133811950684,4
673,-1.0448276996612549,-154.24717712402344,18.766197204589844,0.9751826524734497,-2.3615310192108154,-6.352542877197266,4
674,6.042126178741455,-185.42018127441406,16.820344924926758,3.147644519805908,-2.2149429321289062,-6.384397029876709,4
675,1.7801798582077026,-183.20181274414062,14.473091125488281,4.487216949462891,-2.2602999210357666,-5.879836559295654,4
676,-3.7042062282562256,-150.6346435546875,14.467949867248535,6.823776721954346,-2.120636224746704,-5.975679874420166,4
677,-3.536741256713867,-91.76412963867188,19.28788185119629,8.245136260986328,-2.3402750492095947,-5.778393745422363,4
678,6.4954729080200195,-25.35593032836914,22.471534729003906,9.237643241882324,-2.34031081199646,-5.699265480041504,4
679,20.431184768676758,35.44511413574219,27.513582229614258,9.001779556274414,-2.3243632316589355,-5.307516574859619,4
680,33.56473159790039,77.04106903076172,27.79539680480957,8.20838737487793,-1.910400390625,-5.024144649505615,4
681,47.0308723449707,98.23428344726562,23.035551071166992,7.041562080383301,-1.4529718160629272,-4.7133870124816895,4
682,64.16575622558594,93.67301177978516,18.429290771484375,5.626095771789551,-0.5967034697532654,-4.56318998336792,4
683,82.87020874023438,80.63343048095703,14.644661903381348,4.757351875305176,-0.16664020717144012,-4.249673366546631,4
684,93.46454620361328,68.54117584228516,14.045072555541992,3.786853075027466,0.9859755039215088,-4.229830741882324,4
685,89.86433410644531,51.27827072143555,13.30394458770752,3.0528674125671387,1.61343514919281,-3.8453590869903564,4
686,73.49896240234375,25.321699142456055,12.23308277130127,2.651313304901123,2.884596109390259,-3.982673168182373,4
687,47.74081039428711,-1.5883314609527588,10.068563461303711,2.6350817680358887,2.851930618286133,-3.444742441177368,4
688,21.50788688659668,-26.714767456054688,6.263780117034912,2.8706624507904053,3.5353996753692627,-3.5649025440216064,4
689,-5.8852858543396,-46.995018005371094,3.5980639457702637,3.278993844985962,3.278057336807251,-3.290851593017578,4
690,-30.292325973510742,-58.45021438598633,0.8106153607368469,4.13446569442749,3.0483574867248535,-3.2638282775878906,4
691,-48.515846252441406,-57.69544982910156,-2.381946563720703,5.0310564041137695,2.5832266807556152,-3.2374556064605713,4
692,-57.07891845703125,-37.76783752441406,-3.680729389190674,5.20004940032959,1.8474339246749878,-3.15529465675354,4
693,-56.06105422973633,-11.151182174682617,-1.8006024360656738,5.4197797775268555,1.007948637008667,-3.041755437850952,4
694,-41.75749206542969,8.721924781799316,2.1600184440612793,5.674314022064209,0.6434688568115234,-3.1399941444396973,4
695,-16.02655601501465,32.257469177246094,8.282200813293457,5.39108943939209,0.22655819356441498,-3.0807735919952393,4
696,18.46976089477539,45.368614196777344,14.976415634155273,4.966662883758545,0.2036566138267517,-3.0217573642730713,4
697,59.08918762207031,40.047847747802734,18.68606948852539,4.2383952140808105,0.7676036357879639,-3.088217258453369,4
698,96.20972442626953,30.76868438720703,20.6520938873291,3.797313928604126,1.8357515335083008,-3.1619343757629395,4
699,110.0908432006836,27.142086029052734,18.706871032714844,3.4101688861846924,3.2219736576080322,-3.2017886638641357,4
700,106.10956573486328,17.48611068725586,13.428422927856445,3.1179850101470947,4.4170732498168945,-3.0849602222442627,4
701,94.13060760498047,12.11752700805664,5.285001277923584,3.007251262664795,5.051938056945801,-2.7113263607025146,4
702,62.997398376464844,16.58074188232422,-1.9558120965957642,2.853499412536621,5.847100734710693,-2.6282906532287598,4
703,23.078765869140625,18.149856567382812,-6.201360702514648,2.598642587661743,6.541433334350586,-2.7574260234832764,4
704,-30.707672119140625,-0.11958301067352295,-6.386752128601074,2.4439213275909424,6.658226490020752,-2.8092992305755615,4
705,-89.46903228759766,-20.277427673339844,-7.4370832443237305,2.6376149654388428,5.985804080963135,-2.7122130393981934,4
706,-131.27279663085938,-42.25436782836914,-9.949899673461914,2.935154676437378,4.598512649536133,-2.6147561073303223,4
707,-145.5558319091797,-51.49116516113281,-15.073662757873535,3.7200615406036377,2.845478057861328,-2.402141809463501,4
708,-143.0684051513672,-42.518829345703125,-18.89701271057129,3.846909523010254,1.7220300436019897,-2.9289896488189697,4
709,-127.80953979492188,-18.778461456298828,-20.034860610961914,4.439269542694092,-0.2081872820854187,-2.757032632827759,4
710,-98.38777923583984,2.3334572315216064,-19.005990982055664,4.528921127319336,-0.9237067103385925,-3.2055091857910156,4
711,-53.971614837646484,19.763050079345703,-14.632840156555176,4.419477462768555,-1.8386595249176025,-3.388244867324829,4
712,2.8038718700408936,29.69189453125,-8.839553833007812,4.112249851226807,-2.033587694168091,-3.658311128616333,4
713,56.799007415771484,30.81846809387207,-4.384037017822266,3.748502016067505,-1.7699741125106812,-3.825817108154297,4
714,97.6143798828125,28.809188842773438,-0.9799010157585144,3.454709529876709,-0.6251955628395081,-4.078308582305908,4
715,116.60515594482422,27.897321701049805,0.5885905623435974,3.0983200073242188,0.5657049417495728,-4.178783893585205,4
716,106.21910858154297,21.6682186126709,3.6938204765319824,2.7879421710968018,1.750472068786621,-4.18670129776001,4
717,71.7823715209961,24.433401107788086,6.212474822998047,2.468350887298584,2.749934434890747,-4.162898063659668,4
718,18.815797805786133,36.09046936035156,7.129473686218262,2.3144075870513916,3.3519649505615234,-4.054661750793457,4
719,-36.11613082885742,49.76479721069336,6.422512531280518,1.7021021842956543,3.459474563598633,-4.037177085876465,4
720,-72.06849670410156,47.269649505615234,4.610490798950195,1.3154736757278442,2.5680429935455322,-3.7760519981384277,4
721,-80.48039245605469,31.03247833251953,2.103750467300415,0.6811569333076477,1.4111112356185913,-3.653810739517212,4
722,-70.50267028808594,5.439750671386719,-0.3240458071231842,0.8767699003219604,0.8723638653755188,-3.557624101638794,4
723,-46.6819953918457,-21.22031593322754,-4.355709552764893,0.9006255865097046,-0.13357912003993988,-3.4821372032165527,4
724,-27.189037322998047,-34.68263626098633,-6.930205345153809,1.3396483659744263,-0.06433340907096863,-3.5784122943878174,4
725,0.8070404529571533,-34.52561950683594,-7.97290563583374,1.9367010593414307,-0.4323505461215973,-3.555250644683838,4
726,35.16263961791992,-14.540922164916992,-8.527090072631836,2.373023509979248,-0.37877708673477173,-3.6019163131713867,4
727,67.62381744384766,16.30087661743164,-8.777376174926758,2.3218302726745605,0.3425503671169281,-3.74765682220459,4
728,82.0727310180664,43.04524612426758,-13.78866958618164,2.019400119781494,1.2950807809829712,-3.885563850402832,4
729,83.04036712646484,57.63593673706055,-20.21612548828125,1.4058130979537964,2.5061182975769043,-4.08928108215332,4
730,55.15380859375,76.71550750732422,-26.031953811645508,0.4833833575248718,3.091735601425171,-4.309062957763672,4
731,13.082040786743164,76.75835418701172,-28.50908088684082,-0.4885943531990051,3.4382781982421875,-4.566774845123291,4
732,-29.54332160949707,61.68952941894531,-25.93551254272461,-1.0202473402023315,3.444990873336792,-4.7546186447143555,4
733,-54.88338851928711,33.39406204223633,-23.022201538085938,-1.730333685874939,2.7559337615966797,-5.029542922973633,4
734,-60.958831787109375,-3.350210428237915,-24.74653434753418,-1.6305100917816162,2.1932625770568848,-5.159905433654785,4
735,-53.947898864746094,-19.819772720336914,-29.27806854248047,-1.4248720407485962,1.2808952331542969,-5.439346790313721,4
736,-35.38721466064453,-17.687170028686523,-32.840553283691406,-1.1874544620513916,1.3452718257904053,-5.608935356140137,4
737,-13.850358963012695,-12.74907398223877,-34.920562744140625,-0.9490148425102234,1.0472863912582397,-5.926594257354736,4
738,-11.483342170715332,-3.1130871772766113,-35.046142578125,-0.9818607568740845,0.9395996332168579,-6.309537887573242,4
739,-15.466093063354492,3.8916096687316895,-30.177507400512695,-1.0012761354446411,0.7207450270652771,-6.683353424072266,4
740,-18.152420043945312,7.2494425773620605,-23.402742385864258,-0.8711196184158325,0.38640740513801575,-6.988412857055664,4
741,-22.832366943359375,17.08452606201172,-17.589067459106445,-1.1631081104278564,0.006050258409231901,-7.314089775085449,4
742,-22.978761672973633,38.496055603027344,-7.8852410316467285,-1.5527468919754028,0.3387245833873749,-7.281117916107178,4
743,-12.403427124023438,53.377750396728516,0.8330268859863281,-2.300595283508301,0.28387126326560974,-7.317286491394043,4
744,6.106491565704346,65.25983428955078,4.066963195800781,-2.8767666816711426,0.24344412982463837,-7.282146453857422,4
745,23.284915924072266,68.52436065673828,4.564953804016113,-3.423201084136963,0.4285045266151428,-7.185903549194336,4
746,24.93602180480957,62.461021423339844,4.28657865524292,-4.156523704528809,0.7611571550369263,-7.09969425201416,4
747,9.90955924987793,59.65339660644531,8.40734577178955,-4.813436031341553,0.9477286338806152,-7.055893898010254,4
748,0.10517118871212006,37.588924407958984,8.994100570678711,-5.102956771850586,0.9320389032363892,-7.003000736236572,4
749,-12.159950256347656,-2.8302321434020996,6.231982231140137,-5.310379981994629,0.8150859475135803,-6.9756669998168945,4
750,-30.203683853149414,-47.33460235595703,5.809950828552246,-4.883389949798584,0.5939552187919617,-6.945339679718018,4
751,-46.57892608642578,-78.35714721679688,7.867699146270752,-3.99411678314209,-0.06484131515026093,-7.111654281616211,4
752,-69.635986328125,-96.00577545166016,9.348043441772461,-3.620004415512085,-0.19498847424983978,-6.7503581047058105,4
753,-99.68731689453125,-92.61885070800781,10.113470077514648,-2.2796621322631836,-1.4046895503997803,-6.9916815757751465,4
754,-127.2420654296875,-62.52654266357422,14.455199241638184,-0.6478878855705261,-3.8796002864837646,-7.950649738311768,4
755,-126.70557403564453,-25.41694450378418,24.847537994384766,-0.09086676687002182,-5.864750862121582,-8.265033721923828,4
756,-91.94744873046875,5.916957378387451,33.55582046508789,-0.13520681858062744,-8.204256057739258,-8.759615898132324,4
757,-23.633628845214844,34.217041015625,38.116310119628906,-0.47926244139671326,-8.901325225830078,-8.36239242553711,4
758,62.47394943237305,51.892608642578125,35.915584564208984,-1.2388817071914673,-8.29677963256836,-7.55348539352417,4
759,145.11961364746094,54.76247787475586,26.85151481628418,-2.0525567531585693,-6.628134727478027,-6.68613862991333,4
760,204.22702026367188,40.87358474731445,18.47332191467285,-2.6723272800445557,-4.861118793487549,-6.361328601837158,4
761,229.45066833496094,21.431716918945312,13.853585243225098,-3.1626126766204834,-1.532143235206604,-5.376255512237549,4
762,232.4345703125,-1.885822057723999,10.44019889831543,-3.3123385906219482,0.06082799285650253,-5.734152793884277,4
763,217.68081665039062,-23.415447235107422,12.809112548828125,-3.1429853439331055,3.3826358318328857,-4.9753217697143555,4
764,191.36468505859375,-36.9210319519043,14.080934524536133,-2.5941755771636963,6.3368401527404785,-4.4022536277771,4
765,151.58285522460938,-41.37871551513672,12.770081520080566,-2.1071369647979736,7.92733907699585,-4.5152106285095215,4
766,90.09369659423828,-35.39466094970703,13.731982231140137,-1.6397130489349365,9.187263488769531,-4.538298606872559,4
767,14.081701278686523,-23.66522789001465,14.073080062866211,-1.3936653137207031,9.674283027648926,-4.603320121765137,4
768,-76.15715026855469,-6.976927757263184,18.061861038208008,-1.1011228561401367,9.072724342346191,-4.817177772521973,4
769,-159.4442138671875,11.125576972961426,21.497692108154297,-1.1555566787719727,7.907740592956543,-4.767758846282959,4
770,-202.54888916015625,10.824962615966797,25.2688045501709,-1.3365166187286377,6.166438102722168,-4.557346820831299,4
771,-198.4659423828125,-1.4040544033050537,27.342266082763672,-1.4530787467956543,4.662445068359375,-4.011152744293213,4
772,-169.1445770263672,0.7380774617195129,29.07491683959961,-1.3519254922866821,2.0199954509735107,-4.117262363433838,4
773,-125.66686248779297,7.955882549285889,31.080034255981445,-1.2954308986663818,1.3022586107254028,-3.3074252605438232,4
774,-66.53267669677734,22.775358200073242,25.82198715209961,-1.4926552772521973,0.12382926791906357,-3.0734798908233643,4
775,-18.066577911376953,29.30734634399414,17.19281768798828,-1.7941992282867432,-0.22473570704460144,-2.759371280670166,4
776,9.642255783081055,21.74608612060547,9.963898658752441,-2.0718448162078857,-0.12287941575050354,-2.503188133239746,4
777,20.113540649414062,9.843091011047363,4.595710754394531,-2.241976737976074,0.046908557415008545,-2.394752264022827,4
778,7.1742143630981445,5.8409013748168945,-0.7851069569587708,-2.284522771835327,0.16869422793388367,-2.380852699279785,4
779,-16.800573348999023,-4.195035934448242,-1.3473118543624878,-2.211165428161621,0.11689320206642151,-2.401799440383911,4
780,-34.702335357666016,-9.365503311157227,1.8555985689163208,-2.0759732723236084,-0.42838814854621887,-2.5569076538085938,4
781,-43.4347038269043,-5.729658603668213,2.846179723739624,-2.035980463027954,-0.34408625960350037,-2.3176004886627197,4
782,-40.19265365600586,-5.72929048538208,1.055809497833252,-2.0182526111602783,-1.071159839630127,-2.4401159286499023,4
783,-27.717382431030273,-14.766727447509766,-0.3857959508895874,-1.9130789041519165,-1.711648941040039,-2.557279348373413,4
784,-4.848239898681641,-39.333866119384766,2.280766010284424,-1.536848545074463,-1.2856159210205078,-2.2276487350463867,4
785,23.67396354675293,-66.11231231689453,5.509665012359619,-0.9368306398391724,-1.2124662399291992,-2.154980421066284,4
786,44.35070037841797,-75.2525405883789,9.820011138916016,0.2335219383239746,-0.8027505874633789,-2.0225799083709717,4
787,49.97235107421875,-63.66682052612305,12.711806297302246,0.38051724433898926,-0.428644597530365,-1.9355899095535278,4
788,32.361507415771484,-29.602039337158203,15.509772300720215,1.0575809478759766,0.14508414268493652,-1.766754388809204,4
789,-1.8197921514511108,4.934502601623535,15.612475395202637,1.2935059070587158,0.2562643587589264,-1.6483216285705566,4
790,-34.96652603149414,35.99560546875,13.49734878540039,0.9706252217292786,-0.03729642182588577,-1.5408354997634888,4
791,-73.79847717285156,55.91579818725586,13.1714506149292,0.2482459396123886,-0.47186902165412903,-1.3977011442184448,4
792,-106.23421478271484,69.05488586425781,15.182406425476074,-0.6490196585655212,-1.5928419828414917,-1.319413661956787,4
793,-109.78014373779297,63.69762420654297,14.757997512817383,-1.281851887702942,-2.4222331047058105,-1.1438220739364624,4
794,-99.2104263305664,46.203224182128906,11.06173324584961,-1.8555034399032593,-3.8768177032470703,-1.1199793815612793,4
795,-73.6040267944336,22.13056182861328,10.026520729064941,-2.3035759925842285,-4.388486862182617,-0.9402023553848267,4
796,-20.9449520111084,5.55212926864624,9.213627815246582,-2.404721260070801,-4.912255764007568,-0.846987247467041,4
797,29.215930938720703,-14.542012214660645,6.342841148376465,-2.2857210636138916,-4.870870113372803,-0.7645628452301025,4
798,63.50916290283203,-51.09354019165039,3.0598843097686768,-1.9974582195281982,-4.128605842590332,-0.6189794540405273,4
799,71.79998016357422,-86.34770202636719,2.6680102348327637,-0.6951519846916199,-3.456052541732788,-0.7865827679634094,4
800,62.57696533203125,-97.50697326660156,9.722127914428711,-0.15141408145427704,-2.4389488697052,-0.48816558718681335,4
801,50.31917190551758,-69.98272705078125,19.449256896972656,1.004164695739746,-1.9298512935638428,-0.44656771421432495,4
802,33.00682067871094,-24.812171936035156,24.930932998657227,1.217132806777954,-1.673264980316162,-0.10750021040439606,4
803,21.796546936035156,19.814254760742188,25.36680030822754,1.2833776473999023,-1.4132095575332642,0.16529631614685059,4
804,14.871424674987793,47.7913818359375,23.930036544799805,0.7553917169570923,-1.2195568084716797,0.5018383264541626,4
805,9.865021705627441,54.31792449951172,25.369863510131836,-0.018713288009166718,-1.1209295988082886,0.8315368890762329,4
806,3.4826605319976807,45.159873962402344,25.511770248413086,-0.49170491099357605,-0.9558244347572327,1.069132685661316,4
807,-16.373273849487305,37.31704330444336,21.86991310119629,-0.9048575162887573,-1.2507224082946777,1.2725259065628052,4
808,-40.54959487915039,26.71556282043457,17.754344940185547,-1.3263107538223267,-1.4425300359725952,1.4945414066314697,4
809,-50.68478012084961,9.3697509765625,10.868707656860352,-1.4036540985107422,-2.227130651473999,1.5655499696731567,4
810,-44.0069694519043,-12.813990592956543,4.186793327331543,-1.2462983131408691,-2.3878986835479736,1.6233073472976685,4
811,-17.756662368774414,-40.143489837646484,-0.6056389212608337,-0.8143477439880371,-2.7289211750030518,1.5902765989303589,4
812,12.148019790649414,-60.205684661865234,-2.3235669136047363,-0.25994396209716797,-2.7524471282958984,1.568612813949585,4
813,32.90507888793945,-73.01394653320312,1.3894630670547485,0.2665850818157196,-2.428710699081421,1.6377384662628174,4
814,41.96726608276367,-63.4224739074707,6.774926662445068,0.9693092107772827,-1.9458096027374268,1.7085199356079102,4
815,38.489158630371094,-28.05928611755371,10.376484870910645,1.7299374341964722,-1.583356261253357,1.7263116836547852,4
816,26.9731388092041,8.084663391113281,11.718018531799316,1.6963744163513184,-1.215514063835144,1.9190151691436768,4
817,5.083146572113037,31.358869552612305,10.720696449279785,1.3400897979736328,-1.0512866973876953,2.1074130535125732,4
818,-21.838560104370117,46.133216857910156,11.308422088623047,0.9637567400932312,-1.2149245738983154,2.2183117866516113,4
819,-56.349365234375,55.01386260986328,16.218774795532227,0.26548346877098083,-1.675508975982666,2.403658151626587,4
820,-78.86627197265625,48.52861022949219,20.205045700073242,-0.20056773722171783,-2.5178754329681396,2.5412511825561523,4
821,-76.99883270263672,24.048643112182617,22.808631896972656,-0.6986205577850342,-3.108797550201416,2.7404961585998535,4
822,-54.272560119628906,0.20334401726722717,22.122150421142578,-0.7768740057945251,-3.7891931533813477,2.9210331439971924,4
823,-16.165952682495117,-16.67813491821289,20.12250518798828,-0.5209713578224182,-4.388372898101807,3.0696768760681152,4
824,18.960521697998047,-23.386749267578125,17.709341049194336,-0.3467314541339874,-3.7405195236206055,3.2606756687164307,4
825,42.318973541259766,-27.305164337158203,17.03520393371582,-0.1583402007818222,-3.2769789695739746,3.4617762565612793,4
826,53.59074020385742,-33.3656120300293,16.540491104125977,0.195937842130661,-2.772104501724243,3.6137290000915527,4
827,55.219970703125,-33.652950286865234,15.929520606994629,0.7524687051773071,-2.099592447280884,3.6910481452941895,4
828,44.3289680480957,-21.00838279724121,15.428397178649902,1.0508296489715576,-1.5737698078155518,3.85895037651062,4
829,24.97991180419922,-3.590480089187622,11.440521240234375,0.8587817549705505,-1.47672438621521,4.164204120635986,4
830,1.534408450126648,15.637374877929688,5.773356914520264,0.8648383021354675,-1.3108106851577759,4.247598171234131,4
831,-25.43753433227539,38.792728424072266,-0.212770015001297,0.5860432982444763,-1.4749549627304077,4.298414707183838,4
832,-50.7729377746582,45.269779205322266,-0.6045803427696228,-0.01837877184152603,-2.014241933822632,4.3612518310546875,4
833,-62.625755310058594,38.53351974487305,-2.1895880699157715,-0.43193283677101135,-2.611581325531006,4.327325820922852,4
834,-60.292015075683594,22.49374771118164,-5.1198272705078125,-0.7506123781204224,-3.245248556137085,4.278284072875977,4
835,-53.302467346191406,3.3827295303344727,-6.007859230041504,-0.9292376637458801,-3.821500062942505,4.223423480987549,4
836,-42.60300064086914,-7.173628807067871,-5.660414695739746,-0.6549801826477051,-4.328859329223633,4.077305316925049,4
837,-31.04598617553711,-6.31838846206665,-4.463050842285156,-0.6604293584823608,-4.802816867828369,4.069233417510986,4
838,-21.218786239624023,3.303480386734009,-5.508297920227051,-0.5037485957145691,-4.767362594604492,3.96645188331604,4
839,-3.7936933040618896,4.789495468139648,-8.446524620056152,-0.48391637206077576,-4.940829277038574,3.876500129699707,4
840,12.985833168029785,2.9433932304382324,-11.027894020080566,-0.47503745555877686,-4.809139251708984,3.7584095001220703,4
841,26.04503059387207,1.7631865739822388,-15.512578010559082,-0.4418112337589264,-4.499487400054932,3.6028943061828613,4
842,42.392372131347656,1.365253210067749,-17.64687728881836,-0.4727613925933838,-4.112913608551025,3.4444048404693604,4
843,60.66678237915039,-3.023315906524658,-17.874387741088867,-0.5636957883834839,-3.439892530441284,3.3092310428619385,4
844,68.06149291992188,-17.801233291625977,-14.349322319030762,-0.4616568982601166,-2.719456911087036,3.1296627521514893,4
845,53.031654357910156,-36.000709533691406,-8.844013214111328,-0.0012004153104498982,-1.883407711982727,2.9031312465667725,4
846,16.178255081176758,-48.682926177978516,-5.347391128540039,0.4862357974052429,-1.8855934143066406,2.8047356605529785,4
847,-25.580686569213867,-46.233001708984375,-4.259035587310791,1.0798839330673218,-1.888841986656189,2.7236626148223877,4
848,-64.1535415649414,-25.092529296875,-1.5902247428894043,1.5488780736923218,-2.5145297050476074,2.6880295276641846,4
849,-89.80850219726562,8.371877670288086,0.6824027895927429,1.7146261930465698,-3.72310733795166,2.697030782699585,4
850,-81.86959075927734,23.150331497192383,1.343145489692688,1.2174155712127686,-4.374047756195068,2.815253734588623,4
851,-41.167198181152344,24.708101272583008,-0.7952581644058228,0.862493097782135,-5.188286304473877,2.8569629192352295,4
852,6.618620872497559,19.858854293823242,-5.303056716918945,0.5454490184783936,-5.19475793838501,2.8250348567962646,4
853,44.51313400268555,12.932894706726074,-10.744077682495117,0.3294678032398224,-4.58651876449585,2.7147669792175293,4
854,65.85879516601562,11.116104125976562,-13.82905387878418,0.21927526593208313,-4.109567642211914,2.592210292816162,4
855,66.32135009765625,11.914956092834473,-18.484567642211914,0.11486370861530304,-3.279507637023926,2.410287618637085,4
856,55.287986755371094,7.465548515319824,-22.9836368560791,-0.06698475033044815,-2.6457998752593994,2.2411274909973145,4
857,31.83294105529785,-1.5947091579437256,-25.363483428955078,-0.0625123605132103,-2.175576686859131,1.9802981615066528,4
858,4.4916863441467285,-11.64610767364502,-26.946823120117188,0.029451800510287285,-2.120330572128296,1.7264018058776855,4
859,-14.264151573181152,-17.73944854736328,-28.32170295715332,0.2935304045677185,-2.1815285682678223,1.4169299602508545,4
860,-17.441085815429688,-12.413679122924805,-28.125329971313477,0.5297179818153381,-2.408156394958496,1.126937985420227,4
861,-12.771001815795898,2.809901237487793,-25.38507843017578,0.6115326881408691,-2.636305809020996,0.8626222610473633,4
862,-8.606874465942383,9.407251358032227,-19.276458740234375,0.5303570628166199,-2.7688212394714355,0.6422137022018433,4
863,-4.282211780548096,17.305065155029297,-11.73805046081543,0.4228897988796234,-2.8401308059692383,0.4683862328529358,4
864,10.197723388671875,22.282798767089844,-4.274441242218018,0.24438932538032532,-2.957984447479248,0.376637727022171,4
865,44.81785583496094,12.973919868469238,-0.9276038408279419,-0.029917731881141663,-2.7237985134124756,0.3621107041835785,4
866,77.60997009277344,-4.305117607116699,2.886439800262451,-0.17651668190956116,-2.1260859966278076,0.38386234641075134,4
867,103.99960327148438,-14.608304977416992,11.048779487609863,0.03541868180036545,-0.9999291896820068,0.3784087300300598,4
868,111.87539672851562,-11.490851402282715,17.128307342529297,0.2712274193763733,0.5401943325996399,0.4395989775657654,4
869,108.97906494140625,1.8933767080307007,17.519142150878906,0.17641009390354156,1.4836089611053467,0.6786028742790222,4
870,75.27336120605469,16.18465805053711,13.630765914916992,-0.07177799940109253,2.196697950363159,0.9008596539497375,4
871,35.01865005493164,18.124732971191406,8.293423652648926,-0.18567784130573273,2.792839288711548,1.027178168296814,4
872,3.979203224182129,18.407135009765625,1.6387076377868652,-0.4097975194454193,3.0342471599578857,1.0940595865249634,4
873,-19.927799224853516,-0.5758281946182251,-3.0458803176879883,-0.4570775032043457,2.8323910236358643,1.1188784837722778,4
874,-34.6153450012207,-20.606571197509766,-5.987678527832031,-0.37505224347114563,2.4080629348754883,1.082489252090454,4
875,-42.2357063293457,-31.05510139465332,-6.45747709274292,-0.04197678714990616,1.955447793006897,1.0280110836029053,4
876,-37.290191650390625,-26.163557052612305,-5.255124568939209,0.4353216588497162,1.7405942678451538,0.9926465749740601,4
877,-26.356151580810547,-27.228944778442383,-3.4314610958099365,0.7956265807151794,1.2823486328125,0.9739161729812622,4
878,-12.824655532836914,-16.715599060058594,-2.945098400115967,0.5453512072563171,1.0331244468688965,0.7691949605941772,4
879,-6.679490089416504,12.362676620483398,3.591336727142334,0.6260126829147339,0.952598512172699,0.7599582672119141,4
880,-3.691835641860962,34.12831115722656,8.777083396911621,0.35821256041526794,0.9351518750190735,0.7987112998962402,4
881,-2.4893994331359863,44.61434555053711,14.626487731933594,-0.13710881769657135,0.9387388229370117,0.8610307574272156,4
882,-2.6841719150543213,50.59580993652344,21.775001525878906,-0.526147186756134,1.0273503065109253,1.0619800090789795,4
883,-9.29565143585205,51.94460678100586,26.065982818603516,-1.2622432708740234,1.0303288698196411,1.2083197832107544,4
884,-10.96581745147705,47.765892028808594,28.693180084228516,-1.805007815361023,0.89316326379776,1.4729458093643188,4
885,-6.489255428314209,28.37323570251465,29.144229888916016,-2.268679141998291,1.0152959823608398,1.7505910396575928,4
886,5.084979057312012,2.6621782779693604,27.968059539794922,-2.336787700653076,0.9766569137573242,2.09598970413208,4
887,11.897889137268066,-28.02119255065918,24.588228225708008,-1.9388781785964966,1.0917308330535889,2.5058434009552,4
888,16.875762939453125,-51.511016845703125,22.363473892211914,-1.3548444509506226,1.2823388576507568,2.8414804935455322,4
889,25.765125274658203,-63.19009017944336,22.386356353759766,-0.5172802209854126,1.579050064086914,3.191361904144287,4
890,37.87448501586914,-64.21359252929688,21.2124080657959,0.3224860727787018,1.906248927116394,3.4882616996765137,4
891,51.19341278076172,-60.212032318115234,22.790128707885742,1.116782784461975,2.5043599605560303,3.767157793045044,4
892,51.318443298339844,-37.40749740600586,25.35108757019043,1.2183727025985718,3.0356087684631348,3.7588002681732178,4
893,30.088890075683594,-4.643057823181152,25.4786319732666,1.6028821468353271,3.579556703567505,4.050432205200195,4
894,-7.287309169769287,13.575779914855957,23.03569793701172,1.4916675090789795,3.581278085708618,4.249762058258057,4
895,-38.186500549316406,20.88218116760254,20.952831268310547,1.2815914154052734,3.1855626106262207,4.451580047607422,4
896,-67.17691040039062,28.89484977722168,17.914453506469727,1.0095857381820679,2.670276403427124,4.6375532150268555,4
897,-85.95639038085938,23.393047332763672,15.328503608703613,0.8078228235244751,1.5008745193481445,4.9041547775268555,4
898,-90.72750854492188,5.785359859466553,8.190797805786133,0.7275812029838562,1.0361130237579346,5.061948776245117,4
899,-75.58486938476562,-16.396514892578125,-0.38481760025024414,0.9053009748458862,-0.05245588347315788,5.245880126953125,4
900,-52.36317443847656,-41.10384750366211,-10.509079933166504,1.464215636253357,-0.5761804580688477,5.372226238250732,4
901,-23.070266723632812,-53.03794860839844,-17.765687942504883,1.9174939393997192,-0.894239604473114,5.231107711791992,4
902,10.782673835754395,-47.22227096557617,-22.513870239257812,2.6088204383850098,-0.8155585527420044,5.101917743682861,4
903,30.19647789001465,-29.692659378051758,-25.6214656829834,2.654141426086426,-0.6069656610488892,4.684557914733887,4
904,30.787099838256836,-10.403020858764648,-27.608400344848633,2.9659135341644287,-0.12962691485881805,4.422229290008545,4
905,14.883252143859863,2.3958020210266113,-30.33403205871582,2.8782970905303955,-0.08896031230688095,4.145308971405029,4
906,-16.03563690185547,15.18741512298584,-31.38117027282715,2.747732400894165,-0.08110024780035019,3.8274788856506348,4
907,-45.725955963134766,35.33106994628906,-31.16940689086914,2.3367197513580322,-0.3733494281768799,3.4476125240325928,4
908,-63.71543884277344,47.01323699951172,-30.734750747680664,1.8219678401947021,-1.1020725965499878,3.162794351577759,4
909,-52.19654846191406,46.171051025390625,-30.383316040039062,1.3262474536895752,-1.5556913614273071,2.775693893432617,4
910,-15.958345413208008,34.82413101196289,-28.114978790283203,0.8202501535415649,-1.7938776016235352,2.3781776428222656,4
911,25.04524040222168,21.866947174072266,-26.582483291625977,0.5132759809494019,-1.602715253829956,2.0250086784362793,4
912,58.065223693847656,3.9788522720336914,-25.2663631439209,0.47670459747314453,-0.9793378710746765,1.7058055400848389,4
913,83.15189361572266,-10.690179824829102,-23.01343536376953,0.47629600763320923,-0.11792609095573425,1.402023434638977,4
914,91.50741577148438,-13.653295516967773,-22.491554260253906,0.7415319085121155,0.9734364748001099,1.1383706331253052,4
915,75.52958679199219,-13.552892684936523,-23.02081871032715,0.9806185364723206,1.3889706134796143,1.048616647720337,4
916,36.73527526855469,-8.45444107055664,-26.808225631713867,1.169935941696167,2.0560638904571533,0.8106308579444885,4
917,-12.247420310974121,-2.921494483947754,-28.684341430664062,1.1158478260040283,2.12451171875,0.540802001953125,4
918,-62.808677673339844,5.928555965423584,-23.68120765686035,1.0967652797698975,1.4494469165802002,0.3510036766529083,4
919,-100.14826965332031,27.78290367126465,-18.02646255493164,0.8858258128166199,0.7369896173477173,0.10330871492624283,4
920,-120.86697387695312,46.25088119506836,-11.787675857543945,0.266265869140625,-0.5043409466743469,-0.10028360038995743,4
921,-107.18231964111328,51.77887725830078,-1.935744047164917,-0.06193132326006889,-1.2459731101989746,-0.2412082552909851,4
922,-73.18207550048828,54.33006286621094,7.797999382019043,-0.6785090565681458,-2.3053207397460938,-0.2477896511554718,4
923,-31.731332778930664,44.06776809692383,12.796799659729004,-1.2173103094100952,-2.6325838565826416,-0.21411094069480896,4
924,1.6506513357162476,13.177492141723633,14.003152847290039,-1.6086331605911255,-2.8712522983551025,-0.0968206599354744,4
925,31.022228240966797,-27.102062225341797,13.847201347351074,-1.4509867429733276,-2.6013054847717285,0.050507739186286926,4
926,51.478755950927734,-58.74126434326172,12.521234512329102,-0.6435378193855286,-2.008410930633545,0.21634532511234283,4
927,51.13666534423828,-79.66300964355469,11.189542770385742,0.04055676981806755,-1.5896157026290894,0.36157411336898804,4
928,39.169376373291016,-80.16392517089844,8.830527305603027,1.0102806091308594,-1.0021964311599731,0.48085522651672363,4
929,18.83799934387207,-69.69263458251953,4.866549968719482,1.6420005559921265,-0.701104462146759,0.5690672993659973,4
930,-6.808786392211914,-55.934661865234375,0.9233635663986206,2.4340171813964844,-0.7078888416290283,0.6201043725013733,4
931,-40.21076202392578,-36.013668060302734,-3.4485881328582764,3.023618698120117,-1.1393574476242065,0.6467975378036499,4
932,-71.10721588134766,-0.061110734939575195,-6.245911121368408,2.9642677307128906,-1.8657310009002686,0.6411094665527344,4
933,-88.03976440429688,38.076637268066406,-5.142873287200928,2.7344470024108887,-2.43088698387146,0.5418077111244202,4
934,-86.77116394042969,71.31904602050781,-2.3422069549560547,2.0012121200561523,-3.549006462097168,0.5314361453056335,4
935,-75.2601547241211,87.88758850097656,-1.918479323387146,1.3420463800430298,-4.149051666259766,0.4033607840538025,4
936,-51.48600769042969,97.48866271972656,0.17272472381591797,0.09492120146751404,-4.823548316955566,0.3587712049484253,4
937,-17.080778121948242,90.59378814697266,1.7672865390777588,-1.2743115425109863,-5.33976411819458,0.3791370093822479,4
938,10.081392288208008,71.69384765625,1.9502769708633423,-1.6199870109558105,-5.218737602233887,0.17912964522838593,4
939,43.96686553955078,55.952369689941406,2.6040754318237305,-2.3839669227600098,-4.7334771156311035,0.1545727550983429,4
940,80.1368179321289,40.46612548828125,0.9083616137504578,-2.665245532989502,-4.114932060241699,0.06323462724685669,4
941,108.17451477050781,21.57376480102539,-3.8734354972839355,-2.814244508743286,-2.886220693588257,-0.02261386625468731,4
942,104.02155303955078,7.417247772216797,-9.833521842956543,-2.8616771697998047,-1.8980872631072998,-0.14579524099826813,4
943,70.76008605957031,-3.7923409938812256,-11.322216987609863,-2.847766637802124,-1.0548814535140991,-0.2804591953754425,4
944,26.336807250976562,-17.627336502075195,-13.942564010620117,-2.6935954093933105,-0.730327308177948,-0.46166738867759705,4
945,-13.623067855834961,-31.892776489257812,-15.808183670043945,-2.3080224990844727,-0.7238724827766418,-0.6805492043495178,4
946,-50.62682342529297,-41.87711715698242,-16.372867584228516,-1.894191026687622,-1.3421567678451538,-0.9311032891273499,4
947,-80.43207550048828,-49.754356384277344,-16.76299476623535,-1.1741180419921875,-2.253647565841675,-1.2274343967437744,4
948,-91.49549102783203,-48.72703552246094,-21.484516143798828,-0.3536777198314667,-3.1466941833496094,-1.4809597730636597,4
949,-82.34225463867188,-34.97203826904297,-26.951990127563477,-0.5395433306694031,-4.227129936218262,-1.5507436990737915,4
950,-51.05256652832031,-16.240936279296875,-33.75579833984375,-0.18884572386741638,-4.759833335876465,-1.7879139184951782,4
951,-9.444125175476074,0.4992598295211792,-40.694454193115234,-0.20417267084121704,-5.139402866363525,-2.0857996940612793,4
952,37.00275802612305,4.7668023109436035,-46.09574890136719,-0.2040887027978897,-4.731759071350098,-2.445590019226074,4
953,65.56935119628906,7.97489070892334,-46.15257263183594,-0.3411400616168976,-4.2784504890441895,-2.876128911972046,4
954,85.96063995361328,12.937888145446777,-45.0582389831543,-0.3015356659889221,-3.20798921585083,-3.321218490600586,4
955,107.75723266601562,29.6071720123291,-44.37199783325195,-0.6442949175834656,-2.255619525909424,-3.696894645690918,4
956,118.99369049072266,48.56093215942383,-44.41171646118164,-0.9803786277770996,-1.4258239269256592,-4.203929901123047,4
957,111.46791076660156,64.57876586914062,-45.90010452270508,-1.8211308717727661,0.2335624098777771,-4.538459777832031,4
958,92.79502868652344,67.49579620361328,-48.82039260864258,-2.4449589252471924,0.786533772945404,-5.11348295211792,4
959,62.805397033691406,60.36686706542969,-49.149749755859375,-3.150277614593506,1.7978965044021606,-5.534862995147705,4
960,24.660465240478516,47.434181213378906,-49.97557830810547,-3.8492629528045654,1.7342599630355835,-6.125830173492432,4
961,-17.54569435119629,31.60560417175293,-48.9985466003418,-4.342761516571045,1.6316943168640137,-6.657892227172852,4
962,-66.01342010498047,20.399574279785156,-45.86067581176758,-4.607809066772461,0.9907392859458923,-7.232369899749756,4
963,-117.41551971435547,17.48927116394043,-42.480159759521484,-4.756424903869629,-0.24147342145442963,-7.835638046264648,4
964,-153.38134765625,22.34360694885254,-37.05410385131836,-4.989273548126221,-1.3267114162445068,-8.120058059692383,4
965,-145.01536560058594,14.982391357421875,-32.28640365600586,-5.200104236602783,-3.2915663719177246,-8.681199073791504,4
966,-103.97075653076172,-19.123558044433594,-28.440744400024414,-4.976388931274414,-4.396518230438232,-8.8701810836792,4
967,-51.64445114135742,-48.14067840576172,-26.54104232788086,-4.664228439331055,-5.274759292602539,-9.113725662231445,4
968,19.758769989013672,-78.93440246582031,-20.888259887695312,-3.759535312652588,-5.53570556640625,-9.350436210632324,4
969,85.68827819824219,-86.48515319824219,-13.605695724487305,-2.8067896366119385,-4.8340744972229,-9.341177940368652,4
970,135.10231018066406,-78.35274505615234,-6.64326286315918,-1.9905245304107666,-3.310865640640259,-9.125238418579102,4
971,151.8694305419922,-61.893798828125,-1.9002970457077026,-1.357168436050415,-1.9915165901184082,-9.196617126464844,4
972,146.4772186279297,-42.5998420715332,3.0473036766052246,-0.6888284683227539,0.10456788539886475,-8.884132385253906,4
973,124.50363159179688,-19.127771377563477,8.677453994750977,-0.05964004248380661,1.5268385410308838,-8.897592544555664,4
974,82.07547760009766,10.789381980895996,15.663515090942383,-0.13724973797798157,2.139666795730591,-8.97072982788086,4
975,44.0459098815918,29.62469482421875,17.494243621826172,-0.4274476170539856,3.0128798484802246,-8.665374755859375,4
976,10.599687576293945,38.09374237060547,20.364797592163086,-0.9130384922027588,2.9461262226104736,-8.595256805419922,4
977,-16.2725830078125,33.354591369628906,24.505168914794922,-1.4487932920455933,3.0596258640289307,-8.289135932922363,4
978,-25.551633834838867,19.42163848876953,27.019529342651367,-1.7617675065994263,2.548799991607666,-8.125534057617188,4
979,-8.134431838989258,-9.999404907226562,26.387243270874023,-1.83099365234375,2.1869056224823,-7.914048194885254,4
980,18.662403106689453,-49.96452713012695,25.17286491394043,-1.3985308408737183,2.3623058795928955,-7.600302696228027,4
981,37.04414367675781,-84.6237564086914,23.607629776000977,-0.3927299678325653,2.6333611011505127,-7.327347755432129,4
982,40.37275314331055,-99.02427673339844,24.32016372680664,0.47736066579818726,2.986776113510132,-7.169727802276611,4
983,23.815805435180664,-85.62619018554688,27.635833740234375,1.7663370370864868,3.520141124725342,-6.8293137550354,4
984,-1.6272777318954468,-55.04525375366211,31.632644653320312,2.305694580078125,3.455040693283081,-6.686403274536133,4
