,timestamp_start,timestamp_end,acc.x,acc.y,acc.z,gyro.x,gyro.y,gyro.z,mag.x,mag.y,mag.z,stabilizer.pitch,stabilizer.roll,stabilizer.yaw
0,17850,17852,-0.09941533207893372,-0.017417889088392258,0.9860265254974365,15.523476600646973,-45.65452194213867,1.8995685577392578,1.0004500150680542,1.9784010648727417,2.9353532791137695,1.1291877031326294,-0.3449361324310303,-1.855460286140442
1,17860,17862,-0.107330821454525,-0.013658619485795498,0.9451878666877747,10.828991889953613,-22.150489807128906,4.216782569885254,1.0109494924545288,2.0218989849090576,2.9638516902923584,0.7317355275154114,-0.0996856763958931,-1.7845184803009033
2,17870,17872,-0.12035994976758957,0.00894866231828928,1.0693573951721191,7.721930503845215,-0.21038374304771423,6.259384632110596,0.9914504289627075,1.9904004335403442,2.9353532791137695,0.8979613184928894,-0.10214409977197647,-1.7376312017440796
3,17880,17882,-0.09376680850982666,0.002798721194267273,1.0301151275634766,9.513663291931152,21.696155548095703,9.770753860473633,1.0064496994018555,1.9934003353118896,2.9563522338867188,0.7513326406478882,0.05183669924736023,-1.6513594388961792
4,17890,17892,-0.06505391001701355,0.006392332259565592,0.998236894607544,-4.716421127319336,41.40350341796875,10.47067928314209,1.004949688911438,2.00689959526062,2.9578521251678467,0.2947658896446228,0.12052184343338013,-1.5479644536972046
5,17900,17902,-0.05116274207830429,-0.05209162458777428,1.0030921697616577,-22.336977005004883,51.610015869140625,12.325793266296387,1.0139492750167847,2.012899398803711,2.942852735519409,-0.17191000282764435,-0.23513060808181763,-1.4328572750091553
6,17910,17912,-0.07209668308496475,-0.009928221814334393,0.9714757800102234,-28.628280639648438,43.371212005615234,14.6885986328125,0.9959501624107361,1.9979000091552734,2.945852756500244,-0.6869365572929382,-0.568555474281311,-1.2967175245285034
7,17920,17922,-0.07303966581821442,0.031710702925920486,0.9464584589004517,-18.24460792541504,23.82271957397461,17.704517364501953,0.9944502711296082,2.008399486541748,2.944352626800537,-1.1656866073608398,-0.6779209971427917,-1.1427656412124634
8,17930,17932,-0.08163542300462723,0.0061987717635929585,0.9813860654830933,-0.8332638740539551,7.853748798370361,19.838205337524414,0.9929503202438354,1.9919003248214722,2.9308533668518066,-1.284784197807312,-0.6803196668624878,-0.9507800936698914
9,17940,17942,-0.046240489929914474,-0.08759009838104248,0.9986083507537842,17.69593048095703,-5.333429336547852,19.729217529296875,0.9884505867958069,1.9814008474349976,2.9323532581329346,-1.1535776853561401,-0.3940347731113434,-0.7429353594779968
10,17950,17952,-0.0897006168961525,-0.12989653646945953,0.9628838896751404,30.716245651245117,-22.034423828125,19.30277442932129,0.9929503202438354,1.9769011735916138,2.9338531494140625,-1.0151079893112183,-0.1949029564857483,-0.54682457447052
11,17960,17962,-0.1097404882311821,-0.060274288058280945,0.9290183782577515,30.50874137878418,-34.171688079833984,17.593599319458008,0.9959501624107361,1.9769011735916138,2.9338531494140625,-0.6889204382896423,-0.15323948860168457,-0.3729245066642761
12,17970,17972,-0.12395622581243515,-0.013921510428190231,0.9333636164665222,19.371143341064453,-32.34492492675781,14.1021089553833,0.9959501624107361,1.9799009561538696,2.924853801727295,-0.11251205950975418,0.21097329258918762,-0.2036093771457672
13,17980,17982,-0.15925320982933044,0.02025384083390236,0.9928267002105713,3.7348215579986572,-25.238264083862305,9.871858596801758,1.0109494924545288,1.9739012718200684,2.9128541946411133,-0.13672299683094025,0.40930142998695374,-0.09266391396522522
14,17990,17992,-0.1702064424753189,-0.07852591574192047,1.00521719455719,-11.211992263793945,-17.27731704711914,7.455204486846924,1.0064496994018555,1.969401478767395,2.923353672027588,0.20001858472824097,0.37039145827293396,-0.004988363012671471
15,18000,18002,-0.10148375481367111,-0.05537882447242737,0.9303135871887207,-24.877065658569336,-5.827066898345947,7.969923496246338,1.0004500150680542,1.9874006509780884,2.920353889465332,1.6770020723342896,0.1726161241531372,0.14997753500938416
16,18010,18012,-0.0958649218082428,-0.03921188414096832,0.915259599685669,-37.433189392089844,7.163483619689941,6.877442836761475,1.0109494924545288,1.985900640487671,2.927853584289551,1.523084282875061,-0.3384595513343811,0.216116264462471
17,18020,18022,-0.10610362887382507,0.018827812746167183,0.9415370225906372,-41.753875732421875,27.76146697998047,6.218364238739014,1.004949688911438,1.9799009561538696,2.918853998184204,1.1921954154968262,-0.6453951597213745,0.2653348445892334
18,18030,18032,-0.15114383399486542,-0.022220104932785034,0.9471208453178406,-33.94352722167969,55.55659484863281,6.188587188720703,0.9944502711296082,1.984400749206543,2.917354106903076,0.6777103543281555,-1.2582371234893799,0.3260905146598816
19,18040,18042,-0.13949982821941376,-0.02184576541185379,0.9446426033973694,-16.538772583007812,78.64037322998047,8.358280181884766,0.9869506359100342,1.9919003248214722,2.9488525390625,-0.30469802021980286,-1.5103398561477661,0.3617779016494751
20,18050,18052,-0.10487931966781616,-0.025486279278993607,0.9484480023384094,3.2921297550201416,94.42407989501953,8.20394229888916,0.9914504289627075,2.008399486541748,2.950352430343628,-1.0135860443115234,-1.3764609098434448,0.4249136447906494
21,18060,18062,-0.07354488223791122,-0.04761248826980591,0.9336714744567871,24.376449584960938,97.35511016845703,5.698613166809082,0.9869506359100342,2.0038998126983643,2.9638516902923584,-2.296748161315918,-1.1458077430725098,0.455403208732605
22,18070,18072,-0.08820122480392456,-0.0039770593866705894,0.9408965110778809,42.72163772583008,84.83779907226562,3.925933361053467,0.9869506359100342,2.012899398803711,2.9668517112731934,-3.0041236877441406,-0.6411668062210083,0.49057307839393616
23,18080,18082,-0.09200519323348999,-0.013583208434283733,0.9107625484466553,50.11869812011719,58.1309814453125,2.3544838428497314,0.9704514741897583,1.9964001178741455,2.947352647781372,-3.9413902759552,-0.013503755442798138,0.5162745714187622
24,18090,18092,-0.038577623665332794,0.013533810153603554,0.8281763792037964,48.21016311645508,22.40900993347168,0.5850347876548767,0.965951681137085,1.9919003248214722,2.942852735519409,-4.197012424468994,0.23593497276306152,0.5140373706817627
25,18100,18102,0.043775562196969986,0.014607313089072704,0.8362308144569397,37.33242416381836,-12.926421165466309,-0.17793813347816467,0.9749512076377869,1.985900640487671,2.9308533668518066,-4.206103324890137,0.6619316935539246,0.5162400603294373
26,18110,18112,0.04884815961122513,0.04019147902727127,0.8795024752616882,23.314373016357422,-44.055110931396484,-0.6871839165687561,0.9734513163566589,1.9874006509780884,2.947352647781372,-3.8627192974090576,1.0305536985397339,0.5229505896568298
27,18120,18122,0.0522305965423584,-0.029622189700603485,0.8635678887367249,7.4737372398376465,-71.12261199951172,-1.7826652526855469,0.9764511585235596,1.9874006509780884,2.9563522338867188,-3.2442080974578857,1.0139206647872925,0.4649656414985657
28,18130,18132,-0.06814287602901459,-0.014527847059071064,0.9076095223426819,-10.46912670135498,-86.69600677490234,-3.915158748626709,0.9794510006904602,2.011399507522583,2.9683516025543213,-2.47536563873291,0.8824782967567444,0.39590659737586975
29,18140,18142,-0.0859021544456482,0.025449654087424278,0.917462944984436,-25.145715713500977,-87.41739654541016,-9.150909423828125,0.9914504289627075,1.9904004335403442,2.974351167678833,-1.4160075187683105,0.591923713684082,0.3062000274658203
30,18150,18152,-0.09124532341957092,0.014656567014753819,0.9646134376525879,-20.149829864501953,-75.84955596923828,-12.319622993469238,0.9989500045776367,2.0009000301361084,2.9818508625030518,-0.9836721420288086,0.5048364996910095,0.192588210105896
31,18160,18162,-0.04976574704051018,-0.02005598321557045,1.0013831853866577,-10.342658996582031,-53.482322692871094,-10.599658012390137,1.0109494924545288,1.970901370048523,2.945852756500244,-0.24055860936641693,0.3361126482486725,0.07523156702518463
32,18170,18172,-0.042888518422842026,-0.04974447563290596,1.022344946861267,0.7654070854187012,-24.137537002563477,-4.883892059326172,1.0094494819641113,1.9904004335403442,2.944352626800537,0.06113215163350105,0.5459985136985779,0.054170094430446625
33,18180,18182,-0.09077385067939758,-0.04102502018213272,1.0345499515533447,13.892728805541992,11.339773178100586,0.6018017530441284,1.0019499063491821,2.0009000301361084,2.942852735519409,-0.1760183572769165,0.5248672962188721,-0.020926333963871002
34,18190,18192,-0.10090716183185577,-0.0656455010175705,1.0048938989639282,20.42977523803711,35.39822769165039,5.105642318725586,0.9959501624107361,1.9919003248214722,2.969851493835449,-0.5608094930648804,0.7675324082374573,0.017212405800819397
35,18200,18202,-0.10646312683820724,-0.030082643032073975,1.0394349098205566,7.091074466705322,45.54384231567383,5.405631065368652,1.0004500150680542,2.005399703979492,2.9593520164489746,-1.1599681377410889,0.9463196396827698,0.06296450644731522
36,18210,18212,-0.08943714201450348,-0.034138359129428864,1.0522981882095337,-10.829849243164062,40.718875885009766,5.900382995605469,0.9884505867958069,1.999400019645691,2.953352212905884,-1.5541993379592896,0.8602269291877747,0.12106966972351074
37,18220,18222,-0.05409455671906471,-0.06750885397195816,1.0157920122146606,-29.5164852142334,12.069849967956543,7.77365779876709,1.0004500150680542,1.9934003353118896,2.9383530616760254,-1.9798120260238647,0.5508846044540405,0.15335534512996674
38,18230,18232,-0.06795257329940796,0.0025577193591743708,0.9824131727218628,-47.93096160888672,-22.81705665588379,6.920463562011719,0.9944502711296082,1.9814008474349976,2.9383530616760254,-1.8551346063613892,-0.004413444083184004,0.20814065635204315
39,18240,18242,-0.04685378447175026,0.10711770504713058,1.013942003250122,-41.84550857543945,-48.459842681884766,7.20651388168335,1.0019499063491821,1.9889005422592163,2.9398529529571533,-1.432560920715332,-0.3432622253894806,0.3114188313484192
40,18250,18252,-0.029585734009742737,0.0588935986161232,1.00836181640625,-21.09372901916504,-57.89942932128906,10.393132209777832,1.0094494819641113,1.9934003353118896,2.9353532791137695,-0.6960909962654114,-0.7940148711204529,0.40387803316116333
41,18260,18262,-0.10942372679710388,0.022657830268144608,1.0468302965164185,-3.446681261062622,-61.03392028808594,13.672319412231445,0.9944502711296082,1.9874006509780884,2.9353532791137695,-0.09925771504640579,-0.9697802066802979,0.5249001979827881
42,18270,18272,-0.15331225097179413,-0.03901723399758339,1.083961009979248,13.21508502960205,-59.32977294921875,16.555294036865234,1.0079495906829834,1.9949002265930176,2.942852735519409,0.1238832175731659,-0.5079131126403809,0.7049529552459717
43,18280,18282,-0.0752917006611824,-0.042293064296245575,1.0395910739898682,21.6574764251709,-44.583126068115234,12.721386909484863,1.0139492750167847,1.982900857925415,2.9308533668518066,0.7854260802268982,-0.30015829205513,0.8790451288223267
44,18290,18292,-0.08259329944849014,-0.01887206733226776,1.0325112342834473,22.4976863861084,-22.83523178100586,8.16999626159668,1.0109494924545288,1.9769011735916138,2.918853998184204,0.7807202935218811,0.0016759991412982345,0.9560828804969788
45,18300,18302,-0.15783527493476868,-0.06438402086496353,1.031524896621704,12.348245620727539,-5.897200107574463,3.3790054321289062,1.019948959350586,1.9649016857147217,2.9128541946411133,0.9766950011253357,0.21841804683208466,1.0221076011657715
46,18310,18312,-0.13434885442256927,-0.02528426982462406,1.0128271579742432,3.492948293685913,5.9071550369262695,-0.8025696277618408,1.0124493837356567,1.954402208328247,2.9083545207977295,0.8086431622505188,0.13193336129188538,1.008051872253418
47,18320,18322,-0.0774293914437294,-0.03947630152106285,1.0216737985610962,-6.574440956115723,8.457489013671875,-3.9836394786834717,1.0139492750167847,1.970901370048523,2.894855260848999,0.7810638546943665,0.10633616894483566,0.98483806848526
48,18330,18332,-0.03971412405371666,-0.09212780743837357,1.0483133792877197,-13.644075393676758,-1.9906702041625977,-3.307925224304199,1.018449068069458,1.954402208328247,2.9053547382354736,0.7380247712135315,-0.056473102420568466,0.9447223544120789
49,18340,18342,-0.06752774864435196,-0.1628781259059906,1.0638943910598755,-12.096492767333984,-25.446617126464844,-1.0599379539489746,1.0154491662979126,1.9514024257659912,2.893355369567871,0.9425315856933594,-0.0013916604220867157,0.9279454946517944
50,18350,18352,-0.06753061711788177,-0.04616350308060646,1.1145943403244019,-6.103800296783447,-54.44020080566406,0.7337575554847717,1.0154491662979126,1.969401478767395,2.9053547382354736,1.1316943168640137,-0.16693206131458282,0.9131600856781006
51,18360,18362,-0.11364582926034927,-0.07174308598041534,1.091596007347107,1.546318531036377,-84.56767272949219,2.440152645111084,1.018449068069458,1.9664016962051392,2.926353693008423,2.0941224098205566,-0.2085600346326828,0.9556466937065125
52,18370,18372,-0.1444534808397293,-0.017954980954527855,1.0943306684494019,8.48986530303955,-96.76732635498047,5.84493350982666,1.0379481315612793,1.970901370048523,2.927853584289551,2.8529558181762695,-0.155377596616745,0.9827724695205688
53,18380,18382,-0.144796684384346,0.014685891568660736,1.0064904689788818,16.336076736450195,-93.63417053222656,10.955809593200684,1.0289485454559326,1.9589020013809204,2.9128541946411133,3.82499623298645,0.039045464247465134,1.0617139339447021
54,18390,18392,-0.06667563319206238,-0.05099039897322655,1.0163853168487549,19.118738174438477,-84.7587890625,18.741458892822266,1.0379481315612793,1.9439027309417725,2.8768560886383057,4.53651762008667,0.3074115216732025,1.1850208044052124
55,18400,18402,-0.09772446751594543,-0.03479788079857826,1.057754397392273,12.911543846130371,-67.7924575805664,19.298795700073242,1.048447608947754,1.9274035692214966,2.8873555660247803,5.497590065002441,0.553564190864563,1.370720386505127
56,18410,18412,-0.11665301769971848,-0.004944253247231245,1.1207263469696045,5.05828857421875,-28.43052864074707,14.06628704071045,1.0514473915100098,1.9334032535552979,2.872356414794922,5.7509284019470215,0.6512590646743774,1.505746841430664
57,18420,18422,-0.12407029420137405,-0.003944315481930971,1.0438677072525024,-2.0627386569976807,18.914072036743164,6.125064373016357,1.0214488506317139,1.9184041023254395,2.866356611251831,5.8594970703125,0.57685786485672,1.640938401222229
58,18430,18432,-0.14554056525230408,-0.022027423605322838,1.023688793182373,-16.151321411132812,68.3514404296875,-2.8362643718719482,1.0349482297897339,1.93190336227417,2.8588569164276123,5.288331031799316,0.4259639084339142,1.6722350120544434
59,18440,18442,-0.12974895536899567,0.003512510098516941,0.9588074088096619,-32.88175964355469,106.8228759765625,-9.304971694946289,1.0409479141235352,1.9739012718200684,2.9128541946411133,4.282166481018066,0.015542159788310528,1.671971321105957
60,18450,18452,-0.07460503280162811,-0.022155432030558586,0.9300124645233154,-42.31998062133789,121.79427337646484,-10.730450630187988,1.0259486436843872,1.985900640487671,2.9128541946411133,3.197580099105835,-0.3951163589954376,1.5849926471710205
61,18460,18462,-0.06745758652687073,-0.03699633851647377,0.9018586874008179,-40.40385818481445,119.56049346923828,-10.812854766845703,1.00344979763031,1.984400749206543,2.9053547382354736,2.1201350688934326,-0.8059424161911011,1.4770511388778687
62,18470,18472,-0.09134223312139511,-0.00792763102799654,0.8857476115226746,-22.102073669433594,105.8329086303711,-10.319649696350098,1.0124493837356567,1.9664016962051392,2.893355369567871,0.7628609538078308,-1.2032849788665771,1.3736660480499268
63,18480,18482,-0.08503521233797073,-0.011898145079612732,0.8628683090209961,8.773773193359375,81.23552703857422,-10.106995582580566,0.9959501624107361,1.9649016857147217,2.8768560886383057,0.18908023834228516,-1.0565212965011597,1.1778467893600464
64,18490,18492,-0.043597958981990814,-0.040184348821640015,0.8438937067985535,41.971256256103516,46.6669921875,-9.888002395629883,0.9929503202438354,1.93190336227417,2.8558571338653564,-0.565574049949646,-0.6811460256576538,1.0099287033081055
65,18500,18502,-0.03463618457317352,0.020640693604946136,0.8536301255226135,69.4569320678711,10.73939037322998,-7.934778213500977,0.9824508428573608,1.9484025239944458,2.872356414794922,-0.659119188785553,-0.027667341753840446,0.8874149918556213
66,18510,18512,-0.03199531137943268,0.048933278769254684,0.8824945092201233,83.67449188232422,-21.04718780517578,-2.5071306228637695,0.9854506850242615,1.969401478767395,2.896355152130127,-0.472733736038208,0.8498443365097046,0.7981095910072327
67,18520,18522,-0.07927225530147552,-0.03844500705599785,0.8578075170516968,76.57959747314453,-37.3397102355957,3.7193801403045654,0.9854506850242615,1.94540274143219,2.8873555660247803,-0.1070890799164772,1.6058712005615234,0.8268760442733765
68,18530,18532,-0.08285173773765564,-0.04660200700163841,0.8313083648681641,49.38009262084961,-40.77067565917969,7.387541770935059,0.9944502711296082,1.9334032535552979,2.872356414794922,0.4931846559047699,2.286177635192871,0.8635734915733337
69,18540,18542,-0.07783537358045578,-0.05650141090154648,0.8149822354316711,0.8088598847389221,-36.12163543701172,6.520428657531738,1.0109494924545288,1.9409029483795166,2.870856523513794,0.7810227274894714,2.212998628616333,1.0227305889129639
70,18550,18552,-0.08615044504404068,-0.058604877442121506,0.8456060886383057,-51.86262512207031,-36.116981506347656,2.4669532775878906,1.0064496994018555,1.930403470993042,2.866356611251831,1.1744834184646606,1.795082688331604,1.0984469652175903
71,18560,18562,-0.0469883568584919,-0.0797376036643982,0.8087399005889893,-95.32638549804688,-31.883193969726562,-2.9330556392669678,1.01694917678833,1.9529023170471191,2.9038548469543457,1.4791038036346436,1.016985297203064,1.0828804969787598
72,18570,18572,-0.0918111726641655,-0.054180972278118134,0.8687320947647095,-114.46452331542969,-10.103636741638184,-8.002947807312012,1.01694917678833,1.985900640487671,2.9368531703948975,1.6572041511535645,-0.3132249712944031,1.095803141593933
73,18580,18582,-0.09081204980611801,-0.02988731861114502,0.9155168533325195,-102.46094512939453,23.31315040588379,-10.89436149597168,1.0139492750167847,1.9979000091552734,2.9488525390625,1.4384585618972778,-1.1323822736740112,0.8904218673706055
74,18590,18592,-0.08780751377344131,-0.018435180187225342,0.9241445660591125,-66.27076721191406,44.434364318847656,-9.603079795837402,1.01694917678833,1.9949002265930176,2.924853801727295,0.956200897693634,-2.1924729347229004,0.826614499092102
75,18600,18602,-0.09134149551391602,-0.030237391591072083,0.9326159358024597,-21.977901458740234,48.22658920288086,-9.294967651367188,1.0019499063491821,1.9919003248214722,2.9368531703948975,0.4940330982208252,-2.415605306625366,0.6574358344078064
76,18610,18612,-0.08954129368066788,-0.04378145560622215,0.9632551670074463,19.83672523498535,38.93723678588867,-8.76899242401123,0.9929503202438354,1.9799009561538696,2.924853801727295,-0.11873569339513779,-2.1137020587921143,0.451062947511673
77,18620,18622,-0.07818672806024551,-0.012704812921583652,0.9191005229949951,48.621036529541016,26.13625717163086,-9.75800895690918,1.01694917678833,2.0038998126983643,2.945852756500244,-0.27123376727104187,-1.7870692014694214,0.3715839087963104
78,18630,18632,-0.07954173535108566,-0.03444799408316612,0.9328562617301941,63.80952453613281,7.995343208312988,-9.707452774047852,0.9899504780769348,1.982900857925415,2.9398529529571533,-0.5179427266120911,-1.0089291334152222,0.21774885058403015
79,18640,18642,-0.049593836069107056,-0.0742473155260086,0.9680638313293457,67.3696517944336,-17.99589729309082,-7.496404647827148,0.9974501132965088,1.9664016962051392,2.944352626800537,-0.22101105749607086,-0.5145334005355835,0.16976672410964966
80,18650,18652,0.0003102715127170086,-0.09351684898138046,0.9171019196510315,57.37446594238281,-37.27841567993164,-2.5625197887420654,1.0019499063491821,1.9889005422592163,2.92185378074646,0.1258472353219986,0.23062564432621002,0.09575522691011429
81,18660,18662,-0.010978838428854942,-0.06707137823104858,0.9106286764144897,34.80305862426758,-39.77790451049805,3.0432751178741455,1.004949688911438,1.970901370048523,2.9308533668518066,0.5158588886260986,0.7675331830978394,0.08138924092054367
82,18670,18672,-0.12441615760326385,-0.027663368731737137,0.9181145429611206,8.640111923217773,-28.88274574279785,6.6544389724731445,0.9989500045776367,1.9739012718200684,2.9308533668518066,1.049766182899475,0.7711582183837891,0.1599152535200119
83,18680,18682,-0.18180303275585175,-0.08327688276767731,0.9191107749938965,-22.44498062133789,-7.435213565826416,8.402083396911621,1.0139492750167847,1.9769011735916138,2.92185378074646,1.150976300239563,0.5999869704246521,0.2519858479499817
84,18690,18692,-0.11172572523355484,-0.09601125866174698,0.8307305574417114,-46.35418701171875,9.898723602294922,10.171895027160645,1.0124493837356567,1.9724013805389404,2.9353532791137695,1.0538082122802734,0.10044083744287491,0.3673834204673767
85,18700,18702,-0.08761481940746307,-0.06908927112817764,0.889173150062561,-55.49141311645508,17.571775436401367,10.324851989746094,1.0154491662979126,1.9964001178741455,2.9563522338867188,0.8309056758880615,-0.40265312790870667,0.4670409858226776
86,18710,18712,-0.12608729302883148,-0.02438868023455143,0.9482988715171814,-48.02163314819336,22.265832901000977,8.623539924621582,1.0019499063491821,1.9949002265930176,2.9548521041870117,0.7409706115722656,-1.1311413049697876,0.5949852466583252
87,18720,18722,-0.10256475955247879,-0.03717942535877228,0.9287034273147583,-34.71543884277344,32.583900451660156,6.564091205596924,1.0094494819641113,1.999400019645691,2.9683516025543213,0.30788660049438477,-1.3750240802764893,0.6329607367515564
88,18730,18732,-0.01229932438582182,-0.013482704758644104,0.9313024282455444,-20.592689514160156,35.4806022644043,7.073644638061523,1.0094494819641113,2.008399486541748,2.9653515815734863,-0.098808154463768,-1.6896272897720337,0.697079062461853
89,18740,18742,-0.007019519805908203,-0.07352687418460846,0.96528559923172,-6.452597141265869,25.040206909179688,7.887697696685791,1.00344979763031,2.011399507522583,2.9683516025543213,-0.30554449558258057,-1.6277378797531128,0.7385457158088684
90,18750,18752,-0.061675459146499634,-0.11722578853368759,0.9350647330284119,2.4351205825805664,17.988113403320312,7.153990268707275,1.0019499063491821,2.0218989849090576,2.9488525390625,-0.49608585238456726,-1.664473056793213,0.8115586638450623
91,18760,18762,-0.0766013041138649,-0.05709582567214966,0.9549576640129089,7.920785427093506,12.452458381652832,2.3043932914733887,0.9929503202438354,2.0038998126983643,2.9668517112731934,-0.589195191860199,-1.5908665657043457,0.8516093492507935
92,18770,18772,-0.039320264011621475,0.01890689507126808,0.9506597518920898,20.815393447875977,11.14053726196289,-4.619048118591309,1.004949688911438,2.0038998126983643,2.9668517112731934,-0.8410021662712097,-1.3739433288574219,0.8373605012893677
93,18780,18782,0.014762924052774906,-0.05710764601826668,1.0084648132324219,26.88267707824707,-3.9081382751464844,-12.138267517089844,0.9884505867958069,2.014399290084839,2.974351167678833,-0.9174962639808655,-1.2498568296432495,0.7601140737533569
94,18790,18792,-0.046743445098400116,-0.1430811882019043,0.9767642617225647,26.832242965698242,-33.26875686645508,-19.30296516418457,1.0109494924545288,2.009899377822876,2.9818508625030518,-0.6200838088989258,-0.7935272455215454,0.5853269100189209
95,18800,18802,-0.0501498319208622,-0.16712550818920135,0.9381439089775085,26.98848533630371,-56.45608139038086,-24.321971893310547,1.0004500150680542,2.0263986587524414,3.001349925994873,-0.031529784202575684,-0.49328482151031494,0.3532925248146057
96,18810,18812,-0.08669888228178024,-0.03806991130113602,0.9426162838935852,25.991268157958984,-60.168907165527344,-26.228551864624023,1.004949688911438,2.0218989849090576,3.005849599838257,0.5458477139472961,-0.27752262353897095,0.10325443744659424
97,18820,18822,-0.07151350378990173,-0.03388303890824318,0.9867615699768066,24.6917667388916,-40.11954879760742,-22.933841705322266,1.004949688911438,2.0218989849090576,3.005849599838257,0.9002699255943298,-0.21468889713287354,-0.1256175935268402
98,18830,18832,-0.0777643546462059,-0.05824917182326317,1.041260004043579,12.813863754272461,-11.252812385559082,-20.320457458496094,1.0124493837356567,2.0263986587524414,3.0073494911193848,1.2994283437728882,0.14113888144493103,-0.35432520508766174
99,18840,18842,-0.06300520896911621,-0.059474311769008636,1.0232430696487427,-9.798711776733398,15.093401908874512,-18.765241622924805,1.0019499063491821,2.0218989849090576,3.008849620819092,1.068318247795105,0.053983401507139206,-0.5309065580368042
100,18850,18852,0.005453881341964006,-0.002532059559598565,0.9604944586753845,-30.390182495117188,36.163578033447266,-16.864667892456055,1.0019499063491821,2.0218989849090576,3.008849620819092,0.7533517479896545,-0.12302430719137192,-0.706585705280304
101,18860,18862,-0.09609567373991013,-0.04146783426403999,1.0587691068649292,-40.78900909423828,49.38180923461914,-15.319669723510742,1.0124493837356567,2.0473976135253906,3.0133492946624756,0.4243771433830261,-0.6337965726852417,-0.8713319897651672
102,18870,18872,-0.06727588176727295,-0.029612360522150993,1.055519461631775,-41.09049606323242,49.79296875,-13.112809181213379,1.0004500150680542,2.0443978309631348,3.0373480319976807,-0.24949422478675842,-1.2311651706695557,-1.002629280090332
103,18880,18882,-0.05457529425621033,-0.02138637565076351,1.0217499732971191,-25.08418846130371,41.29207992553711,-11.784180641174316,0.9929503202438354,2.0518972873687744,3.029848337173462,-0.7608320713043213,-1.6191760301589966,-1.1309144496917725
104,18890,18892,-0.03466809540987015,0.02094256319105625,1.0808379650115967,0.4363727867603302,25.278865814208984,-11.273260116577148,0.9974501132965088,2.0473976135253906,3.0193488597869873,-1.0585334300994873,-1.5278630256652832,-1.2608320713043213
105,18900,18902,-0.057575590908527374,-0.03475448489189148,1.04436194896698,30.6431941986084,-0.0713864415884018,-11.193463325500488,1.0064496994018555,2.035398244857788,3.0073494911193848,-1.2349084615707397,-1.0955630540847778,-1.3706104755401611
106,18910,18912,-0.04591354727745056,-0.03486810624599457,0.9936131834983826,49.902767181396484,-23.791200637817383,-10.556615829467773,0.9944502711296082,2.038398027420044,3.031348466873169,-0.8061286807060242,-0.6375265717506409,-1.503130555152893
107,18920,18922,-0.014585357159376144,-0.014829467050731182,0.9987961053848267,48.24303436279297,-35.8857307434082,-10.768771171569824,0.9929503202438354,2.0188989639282227,3.0208489894866943,-0.28887319564819336,-0.019627828150987625,-1.622186303138733
108,18930,18932,-0.027502844110131264,-0.022702578455209732,1.0021641254425049,38.75528335571289,-40.042686462402344,-12.589263916015625,1.0019499063491821,2.03389835357666,3.0148491859436035,-0.012216652743518353,0.2693946659564972,-1.7344709634780884
109,18940,18942,-0.05840431526303291,-0.029709672555327415,1.025005578994751,24.408769607543945,-39.79983139038086,-16.95282554626465,1.0064496994018555,2.0473976135253906,3.0223488807678223,0.4325474202632904,0.5104395747184753,-1.8942158222198486
110,18950,18952,-0.04644620418548584,-0.07421671599149704,1.0422264337539673,9.536646842956543,-33.280765533447266,-21.784252166748047,1.004949688911438,2.0218989849090576,3.0208489894866943,0.7578181028366089,0.5839287638664246,-2.0977509021759033
111,18960,18962,-0.11458713561296463,-0.049820154905319214,1.0223350524902344,3.887803316116333,-29.4017333984375,-24.512821197509766,1.0064496994018555,2.038398027420044,3.004349708557129,0.975242018699646,0.5494975447654724,-2.336782217025757
112,18970,18972,-0.08650007098913193,-0.0014107261085882783,1.123057246208191,6.310330867767334,-38.9296760559082,-19.958126068115234,1.0064496994018555,2.035398244857788,3.0103495121002197,1.1741365194320679,0.6512490510940552,-2.558983325958252
113,18980,18982,-0.08991235494613647,-0.03709735348820686,1.1553468704223633,7.007202625274658,-46.20143508911133,-14.034465789794922,1.0109494924545288,2.03389835357666,3.005849599838257,1.6307075023651123,0.8077579736709595,-2.7306816577911377
114,18990,18992,-0.10664259642362595,-0.0927610695362091,1.1756670475006104,-13.706385612487793,-42.14864730834961,-7.130289077758789,1.0079495906829834,2.03389835357666,3.005849599838257,2.0794758796691895,0.7412824630737305,-2.8380589485168457
115,19000,19002,-0.1198776513338089,-0.04093019664287567,1.2810291051864624,-38.749900817871094,-36.204776763916016,-5.576416969299316,1.0139492750167847,2.0278985500335693,3.0148491859436035,2.453204870223999,0.3064385652542114,-2.8942930698394775
116,19010,19012,-0.1567457616329193,-0.03844606503844261,1.2924913167953491,-38.582515716552734,-23.968029022216797,-4.693870544433594,1.0259486436843872,2.0428977012634277,3.0148491859436035,2.48842191696167,-0.04053695872426033,-2.9552528858184814
117,19020,19022,-0.13159340620040894,-0.026214174926280975,1.2713978290557861,-30.62236976623535,-13.267743110656738,0.4409347474575043,1.0274486541748047,2.0413978099823,2.998350143432617,2.813807487487793,-0.4410717189311981,-2.9646899700164795
118,19030,19032,-0.1466597020626068,-0.10990320146083832,1.20084810256958,-19.49617576599121,7.885151386260986,8.348159790039062,1.0154491662979126,2.0203988552093506,3.001349925994873,2.777270555496216,-0.48627769947052,-2.944418430328369
119,19040,19042,-0.12212279438972473,-0.019927652552723885,1.162111759185791,2.594125270843506,34.61667251586914,17.791446685791016,1.0214488506317139,2.0263986587524414,2.980350971221924,2.3945930004119873,-0.6436933279037476,-2.805466651916504
120,19050,19052,-0.09606750309467316,-0.09215736389160156,1.1062519550323486,35.01020812988281,48.44375991821289,24.5729923248291,1.033448338508606,2.008399486541748,2.9623517990112305,1.7928621768951416,-0.35939061641693115,-2.611628770828247
121,19060,19062,-0.07712052017450333,-0.05668305978178978,1.0338469743728638,62.50437927246094,50.410709381103516,29.954225540161133,1.0064496994018555,2.005399703979492,2.9683516025543213,1.3133916854858398,0.42872878909111023,-2.3842570781707764
122,19070,19072,-0.10256920754909515,-0.0780964270234108,1.082414984703064,76.88381958007812,54.666778564453125,33.37446594238281,1.00344979763031,2.008399486541748,2.980350971221924,0.9411004185676575,1.0617035627365112,-2.040614604949951
123,19080,19082,-0.1405915766954422,-0.07284984737634659,1.114478349685669,77.15310668945312,62.100303649902344,34.56391906738281,1.0019499063491821,2.012899398803711,2.9848506450653076,0.10772377252578735,1.988387107849121,-1.7101086378097534
124,19090,19092,-0.08048108220100403,-0.037886861711740494,1.050552248954773,47.27476501464844,67.93827056884766,33.78253936767578,1.0124493837356567,2.0173990726470947,2.977351188659668,-0.2869429588317871,2.3958547115325928,-1.29568612575531
125,19100,19102,-0.07057573646306992,-0.10219386965036392,0.984614908695221,-0.24410490691661835,63.10951614379883,29.985008239746094,1.004949688911438,1.9889005422592163,2.9668517112731934,-0.9769193530082703,2.560370445251465,-0.947909414768219
126,19110,19112,-0.06401330977678299,-0.051951970905065536,0.9730614423751831,-47.96317672729492,46.46675109863281,27.19341278076172,0.9854506850242615,1.9934003353118896,2.944352626800537,-1.7734103202819824,2.1384639739990234,-0.6469358205795288
127,19120,19122,-0.07752544432878494,-0.014160752296447754,1.0026541948318481,-79.19477844238281,18.303890228271484,21.612367630004883,0.9839507937431335,1.9739012718200684,2.9128541946411133,-1.6428089141845703,1.1880152225494385,-0.31879523396492004
128,19130,19132,-0.07233268767595291,0.06551971286535263,1.0109279155731201,-87.93507385253906,-10.029838562011719,13.382097244262695,1.004949688911438,2.0038998126983643,2.9548521041870117,-1.4153109788894653,0.5903143882751465,-0.12811006605625153
129,19140,19142,-0.052426502108573914,-0.02659386768937111,0.9435888528823853,-78.64441680908203,-29.307523727416992,8.82364273071289,1.0064496994018555,1.9934003353118896,2.9293534755706787,-1.1658276319503784,-0.4902404248714447,-0.012533514760434628
130,19150,19152,-0.09597903490066528,0.009004751220345497,0.9099739193916321,-58.08730697631836,-46.48975372314453,5.815527439117432,0.9899504780769348,1.9769011735916138,2.924853801727295,-0.9761513471603394,-1.0523303747177124,0.031882476061582565
131,19160,19162,-0.06345458328723907,-0.029583191499114037,0.9289884567260742,-31.25584602355957,-60.24430465698242,2.4857444763183594,1.0124493837356567,1.9724013805389404,2.9113543033599854,-0.44836342334747314,-1.2835713624954224,0.08502858877182007
132,19170,19172,-0.11004412174224854,-0.02101464755833149,0.9534018039703369,-4.11591911315918,-62.545249938964844,-0.5007192492485046,1.004949688911438,1.9619019031524658,2.9158542156219482,0.1601635366678238,-1.4498738050460815,0.10756035149097443
133,19180,19182,-0.08732243627309799,-0.038600821048021317,0.937885046005249,24.404748916625977,-45.068058013916016,-2.547712564468384,0.9869506359100342,1.9619019031524658,2.9008548259735107,0.793341875076294,-1.004138469696045,0.12495051324367523
134,19190,19192,-0.08277979493141174,-0.03797098249197006,0.9772284030914307,45.7346076965332,-18.105133056640625,0.27616265416145325,1.004949688911438,1.9649016857147217,2.9098544120788574,0.8885732293128967,-0.6560544967651367,0.09907899796962738
135,19200,19202,-0.09942065924406052,-0.06027841567993164,0.9994530081748962,62.3163948059082,7.5705976486206055,4.0086350440979,1.01694917678833,1.9559022188186646,2.924853801727295,0.7050268054008484,0.07401224225759506,0.11662250012159348
136,19210,19212,-0.0764782577753067,-0.025603799149394035,0.9909729957580566,58.9525260925293,26.530532836914062,7.353773593902588,1.0079495906829834,1.9619019031524658,2.924853801727295,0.45236292481422424,0.6318268179893494,0.1736030876636505
137,19220,19222,-0.0703885406255722,-0.058654118329286575,0.9788069725036621,39.66349792480469,30.680835723876953,8.211585998535156,1.0094494819641113,1.9784010648727417,2.953352212905884,0.01963898167014122,1.2073328495025635,0.25539836287498474
138,19230,19232,-0.10361342877149582,-0.07404527068138123,0.949759304523468,5.603587627410889,22.632478713989258,4.233816623687744,1.019948959350586,1.970901370048523,2.924853801727295,-0.0944090262055397,1.2003672122955322,0.32647448778152466
139,19240,19242,-0.16297979652881622,-0.020364264026284218,0.9682348370552063,-26.475927352905273,13.640600204467773,-2.17811918258667,1.0154491662979126,1.969401478767395,2.9293534755706787,-0.009136724285781384,1.0229392051696777,0.3507135510444641
140,19250,19252,-0.09015139192342758,-0.0276373028755188,0.9323096871376038,-52.24699783325195,-2.787877321243286,-5.9780497550964355,0.9989500045776367,1.9649016857147217,2.9038548469543457,-0.07518678903579712,0.6141329407691956,0.30261585116386414
141,19260,19262,-0.08418188989162445,-0.0411967933177948,0.9284024834632874,-67.91992950439453,-9.273748397827148,-7.584036827087402,1.004949688911438,1.967901587486267,2.92185378074646,-0.09121555089950562,-0.1807302087545395,0.21826042234897614
142,19270,19272,-0.07467092573642731,-0.10414785891771317,0.9430888891220093,-80.8030014038086,-22.66877555847168,-11.230364799499512,1.0109494924545288,1.985900640487671,2.918853998184204,0.17959511280059814,-0.7702983021736145,0.14278867840766907
143,19280,19282,-0.06633585691452026,-0.049126479774713516,0.9412263631820679,-81.27401733398438,-37.540977478027344,-17.9367733001709,1.01694917678833,1.9919003248214722,2.9368531703948975,0.33867308497428894,-1.710140585899353,-0.02133799158036709
144,19290,19292,-0.0795712098479271,-0.02317800559103489,0.9640828967094421,-65.16613006591797,-53.47562026977539,-22.83606719970703,1.0109494924545288,1.985900640487671,2.9338531494140625,1.1337496042251587,-2.5958218574523926,-0.18995752930641174
145,19300,19302,-0.046512849628925323,-0.08073366433382034,0.9504899978637695,-27.2115421295166,-60.335262298583984,-24.39478874206543,1.0259486436843872,1.9949002265930176,2.942852735519409,1.58444344997406,-2.690804958343506,-0.4074627459049225
146,19310,19312,-0.07923150807619095,-0.05282768979668617,1.0545895099639893,17.53136444091797,-56.213218688964844,-21.798118591308594,1.0109494924545288,2.012899398803711,2.942852735519409,2.300025224685669,-2.6956369876861572,-0.6078020930290222
147,19320,19322,-0.08893359452486038,-0.04291451349854469,1.100808024406433,55.50075912475586,-48.09172058105469,-17.39995574951172,1.0244487524032593,2.008399486541748,2.9593520164489746,2.613774061203003,-2.0960817337036133,-0.7838320732116699
148,19330,19332,-0.14045196771621704,-0.01786196604371071,1.1768674850463867,82.69295501708984,-30.658281326293945,-9.824349403381348,1.0214488506317139,2.005399703979492,2.9593520164489746,3.157679557800293,-1.2799763679504395,-0.919867217540741
149,19340,19342,-0.09097252786159515,-0.04517316818237305,1.1339644193649292,95.82805633544922,-10.030139923095703,-2.4357731342315674,1.0154491662979126,1.9964001178741455,2.9623517990112305,3.2150087356567383,-0.24232690036296844,-0.9700141549110413
150,19350,19352,-0.10183112323284149,-0.034323640167713165,1.0842537879943848,91.07768249511719,11.506903648376465,2.438652515411377,1.0349482297897339,2.0038998126983643,2.969851493835449,3.208817958831787,0.9075378775596619,-0.9934355020523071
151,19360,19362,-0.08872377127408981,-0.020018015056848526,1.0431365966796875,65.61760711669922,35.56888961791992,6.037647247314453,1.0349482297897339,1.9949002265930176,2.9608519077301025,2.8529725074768066,1.3906843662261963,-0.8838213682174683
152,19370,19372,-0.09883636981248856,-0.028531495481729507,0.9511462450027466,21.053865432739258,52.27558517456055,8.788336753845215,1.0289485454559326,1.9799009561538696,2.9158542156219482,2.2468221187591553,1.8115099668502808,-0.7909466028213501
153,19380,19382,-0.10752063989639282,-0.0037879222072660923,0.8574519753456116,-34.382347106933594,51.01719665527344,9.874626159667969,1.0154491662979126,1.9634017944335938,2.9113543033599854,1.7517527341842651,1.4700204133987427,-0.6329786777496338
154,19390,19392,-0.09867794066667557,-0.005058678332716227,0.9015910625457764,-88.79136657714844,41.25233459472656,12.622121810913086,1.0124493837356567,1.954402208328247,2.923353672027588,1.0812773704528809,0.5927888751029968,-0.46074387431144714
155,19400,19402,-0.045069146901369095,0.02918069064617157,1.016389012336731,-133.73675537109375,34.01885223388672,12.715173721313477,0.9989500045776367,1.9949002265930176,2.9488525390625,1.055098533630371,-0.5132656097412109,-0.33764883875846863
156,19410,19412,-0.07906373590230942,0.0026309145614504814,0.9702754616737366,-150.66336059570312,33.42324447631836,12.194511413574219,1.019948959350586,2.012899398803711,2.9548521041870117,0.5110440254211426,-2.4531357288360596,-0.12777768075466156
157,19420,19422,-0.09733530879020691,0.02185150794684887,0.9806374311447144,-140.9598388671875,36.576473236083984,11.329690933227539,1.004949688911438,2.0218989849090576,2.9608519077301025,0.4385133683681488,-3.5801446437835693,-0.08754927664995193
158,19430,19432,-0.13930454850196838,0.019975153729319572,0.9808680415153503,-108.88507080078125,33.01382827758789,10.22348690032959,1.01694917678833,2.0248987674713135,2.951852321624756,-0.09010273963212967,-5.039004325866699,0.029720421880483627
159,19440,19442,-0.11830512434244156,0.06186209246516228,0.96842360496521,-59.20485305786133,29.400815963745117,8.903497695922852,0.9974501132965088,2.032398223876953,2.9413528442382812,-0.3165220618247986,-5.477520942687988,0.026772117242217064
160,19450,19452,-0.08802752941846848,-0.021541496738791466,1.017941951751709,4.682161808013916,27.947938919067383,8.573366165161133,0.9959501624107361,2.0218989849090576,2.9128541946411133,-0.44772422313690186,-5.8454461097717285,0.0882255807518959
161,19460,19462,-0.058326251804828644,-0.020905155688524246,0.9874849915504456,69.017578125,31.378244400024414,7.918720245361328,1.0094494819641113,1.9904004335403442,2.893355369567871,-0.8661962151527405,-5.272763252258301,0.14080852270126343
162,19470,19472,-0.047108497470617294,-0.03528186306357384,0.9076954126358032,115.60453796386719,33.48062515258789,4.180814266204834,0.9974501132965088,1.999400019645691,2.9353532791137695,-1.4064958095550537,-4.0149054527282715,0.1961168646812439
163,19480,19482,-0.055047959089279175,-0.028973106294870377,0.8818268775939941,136.57215881347656,26.999650955200195,-0.4736676812171936,0.9899504780769348,2.015899181365967,2.978851079940796,-1.4768315553665161,-2.920795440673828,0.13950499892234802
164,19490,19492,-0.040969908237457275,-0.06819356232881546,0.8795028924942017,136.51100158691406,17.036535263061523,-4.024135589599609,1.0019499063491821,2.0248987674713135,2.9668517112731934,-1.7008880376815796,-1.0885710716247559,0.09865573793649673
165,19500,19502,-0.03512429818511009,-0.0705718994140625,0.8847557306289673,114.33499908447266,7.5879411697387695,-7.175268650054932,0.9989500045776367,2.009899377822876,2.975851058959961,-1.9095152616500854,-0.14808718860149384,0.06744710355997086
166,19510,19512,-0.048943184316158295,-0.0792388990521431,0.8820739984512329,70.64861297607422,1.2006490230560303,-10.47757339477539,0.9929503202438354,2.0188989639282227,2.9638516902923584,-1.9016271829605103,0.6834986209869385,-0.040399231016635895
167,19520,19522,-0.045843955129384995,-0.07762139290571213,0.8854719996452332,24.09124755859375,-4.025615692138672,-13.906949996948242,1.004949688911438,1.985900640487671,2.9398529529571533,-1.808247447013855,1.0410728454589844,-0.19664978981018066
168,19530,19532,-0.04659801721572876,0.07339515537023544,0.9435900449752808,-15.833643913269043,-11.2387056350708,-14.78498649597168,0.9899504780769348,1.9649016857147217,2.897855043411255,-1.699918270111084,0.9338507056236267,-0.3668815493583679
169,19540,19542,-0.06939905881881714,-0.050203464925289154,0.9434753656387329,-42.800445556640625,-21.616737365722656,-14.208821296691895,0.9944502711296082,1.9874006509780884,2.920353889465332,-1.5271822214126587,0.44876015186309814,-0.5395550727844238
170,19550,19552,-0.04397137090563774,-0.038556791841983795,0.9912114143371582,-49.82319259643555,-33.39912796020508,-10.867376327514648,1.00344979763031,1.9964001178741455,2.9593520164489746,-1.2265167236328125,-0.10510770976543427,-0.6806114315986633
171,19560,19562,-0.09614138305187225,-0.03303259611129761,1.0545423030853271,-41.73405838012695,-41.82765579223633,-6.479912281036377,1.004949688911438,2.012899398803711,2.9578521251678467,-0.8120622634887695,-0.47463563084602356,-0.7504360675811768
172,19570,19572,-0.062008414417505264,0.029706943780183792,1.047508716583252,-30.468524932861328,-44.20779037475586,-4.9637346267700195,1.0079495906829834,1.9949002265930176,2.9488525390625,-0.4597105085849762,-0.899437665939331,-0.7992017269134521
173,19580,19582,-0.09544365108013153,-0.02840478904545307,1.0993571281433105,-14.817353248596191,-39.870887756347656,-5.337189674377441,1.0079495906829834,1.9979000091552734,2.9608519077301025,-0.10217920690774918,-1.0978384017944336,-0.8270397782325745
174,19590,19592,-0.07239823788404465,-0.026993511244654655,1.12067711353302,4.205691814422607,-29.834829330444336,-9.426692962646484,1.0124493837356567,1.9964001178741455,2.950352430343628,0.34276407957077026,-1.1633574962615967,-0.9093738198280334
175,19600,19602,-0.0652850791811943,-0.0214510690420866,1.1102521419525146,34.871917724609375,-13.631438255310059,-12.696233749389648,1.0019499063491821,2.0009000301361084,2.9578521251678467,0.48426827788352966,-0.814443826675415,-0.9909670948982239
176,19610,19612,-0.08996543288230896,-0.015713388100266457,1.1128484010696411,64.94014739990234,-10.912446022033691,-12.809966087341309,0.9974501132965088,2.005399703979492,2.953352212905884,0.6185232996940613,-0.17770977318286896,-1.1041539907455444
177,19620,19622,-0.09582899510860443,-0.04434927552938461,1.0689562559127808,87.70767974853516,7.374535083770752,-10.238609313964844,1.0079495906829834,1.982900857925415,2.945852756500244,0.4689280092716217,0.6871572732925415,-1.1854933500289917
178,19630,19632,-0.0680818036198616,-0.06711351126432419,1.0040507316589355,91.86563110351562,35.380252838134766,-10.48795223236084,1.0019499063491821,1.9949002265930176,2.9578521251678467,0.14547716081142426,1.7043187618255615,-1.2564891576766968
179,19640,19642,-0.07638712972402573,-0.11704088747501373,0.9935078620910645,66.12055206298828,62.87627029418945,-13.894455909729004,1.0064496994018555,2.011399507522583,2.9893505573272705,-0.28644081950187683,2.3457000255584717,-1.3906816244125366
180,19650,19652,-0.0781191810965538,-0.100837342441082,0.9645148515701294,25.83094596862793,79.82288360595703,-15.603517532348633,0.9884505867958069,2.011399507522583,2.974351167678833,-1.111100435256958,2.694796085357666,-1.5107965469360352
181,19660,19662,-0.05018739029765129,-0.04768110439181328,0.971009373664856,-18.031478881835938,82.3973388671875,-15.888967514038086,0.9869506359100342,1.9979000091552734,2.9608519077301025,-2.0060291290283203,2.6491482257843018,-1.6397404670715332
182,19670,19672,-0.05032724887132645,-0.06841523945331573,0.9598459601402283,-49.04230499267578,71.55851745605469,-11.896571159362793,0.9644517302513123,2.0023999214172363,2.9563522338867188,-2.9129369258880615,2.164151191711426,-1.7646875381469727
183,19680,19682,-0.02091798186302185,-0.0314515084028244,0.9640524387359619,-56.63490295410156,42.621028900146484,-8.3715238571167,0.9734513163566589,1.999400019645691,2.9593520164489746,-3.1410088539123535,1.3650634288787842,-1.870863437652588
184,19690,19692,-0.05793609842658043,-0.050572145730257034,0.9405346512794495,-51.25748062133789,-0.09793347120285034,-4.851936340332031,0.9719513654708862,2.00689959526062,2.942852735519409,-3.4931163787841797,0.8756367564201355,-1.932874321937561
185,19700,19702,-0.02267458662390709,-0.005981088615953922,0.9903585910797119,-38.875343322753906,-41.42814254760742,-5.701866149902344,0.9869506359100342,1.9889005422592163,2.9338531494140625,-3.110119581222534,0.5855156183242798,-1.9250221252441406
186,19710,19712,-0.03766106441617012,-0.027384862303733826,0.9999639391899109,-22.534618377685547,-70.78397369384766,-11.346366882324219,0.9944502711296082,1.984400749206543,2.9293534755706787,-2.430497169494629,0.37468209862709045,-1.978263020515442
187,19720,19722,-0.08685531467199326,-0.07992576062679291,0.9893501400947571,-7.35156774520874,-85.84420013427734,-14.625900268554688,0.9899504780769348,1.982900857925415,2.9548521041870117,-1.718408226966858,0.29562294483184814,-2.113814115524292
188,19730,19732,-0.1385939121246338,0.016484415158629417,1.0036183595657349,5.292722702026367,-75.76874542236328,-16.05825424194336,0.9884505867958069,1.9934003353118896,2.9563522338867188,-0.7489057779312134,0.2731025218963623,-2.255342721939087
189,19740,19742,-0.2240833193063736,-0.05361512303352356,1.0384595394134521,22.025854110717773,-49.75178909301758,-15.739290237426758,0.9869506359100342,1.9889005422592163,2.951852321624756,-0.03421739861369133,0.4947909414768219,-2.381990432739258
190,19750,19752,-0.17064674198627472,-0.0753699243068695,1.002404808998108,34.857505798339844,-25.188051223754883,-14.140697479248047,0.9959501624107361,1.9919003248214722,2.9578521251678467,0.2455538511276245,0.9678404331207275,-2.4939887523651123
191,19760,19762,-0.12680579721927643,-0.03141525760293007,1.0777826309204102,37.37665939331055,-6.575220584869385,-12.121912956237793,1.0124493837356567,1.9874006509780884,2.944352626800537,0.1139274314045906,1.4228425025939941,-2.643045425415039
192,19770,19772,-0.138034388422966,-0.0828520655632019,1.0014344453811646,30.581621170043945,5.176657199859619,-10.01850414276123,0.9959501624107361,1.985900640487671,2.9308533668518066,0.1496574878692627,1.6249281167984009,-2.7835299968719482
193,19780,19782,-0.134608194231987,-0.05438833683729172,1.0047099590301514,19.628618240356445,3.415990114212036,-6.954490661621094,1.0109494924545288,1.9799009561538696,2.9398529529571533,0.01786511205136776,2.0509910583496094,-2.8331055641174316
194,19790,19792,-0.09434877336025238,-0.06309890002012253,1.0468839406967163,0.41007229685783386,-6.5963263511657715,-4.442202091217041,0.9989500045776367,1.9739012718200684,2.924853801727295,-0.11595284938812256,1.9180612564086914,-2.969536304473877
195,19800,19802,-0.0836392268538475,-0.07514546811580658,1.0096795558929443,-19.153993606567383,-4.670743465423584,-3.0890846252441406,1.0064496994018555,1.9724013805389404,2.9293534755706787,0.05458191782236099,1.786489486694336,-2.9945333003997803
196,19810,19812,-0.07539296895265579,-0.058431476354599,1.0290427207946777,-37.22267532348633,-1.6727674007415771,-3.680590867996216,1.0064496994018555,1.9784010648727417,2.920353889465332,0.0814310684800148,1.5213426351547241,-3.0213394165039062
197,19820,19822,-0.046093255281448364,-0.0578407421708107,1.0796674489974976,-48.9874153137207,2.1528477668762207,-4.8547139167785645,0.9974501132965088,1.9784010648727417,2.923353672027588,0.14098455011844635,0.9658114314079285,-3.0721960067749023
198,19830,19832,-0.04228463023900986,0.019524648785591125,1.0548419952392578,-45.68716812133789,13.128857612609863,-7.485533237457275,1.0079495906829834,1.985900640487671,2.9398529529571533,0.08617735654115677,0.5760965347290039,-3.114298105239868
199,19840,19842,-0.06675069034099579,0.09997525066137314,1.135711431503296,-28.265661239624023,25.245426177978516,-7.726217746734619,1.0094494819641113,1.9814008474349976,2.9353532791137695,-0.24496471881866455,0.14936797320842743,-3.230506420135498
200,19850,19852,-0.0631084069609642,0.0860200822353363,0.9987884163856506,-0.09154139459133148,24.60328483581543,-9.083280563354492,1.0064496994018555,1.9814008474349976,2.9323532581329346,-0.617599368095398,0.1607198715209961,-3.3189198970794678
201,19860,19862,-0.05875907838344574,-0.0019274107180535793,0.9645162224769592,28.130096435546875,14.152532577514648,-10.082501411437988,0.9869506359100342,1.9889005422592163,2.9338531494140625,-0.8932241797447205,0.3558208644390106,-3.42720103263855
202,19870,19872,-0.15554864704608917,-0.09226188063621521,0.9785289764404297,46.31435012817383,3.5076186656951904,-10.019649505615234,0.9944502711296082,1.969401478767395,2.926353693008423,-0.9760597944259644,0.6725115776062012,-3.5400424003601074
203,19880,19882,-0.08186503499746323,-0.054500821977853775,0.9516535997390747,48.73703384399414,-8.785700798034668,-9.664700508117676,0.9959501624107361,1.982900857925415,2.9368531703948975,-0.8745226860046387,1.3190017938613892,-3.5984694957733154
204,19890,19892,-0.025590654462575912,0.013376151211559772,0.9566913843154907,31.46329116821289,-26.81385040283203,-6.744644641876221,1.00344979763031,1.9874006509780884,2.923353672027588,-0.5454171299934387,1.702146291732788,-3.662499189376831
205,19900,19902,-0.07727041095495224,0.0241337139159441,0.9971344470977783,-2.6901791095733643,-49.305877685546875,-3.384357213973999,1.0019499063491821,1.9739012718200684,2.924853801727295,-0.09190092235803604,1.7558224201202393,-3.7244956493377686
206,19910,19912,-0.09802571684122086,-0.07906188815832138,0.9615811705589294,-45.58653259277344,-56.166358947753906,-2.2835066318511963,0.9929503202438354,1.9649016857147217,2.9338531494140625,0.13136309385299683,1.382729172706604,-3.8499600887298584
207,19920,19922,-0.09461172670125961,-0.026914043352007866,0.9832661747932434,-87.06385040283203,-49.53385925292969,-4.339590072631836,1.004949688911438,1.982900857925415,2.945852756500244,0.8044585585594177,0.6582711338996887,-3.863271713256836
208,19930,19932,-0.0822933092713356,-0.01323074009269476,1.065139651298523,-110.11534118652344,-41.2452507019043,-7.254579544067383,1.0064496994018555,2.005399703979492,2.9833507537841797,1.3341031074523926,-0.3065841495990753,-3.9013922214508057
209,19940,19942,-0.04158349335193634,-0.017303433269262314,1.0329935550689697,-105.60459899902344,-24.560144424438477,-9.893031120300293,1.0289485454559326,2.03389835357666,2.9878506660461426,1.676118016242981,-1.6981972455978394,-4.006123065948486
210,19950,19952,-0.023758217692375183,-0.016954703256487846,1.0146393775939941,-74.4081039428711,-10.76400375366211,-11.804945945739746,1.0274486541748047,2.0443978309631348,2.9833507537841797,1.890773892402649,-2.302074432373047,-4.082571029663086
211,19960,19962,-0.08473208546638489,-0.022746650502085686,1.0336487293243408,-21.37189292907715,0.703249454498291,-16.21135139465332,1.0229488611221313,2.0248987674713135,2.945852756500244,1.9642252922058105,-2.762983798980713,-4.220691680908203
212,19970,19972,-0.07108964025974274,-0.023060446605086327,0.9945411682128906,39.71995162963867,13.546753883361816,-18.55158042907715,1.0304484367370605,2.0203988552093506,2.923353672027588,1.7664427757263184,-2.544335126876831,-4.420874118804932
213,19980,19982,-0.09303387999534607,-0.06605613231658936,1.0021770000457764,99.32386016845703,28.162574768066406,-18.772605895996094,0.9989500045776367,2.015899181365967,2.9638516902923584,1.4964954853057861,-1.4615975618362427,-4.634805679321289
214,19990,19992,-0.060029495507478714,-0.07777144014835358,0.9741501212120056,139.74874877929688,33.305030822753906,-16.672557830810547,1.0079495906829834,2.0248987674713135,2.9938502311706543,1.0475692749023438,-0.3103421926498413,-4.820263862609863
215,20000,20002,-0.040718816220760345,-0.04047434777021408,1.059999942779541,146.4998321533203,36.40610122680664,-15.555367469787598,1.004949688911438,2.0428977012634277,3.002849817276001,0.7678502798080444,1.3483507633209229,-4.986530780792236
216,20010,20012,-0.11454707384109497,-0.1347379982471466,0.9884482026100159,120.18612670898438,34.02476501464844,-17.444570541381836,1.0094494819641113,2.0203988552093506,2.9923503398895264,0.28740769624710083,2.4175424575805664,-5.118897438049316
217,20020,20022,-0.009124194271862507,-0.03975844755768776,0.9945452213287354,83.02204132080078,19.47471809387207,-16.10774803161621,0.9944502711296082,2.038398027420044,2.9953501224517822,-0.03641154617071152,3.6627955436706543,-5.295934677124023
218,20030,20032,-0.049250271171331406,-0.07494951039552689,0.9974423050880432,34.20869827270508,-9.634881019592285,-11.338082313537598,0.9959501624107361,1.9949002265930176,2.972851276397705,0.20579324662685394,3.8752522468566895,-5.390833854675293
219,20040,20042,-0.07111238688230515,-0.07950001209974289,1.0473175048828125,-16.12962532043457,-44.178993225097656,-8.444937705993652,1.0109494924545288,1.9769011735916138,2.9308533668518066,0.6947990655899048,3.835876703262329,-5.486473083496094
220,20050,20052,-0.059212926775217056,-0.058180976659059525,1.0685256719589233,-65.07730102539062,-70.58183288574219,-6.158138751983643,1.0214488506317139,1.969401478767395,2.944352626800537,1.295398473739624,3.61328387260437,-5.61203670501709
221,20060,20062,-0.14748965203762054,-0.10731865465641022,1.141173005104065,-102.6008529663086,-81.75121307373047,-4.204339504241943,1.019948959350586,1.9889005422592163,2.972851276397705,2.013792037963867,2.2428412437438965,-5.661055088043213
222,20070,20072,-0.11156776547431946,-0.037288300693035126,1.1018925905227661,-145.3484649658203,-83.26583862304688,-3.3350772857666016,1.0319483280181885,2.012899398803711,3.002849817276001,2.691419839859009,1.2948341369628906,-5.79256534576416
223,20080,20082,-0.04540786147117615,0.001132448436692357,1.1623536348342896,-167.77638244628906,-84.34418487548828,-3.6019415855407715,1.0319483280181885,2.039897918701172,3.0118494033813477,3.8177881240844727,-0.6619153618812561,-5.705574989318848
224,20090,20092,-0.07452289760112762,0.06201748549938202,1.108157992362976,-177.10147094726562,-66.22602081298828,-3.043048858642578,1.0364481210708618,2.0293984413146973,3.0103495121002197,4.487521171569824,-2.295900821685791,-5.766763210296631
225,20100,20102,-0.08887852728366852,-0.04025326669216156,1.0522483587265015,-166.76126098632812,-30.744186401367188,-1.1813207864761353,1.0304484367370605,2.0503973960876465,3.001349925994873,5.176225185394287,-4.365898609161377,-5.620479106903076
226,20110,20112,-0.1333347111940384,-0.012056015431880951,1.0562546253204346,-142.6323699951172,7.086730480194092,1.0453015565872192,1.0349482297897339,2.0458977222442627,2.9818508625030518,5.070933818817139,-5.6491594314575195,-5.736781120300293
227,20120,20122,-0.10469228774309158,-0.000603363907430321,1.066082239151001,-87.6327896118164,41.57567596435547,6.809507846832275,1.0274486541748047,2.035398244857788,2.947352647781372,4.651808738708496,-7.0728631019592285,-5.644549369812012
228,20130,20132,-0.10405217856168747,-0.029255162924528122,1.0544192790985107,-7.14348030090332,68.4168701171875,13.668444633483887,1.0244487524032593,2.038398027420044,2.947352647781372,3.9413998126983643,-7.014769077301025,-5.818992614746094
229,20140,20142,-0.06442390382289886,-0.016201183199882507,1.0154427289962769,85.31196594238281,89.99015045166016,18.139326095581055,1.0214488506317139,2.0293984413146973,2.9293534755706787,2.893322706222534,-6.589595317840576,-5.736213207244873
230,20150,20152,-0.09364237636327744,-0.04429877549409866,0.9974784255027771,162.60577392578125,104.34149169921875,20.770009994506836,1.0244487524032593,2.0173990726470947,2.9413528442382812,2.084479808807373,-5.223024368286133,-5.6916680335998535
231,20160,20162,-0.03431263938546181,-0.08466054499149323,1.0368276834487915,204.92611694335938,112.83802032470703,22.487436294555664,1.00344979763031,2.062396764755249,3.004349708557129,0.6738079190254211,-2.9203457832336426,-5.662980079650879
232,20170,20172,-0.06770110875368118,-0.07104194909334183,0.9439540505409241,212.53965759277344,103.27951049804688,23.312076568603516,0.9944502711296082,2.038398027420044,2.9863505363464355,-0.7347003817558289,-0.5522724390029907,-5.471074104309082
233,20180,20182,-0.04828798770904541,0.01585344225168228,0.8989028930664062,194.33677673339844,78.50204467773438,22.778589248657227,1.0124493837356567,2.0233988761901855,2.9863505363464355,-1.4872843027114868,0.8774385452270508,-5.055631160736084
234,20190,20192,0.0013200418325141072,0.11308992654085159,0.9359232187271118,160.16477966308594,47.42878723144531,22.380516052246094,1.00344979763031,1.9934003353118896,2.944352626800537,-2.198657274246216,3.129743814468384,-4.93283224105835
235,20200,20202,0.013243371620774269,0.01807073876261711,0.9109511375427246,111.33076477050781,14.969836235046387,24.266891479492188,0.9884505867958069,1.969401478767395,2.9293534755706787,-2.2424838542938232,4.2713518142700195,-4.699038505554199
236,20210,20212,-0.024362612515687943,-0.020305966958403587,0.9312426447868347,44.947750091552734,-16.63130760192871,25.588165283203125,0.9899504780769348,1.970901370048523,2.924853801727295,-2.0535054206848145,4.9060773849487305,-4.461297512054443
237,20220,20222,-0.010881827212870121,-0.14367100596427917,0.9019075036048889,-20.63411521911621,-43.44340515136719,25.405961990356445,0.9734513163566589,1.9424028396606445,2.8813557624816895,-1.5371615886688232,4.533764362335205,-4.185885906219482
238,20230,20232,0.03359781205654144,-0.05881495401263237,0.9075594544410706,-76.74988555908203,-65.44278717041016,21.55579376220703,0.9854506850242615,1.9274035692214966,2.869356393814087,-0.9668049216270447,3.8028669357299805,-3.962681293487549
239,20240,20242,-0.025657474994659424,-0.02447568066418171,0.9322707653045654,-113.30018615722656,-72.05077362060547,16.924671173095703,1.0019499063491821,1.9379030466079712,2.9068546295166016,-0.07862528413534164,2.9701297283172607,-3.8404948711395264
240,20250,20252,-0.09257596731185913,-0.05585717409849167,0.9229364991188049,-120.69590759277344,-64.23792266845703,15.42277717590332,0.9974501132965088,1.9634017944335938,2.920353889465332,0.7148829102516174,1.4915518760681152,-3.681696653366089
241,20260,20262,-0.04191359132528305,-0.03908831998705864,0.9366039633750916,-104.57362365722656,-44.33706283569336,14.698373794555664,1.0094494819641113,1.9874006509780884,2.9413528442382812,1.1280089616775513,0.7051152586936951,-3.5776820182800293
242,20270,20272,-0.039560891687870026,-0.03591825067996979,0.9730846285820007,-75.20319366455078,-19.986114501953125,16.10732650756836,1.018449068069458,1.9814008474349976,2.926353693008423,1.6112771034240723,-0.3575831949710846,-3.3942549228668213
243,20280,20282,-0.011090031825006008,-0.026243405416607857,0.9178890585899353,-41.738929748535156,3.78588604927063,15.931462287902832,0.9944502711296082,1.9634017944335938,2.893355369567871,1.3876488208770752,-0.6148031949996948,-3.292999744415283
244,20290,20292,0.011218721978366375,-0.03176469728350639,0.9617115259170532,-3.413578987121582,25.630224227905273,15.833337783813477,1.0244487524032593,1.9634017944335938,2.896355152130127,1.1741280555725098,-0.8742504119873047,-3.13606333732605
245,20300,20302,-0.00607881648465991,-0.037024784833192825,0.9209541082382202,35.163490295410156,45.740570068359375,13.296582221984863,1.0019499063491821,1.9559022188186646,2.8858556747436523,0.615181565284729,-0.6320079565048218,-3.017826795578003
246,20310,20312,-0.010890907607972622,-0.053039442747831345,0.9247324466705322,65.9537124633789,60.148216247558594,9.144497871398926,1.004949688911438,1.9589020013809204,2.9008548259735107,0.05415060743689537,0.19232726097106934,-2.9380435943603516
247,20320,20322,-0.058397673070430756,-0.05429333448410034,0.8790732026100159,76.81837463378906,59.617618560791016,5.84112548828125,1.0094494819641113,1.9814008474349976,2.9353532791137695,-0.7711465358734131,1.0063480138778687,-2.878324270248413
248,20330,20332,0.0047179218381643295,-0.07873596251010895,0.8804419636726379,71.80494689941406,43.25093460083008,3.456895589828491,1.00344979763031,1.9904004335403442,2.980350971221924,-1.241244912147522,1.8575836420059204,-2.8261990547180176
249,20340,20342,0.09505034983158112,0.07618170231580734,0.8752788305282593,55.7680778503418,25.647069931030273,3.71738600730896,0.9899504780769348,1.9949002265930176,2.9548521041870117,-1.480516791343689,2.259812355041504,-2.764401435852051
250,20350,20352,0.06385253369808197,0.05073022097349167,0.8320311903953552,26.1171817779541,6.195230484008789,5.537545204162598,0.9974501132965088,1.9754011631011963,2.9323532581329346,-1.5729128122329712,2.8016531467437744,-2.709818124771118
251,20360,20362,0.04796567186713219,-0.029948366805911064,0.8363615274429321,-8.421263694763184,-11.51806640625,8.229962348937988,0.9899504780769348,1.970901370048523,2.9308533668518066,-1.5022327899932861,2.7299327850341797,-2.640075922012329
252,20370,20372,0.006661743391305208,-0.049947600811719894,0.8576427698135376,-39.50568389892578,-24.007247924804688,9.661348342895508,1.0019499063491821,1.9529023170471191,2.9158542156219482,-1.3208359479904175,2.3264074325561523,-2.561140537261963
253,20380,20382,-0.03008214943110943,-0.023324888199567795,0.8882609605789185,-60.399288177490234,-30.353961944580078,9.599186897277832,1.0004500150680542,1.9724013805389404,2.9323532581329346,-1.0451937913894653,1.7077178955078125,-2.481229066848755
254,20390,20392,-0.0011435941560193896,-0.050607386976480484,0.9432539343833923,-68.92015838623047,-33.0081787109375,9.47786808013916,1.0079495906829834,1.9949002265930176,2.9578521251678467,-0.6235933303833008,0.9189314842224121,-2.3856115341186523
255,20400,20402,-0.07463827729225159,-0.07390116900205612,0.9602727293968201,-63.370460510253906,-30.60191535949707,9.3176908493042,1.004949688911438,1.9919003248214722,2.9668517112731934,-0.06764677166938782,0.45012497901916504,-2.227965831756592
256,20410,20412,-0.07612626254558563,-0.030857179313898087,0.9057058095932007,-47.46021270751953,-24.67598533630371,8.995899200439453,1.0094494819641113,2.008399486541748,2.980350971221924,-0.2249596267938614,-0.2840583324432373,-2.2472972869873047
257,20420,20422,-0.025541462004184723,-0.024772876873612404,0.9653640985488892,-24.657123565673828,-19.67624282836914,10.178827285766602,1.0109494924545288,2.0188989639282227,2.99685001373291,-0.02323494665324688,-0.47692060470581055,-2.134241819381714
258,20430,20432,-0.0861680805683136,-0.028660474345088005,1.0016950368881226,0.011987955309450626,-16.257417678833008,10.461481094360352,1.004949688911438,2.009899377822876,2.9848506450653076,0.10718461871147156,-0.6365667581558228,-2.0427839756011963
259,20440,20442,-0.07620585709810257,-0.08254289627075195,0.9685389995574951,22.671913146972656,-15.041251182556152,10.96015453338623,1.0094494819641113,2.011399507522583,2.980350971221924,0.12540683150291443,-0.4718184471130371,-1.9533038139343262
260,20450,20452,-0.05219714716076851,-0.05783245339989662,0.9494742155075073,34.45014572143555,-10.698668479919434,11.44841480255127,1.0124493837356567,2.014399290084839,3.001349925994873,0.2638252079486847,-0.07271112501621246,-1.8291435241699219
261,20460,20462,-0.009666681289672852,-0.051914893090724945,0.9909364581108093,30.28993797302246,-1.4394731521606445,12.23954963684082,1.004949688911438,2.030898332595825,2.99685001373291,0.08440092206001282,0.2408933937549591,-1.7416839599609375
262,20470,20472,-0.060591332614421844,-0.10363222658634186,0.978827714920044,13.84341049194336,12.657663345336914,13.313268661499023,1.0244487524032593,2.0173990726470947,2.998350143432617,0.005200264509767294,0.6067013740539551,-1.5986647605895996
263,20480,20482,-0.016980808228254318,-0.04925501346588135,0.9634527564048767,-6.015520095825195,19.21884536743164,12.448677062988281,1.0109494924545288,2.0278985500335693,2.9848506450653076,-0.3313648998737335,0.43616947531700134,-1.5031006336212158
264,20490,20492,-0.03665833920240402,-0.021472331136465073,0.9707070589065552,-30.998611450195312,8.694599151611328,11.44821548461914,0.9959501624107361,2.0488975048065186,3.032848358154297,-0.4880998134613037,0.12000306695699692,-1.3940004110336304
265,20500,20502,-0.10270083695650101,-0.10801653563976288,0.9549422264099121,-50.253021240234375,-7.804409503936768,10.41688346862793,1.004949688911438,2.030898332595825,3.0178489685058594,-0.46060433983802795,-0.3568846881389618,-1.288629412651062
266,20510,20512,-0.09180479496717453,-0.12352106720209122,0.9709598422050476,-54.48752212524414,-19.732864379882812,9.705315589904785,1.018449068069458,2.0443978309631348,3.028348445892334,-0.2873133420944214,-0.8152326345443726,-1.173863172531128
267,20520,20522,-0.044570766389369965,-0.027668168768286705,1.017876148223877,-48.57585525512695,-29.48760223388672,6.3786725997924805,1.0094494819641113,2.0503973960876465,3.0133492946624756,-0.3614708483219147,-1.4752233028411865,-1.1277377605438232
268,20530,20532,0.0007467243121936917,0.04340706393122673,1.0149345397949219,-28.819561004638672,-36.7797966003418,-0.2998702824115753,1.0244487524032593,2.0473976135253906,3.0103495121002197,0.15694448351860046,-1.774402141571045,-1.0667229890823364
269,20540,20542,0.08474783599376678,0.0459611751139164,1.0226070880889893,-0.3541036546230316,-48.471866607666016,-7.4135894775390625,1.0124493837356567,2.0443978309631348,3.028348445892334,0.5234763622283936,-2.019531488418579,-1.1083132028579712
270,20550,20552,-0.03232642635703087,-0.00738881528377533,1.0830934047698975,28.61158561706543,-74.13133239746094,-11.153757095336914,1.0274486541748047,2.0563971996307373,3.025348663330078,1.5078544616699219,-1.775046944618225,-1.1740578413009644
271,20560,20562,-0.07429675757884979,-0.05588863417506218,1.072080373764038,59.99763870239258,-85.88288879394531,-14.228748321533203,1.0124493837356567,2.0503973960876465,3.0373480319976807,1.8670225143432617,-1.1864537000656128,-1.2600730657577515
272,20570,20572,-0.07103028893470764,-0.04193291440606117,1.054222822189331,81.05923461914062,-84.6005859375,-18.666194915771484,1.0289485454559326,2.0488975048065186,3.0358481407165527,3.246581554412842,-0.2174728810787201,-1.4398781061172485
273,20580,20582,-0.011474703438580036,0.019259348511695862,1.0956978797912598,73.33815002441406,-78.81900024414062,-20.822521209716797,1.033448338508606,2.0413978099823,3.031348466873169,3.6666736602783203,0.23635143041610718,-1.6055244207382202
274,20590,20592,-0.05875405669212341,-0.06506187468767166,1.1420544385910034,28.88974952697754,-67.37594604492188,-23.340131759643555,1.0289485454559326,2.030898332595825,3.0178489685058594,4.8241071701049805,1.0025187730789185,-1.8865126371383667
275,20600,20602,-0.11676185578107834,-0.16077089309692383,1.1713826656341553,-14.203084945678711,-45.54387283325195,-27.210546493530273,1.0454477071762085,2.0203988552093506,3.0103495121002197,5.119672775268555,0.8184247016906738,-2.100965976715088
276,20610,20612,-0.07539700716733932,-0.10006388276815414,1.1829640865325928,-30.569353103637695,-19.025108337402344,-22.13993263244629,1.033448338508606,2.032398223876953,3.0193488597869873,5.367051601409912,0.4338643550872803,-2.3271186351776123
277,20620,20622,-0.1401606649160385,-0.01555054821074009,1.201653003692627,-26.074312210083008,7.230620384216309,-10.475526809692383,1.0439478158950806,2.0488975048065186,3.0148491859436035,5.525859355926514,-0.04614800587296486,-2.44865345954895
278,20630,20632,-0.1279611587524414,-0.0033270656131207943,1.2200788259506226,-3.3821403980255127,22.255958557128906,3.9000186920166016,1.0409479141235352,2.0278985500335693,3.008849620819092,5.165887355804443,0.10551862418651581,-2.560689687728882
279,20640,20642,-0.09983513504266739,-0.05248638987541199,1.2135599851608276,12.59887409210205,7.128715991973877,18.78986167907715,1.033448338508606,2.0233988761901855,2.9923503398895264,4.948739051818848,0.18918108940124512,-2.4526314735412598
280,20650,20652,-0.07272647321224213,-0.047559335827827454,1.1671223640441895,-1.2246782779693604,-19.305173873901367,29.72161865234375,1.0409479141235352,2.0009000301361084,2.972851276397705,5.118018627166748,0.3231378197669983,-2.233961582183838
281,20660,20662,-0.12098461389541626,-0.10932334512472153,1.1132639646530151,-24.1091251373291,-34.185028076171875,35.672821044921875,1.0469475984573364,1.9919003248214722,2.975851058959961,5.465295314788818,0.09866897016763687,-1.8678717613220215
282,20670,20672,-0.10027287155389786,-0.035433024168014526,1.129274845123291,-45.4630012512207,-35.613990783691406,32.41282272338867,1.0514473915100098,1.999400019645691,2.9593520164489746,5.6879448890686035,-0.16699253022670746,-1.592348337173462
283,20680,20682,-0.10829520225524902,-0.011202101595699787,1.1526356935501099,-47.167396545410156,-31.956256866455078,30.251815795898438,1.0514473915100098,2.005399703979492,2.9593520164489746,6.002575874328613,-0.925944983959198,-1.1335824728012085
284,20690,20692,-0.1164596900343895,-0.015315942466259003,1.1505690813064575,-37.46205520629883,-8.25680160522461,27.899492263793945,1.0529472827911377,1.9919003248214722,2.951852321624756,6.244444370269775,-1.1556527614593506,-0.9791631698608398
285,20700,20702,-0.08936648815870285,-0.00944755133241415,1.109586238861084,-17.68082046508789,16.586009979248047,25.84328842163086,1.048447608947754,2.0023999214172363,2.953352212905884,6.051891803741455,-1.4532033205032349,-0.7096691131591797
286,20710,20712,-0.06570783257484436,0.0041853212751448154,1.0661919116973877,16.227733612060547,53.10309982299805,24.537534713745117,1.0529472827911377,1.9889005422592163,2.9308533668518066,5.603704452514648,-1.4361821413040161,-0.4877018332481384
287,20720,20722,-0.060972124338150024,-0.02298961952328682,0.9897086024284363,37.08784866333008,80.84578704833984,23.275634765625,1.0289485454559326,1.9979000091552734,2.945852756500244,4.647245407104492,-0.915753960609436,-0.4240559935569763
288,20730,20732,-0.04660101607441902,-0.021175185218453407,0.9515083432197571,48.18649673461914,96.3621597290039,22.5870304107666,1.0379481315612793,2.012899398803711,2.969851493835449,3.366421699523926,-0.3877122104167938,-0.24630212783813477
289,20740,20742,-0.056416481733322144,-0.010983939282596111,0.9426591992378235,46.57366943359375,99.27700805664062,23.512027740478516,1.0289485454559326,1.9979000091552734,2.9638516902923584,2.7128963470458984,0.07823484390974045,-0.04798047989606857
290,20750,20752,-0.017106665298342705,-0.014467894099652767,0.9097645878791809,37.2437858581543,87.20897674560547,23.292129516601562,1.0244487524032593,2.005399703979492,2.980350971221924,1.779826283454895,0.38404566049575806,0.269780695438385
291,20760,20762,-0.017824139446020126,0.0038824204821139574,0.9026635885238647,15.73515510559082,64.89816284179688,24.176219940185547,1.0109494924545288,2.00689959526062,2.9638516902923584,1.1103347539901733,0.7376471161842346,0.43550994992256165
292,20770,20772,-0.03518444299697876,0.004455741494894028,0.8757445812225342,-14.069597244262695,25.419710159301758,26.94121742248535,1.0079495906829834,2.0009000301361084,2.945852756500244,0.8041961789131165,0.6502261161804199,0.7362679243087769
293,20780,20782,-0.02068471722304821,0.00458433898165822,0.8541631698608398,-45.92394256591797,-22.93973159790039,29.071670532226562,1.0004500150680542,1.9784010648727417,2.9293534755706787,0.7897540926933289,0.13515275716781616,1.1415965557098389
294,20790,20792,0.01995358057320118,0.10115014016628265,0.8402385711669922,-64.32672119140625,-57.455997467041016,29.77910804748535,1.0229488611221313,1.9739012718200684,2.945852756500244,1.4787086248397827,-0.44179344177246094,1.4220243692398071
295,20800,20802,-0.029888315126299858,0.03739411011338234,0.8905124068260193,-68.16598510742188,-69.81330871582031,29.33253288269043,1.0394480228424072,1.9934003353118896,2.9623517990112305,2.462428569793701,-1.4793447256088257,1.9018274545669556
296,20810,20812,-0.034569598734378815,0.01861354522407055,0.9067898392677307,-62.6607780456543,-67.60285186767578,27.757753372192383,1.055947184562683,1.9979000091552734,2.951852321624756,3.1936564445495605,-1.8514035940170288,2.05024790763855
297,20820,20822,-0.06920214742422104,0.05779381841421127,0.9229317307472229,-52.98068618774414,-55.4436149597168,25.193485260009766,1.0544472932815552,1.9784010648727417,2.944352626800537,3.8785078525543213,-2.472527503967285,2.3470563888549805
298,20830,20832,-0.06473895907402039,0.004579464439302683,0.9650587439537048,-32.605037689208984,-31.35993003845215,18.819814682006836,1.0379481315612793,1.9979000091552734,2.9398529529571533,4.331518650054932,-2.912224531173706,2.5845038890838623
299,20840,20842,-0.06682602316141129,-0.007342201191931963,1.0232030153274536,2.0374481678009033,3.27470326423645,11.378008842468262,1.0514473915100098,1.9964001178741455,2.9563522338867188,4.27398157119751,-3.1328554153442383,2.7898170948028564
300,20850,20852,-0.11024385690689087,-0.012276148423552513,1.0684894323349,39.557411193847656,32.27085494995117,6.788905143737793,1.0394480228424072,2.011399507522583,2.9683516025543213,3.9344098567962646,-2.789907693862915,2.8278515338897705
301,20860,20862,-0.1321221888065338,-0.02928139828145504,1.1172699928283691,70.36021423339844,52.93717956542969,3.4688005447387695,1.0274486541748047,2.0023999214172363,2.977351188659668,3.4505906105041504,-2.084630250930786,2.7974696159362793
302,20870,20872,-0.0713585838675499,-0.011506387032568455,1.125931739807129,81.21463775634766,57.31547546386719,-1.0905015468597412,1.0289485454559326,2.0188989639282227,2.9908504486083984,2.7354516983032227,-1.5983959436416626,2.975890636444092
303,20880,20882,-0.06810037791728973,-0.037150196731090546,1.1101820468902588,81.45387268066406,51.34375,-3.3204219341278076,1.018449068069458,2.0233988761901855,3.0073494911193848,2.069866418838501,-0.29900383949279785,2.721256732940674
304,20890,20892,-0.06327154487371445,-0.08535999059677124,1.0941970348358154,68.95902252197266,36.685890197753906,-3.345816135406494,1.01694917678833,2.012899398803711,2.999850034713745,1.52435302734375,-0.11563620716333389,3.007042169570923
305,20900,20902,-0.0693252682685852,-0.02434377744793892,1.0811598300933838,36.2429313659668,30.430259704589844,-4.278271198272705,1.0319483280181885,2.012899398803711,3.008849620819092,1.0377577543258667,0.5906121730804443,2.9253859519958496
306,20910,20912,-0.07322648167610168,-0.05219586566090584,0.9750106930732727,-10.412545204162598,34.070823669433594,-7.140813827514648,1.0244487524032593,1.9754011631011963,2.9653515815734863,0.8467988967895508,0.5614576935768127,2.902194023132324
307,20920,20922,-0.055744752287864685,-0.03194839507341385,0.9447552561759949,-54.58913040161133,42.40679168701172,-9.664690971374512,1.0304484367370605,1.9724013805389404,2.9413528442382812,0.41449305415153503,-0.09620986133813858,2.9411041736602783
308,20930,20932,-0.05884004384279251,-0.012462656944990158,0.98622065782547,-68.54780578613281,42.951778411865234,-7.5040812492370605,1.0214488506317139,1.9964001178741455,2.9683516025543213,0.3047201931476593,-0.5336492657661438,2.7064170837402344
309,20940,20942,-0.061471447348594666,0.02799411676824093,1.045867919921875,-58.63950729370117,35.712711334228516,-2.943164587020874,1.0124493837356567,1.999400019645691,2.971351385116577,-0.25180888175964355,-1.410209059715271,2.753537654876709
310,20950,20952,-0.06322799623012543,0.0024473024532198906,1.045501947402954,-40.75518798828125,34.74083709716797,-4.779963970184326,1.0064496994018555,2.011399507522583,2.971351385116577,-0.7172470092773438,-1.8328254222869873,2.7082395553588867
311,20960,20962,-0.07302846759557724,-0.028265876695513725,1.0157495737075806,-10.70257568359375,33.21438980102539,-7.471201419830322,1.0064496994018555,2.011399507522583,2.944352626800537,-0.6757882237434387,-1.9926804304122925,2.554675579071045
312,20970,20972,-0.06282499432563782,-0.01477409154176712,0.9778267741203308,17.824739456176758,32.35875701904297,-10.468570709228516,0.9959501624107361,1.9799009561538696,2.9398529529571533,-0.9284244775772095,-1.8879625797271729,2.4313013553619385
313,20980,20982,-0.013147003948688507,-0.050476547330617905,0.9431343674659729,39.80583572387695,21.73871421813965,-13.835118293762207,0.9959501624107361,1.9979000091552734,2.942852735519409,-1.3914692401885986,-1.3657037019729614,2.3127856254577637
314,20990,20992,-0.021990804001688957,-0.008086733520030975,1.0008095502853394,46.58168029785156,6.350454807281494,-16.132909774780273,1.0094494819641113,2.005399703979492,2.9563522338867188,-1.40268874168396,-0.9661222100257874,2.1339614391326904
315,21000,21002,0.011201747693121433,-0.06602009385824203,1.0306318998336792,43.638954162597656,-10.406064987182617,-19.289213180541992,1.0109494924545288,1.9979000091552734,2.9608519077301025,-1.0761005878448486,-0.6024134755134583,1.8926081657409668
316,21010,21012,-0.05528400465846062,-0.10078074038028717,1.0185940265655518,32.927852630615234,-19.204130172729492,-22.55601692199707,0.9959501624107361,1.9979000091552734,2.972851276397705,-0.7663242220878601,-0.2705000638961792,1.6482654809951782
317,21020,21022,-0.12718850374221802,-0.02026299387216568,0.9484778046607971,13.732357025146484,-18.528839111328125,-28.55195426940918,1.01694917678833,1.9889005422592163,2.9638516902923584,-0.5352668762207031,-0.1036178469657898,1.3798853158950806
318,21030,21032,-0.07437944412231445,-0.05674421414732933,0.9945295453071594,-1.3527251482009888,-13.463940620422363,-34.11293029785156,1.0154491662979126,1.9874006509780884,2.953352212905884,-0.42117661237716675,0.03445885330438614,1.081526279449463
319,21040,21042,-0.0718328133225441,-0.045192740857601166,0.9948249459266663,-5.265079498291016,6.103637218475342,-38.11189651489258,1.0004500150680542,1.9964001178741455,2.9593520164489746,-0.4215250015258789,-0.2056903839111328,0.6975246071815491
320,21050,21052,-0.06172342225909233,-0.055079828947782516,0.9600294828414917,16.929691314697266,30.083175659179688,-38.04313278198242,0.9914504289627075,2.011399507522583,2.9593520164489746,-0.7991015315055847,-0.10403122007846832,0.34953591227531433
321,21060,21062,-0.00466174865141511,-0.046817127615213394,1.027247667312622,49.850284576416016,42.6186637878418,-37.4231071472168,0.9989500045776367,1.9979000091552734,2.9608519077301025,-1.3268365859985352,0.1098150834441185,-0.03066437877714634
322,21070,21072,-0.05525786429643631,-0.08824572712182999,1.0026003122329712,76.14707946777344,49.77292251586914,-38.0147705078125,1.00344979763031,2.005399703979492,2.971351385116577,-1.7986336946487427,1.1292340755462646,-0.3178052008152008
323,21080,21082,-0.043228816241025925,-0.0801907405257225,0.9546277523040771,86.3691635131836,56.12455749511719,-40.68328094482422,0.9974501132965088,2.0173990726470947,2.9923503398895264,-2.188612222671509,1.5826451778411865,-0.8178863525390625
324,21090,21092,-0.030821172520518303,-0.04175448790192604,0.9612455368041992,77.97409057617188,49.49152374267578,-41.25748062133789,1.00344979763031,2.008399486541748,2.9833507537841797,-2.93697190284729,2.641188859939575,-1.1137804985046387
325,21100,21102,-0.07583007216453552,-0.11839303374290466,1.000159740447998,57.94737243652344,25.952760696411133,-41.93246841430664,0.9734513163566589,1.999400019645691,2.9923503398895264,-3.2501838207244873,3.0185749530792236,-1.61697518825531
326,21110,21112,-0.1676948219537735,-0.13593928515911102,1.0106499195098877,34.3754997253418,-5.932063579559326,-38.35139083862305,0.9869506359100342,1.9889005422592163,2.9548521041870117,-3.391052722930908,3.4809396266937256,-2.0026767253875732
327,21120,21122,-0.15076042711734772,-0.16944265365600586,1.0268856287002563,1.5593401193618774,-32.48869323730469,-34.02643966674805,0.9899504780769348,1.982900857925415,2.9668517112731934,-3.0287554264068604,3.559999942779541,-2.4051573276519775
328,21130,21132,-0.0903773233294487,-0.08814709633588791,1.0725274085998535,-41.4155158996582,-50.68293380737305,-30.47928810119629,0.9824508428573608,1.9874006509780884,2.971351385116577,-2.4973154067993164,3.1540777683258057,-2.8214073181152344
329,21140,21142,-0.05255156010389328,-0.03067692369222641,1.097786545753479,-74.80740356445312,-65.21349334716797,-28.376150131225586,1.0019499063491821,2.0009000301361084,2.99685001373291,-1.9390246868133545,2.5403711795806885,-3.140598773956299
330,21150,21152,-0.10918872058391571,-0.11635074764490128,1.157721996307373,-80.4299087524414,-74.69731140136719,-26.355022430419922,1.0124493837356567,2.008399486541748,3.001349925994873,-1.016096830368042,1.6262123584747314,-3.4533090591430664
331,21160,21162,-0.14098447561264038,-0.08560658246278763,1.2228519916534424,-59.4144401550293,-78.75885009765625,-21.47369956970215,1.0079495906829834,2.03389835357666,3.0178489685058594,-0.3898463249206543,0.9924497008323669,-3.7033333778381348
332,21170,21172,-0.1898849904537201,-0.043528228998184204,1.1911606788635254,-31.95987892150879,-57.287620544433594,-12.533003807067871,1.019948959350586,2.0278985500335693,2.99685001373291,0.5071583986282349,0.6483367085456848,-3.786924362182617
333,21180,21182,-0.17137755453586578,-0.0676458403468132,1.149302363395691,-9.447683334350586,-16.27178382873535,-3.6920971870422363,1.0274486541748047,2.0173990726470947,2.980350971221924,0.6792140007019043,0.3534660041332245,-3.9609763622283936
334,21190,21192,-0.13765040040016174,-0.046387989073991776,1.1424057483673096,1.2142366170883179,7.80342960357666,5.001904010772705,1.0094494819641113,1.9934003353118896,2.947352647781372,0.6058417558670044,0.5379605889320374,-3.862321138381958
335,21200,21202,-0.11828926205635071,-0.006749914493411779,1.161629557609558,9.409844398498535,23.388704299926758,9.712352752685547,1.0079495906829834,1.9889005422592163,2.927853584289551,0.43819722533226013,0.7197538614273071,-3.7225518226623535
336,21210,21212,-0.11180417984724045,-0.028479192405939102,1.209667682647705,18.691926956176758,35.4283332824707,9.678892135620117,0.9989500045776367,1.9619019031524658,2.92185378074646,-0.02429376170039177,0.9584361910820007,-3.6095361709594727
337,21220,21222,-0.10085512697696686,-0.00814875215291977,1.1189159154891968,45.23191452026367,44.5628547668457,10.406684875488281,1.00344979763031,1.9724013805389404,2.9143543243408203,-0.4438769221305847,1.2433513402938843,-3.5190377235412598
338,21230,21232,-0.12692536413669586,-0.023601066321134567,1.13815438747406,63.388248443603516,48.358768463134766,13.516840934753418,0.9929503202438354,1.967901587486267,2.9128541946411133,-1.0345627069473267,2.0980215072631836,-3.2941339015960693
339,21240,21242,-0.08476996421813965,-0.004610569216310978,1.0303882360458374,61.82383346557617,47.080196380615234,16.23619270324707,0.9884505867958069,1.984400749206543,2.9413528442382812,-1.6282625198364258,2.7847628593444824,-3.1311728954315186
340,21250,21252,-0.12151635438203812,-0.053850509226322174,1.0042985677719116,48.51573181152344,46.49251174926758,21.270708084106445,1.01694917678833,1.970901370048523,2.918853998184204,-1.8417447805404663,3.264263391494751,-2.896021842956543
341,21260,21262,-0.10265620052814484,-0.03892386332154274,0.9795612096786499,30.670467376708984,43.26443862915039,25.678037643432617,1.004949688911438,1.9619019031524658,2.9128541946411133,-2.20428729057312,3.6480648517608643,-2.6167235374450684
342,21270,21272,-0.21406486630439758,-0.11153695732355118,0.9397571086883545,4.620000839233398,28.531810760498047,29.290252685546875,0.9914504289627075,1.9424028396606445,2.899354934692383,-2.5710723400115967,3.834214925765991,-2.322580099105835
343,21280,21282,-0.2550426423549652,-0.07996813952922821,0.9658159613609314,-28.231719970703125,4.68118143081665,30.053756713867188,0.9989500045776367,1.9409029483795166,2.9038548469543457,-2.54451847076416,3.6665077209472656,-1.983614206314087
344,21290,21292,-0.11344411969184875,-0.0987008735537529,0.9697853922843933,-50.59355926513672,-21.135671615600586,29.371532440185547,1.004949688911438,1.9469026327133179,2.8828558921813965,-2.335536003112793,3.221651792526245,-1.6769965887069702
345,21300,21302,-0.08512520045042038,-0.00803845003247261,0.9930329322814941,-71.36309051513672,-38.806610107421875,26.88056182861328,0.9899504780769348,1.9499024152755737,2.9128541946411133,-1.899841547012329,2.4615540504455566,-1.4417988061904907
346,21310,21312,-0.06137152761220932,0.04594700410962105,0.9893275499343872,-92.79774475097656,-54.5238151550293,21.752836227416992,0.9959501624107361,1.9649016857147217,2.918853998184204,-1.3272496461868286,1.753859043121338,-1.1217741966247559
347,21320,21322,-0.06143702194094658,0.004260139539837837,1.0332340002059937,-99.85652923583984,-54.42676544189453,14.46499252319336,0.9944502711296082,1.969401478767395,2.9323532581329346,-0.7629731893539429,0.986127495765686,-0.85331791639328
348,21330,21332,-0.10892954468727112,-0.015046126209199429,1.0114612579345703,-85.52442169189453,-39.79476547241211,8.354378700256348,0.9914504289627075,1.9784010648727417,2.9323532581329346,-0.060386985540390015,-0.24448369443416595,-0.7932206392288208
349,21340,21342,-0.16275332868099213,-0.013215088285505772,1.0235346555709839,-52.48358917236328,-24.433486938476562,3.3850035667419434,1.0064496994018555,1.9664016962051392,2.920353889465332,0.18033763766288757,-0.466147780418396,-0.5453900694847107
350,21350,21352,-0.14622977375984192,-0.025295346975326538,1.0205419063568115,-7.309906005859375,-6.4456377029418945,3.0674521923065186,1.018449068069458,1.9634017944335938,2.9023547172546387,0.36642616987228394,-0.8176261782646179,-0.5387355089187622
351,21360,21362,-0.1396816074848175,0.035538449883461,1.019445538520813,23.59408187866211,15.39952564239502,4.7998504638671875,1.0124493837356567,1.954402208328247,2.899354934692383,0.2319820523262024,-0.5253961682319641,-0.44815585017204285
352,21370,21372,-0.1500106006860733,0.016033422201871872,0.9877303838729858,34.12633514404297,29.089967727661133,2.0970184803009033,1.0019499063491821,1.9529023170471191,2.87385630607605,-0.06718858331441879,-0.3150428533554077,-0.47348666191101074
353,21380,21382,-0.1172524243593216,-0.04483524337410927,0.9536756277084351,32.26461410522461,35.67286682128906,0.10866890847682953,1.00344979763031,1.9574021100997925,2.890355348587036,-0.27392178773880005,0.18476876616477966,-0.368716835975647
354,21390,21392,-0.11282160878181458,-0.0641825944185257,0.9445703029632568,25.658716201782227,31.954713821411133,-1.7873570919036865,0.9914504289627075,1.9394029378890991,2.8753561973571777,-0.6446204781532288,0.5227075219154358,-0.364200234413147
355,21400,21402,-0.08398997783660889,-0.0555594265460968,0.9228886961936951,22.013505935668945,26.497480392456055,-5.238740921020508,1.00344979763031,1.9394029378890991,2.869356393814087,-0.9179101586341858,0.5428204536437988,-0.46422839164733887
356,21410,21412,-0.1020791232585907,-0.06601490825414658,0.9352361559867859,28.727745056152344,21.371843338012695,-5.72794771194458,1.00344979763031,1.9364031553268433,2.866356611251831,-1.1132510900497437,0.8866912126541138,-0.4824293553829193
357,21420,21422,-0.1622709482908249,-0.04755573347210884,0.9296098947525024,24.032325744628906,22.111671447753906,-2.3258073329925537,0.9974501132965088,1.9424028396606445,2.8753561973571777,-1.1771515607833862,1.0860986709594727,-0.5229623913764954
358,21430,21432,-0.10767252743244171,-0.09657130390405655,0.9217146039009094,13.081838607788086,33.449310302734375,0.9369906783103943,0.9944502711296082,1.94540274143219,2.8813557624816895,-1.5102230310440063,1.3060747385025024,-0.510280966758728
359,21440,21442,-0.07493836432695389,-0.06605718284845352,0.9317886829376221,10.188827514648438,41.20546340942383,5.138789653778076,0.9959501624107361,1.9409029483795166,2.87385630607605,-1.7796212434768677,1.3809844255447388,-0.4683367609977722
360,21450,21452,-0.00022031292610336095,-0.017192021012306213,0.9706265330314636,4.726217269897461,51.59558868408203,8.191254615783691,1.0004500150680542,1.9394029378890991,2.8843557834625244,-2.340759754180908,1.5896626710891724,-0.35552921891212463
361,21460,21462,-0.039054468274116516,-0.0414140559732914,0.9279093742370605,-2.3605263233184814,55.9493522644043,12.951396942138672,0.9869506359100342,1.9439027309417725,2.8798558712005615,-2.5405187606811523,1.485115647315979,-0.2204044759273529
362,21470,21472,-0.06261346489191055,-0.05738915130496025,0.8907181024551392,-23.47422981262207,60.22079849243164,19.487619400024414,0.9839507937431335,1.9439027309417725,2.894855260848999,-3.5080535411834717,1.2497434616088867,-0.14832009375095367
363,21480,21482,-0.05003717914223671,-0.035739779472351074,0.8568873405456543,-48.33823776245117,55.158756256103516,27.0576171875,0.9899504780769348,1.9739012718200684,2.9038548469543457,-4.208742141723633,0.6570252180099487,-0.021067451685667038
364,21490,21492,0.027712807059288025,-0.020633617416024208,0.8975910544395447,-74.45809936523438,32.04722213745117,31.232982635498047,0.9764511585235596,1.9664016962051392,2.917354106903076,-4.309422016143799,0.13870695233345032,0.3820266127586365
365,21500,21502,0.043363556265830994,-0.07666335999965668,0.9341749548912048,-88.44384002685547,7.6512064933776855,29.13363265991211,0.9839507937431335,1.9799009561538696,2.9068546295166016,-4.584367275238037,-0.8704740405082703,0.572367787361145
366,21510,21512,-0.10251661390066147,-0.10641448199748993,0.9035307765007019,-90.13124084472656,-15.222550392150879,24.12864112854004,0.9839507937431335,1.9799009561538696,2.9308533668518066,-4.557861804962158,-1.5743372440338135,0.9328452944755554
367,21520,21522,-0.09743816405534744,-0.042636968195438385,0.8242924809455872,-81.90159606933594,-38.501583099365234,16.276784896850586,0.9854506850242615,1.9814008474349976,2.923353672027588,-4.080870151519775,-2.5292446613311768,1.1108999252319336
368,21530,21532,-0.0645766332745552,-0.009413523599505424,0.8939736485481262,-56.20842361450195,-52.335025787353516,8.542494773864746,0.9884505867958069,1.9904004335403442,2.9323532581329346,-3.694448232650757,-3.0229415893554688,1.3574830293655396
369,21540,21542,-0.03715745732188225,0.01570129580795765,0.9304901361465454,-21.527170181274414,-47.15983200073242,2.0601859092712402,0.9929503202438354,1.985900640487671,2.9068546295166016,-2.9293906688690186,-3.448218584060669,1.4169490337371826
370,21550,21552,-0.05597703158855438,-0.019614147022366524,0.9202459454536438,12.977547645568848,-23.823036193847656,-0.47801607847213745,0.9869506359100342,1.982900857925415,2.9158542156219482,-2.6046674251556396,-3.220930814743042,1.5939664840698242
371,21560,21562,-0.061492156237363815,-0.03118867054581642,0.9140648245811462,39.33279800415039,12.692471504211426,-3.290229558944702,0.9794510006904602,1.9784010648727417,2.923353672027588,-2.559185266494751,-2.8504960536956787,1.6303929090499878
372,21570,21572,-0.027316192165017128,-0.046393804252147675,0.9795950055122375,53.79534149169922,44.51791763305664,-8.601113319396973,0.9734513163566589,1.9814008474349976,2.917354106903076,-2.9359164237976074,-2.4320311546325684,1.5315085649490356
373,21580,21582,0.009766628965735435,-0.04929608479142189,0.8708677291870117,59.02277374267578,66.54991912841797,-13.706111907958984,0.9734513163566589,1.9814008474349976,2.9353532791137695,-3.8563899993896484,-1.5589567422866821,1.6388258934020996
374,21590,21592,-0.02952706068754196,-0.10954589396715164,0.7876065969467163,53.925052642822266,75.20256805419922,-22.441423416137695,0.9614518880844116,2.008399486541748,2.950352430343628,-4.336024284362793,-1.1399043798446655,1.3058161735534668
375,21600,21602,0.0011729917023330927,-0.044594354927539825,0.8901018500328064,42.830013275146484,63.691654205322266,-28.870502471923828,0.9734513163566589,1.9874006509780884,2.9323532581329346,-5.224608421325684,-0.7213952541351318,1.0560818910598755
376,21610,21612,-0.002810059115290642,-0.03379855677485466,0.9699323177337646,36.009918212890625,43.59147644042969,-31.876609802246094,0.9569521546363831,1.9979000091552734,2.9548521041870117,-5.574978828430176,-0.5801531672477722,0.5463666915893555
377,21620,21622,-0.024815773591399193,-0.07107540965080261,0.9263492226600647,26.267127990722656,13.96843147277832,-31.535249710083008,0.9749512076377869,1.9979000091552734,2.9338531494140625,-5.821345329284668,-0.13218554854393005,0.33792710304260254
378,21630,21632,-0.021278420463204384,-0.23444940149784088,0.9205619096755981,15.679082870483398,-20.638643264770508,-31.850248336791992,0.9614518880844116,1.984400749206543,2.920353889465332,-5.60037088394165,-0.08315867185592651,-0.12161508947610855
379,21640,21642,-0.061792220920324326,-0.15905076265335083,0.9646099805831909,-4.141204357147217,-46.60809326171875,-28.643962860107422,0.9749512076377869,1.9889005422592163,2.9368531703948975,-5.056219100952148,-0.1353214532136917,-0.521389901638031
380,21650,21652,-0.10451973229646683,-0.053922783583402634,0.9868652820587158,-29.892887115478516,-53.702117919921875,-24.90372085571289,0.9749512076377869,2.012899398803711,2.951852321624756,-4.559406280517578,-0.495232492685318,-0.8982324600219727
381,21660,21662,-0.05051848292350769,-0.03359973058104515,0.9571176171302795,-44.98816680908203,-60.696903228759766,-24.56477165222168,0.9809509515762329,1.9979000091552734,2.9578521251678467,-3.922332286834717,-0.8817359805107117,-1.1319680213928223
382,21670,21672,-0.053200554102659225,-0.08489349484443665,0.971442699432373,-51.74601745605469,-59.041412353515625,-24.849895477294922,0.9809509515762329,2.0218989849090576,2.975851058959961,-3.6100831031799316,-1.4409011602401733,-1.343208909034729
383,21680,21682,-0.09418627619743347,-0.07492908090353012,0.9461261034011841,-47.816524505615234,-44.31972122192383,-24.070009231567383,0.9989500045776367,2.015899181365967,2.9578521251678467,-2.8958358764648438,-2.0851495265960693,-1.7227903604507446
384,21690,21692,-0.10941804945468903,-0.11377403140068054,0.9476801156997681,-34.92205047607422,-24.618408203125,-20.451791763305664,0.9779511094093323,2.015899181365967,2.9668517112731934,-2.713297128677368,-2.308626174926758,-1.7307088375091553
385,21700,21702,-0.09172556549310684,-0.10714468359947205,0.9708750247955322,-4.459244728088379,-6.832921981811523,-15.100227355957031,0.9929503202438354,2.012899398803711,2.9548521041870117,-2.7543094158172607,-2.5373008251190186,-1.8788944482803345
386,21710,21712,-0.08522109687328339,-0.02791869081556797,0.9602533578872681,17.34428596496582,12.174670219421387,-8.067750930786133,0.9839507937431335,2.0248987674713135,2.9608519077301025,-2.7819101810455322,-2.277617931365967,-1.8601946830749512
387,21720,21722,-0.05009967088699341,-0.028354443609714508,0.9193769097328186,26.620927810668945,33.10176086425781,-3.2018895149230957,0.9764511585235596,2.0233988761901855,2.9683516025543213,-3.1797935962677,-2.059492588043213,-1.895107626914978
388,21730,21732,-0.06290300190448761,-0.06167430803179741,0.8732919096946716,23.812288284301758,33.8326530456543,0.7649245858192444,0.9704514741897583,2.0443978309631348,2.9953501224517822,-3.5781588554382324,-1.9468631744384766,-2.004722833633423
389,21740,21742,-0.08063912391662598,-0.04809972271323204,0.9546002149581909,21.270843505859375,29.019222259521484,5.289283275604248,0.9899504780769348,2.0218989849090576,2.9818508625030518,-4.01285457611084,-1.597185492515564,-1.8512500524520874
390,21750,21752,-0.12762118875980377,-0.12293495237827301,0.9625717997550964,21.400733947753906,18.57980728149414,7.2487287521362305,0.9734513163566589,2.0263986587524414,2.9953501224517822,-4.234694957733154,-1.2586342096328735,-1.7177330255508423
391,21760,21762,-0.021640360355377197,-0.19515536725521088,0.9162231683731079,14.23487663269043,10.268736839294434,8.352943420410156,0.9764511585235596,2.0263986587524414,2.9893505573272705,-4.418060779571533,-1.1315265893936157,-1.6663317680358887
392,21770,21772,0.06555495411157608,-0.05366169288754463,0.9269059896469116,2.636408567428589,-7.103306770324707,8.920731544494629,0.9809509515762329,2.03389835357666,2.9908504486083984,-4.355165958404541,-1.102082371711731,-1.633955955505371
393,21780,21782,0.12882982194423676,0.06659048795700073,0.9906468391418457,-7.5887837409973145,-30.51050567626953,8.868045806884766,0.9869506359100342,2.039897918701172,2.999850034713745,-3.9262607097625732,-1.3848875761032104,-1.7855076789855957
394,21790,21792,0.11090964078903198,0.1341479867696762,1.048736810684204,-7.333481788635254,-46.66654968261719,9.205354690551758,0.9794510006904602,2.014399290084839,2.9953501224517822,-3.8414783477783203,-1.4212781190872192,-1.5510306358337402
395,21800,21802,0.0006777920643799007,0.006281337700784206,1.0241641998291016,3.2865512371063232,-55.74306106567383,9.361419677734375,0.9914504289627075,2.0503973960876465,3.028348445892334,-3.194599151611328,-1.29964017868042,-1.3944790363311768
396,21810,21812,-0.07428345829248428,-0.07140069454908371,1.0145714282989502,12.660700798034668,-56.791568756103516,8.584230422973633,0.9884505867958069,2.0533971786499023,3.0193488597869873,-2.9662253856658936,-1.3718922138214111,-1.2952836751937866
397,21820,21822,-0.05818157270550728,-0.043523676693439484,1.036572813987732,17.148666381835938,-48.75461196899414,8.212055206298828,0.9899504780769348,2.0578970909118652,3.0178489685058594,-2.1364457607269287,-1.107437252998352,-1.2280361652374268
398,21830,21832,-0.060024604201316833,-0.036666709929704666,1.0324182510375977,15.903828620910645,-34.88425064086914,7.288254737854004,1.0019499063491821,2.0428977012634277,3.02384877204895,-2.1549649238586426,-1.0335177183151245,-1.068534016609192
399,21840,21842,-0.026391716673970222,-0.014522796496748924,1.0571608543395996,5.226085662841797,-28.527610778808594,4.52186393737793,1.0004500150680542,2.062396764755249,3.034348249435425,-1.8260624408721924,-0.8313633799552917,-0.9554707407951355
400,21850,21852,-0.14299815893173218,-0.11753863841295242,1.0979318618774414,-11.672562599182129,-35.49457931518555,0.8923519253730774,1.00344979763031,2.0533971786499023,3.034348249435425,-1.6460835933685303,-0.9492558240890503,-0.9350200891494751
401,21860,21862,-0.09644649177789688,-0.05984843149781227,1.103509783744812,-25.028621673583984,-41.99642562866211,-2.889415979385376,0.9929503202438354,2.0428977012634277,3.0208489894866943,-1.251217007637024,-1.3417640924453735,-1.0451773405075073
402,21870,21872,-0.06817222386598587,-0.032764982432127,1.1399526596069336,-18.53232192993164,-49.18897247314453,-6.894328594207764,1.004949688911438,2.0578970909118652,3.0358481407165527,-0.8659966588020325,-1.4199615716934204,-0.9803661108016968
403,21880,21882,-0.06637517362833023,-0.035415880382061005,1.1858330965042114,4.815297603607178,-57.982696533203125,-8.768856048583984,1.0124493837356567,2.062396764755249,3.049347400665283,-0.20226192474365234,-1.5319218635559082,-1.1096866130828857
404,21890,21892,-0.09857527911663055,-0.01907125487923622,1.2106547355651855,26.49372100830078,-60.33598327636719,-1.706314206123352,1.004949688911438,2.060896873474121,3.0448477268218994,0.8438733816146851,-1.2370092868804932,-1.227756142616272
405,21900,21902,-0.10122814029455185,-0.004281817004084587,1.1796399354934692,47.683319091796875,-49.36769485473633,5.45820951461792,1.0004500150680542,2.0563971996307373,3.0463476181030273,0.9190400838851929,-0.6194852590560913,-0.9741573929786682
406,21910,21912,-0.09310001134872437,-0.04042205214500427,1.1650652885437012,57.316043853759766,-39.44760513305664,9.077882766723633,1.0124493837356567,2.0413978099823,3.0463476181030273,1.484904170036316,-0.027199216187000275,-0.9235666990280151
407,21920,21922,-0.11318821460008621,-0.027422022074460983,1.1435246467590332,45.534507751464844,-32.97068405151367,12.45890998840332,1.0154491662979126,2.035398244857788,3.025348663330078,1.91212797164917,0.33869123458862305,-0.8643502593040466
408,21930,21932,-0.12203440070152283,-0.03457925096154213,1.0811749696731567,11.149712562561035,-28.002925872802734,11.495079040527344,1.0244487524032593,2.032398223876953,3.034348249435425,2.1734559535980225,0.6974011063575745,-0.720233678817749
409,21940,21942,-0.08764868974685669,-0.038105305284261703,1.0766218900680542,-35.380149841308594,-24.22969627380371,5.413981914520264,1.0109494924545288,2.015899181365967,2.999850034713745,2.6526055335998535,0.4876508414745331,-0.6899130940437317
410,21950,21952,-0.09917118400335312,-0.05704832077026367,1.0934237241744995,-61.872562408447266,-14.261881828308105,-2.1890792846679688,1.033448338508606,2.0173990726470947,2.998350143432617,2.7934367656707764,-0.32695087790489197,-0.6593566536903381
411,21960,21962,-0.0850943773984909,-0.001621920382604003,1.1232354640960693,-66.52609252929688,-11.63219165802002,-7.524909496307373,1.0229488611221313,2.039897918701172,3.0148491859436035,2.6544957160949707,-0.9559786319732666,-0.6700324416160583
412,21970,21972,-0.07680822908878326,-0.0017605249304324389,1.1324185132980347,-48.44965362548828,-15.409775733947754,-13.661397933959961,1.01694917678833,2.0518972873687744,3.0178489685058594,2.84088397026062,-1.7433183193206787,-0.7496922016143799
413,21980,21982,-0.09149683266878128,-0.04894474521279335,1.162862777709961,-21.31181526184082,-18.074748992919922,-17.877220153808594,1.0229488611221313,2.0428977012634277,3.0118494033813477,3.0807862281799316,-1.9095722436904907,-0.9546554684638977
414,21990,21992,-0.08737821877002716,-0.046708159148693085,1.1707816123962402,16.06049346923828,-20.9475154876709,-20.81351089477539,1.018449068069458,2.0293984413146973,2.9893505573272705,3.291518449783325,-1.8702046871185303,-1.1632720232009888
415,22000,22002,-0.06976918876171112,-0.029087455943226814,1.1754429340362549,55.604270935058594,-26.20935821533203,-18.285978317260742,1.01694917678833,2.0248987674713135,2.9638516902923584,3.349494218826294,-1.2179441452026367,-1.4168890714645386
416,22010,22012,-0.09832076728343964,-0.05449027195572853,1.1765013933181763,74.9632797241211,-34.81633758544922,-13.821802139282227,1.0379481315612793,2.015899181365967,2.99685001373291,3.729473829269409,-0.37352997064590454,-1.6498836278915405
417,22020,22022,-0.04737726226449013,-0.005885034333914518,1.1820712089538574,70.63500213623047,-36.55418014526367,-8.008246421813965,1.0394480228424072,2.0203988552093506,3.001349925994873,4.221417427062988,0.2847273051738739,-1.7382698059082031
418,22030,22032,-0.15063054859638214,-0.020081588998436928,1.1581209897994995,64.53182983398438,-19.929895401000977,-0.21426884829998016,1.01694917678833,2.0009000301361084,2.9908504486083984,4.619114398956299,1.069313406944275,-1.8539625406265259
419,22040,22042,-0.12243920564651489,-0.052513666450977325,1.132928490638733,48.65436935424805,3.339296340942383,7.225241184234619,1.0409479141235352,1.9799009561538696,2.9638516902923584,4.571736812591553,1.6540491580963135,-1.8107250928878784
420,22050,22052,-0.12065958231687546,-0.10613492131233215,1.0847141742706299,29.468704223632812,19.508811950683594,10.82886028289795,1.0409479141235352,1.9649016857147217,2.9308533668518066,4.324100971221924,2.0893375873565674,-1.7319960594177246
421,22060,22062,-0.09223532676696777,-0.10092721879482269,1.0698589086532593,4.045116901397705,44.46126937866211,9.651209831237793,1.0349482297897339,1.9619019031524658,2.9338531494140625,3.9530937671661377,1.8141378164291382,-1.3244584798812866
422,22070,22072,-0.07852605730295181,-0.054435472935438156,1.0580101013183594,-0.21267646551132202,55.47832489013672,13.161933898925781,1.0259486436843872,1.9739012718200684,2.9338531494140625,3.382044792175293,1.8398257493972778,-1.2175651788711548
423,22080,22082,-0.08219742029905319,-0.05650881305336952,1.077451229095459,-6.637903213500977,48.76128005981445,20.24513053894043,1.0214488506317139,1.9754011631011963,2.944352626800537,2.8749141693115234,1.8170582056045532,-1.0406644344329834
424,22090,22092,-0.13654989004135132,-0.0843956246972084,1.026072382926941,-25.161205291748047,28.58321762084961,25.52113914489746,1.018449068069458,1.9514024257659912,2.920353889465332,2.378732919692993,1.5633015632629395,-0.7383134961128235
425,22100,22102,0.0323612354695797,0.03425751253962517,1.0171101093292236,-48.150177001953125,8.137471199035645,22.672868728637695,1.0244487524032593,1.9634017944335938,2.9143543243408203,2.6528375148773193,1.1146060228347778,-0.406192809343338
426,22110,22112,-0.04379955679178238,-0.04323086887598038,0.9783833026885986,-59.303001403808594,-8.1549654006958,10.970593452453613,1.0244487524032593,1.9574021100997925,2.923353672027588,2.6500213146209717,0.4906168282032013,-0.20646348595619202
427,22120,22122,-0.09103450179100037,-0.054202619940042496,1.0041816234588623,-44.857261657714844,-6.9442853927612305,6.465397834777832,1.018449068069458,1.9634017944335938,2.9143543243408203,2.8887510299682617,0.05831806734204292,-0.1898355782032013
428,22130,22132,-0.06620723009109497,-0.05994442477822304,1.0106254816055298,-10.52939224243164,-1.5235096216201782,7.332491397857666,1.0319483280181885,1.9499024152755737,2.9098544120788574,2.9620554447174072,-0.12224330753087997,-0.19407308101654053
429,22140,22142,-0.08902747929096222,-0.06654047220945358,1.0031509399414062,22.508285522460938,5.093513488769531,9.994844436645508,1.019948959350586,1.9559022188186646,2.888855457305908,2.8678128719329834,0.11770199239253998,-0.2496144324541092
430,22150,22152,-0.15595750510692596,-0.05342297628521919,0.996445894241333,53.9658317565918,15.411567687988281,11.100469589233398,1.0244487524032593,1.9514024257659912,2.9113543033599854,2.7144439220428467,0.7360514402389526,-0.33522260189056396
431,22160,22162,-0.09165902435779572,-0.06687311083078384,0.9577873349189758,71.28009033203125,37.266971588134766,12.752800941467285,1.019948959350586,1.9559022188186646,2.918853998184204,2.548861265182495,1.3449901342391968,-0.15835417807102203
432,22170,22172,-0.045345280319452286,-0.06937545537948608,0.9123997092247009,69.81277465820312,51.7402229309082,13.198901176452637,1.018449068069458,1.954402208328247,2.896355152130127,1.9453421831130981,2.2774879932403564,-0.2153242826461792
433,22180,22182,-0.12274987250566483,-0.08936706930398941,0.8461237549781799,52.91242599487305,47.852996826171875,12.256441116333008,1.0109494924545288,1.9649016857147217,2.9008548259735107,1.3294733762741089,2.4205782413482666,0.3060765266418457
434,22190,22192,-0.08519841730594635,-0.07004256546497345,0.8632158041000366,20.63797378540039,34.49040985107422,9.816936492919922,1.0274486541748047,1.9394029378890991,2.8843557834625244,0.8770710229873657,3.0014777183532715,0.2306491732597351
435,22200,22202,-0.08437659591436386,-0.12618188560009003,0.847427487373352,-8.080111503601074,20.099693298339844,13.83852767944336,1.019948959350586,1.93190336227417,2.8828558921813965,0.7431921362876892,2.935875415802002,0.469520628452301
436,22210,22212,-0.043664734810590744,-0.06637997925281525,0.8655789494514465,-38.437171936035156,-1.338792324066162,16.61355209350586,1.0124493837356567,1.9334032535552979,2.893355369567871,0.6963221430778503,2.5231380462646484,0.743474006652832
437,22220,22222,-0.052762698382139206,-0.048619456589221954,0.8851296305656433,-59.4127197265625,-15.159547805786133,18.12859535217285,1.0109494924545288,1.9499024152755737,2.9038548469543457,0.8438857197761536,2.06339693069458,0.8916915655136108
438,22230,22232,-0.055882085114717484,-0.06535116583108902,0.8933873176574707,-71.5552978515625,-24.92139434814453,20.59882354736328,1.0139492750167847,1.9589020013809204,2.9308533668518066,1.1728017330169678,0.9693653583526611,1.4023877382278442
439,22240,22242,-0.06821919232606888,-0.05001036450266838,0.8970310091972351,-81.48017883300781,-30.96319007873535,18.63953971862793,1.0229488611221313,1.967901587486267,2.942852735519409,1.3982292413711548,0.43334150314331055,1.4213238954544067
440,22250,22252,-0.07069294154644012,-0.01635017804801464,0.8939873576164246,-85.02249908447266,-25.693265914916992,18.883752822875977,1.0409479141235352,1.9769011735916138,2.9368531703948975,1.8561137914657593,-0.46203702688217163,1.691077709197998
441,22260,22262,-0.03571832925081253,0.0013825083151459694,0.9335502982139587,-76.42157745361328,-9.733640670776367,18.531600952148438,1.0304484367370605,1.984400749206543,2.947352647781372,2.1119256019592285,-1.1043713092803955,1.795746922492981
442,22270,22272,-0.056316010653972626,-0.02173495851457119,0.9496428370475769,-55.1795539855957,2.9034931659698486,19.345951080322266,1.0259486436843872,1.985900640487671,2.9488525390625,2.0534799098968506,-1.79369056224823,1.9825338125228882
443,22280,22282,-0.07237895578145981,-0.014731605537235737,0.9236202836036682,-34.89876174926758,21.91084098815918,19.57493782043457,1.0274486541748047,1.9904004335403442,2.9353532791137695,1.879736304283142,-2.1197919845581055,2.093822717666626
444,22290,22292,-0.05898994579911232,-0.0013127431739121675,0.954284131526947,-19.072343826293945,38.10441589355469,18.238582611083984,1.0289485454559326,1.985900640487671,2.927853584289551,1.3322962522506714,-2.4979360103607178,2.3000195026397705
445,22300,22302,-0.08810169994831085,-0.003989821299910545,0.9817105531692505,-8.124896049499512,47.7092170715332,14.280089378356934,1.0064496994018555,1.9874006509780884,2.944352626800537,0.8795907497406006,-2.452606201171875,2.338571786880493
446,22310,22312,-0.07999375462532043,-0.03718441724777222,0.948945164680481,4.319376468658447,55.45026779174805,7.360813617706299,1.004949688911438,1.9919003248214722,2.924853801727295,-0.00796063058078289,-2.4407825469970703,2.3730523586273193
447,22320,22322,-0.04240848124027252,-0.03747881203889847,0.9613942503929138,20.107501983642578,53.847503662109375,-3.264646291732788,1.0019499063491821,2.0009000301361084,2.945852756500244,-0.2829723358154297,-2.2607691287994385,2.3545944690704346
448,22330,22332,-0.02225295826792717,-0.053587161004543304,0.9554651379585266,33.21257400512695,41.487030029296875,-14.247603416442871,1.004949688911438,2.015899181365967,2.942852735519409,-0.7235896587371826,-1.9051597118377686,2.2055585384368896
449,22340,22342,-0.02885974571108818,-0.03570319712162018,0.969582200050354,43.88789367675781,25.99683380126953,-22.057220458984375,0.9974501132965088,1.9784010648727417,2.950352430343628,-1.2199175357818604,-1.4461207389831543,1.985979676246643
450,22350,22352,-0.004674578085541725,-0.12255611270666122,0.985332190990448,47.4259147644043,3.456044912338257,-29.50339126586914,1.00344979763031,1.9904004335403442,2.9353532791137695,-0.8517608046531677,-1.1451568603515625,1.7488895654678345
451,22360,22362,-0.056341465562582016,-0.16616757214069366,0.9728639721870422,45.19206619262695,-12.497597694396973,-35.03486633300781,0.9929503202438354,2.0009000301361084,2.9578521251678467,-0.7876366972923279,-0.5463961958885193,1.3729335069656372
452,22370,22372,0.07667086273431778,-0.09878938645124435,0.9219456315040588,37.96699142456055,-19.389501571655273,-38.42708206176758,1.00344979763031,1.984400749206543,2.953352212905884,-0.2458820790052414,-0.38746291399002075,1.0439739227294922
453,22380,22382,-0.017221558839082718,-0.09060724824666977,0.9103415608406067,21.71527099609375,-14.995402336120605,-39.86921310424805,0.9974501132965088,1.9874006509780884,2.947352647781372,-0.11939793080091476,-0.04755750298500061,0.6420413255691528
454,22390,22392,-0.012600962072610855,-0.019418831914663315,0.9692184925079346,4.980417251586914,5.075869560241699,-40.942684173583984,1.0079495906829834,1.9949002265930176,2.9398529529571533,-0.2849172055721283,-0.17893590033054352,0.32810136675834656
455,22400,22402,-0.031485866755247116,-0.044058043509721756,0.9326099157333374,-2.658959150314331,26.40943717956543,-41.47250747680664,1.0154491662979126,2.0023999214172363,2.947352647781372,-0.6054483652114868,-0.0958077535033226,-0.09276405721902847
456,22410,22412,-0.04270419850945473,-0.008270829916000366,0.9346388578414917,0.8599236607551575,34.171268463134766,-39.64426040649414,1.0004500150680542,1.9964001178741455,2.9563522338867188,-1.0782362222671509,-0.19595883786678314,-0.47406575083732605
457,22420,22422,-0.04499489814043045,-0.05160059034824371,0.9468712210655212,14.388450622558594,21.492164611816406,-31.775936126708984,1.0064496994018555,1.9964001178741455,2.9623517990112305,-1.5833779573440552,-0.33593547344207764,-0.7795433402061462
458,22430,22432,-0.0641036182641983,-0.09090451151132584,0.9344944953918457,26.506582260131836,2.2017881870269775,-21.149648666381836,0.9989500045776367,2.0188989639282227,2.9638516902923584,-1.517033338546753,0.01820855215191841,-1.0743106603622437
459,22440,22442,-0.11469394713640213,-0.07181601226329803,0.9249802231788635,27.773033142089844,-17.568819046020508,-10.995646476745605,1.0094494819641113,2.008399486541748,2.9653515815734863,-1.3217425346374512,0.48723652958869934,-1.2573776245117188
460,22450,22452,-0.03136493265628815,0.02045595645904541,0.951718270778656,10.955678939819336,-27.938264846801758,-1.7779207229614258,0.9824508428573608,1.9904004335403442,2.9563522338867188,-0.9845700860023499,0.760330855846405,-1.3294944763183594
461,22460,22462,-0.04981599375605583,-0.006538504268974066,0.9804812073707581,-18.259891510009766,-25.158531188964844,6.2819695472717285,1.0004500150680542,1.9964001178741455,2.9593520164489746,-0.6467618346214294,0.6324440240859985,-1.3045717477798462
462,22470,22472,-0.03827396780252457,-0.036461468786001205,0.8824527859687805,-42.525733947753906,-13.579894065856934,9.589638710021973,1.0019499063491821,2.0038998126983643,2.9548521041870117,-0.5828211307525635,0.1291620433330536,-1.2142276763916016
463,22480,22482,-0.06467879563570023,-0.05540847405791283,0.8987389206886292,-56.788448333740234,-3.218761682510376,11.570180892944336,1.00344979763031,1.999400019645691,2.9623517990112305,-0.5492518544197083,-0.6213861703872681,-1.1047202348709106
464,22490,22492,-0.1049799695611,-0.04348848760128021,0.945401668548584,-50.63044738769531,7.205502033233643,9.785055160522461,0.9944502711296082,2.0173990726470947,2.980350971221924,-0.7427988648414612,-0.925977885723114,-0.9888454675674438
465,22500,22502,-0.041254740208387375,-0.004717747215181589,0.9557583332061768,-35.821624755859375,18.296443939208984,6.109075546264648,0.9959501624107361,2.030898332595825,2.9938502311706543,-0.9004928469657898,-1.4807466268539429,-0.9196038246154785
466,22510,22512,-0.0430876724421978,-0.00611195620149374,0.9587969779968262,-16.94415855407715,19.676164627075195,4.301219940185547,0.9959501624107361,2.030898332595825,2.9878506660461426,-1.2290496826171875,-1.8198628425598145,-0.8736525774002075
467,22520,22522,-0.04130973294377327,0.018506711348891258,0.9598662257194519,6.91254186630249,12.555492401123047,2.9676849842071533,1.00344979763031,2.0263986587524414,2.998350143432617,-1.357174038887024,-1.668698787689209,-0.8324719667434692
468,22530,22532,-0.053456034511327744,0.004262703936547041,0.9819083213806152,27.90508270263672,0.4837656021118164,3.761754274368286,0.9989500045776367,2.0278985500335693,2.999850034713745,-1.3650258779525757,-1.5415117740631104,-0.8089830875396729
469,22540,22542,-0.11500656604766846,-0.058682363480329514,0.9911627173423767,38.64170455932617,-10.57983112335205,5.740245342254639,0.9884505867958069,2.014399290084839,3.004349708557129,-1.2881919145584106,-0.9591540098190308,-0.7386066317558289
470,22550,22552,-0.1403646022081375,-0.011951866559684277,0.9603488445281982,43.0088996887207,-23.211244583129883,8.041446685791016,0.9959501624107361,2.030898332595825,3.002849817276001,-1.2324837446212769,-0.3402070999145508,-0.6322203278541565
471,22560,22562,-0.15692588686943054,0.06000266224145889,0.9921448230743408,32.57920455932617,-30.004676818847656,10.454068183898926,0.9884505867958069,2.0413978099823,3.0133492946624756,-0.6909984946250916,-0.33604922890663147,-0.6192232966423035
472,22570,22572,-0.09042017161846161,0.03835393488407135,1.0214033126831055,10.326118469238281,-20.18819236755371,11.930763244628906,1.0019499063491821,2.039897918701172,3.026848554611206,-0.5601606965065002,0.05565609037876129,-0.4637404680252075
473,22580,22582,-0.059143953025341034,0.07046434283256531,1.1234525442123413,0.903894305229187,-13.119181632995605,11.829063415527344,1.00344979763031,2.0293984413146973,3.0073494911193848,-0.38752806186676025,0.06679724901914597,-0.3500231206417084
474,22590,22592,-0.09500018507242203,-0.04873695224523544,1.1153956651687622,5.130367755889893,-12.643083572387695,12.030442237854004,1.00344979763031,2.0203988552093506,3.0133492946624756,-0.33168596029281616,0.05196032673120499,-0.232904314994812
475,22600,22602,-0.07774657011032104,-0.09796321392059326,1.0708701610565186,13.71914005279541,-20.513586044311523,14.131935119628906,0.9989500045776367,2.0248987674713135,3.005849599838257,-0.1280461847782135,0.2107122242450714,-0.09619409590959549
476,22610,22612,-0.11162051558494568,-0.032983291894197464,1.0506261587142944,22.579133987426758,-39.228946685791016,16.201505661010742,1.0094494819641113,2.0233988761901855,3.0193488597869873,0.23471654951572418,-0.03604738414287567,-0.008361388929188251
477,22620,22622,-0.05237012356519699,-0.012027307413518429,1.1311054229736328,17.3372859954834,-49.35673904418945,17.388397216796875,1.0259486436843872,2.012899398803711,3.008849620819092,0.8667176365852356,0.30624955892562866,0.16738346219062805
478,22630,22632,-0.08212755620479584,0.05585438013076782,1.206805944442749,1.3708842992782593,-51.84830856323242,12.26702880859375,1.0139492750167847,2.0278985500335693,3.0148491859436035,1.2530348300933838,0.21499918401241302,0.30884337425231934
479,22640,22642,-0.08334121108055115,-0.05396214500069618,1.2432224750518799,1.7613457441329956,-50.30024337768555,6.967278480529785,1.0229488611221313,2.012899398803711,3.0118494033813477,1.9342846870422363,0.26029014587402344,0.39119037985801697
480,22650,22652,-0.1783873587846756,-0.050237201154232025,1.265832781791687,17.569961547851562,-40.00490188598633,8.943324089050293,1.0229488611221313,2.0188989639282227,3.002849817276001,2.102329730987549,0.3225529193878174,0.47133782505989075
481,22660,22662,-0.1369219571352005,-0.03528834506869316,1.2602245807647705,20.51921844482422,-21.428951263427734,15.673198699951172,1.0124493837356567,2.008399486541748,2.980350971221924,2.465723752975464,0.5513264536857605,0.5930749773979187
