,timestamp_start,timestamp_end,acc.x,acc.y,acc.z,gyro.x,gyro.y,gyro.z,mag.x,mag.y,mag.z,stabilizer.pitch,stabilizer.roll,stabilizer.yaw
0,243687,243689,-0.22764216363430023,-0.05451162904500961,0.8965651392936707,-21.985572814941406,47.82963562011719,1.6925485134124756,0.9359531998634338,1.9349032640457153,2.945852756500244,-1.5663907527923584,1.924773931503296,0.6921471357345581
1,243697,243699,-0.20641495287418365,-0.002836458384990692,0.9170090556144714,-38.910518646240234,11.744030952453613,5.460099697113037,0.9359531998634338,1.9349032640457153,2.945852756500244,-1.990564227104187,1.6332175731658936,0.7615373730659485
2,243707,243709,-0.1827564686536789,0.024682458490133286,0.9553599953651428,-45.02908706665039,-28.893638610839844,7.800826072692871,0.9539523124694824,1.970901370048523,2.9908504486083984,-1.9621556997299194,1.2566955089569092,0.855541467666626
3,243717,243719,-0.1691412329673767,0.05276094004511833,1.0232793092727661,-35.69805908203125,-60.43080520629883,7.9679975509643555,0.9359531998634338,1.9649016857147217,2.9938502311706543,-1.4674443006515503,0.7678014039993286,0.9933477640151978
4,243727,243729,-0.10622192919254303,-0.029004106298089027,1.0086826086044312,-15.658811569213867,-73.74259948730469,7.859879493713379,0.9449527263641357,1.9889005422592163,3.026848554611206,-1.0190341472625732,0.5355823040008545,1.007275104522705
5,243737,243739,-0.1401887685060501,-0.10362768918275833,1.0196322202682495,3.4694621562957764,-68.84076690673828,8.406878471374512,0.9599519968032837,1.9889005422592163,3.0478475093841553,-0.06032750755548477,0.25198352336883545,1.1531587839126587
6,243747,243749,-0.10144111514091492,-0.11610686033964157,0.9892476201057434,21.141740798950195,-42.44013595581055,9.861552238464355,0.9464526772499084,1.9874006509780884,3.028348445892334,0.7238085865974426,0.4151182174682617,1.220681071281433
7,243757,243759,-0.08387432247400284,0.011796138249337673,0.9586105346679688,26.314350128173828,0.36021265387535095,10.595892906188965,0.9539523124694824,1.985900640487671,3.0178489685058594,0.8956100940704346,0.7283861637115479,1.2256431579589844
8,243767,243769,-0.08498305082321167,-0.029529361054301262,0.9987102746963501,15.687478065490723,41.90705108642578,8.211359977722168,0.9539523124694824,1.9739012718200684,3.002849817276001,0.9165980219841003,0.9343687891960144,1.333647608757019
9,243777,243779,-0.06502249091863632,-0.06621267646551132,1.0101839303970337,1.0975096225738525,78.72532653808594,4.443843841552734,0.9479525685310364,1.9589020013809204,2.99685001373291,0.20624969899654388,1.1052684783935547,1.3545658588409424
10,243787,243789,-0.12164574861526489,-0.051602888852357864,0.9404520988464355,-0.7233612537384033,96.29214477539062,3.4864978790283203,0.9344532489776611,1.9634017944335938,3.001349925994873,-0.406528502702713,1.2982163429260254,1.40644109249115
11,243797,243799,-0.11355768889188766,-0.06124214455485344,0.9868678450584412,-6.592056751251221,84.3670425415039,2.9778881072998047,0.9434528350830078,2.008399486541748,3.031348466873169,-1.8996541500091553,1.288516879081726,1.3429999351501465
12,243807,243809,-0.13723228871822357,-0.07937601208686829,0.9907754063606262,-19.19365119934082,49.56145095825195,2.319592237472534,0.9374530911445618,1.9754011631011963,2.9953501224517822,-1.943408727645874,1.223650574684143,1.5749346017837524
13,243817,243819,-0.13613229990005493,-0.09655261039733887,0.9972107410430908,-18.85770606994629,5.488520622253418,-1.0661851167678833,0.9284535646438599,1.9874006509780884,2.9953501224517822,-2.693441867828369,1.000814437866211,1.5681867599487305
14,243827,243829,-0.13403399288654327,-0.0800003707408905,1.011368751525879,-12.941058158874512,-29.303085327148438,-4.724298477172852,0.9434528350830078,1.969401478767395,2.9923503398895264,-2.7602548599243164,0.7972858548164368,1.5746512413024902
15,243837,243839,-0.1138206422328949,-0.05403405800461769,1.0007067918777466,-9.198384284973145,-51.14341735839844,-6.1701436042785645,0.9374530911445618,1.9634017944335938,2.9653515815734863,-2.2925403118133545,0.6808645129203796,1.5771706104278564
16,243847,243849,-0.0038211573846638203,-0.07037380337715149,0.9782761931419373,-10.853421211242676,-54.143428802490234,-6.862734794616699,0.9284535646438599,1.9634017944335938,2.998350143432617,-1.8987704515457153,0.5364589095115662,1.4914193153381348
17,243857,243859,-0.09395013004541397,-0.03533906862139702,0.9104861617088318,-7.676579475402832,-42.14548873901367,-4.031868934631348,0.9494525194168091,1.9754011631011963,3.001349925994873,-1.2690438032150269,0.3818170726299286,1.4404813051223755
18,243867,243869,-0.06274694204330444,0.037028126418590546,0.9838566780090332,-1.599457859992981,-18.39729881286621,-1.1177895069122314,0.9434528350830078,1.9604018926620483,2.9893505573272705,-0.929872989654541,0.2881610691547394,1.3717470169067383
19,243877,243879,-0.06783147901296616,-0.012028834782540798,1.054309606552124,6.8636674880981445,9.255793571472168,3.238112211227417,0.9494525194168091,1.9604018926620483,2.980350971221924,-0.7604350447654724,0.2933565676212311,1.3479084968566895
20,243887,243889,-0.10414279997348785,-0.04337161406874657,1.0374640226364136,17.748668670654297,38.39215087890625,8.155145645141602,0.9464526772499084,1.9484025239944458,2.980350971221924,-0.8485709428787231,0.39279675483703613,1.3682161569595337
21,243897,243899,-0.11632710695266724,-0.026201903820037842,1.0156117677688599,15.3871431350708,58.41783905029297,10.541502952575684,0.9389530420303345,1.9589020013809204,2.975851058959961,-1.498397946357727,0.6806603670120239,1.398914098739624
22,243907,243909,-0.06760766357183456,0.00017757668683771044,1.001661777496338,3.4708056449890137,72.7421875,11.798060417175293,0.9389530420303345,1.970901370048523,2.99685001373291,-2.027020215988159,0.7500266432762146,1.5124893188476562
23,243917,243919,-0.024876004084944725,-0.016360843554139137,0.949312150478363,-13.239355087280273,74.98745727539062,12.792623519897461,0.9359531998634338,1.9949002265930176,3.0178489685058594,-2.8916611671447754,0.4943944215774536,1.600882649421692
24,243927,243929,-0.05485718324780464,-0.01984287239611149,0.9616369605064392,-25.165790557861328,56.864933013916016,13.824166297912598,0.9389530420303345,1.9919003248214722,3.0118494033813477,-3.4826066493988037,0.34796974062919617,1.7542250156402588
25,243937,243939,-0.053967542946338654,-0.048151854425668716,0.9167001843452454,-21.94683265686035,36.5948600769043,13.226235389709473,0.9404529333114624,1.984400749206543,2.9893505573272705,-4.162322521209717,0.20646977424621582,1.8910523653030396
26,243947,243949,-0.05787072330713272,-0.05726441740989685,0.9027581810951233,-16.304243087768555,4.056778907775879,9.579161643981934,0.9374530911445618,1.969401478767395,2.9893505573272705,-4.325618743896484,0.04486685246229172,2.0678470134735107
27,243957,243959,-0.06143839284777641,-0.04382910951972008,0.9662643671035767,-7.548636436462402,-32.29070281982422,5.5777587890625,0.9419528841972351,1.9619019031524658,2.978851079940796,-4.372732639312744,-0.17148908972740173,2.1606595516204834
28,243967,243969,-0.04711732640862465,-0.02810845524072647,1.0050991773605347,10.097880363464355,-58.0732307434082,1.8282989263534546,0.9224538803100586,1.9634017944335938,2.9893505573272705,-4.147447109222412,-0.1397707760334015,2.2459044456481934
29,243977,243979,-0.01840527355670929,-0.045618560165166855,1.012264609336853,24.7857666015625,-72.46353912353516,-1.8479409217834473,0.9299534559249878,1.9769011735916138,3.0208489894866943,-3.3269577026367188,-0.1274358481168747,2.2778003215789795
30,243987,243989,0.01948859915137291,-0.11397764831781387,0.971433699131012,36.79905319213867,-74.1235122680664,-2.99381685256958,0.9494525194168091,1.9814008474349976,3.025348663330078,-3.000673294067383,0.1852836310863495,2.2535927295684814
31,243997,243999,-0.005202800035476685,-0.10010561347007751,0.9267556667327881,41.208740234375,-59.9086799621582,-2.693857192993164,0.9449527263641357,1.9949002265930176,3.0178489685058594,-2.1846413612365723,0.5969395637512207,2.244276523590088
32,244007,244009,-0.014464990235865116,0.04203551635146141,0.9294018745422363,32.89268112182617,-39.811031341552734,-3.3651256561279297,0.9374530911445618,1.984400749206543,3.025348663330078,-1.6737717390060425,0.8303494453430176,2.1491546630859375
33,244017,244019,0.028248300775885582,0.048401955515146255,0.981106698513031,13.347490310668945,-17.701818466186523,-5.402696132659912,0.9464526772499084,1.9754011631011963,3.001349925994873,-1.2050282955169678,1.316198706626892,2.153453826904297
34,244027,244029,0.03230665251612663,-0.028191862627863884,0.9491822719573975,-6.2895636558532715,-1.7648614645004272,-6.357576847076416,0.9419528841972351,1.967901587486267,2.9848506450653076,-1.2083061933517456,1.2743887901306152,2.0282983779907227
35,244037,244039,-0.07647538930177689,0.05940557271242142,1.017405390739441,-23.68636703491211,6.482410907745361,-7.465447902679443,0.9464526772499084,1.9484025239944458,2.980350971221924,-1.3458380699157715,1.148966670036316,1.9271736145019531
36,244047,244049,-0.06356039643287659,0.0017577593680471182,1.1186516284942627,-29.03029441833496,8.447708129882812,-9.074104309082031,0.9539523124694824,1.9589020013809204,3.002849817276001,-1.4573311805725098,0.7861307859420776,1.815700888633728
37,244057,244059,-0.04258645325899124,-0.02827892266213894,1.0577738285064697,-19.557090759277344,-6.736871719360352,-10.955118179321289,0.9329533576965332,1.9769011735916138,3.005849599838257,-1.4688953161239624,0.6668806672096252,1.7704033851623535
38,244067,244069,-0.11383207887411118,0.0018066834891214967,1.1142841577529907,-3.940797805786133,-32.373104095458984,-14.25297737121582,0.9404529333114624,1.9574021100997925,2.9833507537841797,-1.3523513078689575,0.49375206232070923,1.6766170263290405
39,244077,244079,-0.08136522024869919,0.013071431778371334,1.0388466119766235,12.23308277130127,-44.79069137573242,-17.56952476501465,0.9464526772499084,1.9514024257659912,2.9833507537841797,-1.1061066389083862,0.4342496693134308,1.5329467058181763
40,244087,244089,0.012859728187322617,0.01691337302327156,1.0488108396530151,20.092187881469727,-47.769081115722656,-18.883066177368164,0.9404529333114624,1.9634017944335938,2.980350971221924,-0.5954529047012329,0.6618720889091492,1.3877935409545898
41,244097,244099,-0.06697511672973633,-0.04947005957365036,1.0721549987792969,26.483978271484375,-44.80648422241211,-17.364973068237305,0.9449527263641357,1.9559022188186646,2.9818508625030518,-0.32115474343299866,0.8769980669021606,1.1764460802078247
42,244107,244109,-0.09804760664701462,-0.04536665603518486,1.0791364908218384,25.60145378112793,-33.07994079589844,-14.810028076171875,0.9434528350830078,1.9364031553268433,2.9593520164489746,0.2981428802013397,1.229264497756958,1.0214037895202637
43,244117,244119,-0.0809004083275795,-0.12102311849594116,1.0153942108154297,19.785362243652344,-19.53365707397461,-11.47166919708252,0.958452045917511,1.9364031553268433,2.9563522338867188,0.44355860352516174,1.4235588312149048,0.8376732468605042
44,244127,244129,-0.09463167190551758,-0.07099731266498566,1.057321548461914,9.16989517211914,-7.450837135314941,-8.735369682312012,0.9539523124694824,1.9259036779403687,2.945852756500244,0.6610857844352722,1.7038573026657104,0.7165407538414001
45,244137,244139,-0.08176063001155853,-0.06634768843650818,1.1398481130599976,8.77670669555664,-4.214566707611084,-9.713506698608398,0.9554522037506104,1.9214038848876953,2.926353693008423,0.5888112783432007,1.7157326936721802,0.6040819883346558
46,244147,244149,-0.08269622921943665,-0.07058364897966385,1.086279034614563,9.338728904724121,-1.6134567260742188,-8.931378364562988,0.950952410697937,1.9259036779403687,2.924853801727295,0.7313769459724426,1.7979729175567627,0.5233173966407776
47,244157,244159,-0.06585528701543808,-0.04340577870607376,1.0545717477798462,4.07957124710083,-5.682015895843506,-6.247142791748047,0.950952410697937,1.9289034605026245,2.924853801727295,0.8388134241104126,1.9235543012619019,0.4459304213523865
48,244167,244169,-0.08466530591249466,-0.02809247002005577,1.0857584476470947,-1.0014581680297852,-15.553253173828125,-2.52785325050354,0.9539523124694824,1.9049047231674194,2.9068546295166016,0.8422931432723999,1.8413718938827515,0.3841869533061981
49,244177,244179,-0.11808134615421295,-0.051602400839328766,1.067429542541504,-14.700172424316406,-16.36366844177246,0.47589078545570374,0.9554522037506104,1.9034048318862915,2.9143543243408203,0.8276229500770569,1.7814209461212158,0.3270553946495056
50,244187,244189,-0.09733667969703674,-0.04939141497015953,1.0198969841003418,-29.185264587402344,-12.901773452758789,1.3071670532226562,0.9629518389701843,1.892905354499817,2.9158542156219482,1.0211737155914307,1.5754896402359009,0.34107011556625366
51,244197,244199,-0.10581508278846741,-0.033940140157938004,1.0240037441253662,-39.494930267333984,-17.48748016357422,2.0444459915161133,0.9689515233039856,1.901904821395874,2.897855043411255,1.200356125831604,1.3518896102905273,0.35147055983543396
52,244207,244209,-0.08697614818811417,-0.01581495814025402,1.1043821573257446,-39.91722869873047,-21.506752014160156,1.9717398881912231,0.9629518389701843,1.9049047231674194,2.9068546295166016,1.4387346506118774,0.9207698702812195,0.38970643281936646
53,244217,244219,-0.10080736875534058,-0.027026429772377014,1.038793921470642,-32.27901077270508,-20.25028419494629,0.023168960586190224,0.9599519968032837,1.9049047231674194,2.8858556747436523,1.7093993425369263,0.7122076153755188,0.37588584423065186
54,244227,244229,-0.13358834385871887,-0.03179417550563812,1.0175774097442627,-18.725799560546875,-18.43107032775879,-0.16229048371315002,0.9614518880844116,1.9064046144485474,2.920353889465332,1.954911708831787,0.301741361618042,0.4063528776168823
55,244237,244239,-0.12647926807403564,-0.029612237587571144,1.0198696851730347,-7.495028972625732,-10.502193450927734,-0.4175647497177124,0.9719513654708862,1.8989050388336182,2.9008548259735107,2.076969861984253,0.23181886970996857,0.3556220233440399
56,244247,244249,-0.14039503037929535,-0.04347560927271843,1.0106897354125977,-0.22579331696033478,6.356471061706543,-0.5105849504470825,0.965951681137085,1.8899054527282715,2.8858556747436523,2.177663803100586,0.18693028390407562,0.3377046585083008
57,244257,244259,-0.17122790217399597,-0.04021449759602547,0.9670450091362,2.5569629669189453,24.046720504760742,-2.4411978721618652,0.9614518880844116,1.8974051475524902,2.8783559799194336,2.0846853256225586,0.29689547419548035,0.28507229685783386
58,244267,244269,-0.1349201798439026,-0.025252893567085266,0.9451735019683838,9.804728507995605,41.90021514892578,0.6324782967567444,0.9644517302513123,1.8884055614471436,2.8843557834625244,1.8261455297470093,0.32821279764175415,0.25676360726356506
59,244277,244279,-0.183786541223526,-0.04792855307459831,0.9229243993759155,12.149874687194824,47.00420379638672,4.187241077423096,0.9569521546363831,1.8989050388336182,2.8858556747436523,1.4046924114227295,0.46443310379981995,0.2402452975511551
60,244287,244289,-0.1762407273054123,-0.058052197098731995,0.8428264856338501,3.1266026496887207,37.1734504699707,3.109302043914795,0.9419528841972351,1.8989050388336182,2.888855457305908,0.8812769055366516,0.5937857031822205,0.27270567417144775
61,244297,244299,-0.08743375539779663,-0.10552720725536346,0.8352484107017517,-4.05686092376709,28.959381103515625,0.9682499766349792,0.9539523124694824,1.892905354499817,2.8828558921813965,0.7735101580619812,0.5772577524185181,0.36153239011764526
62,244307,244309,-0.13808071613311768,-0.0709877535700798,0.9066777229309082,8.48213005065918,22.87207794189453,-0.5847384929656982,0.9479525685310364,1.8959051370620728,2.870856523513794,0.42905113101005554,0.5241227149963379,0.3777737021446228
63,244317,244319,-0.09491986781358719,-0.034451860934495926,0.8525751233100891,22.630990982055664,18.46996307373047,4.506091117858887,0.9449527263641357,1.8899054527282715,2.87385630607605,0.3069142997264862,0.6073434352874756,0.38219326734542847
64,244327,244329,-0.006175493821501732,0.05569407716393471,0.8281583189964294,15.829389572143555,10.331929206848145,10.776556015014648,0.9464526772499084,1.9034048318862915,2.9053547382354736,0.07364039123058319,0.8979873061180115,0.3900216817855835
65,244337,244339,-0.04629704728722572,0.00819186307489872,0.8314808011054993,-7.135749816894531,-4.859842777252197,13.522945404052734,0.9404529333114624,1.9094045162200928,2.9083545207977295,0.0028451397083699703,1.0315282344818115,0.5058316588401794
66,244347,244349,-0.20637701451778412,-0.022798750549554825,0.858216404914856,-32.40481185913086,-19.221481323242188,11.799301147460938,0.9494525194168091,1.9064046144485474,2.9053547382354736,0.29640427231788635,0.8112226128578186,0.7190908193588257
67,244357,244359,-0.15012235939502716,-0.05680046230554581,0.7977034449577332,-40.84894561767578,-25.3686580657959,9.63934326171875,0.9539523124694824,1.9109044075012207,2.927853584289551,0.1491042673587799,0.659028947353363,0.7638399600982666
68,244367,244369,-0.06798494607210159,-0.023999622091650963,0.8422949910163879,-32.94990158081055,-21.920509338378906,9.993156433105469,0.9629518389701843,1.93190336227417,2.9338531494140625,0.5757832527160645,0.262732595205307,0.8758974075317383
69,244377,244379,-0.0747162476181984,0.034874897450208664,0.90416419506073,-16.389453887939453,-15.969111442565918,11.580827713012695,0.9554522037506104,1.9214038848876953,2.9413528442382812,0.9305998682975769,0.08854785561561584,0.932883620262146
70,244387,244389,-0.061995506286621094,0.035299547016620636,0.9078316688537598,-2.356445789337158,-8.523604393005371,13.60096263885498,0.9524523615837097,1.9484025239944458,2.950352430343628,1.1794673204421997,-0.19384045898914337,1.0793043375015259
71,244397,244399,-0.05213959515094757,0.011710201390087605,0.9127973914146423,-1.7584809064865112,-4.201058864593506,10.407601356506348,0.9479525685310364,1.9649016857147217,2.969851493835449,1.2286670207977295,-0.2911462187767029,1.2264745235443115
72,244407,244409,-0.08267173171043396,0.029970906674861908,0.9585723280906677,-4.850955009460449,-5.328214168548584,6.274682521820068,0.9449527263641357,1.9439027309417725,2.975851058959961,1.3022915124893188,-0.23856520652770996,1.3110828399658203
73,244417,244419,-0.12705782055854797,0.04568145424127579,0.9855750799179077,0.30444711446762085,3.623063087463379,3.813234567642212,0.958452045917511,1.9484025239944458,2.9683516025543213,1.3365989923477173,-0.2107265591621399,1.3511083126068115
74,244427,244429,-0.060739558190107346,0.07509714365005493,0.9893588423728943,8.608522415161133,11.843185424804688,5.36275577545166,0.950952410697937,1.9529023170471191,2.969851493835449,1.3638978004455566,-0.2246091514825821,1.3974509239196777
75,244437,244439,-0.045544110238552094,0.02373337745666504,0.9981778860092163,2.766446113586426,0.600384533405304,3.846771717071533,0.9479525685310364,1.9649016857147217,2.975851058959961,1.1477187871932983,-0.2340557873249054,1.4771499633789062
76,244447,244449,-0.037984177470207214,-0.11331328749656677,1.044262409210205,-0.9861840605735779,-18.513933181762695,-0.32300105690956116,0.9614518880844116,1.9514024257659912,2.980350971221924,1.195256233215332,-0.18399494886398315,1.5110288858413696
77,244457,244459,-0.07428666949272156,-0.04674873501062393,1.057126522064209,-6.948964595794678,-41.48736572265625,-3.554431438446045,0.958452045917511,1.9724013805389404,2.9923503398895264,1.3095132112503052,-0.20551787316799164,1.5120030641555786
78,244467,244469,-0.10725867748260498,-0.025510890409350395,1.0673011541366577,-14.778366088867188,-49.92436599731445,-8.580084800720215,0.9719513654708862,1.9649016857147217,2.99685001373291,1.9454294443130493,-0.38966554403305054,1.5139482021331787
79,244477,244479,-0.11581792682409286,0.03215096890926361,1.073736548423767,-15.173115730285645,-35.567466735839844,-12.210042953491211,0.9629518389701843,1.982900857925415,2.9938502311706543,2.275843858718872,-0.6658629775047302,1.4894533157348633
80,244487,244489,-0.101531021296978,-0.02180854044854641,1.0696957111358643,0.5270300507545471,-1.5035114288330078,-11.776296615600586,0.9809509515762329,1.9499024152755737,2.975851058959961,2.4945125579833984,-0.6513965725898743,1.3233357667922974
81,244497,244499,-0.08352066576480865,-0.06878833472728729,1.0486119985580444,21.125720977783203,32.077293395996094,-9.509134292602539,0.9569521546363831,1.9469026327133179,2.9578521251678467,2.3806605339050293,-0.6562306880950928,1.217393159866333
82,244507,244509,-0.1466304063796997,-0.04161506146192551,1.0491936206817627,31.528879165649414,55.64710235595703,-7.243828296661377,0.950952410697937,1.9409029483795166,2.9608519077301025,2.0633718967437744,-0.38332393765449524,1.0891156196594238
83,244517,244519,-0.0966782420873642,-0.06445333361625671,0.9856563806533813,39.61083221435547,75.22869110107422,-4.981816291809082,0.9554522037506104,1.9574021100997925,2.9683516025543213,1.5536472797393799,-0.07688643783330917,1.017509937286377
84,244527,244529,-0.06133287027478218,-0.07741822302341461,0.9464231729507446,37.4913215637207,78.88262176513672,-3.1580605506896973,0.9674516320228577,1.954402208328247,2.9863505363464355,0.5987507700920105,0.24825678765773773,1.0110535621643066
85,244537,244539,-0.08707450330257416,-0.11112654209136963,0.9144864678382874,18.214601516723633,71.48751068115234,-3.5816571712493896,0.9494525194168091,1.9634017944335938,2.974351167678833,-0.15221992135047913,0.6731660962104797,0.9608051180839539
86,244547,244549,-0.052074410021305084,-0.08218693733215332,0.9297446608543396,1.2265214920043945,60.64848327636719,-4.757151126861572,0.9374530911445618,1.9514024257659912,2.9593520164489746,-0.6353194713592529,0.8007808327674866,0.9420132637023926
87,244557,244559,-0.046644117683172226,-0.10094105452299118,0.9137839674949646,-16.46707534790039,46.644412994384766,-3.5747668743133545,0.9464526772499084,1.9574021100997925,2.944352626800537,-1.1581690311431885,0.7163963317871094,0.9302545189857483
88,244567,244569,-0.037458598613739014,-0.07454581558704376,0.8935020565986633,-29.493221282958984,27.952531814575195,-0.9954045414924622,0.9434528350830078,1.930403470993042,2.947352647781372,-1.7196036577224731,0.5922126770019531,0.8960816264152527
89,244577,244579,-0.05390477925539017,-0.07438427954912186,0.8795947432518005,-36.83753967285156,0.6137521862983704,3.314117193222046,0.9359531998634338,1.9349032640457153,2.942852735519409,-1.7803789377212524,0.32337838411331177,0.8745740652084351
90,244587,244589,-0.0756734237074852,-0.049699265509843826,0.9200129508972168,-26.274490356445312,-22.63777732849121,7.449285507202148,0.9389530420303345,1.9439027309417725,2.9548521041870117,-1.7909196615219116,-0.04782480001449585,0.9074084162712097
91,244597,244599,0.014438585378229618,0.024531077593564987,0.9281418323516846,-11.177461624145508,-34.40169906616211,10.693934440612793,0.9464526772499084,1.954402208328247,2.9413528442382812,-1.5360077619552612,-0.37348490953445435,0.9871150255203247
92,244607,244609,-0.03583744913339615,0.042396899312734604,0.9046976566314697,-1.1942510604858398,-39.926151275634766,11.87233829498291,0.9494525194168091,1.94540274143219,2.971351385116577,-1.2436798810958862,-0.32270103693008423,1.0808417797088623
93,244617,244619,-0.034806668758392334,-0.06682998687028885,0.8900064826011658,-0.5831723213195801,-38.3394775390625,7.365482330322266,0.9464526772499084,1.9634017944335938,2.971351385116577,-0.7604489326477051,-0.2898028492927551,1.1919348239898682
94,244627,244629,-0.046864062547683716,-0.06378819048404694,0.8665633201599121,-8.521727561950684,-23.070110321044922,3.4983437061309814,0.950952410697937,1.9529023170471191,2.9668517112731934,-0.510012686252594,-0.30435842275619507,1.2766916751861572
95,244637,244639,-0.06629759073257446,-0.10046365112066269,0.7676987648010254,-11.557286262512207,-1.3619821071624756,2.0395164489746094,0.9539523124694824,1.9469026327133179,2.969851493835449,-0.23021268844604492,-0.41814929246902466,1.3148998022079468
96,244647,244649,-0.06127741187810898,-0.07591291517019272,0.8397153615951538,-11.008378028869629,28.376798629760742,0.7805207371711731,0.950952410697937,1.9469026327133179,2.945852756500244,-0.3476535975933075,-0.5060018301010132,1.3416067361831665
97,244657,244659,-0.04003826528787613,-0.0544106662273407,0.8816171288490295,-9.486883163452148,58.13642883300781,2.509855031967163,0.9419528841972351,1.967901587486267,2.9638516902923584,-0.9950459003448486,-0.43632903695106506,1.3663880825042725
98,244667,244669,-0.0004076576151419431,-0.023391250520944595,0.8796942234039307,-13.569392204284668,78.21114349365234,4.5399556159973145,0.9389530420303345,1.9739012718200684,3.0118494033813477,-1.429679036140442,-0.6546385288238525,1.3794045448303223
99,244677,244679,-0.00031910257530398667,-0.02893676422536373,0.9005039930343628,-16.81984519958496,83.68682861328125,7.314539909362793,0.9344532489776611,2.0173990726470947,3.031348466873169,-2.43719482421875,-0.7181905508041382,1.434364914894104
100,244687,244689,-0.03654850646853447,-0.06600984930992126,0.9588992595672607,-13.43362808227539,72.7905044555664,9.020824432373047,0.9299534559249878,2.0218989849090576,3.0478475093841553,-3.242147922515869,-0.8819210529327393,1.4906346797943115
101,244697,244699,-0.08779636770486832,-1.762677675287705e-05,0.9371994733810425,-7.501904487609863,40.77492904663086,10.63371753692627,0.9104544520378113,2.0203988552093506,3.052347421646118,-3.993462085723877,-0.9032982587814331,1.5818349123001099
102,244707,244709,-0.04056112468242645,0.006939675658941269,0.975901186466217,0.6970178484916687,-1.9840565919876099,12.645645141601562,0.919454038143158,2.008399486541748,3.031348466873169,-4.439021587371826,-0.959861159324646,1.6861518621444702
103,244717,244719,-0.008451800793409348,-0.014334569685161114,1.0003012418746948,6.093357086181641,-47.9234733581543,14.058671951293945,0.9374530911445618,2.005399703979492,3.031348466873169,-4.172018527984619,-0.8271055817604065,1.8029403686523438
104,244727,244729,-0.009117876179516315,-0.012884204275906086,1.0007743835449219,5.867816925048828,-82.7081527709961,16.369665145874023,0.9314534068107605,2.011399507522583,3.05834698677063,-3.637160539627075,-0.7723049521446228,1.9350985288619995
105,244737,244739,-0.035332512110471725,-0.018952403217554092,1.005524754524231,-3.6444308757781982,-97.51534271240234,18.083158493041992,0.950952410697937,2.0188989639282227,3.080845832824707,-2.6916534900665283,-0.7652590870857239,2.0717461109161377
106,244747,244749,-0.02754998207092285,-0.03787301480770111,1.0171366930007935,-13.110669136047363,-92.96871185302734,18.85963249206543,0.9524523615837097,2.0203988552093506,3.0643467903137207,-2.231102228164673,-0.7655808925628662,2.338804244995117
107,244757,244759,-0.04561951756477356,-0.03473460674285889,1.0326364040374756,-22.683231353759766,-75.35018920898438,17.83492088317871,0.9554522037506104,2.014399290084839,3.08534574508667,-1.0771872997283936,-0.9309496879577637,2.49569034576416
108,244767,244769,-0.0303250290453434,-0.01119909156113863,1.0539385080337524,-25.897014617919922,-48.08341979980469,16.420351028442383,0.9614518880844116,2.011399507522583,3.0613467693328857,-0.6895533800125122,-1.077397346496582,2.760038375854492
109,244777,244779,-0.04770832136273384,-0.020850135013461113,1.0604358911514282,-24.548484802246094,-20.141510009765625,13.467586517333984,0.9629518389701843,2.0038998126983643,3.0448477268218994,-0.30160030722618103,-1.4112204313278198,2.9279375076293945
110,244787,244789,-0.07799966633319855,-0.08729806542396545,1.0987626314163208,-17.173358917236328,-1.0697031021118164,9.879480361938477,0.958452045917511,2.005399703979492,3.049347400665283,-0.1099843978881836,-1.5550434589385986,3.097198724746704
111,244797,244799,-0.06875073909759521,-0.055445801466703415,1.0833889245986938,-3.469038963317871,6.1119065284729,7.37638521194458,0.9569521546363831,1.9949002265930176,3.0448477268218994,-0.18220506608486176,-1.753146767616272,3.2047815322875977
112,244807,244809,-0.03635266423225403,-0.008153662085533142,1.0815659761428833,8.769075393676758,12.6390380859375,7.190038681030273,0.9464526772499084,2.008399486541748,3.031348466873169,-0.21703745424747467,-1.6670728921890259,3.2973012924194336
113,244817,244819,-0.08512584865093231,-0.0396382100880146,1.0369373559951782,13.105971336364746,15.799041748046875,9.224609375,0.958452045917511,1.999400019645691,3.0373480319976807,-0.3530982732772827,-1.5630409717559814,3.3717660903930664
114,244827,244829,-0.04419594630599022,-0.0030761396046727896,1.002534031867981,-2.7656280994415283,3.669323205947876,8.588714599609375,0.958452045917511,2.014399290084839,3.031348466873169,-0.466757595539093,-1.466424584388733,3.4446468353271484
115,244837,244839,-0.029217788949608803,-0.024698983877897263,0.9724960327148438,-35.601600646972656,-14.878949165344238,6.755847930908203,0.950952410697937,1.9949002265930176,3.029848337173462,-0.4326457381248474,-1.6347365379333496,3.489589214324951
116,244847,244849,-0.05152110382914543,0.013616086915135384,1.0177605152130127,-54.780540466308594,-33.746185302734375,4.017266273498535,0.9479525685310364,1.9889005422592163,3.029848337173462,-0.5252317786216736,-2.053095817565918,3.598783254623413
117,244857,244859,-0.044943902641534805,0.03768899291753769,1.0582870244979858,-54.07757568359375,-47.29813766479492,1.5784424543380737,0.9629518389701843,2.009899377822876,3.032848358154297,-0.16767756640911102,-2.5432016849517822,3.652808427810669
118,244867,244869,-0.053470637649297714,0.0070703658275306225,1.0624594688415527,-37.448585510253906,-48.66572189331055,0.819662868976593,0.9629518389701843,2.0009000301361084,3.029848337173462,0.1486564725637436,-3.0993704795837402,3.725651979446411
119,244877,244879,-0.03565560281276703,-0.0019620517268776894,1.09796941280365,-16.212305068969727,-38.13886642456055,0.15352019667625427,0.958452045917511,1.9964001178741455,3.0373480319976807,0.6632789373397827,-3.5990424156188965,3.7427871227264404
120,244887,244889,-0.045198239386081696,-0.0005005196435377002,1.0886365175247192,7.7118706703186035,-29.802927017211914,-2.3193447589874268,0.9734513163566589,1.999400019645691,3.034348249435425,1.0847678184509277,-3.56036639213562,3.7724788188934326
121,244897,244899,0.0065879519097507,-0.0865214541554451,1.0766723155975342,26.09722900390625,-17.241426467895508,-2.8979604244232178,0.9479525685310364,2.0009000301361084,3.032848358154297,1.2037482261657715,-3.3965868949890137,3.833594560623169
122,244907,244909,0.024612048640847206,-0.06338004767894745,1.0367318391799927,37.22710418701172,-13.270059585571289,-3.6278722286224365,0.9719513654708862,2.009899377822876,3.0358481407165527,1.2644689083099365,-3.235835552215576,3.8591091632843018
123,244917,244919,-0.003558083903044462,-0.02192939817905426,0.9998043179512024,36.23580551147461,-7.679684638977051,-5.2398834228515625,0.9689515233039856,2.0038998126983643,3.050847291946411,1.5335451364517212,-2.79052996635437,3.78104567527771
124,244927,244929,-0.05157540738582611,0.022937016561627388,1.0109039545059204,21.884033203125,-4.488036632537842,-7.62456750869751,0.9764511585235596,1.9874006509780884,3.031348466873169,1.5011308193206787,-2.62774920463562,3.788475513458252
125,244937,244939,-0.060882631689310074,0.026219820603728294,1.0491933822631836,5.397457599639893,6.251511573791504,-11.595603942871094,0.965951681137085,1.9919003248214722,3.02384877204895,1.5807055234909058,-2.4227707386016846,3.700671911239624
126,244947,244949,-0.013249988667666912,-0.09251503646373749,1.06302011013031,1.7447919845581055,13.868542671203613,-14.320747375488281,0.958452045917511,1.9934003353118896,3.0163490772247314,1.5077629089355469,-2.6198062896728516,3.6211435794830322
127,244957,244959,-0.017661135643720627,-0.12241105735301971,1.0471818447113037,8.547776222229004,13.721714973449707,-16.26227569580078,0.9614518880844116,2.0023999214172363,3.025348663330078,1.4202996492385864,-2.5372817516326904,3.4519360065460205
128,244967,244969,-0.038623519241809845,-0.03045586869120598,1.0583702325820923,22.69755744934082,10.357385635375977,-16.487682342529297,0.9599519968032837,1.9979000091552734,3.0178489685058594,1.0685367584228516,-2.4464099407196045,3.3756465911865234
129,244977,244979,-0.05254850536584854,-0.029338521882891655,1.0400561094284058,36.764984130859375,13.837653160095215,-16.153276443481445,0.9644517302513123,1.9874006509780884,3.004349708557129,1.090915322303772,-2.1230058670043945,3.1431992053985596
130,244987,244989,-0.1309005469083786,-0.07120557874441147,1.0446653366088867,43.197181701660156,12.335915565490723,-15.757742881774902,0.9614518880844116,1.9874006509780884,3.0163490772247314,0.8526995778083801,-1.7461788654327393,3.019007444381714
131,244997,244999,-0.17632675170898438,-0.08579996228218079,1.0414769649505615,33.652191162109375,4.504424571990967,-16.888851165771484,0.9689515233039856,1.967901587486267,3.005849599838257,0.7200373411178589,-1.266753911972046,2.852689504623413
132,245007,245009,-0.0748388022184372,-0.0719604343175888,1.0492912530899048,19.2177791595459,-14.708621978759766,-20.4874267578125,0.9644517302513123,1.9664016962051392,2.9953501224517822,0.7714779376983643,-1.1130157709121704,2.6763012409210205
133,245017,245019,-0.06698070466518402,-0.00026979309041053057,1.0592069625854492,9.417548179626465,-38.858848571777344,-22.442895889282227,0.965951681137085,1.982900857925415,3.0118494033813477,0.9334812760353088,-0.9392560720443726,2.4727721214294434
134,245027,245029,-0.05541891232132912,0.021695582196116447,1.0840932130813599,8.93426513671875,-64.35672760009766,-20.651124954223633,0.9494525194168091,1.9874006509780884,3.0133492946624756,1.4936639070510864,-0.8806390166282654,2.206357955932617
135,245037,245039,-0.03155269846320152,0.11307629942893982,1.145780086517334,12.716893196105957,-87.12554931640625,-17.425825119018555,0.9704514741897583,1.9904004335403442,3.0463476181030273,2.040858745574951,-0.7272860407829285,2.0285391807556152
136,245047,245049,0.020789735019207,0.07111102342605591,1.2083909511566162,12.527982711791992,-93.62899780273438,-15.984237670898438,0.9944502711296082,2.0023999214172363,3.05834698677063,2.6315786838531494,-0.6075233221054077,1.9496210813522339
137,245057,245059,-0.002945956541225314,-0.024271953850984573,1.1470972299575806,20.186098098754883,-75.22496032714844,-13.940523147583008,0.9944502711296082,1.9874006509780884,3.034348249435425,3.7898967266082764,-0.376981645822525,1.712286114692688
138,245067,245069,-0.09720906615257263,-0.03432546555995941,1.2234784364700317,23.76795196533203,-47.38786697387695,-11.756383895874023,0.9794510006904602,1.9874006509780884,3.025348663330078,4.314782619476318,-0.24506250023841858,1.6617608070373535
139,245077,245079,-0.141464501619339,-0.05722842365503311,1.179946780204773,23.080331802368164,-15.108484268188477,-10.3379545211792,0.9884505867958069,1.9724013805389404,2.998350143432617,4.709056854248047,0.13229188323020935,1.5145151615142822
140,245087,245089,-0.08978468924760818,-0.11161337047815323,1.0844731330871582,17.29416275024414,12.006744384765625,-9.131926536560059,0.9794510006904602,1.954402208328247,2.971351385116577,4.946801662445068,0.24490416049957275,1.4444551467895508
141,245097,245099,-0.07130666077136993,-0.06086954474449158,1.056152105331421,7.849233627319336,28.23964500427246,-7.077582359313965,0.9734513163566589,1.9394029378890991,2.9353532791137695,4.78114128112793,0.4651738107204437,1.3414862155914307
142,245107,245109,-0.1384577602148056,-0.06115703657269478,1.06259286403656,2.6017234325408936,32.93572998046875,-3.910069227218628,0.9764511585235596,1.9334032535552979,2.9413528442382812,4.542520046234131,0.6238926649093628,1.2295202016830444
143,245117,245119,-0.1124730333685875,-0.10755704343318939,1.0562195777893066,3.6786844730377197,38.43014144897461,1.1531152725219727,0.9854506850242615,1.9244037866592407,2.9293534755706787,4.126930236816406,0.5784900188446045,1.2478551864624023
144,245127,245129,-0.08646877110004425,-0.042655326426029205,0.9860230684280396,-0.2657811641693115,36.78032684326172,2.9755539894104004,0.965951681137085,1.9259036779403687,2.92185378074646,3.7818491458892822,0.5292266011238098,1.3048650026321411
145,245137,245139,-0.05225539579987526,0.011689046397805214,0.9176690578460693,-2.1177427768707275,22.5533504486084,1.1700626611709595,0.9854506850242615,1.915404200553894,2.9113543033599854,3.4057633876800537,0.5556899309158325,1.319758415222168
146,245147,245149,0.044751670211553574,0.024235276505351067,0.9287373423576355,9.70748519897461,17.511362075805664,-0.9682576060295105,0.965951681137085,1.901904821395874,2.9008548259735107,3.2892675399780273,0.6094511151313782,1.288218379020691
147,245157,245159,0.059805672615766525,-0.01940097101032734,0.9372983574867249,23.725309371948242,15.916683197021484,-3.187480926513672,0.9644517302513123,1.9034048318862915,2.896355152130127,3.0881083011627197,0.7281817197799683,1.2676194906234741
148,245167,245169,0.05007302388548851,-0.08095861971378326,0.9561026692390442,32.66120529174805,14.668681144714355,-3.8596131801605225,0.9674516320228577,1.9094045162200928,2.9083545207977295,2.9051060676574707,1.1294492483139038,1.1427603960037231
149,245177,245179,-0.04410552233457565,-0.07293660193681717,0.9520286917686462,36.745765686035156,14.395730972290039,-3.5240046977996826,0.9719513654708862,1.9079046249389648,2.924853801727295,2.72696852684021,1.360242247581482,1.1657580137252808
150,245187,245189,-0.03889519348740578,-0.04699842631816864,0.938801646232605,34.591068267822266,8.981353759765625,-4.530438423156738,0.9764511585235596,1.915404200553894,2.944352626800537,2.7059574127197266,1.8374577760696411,1.0734317302703857
151,245197,245199,0.004954841919243336,-0.042529668658971786,0.9077422022819519,22.292753219604492,-0.27722805738449097,-3.478896379470825,0.958452045917511,1.9124042987823486,2.926353693008423,2.587625741958618,2.090125560760498,1.0814268589019775
152,245207,245209,-0.0478133000433445,-0.06958746910095215,0.8754515051841736,1.114876627922058,-0.6430858373641968,-3.084346055984497,0.965951681137085,1.9199039936065674,2.9368531703948975,2.6479740142822266,2.243488073348999,1.089706301689148
153,245217,245219,0.04526359960436821,0.04591850936412811,0.888268768787384,-19.598482131958008,5.979532718658447,-1.8391119241714478,0.9779511094093323,1.916904091835022,2.9338531494140625,2.615633249282837,2.213515520095825,1.0773320198059082
154,245227,245229,0.037260208278894424,0.10503707081079483,0.8728995323181152,-46.87587356567383,15.045037269592285,-2.4335291385650635,0.9794510006904602,1.9184041023254395,2.9413528442382812,2.5367205142974854,1.8220815658569336,1.1643352508544922
155,245237,245239,-0.01598341017961502,0.05266242474317551,0.9235023856163025,-71.22282409667969,20.998571395874023,-4.221677303314209,0.965951681137085,1.9409029483795166,2.9548521041870117,2.297877788543701,1.3629422187805176,1.1245839595794678
156,245247,245249,-0.025908999145030975,-0.009711607359349728,0.9059436917304993,-85.70624542236328,18.281885147094727,-4.834131717681885,0.9734513163566589,1.9724013805389404,2.998350143432617,1.9948381185531616,0.6840503215789795,1.0555721521377563
157,245257,245259,0.02745942771434784,-0.041866499930620193,0.8382757902145386,-89.17822265625,8.111145973205566,-6.905787944793701,0.9569521546363831,1.9949002265930176,2.9938502311706543,1.9211477041244507,-0.06789478659629822,0.98213791847229
158,245267,245269,-0.008624388836324215,-0.019681768491864204,0.8572908043861389,-80.10385131835938,-10.055075645446777,-10.03553295135498,0.9614518880844116,1.984400749206543,3.0103495121002197,1.8460683822631836,-1.0335475206375122,0.9494061470031738
159,245277,245279,-0.05906248837709427,-0.03575296327471733,0.909695029258728,-57.29611587524414,-27.87467384338379,-11.223799705505371,0.958452045917511,1.9754011631011963,2.998350143432617,1.9778326749801636,-1.7264533042907715,0.8092448115348816
160,245287,245289,-0.047217682003974915,-0.010906284675002098,0.9030707478523254,-17.602970123291016,-36.50893020629883,-12.322657585144043,0.9794510006904602,1.9814008474349976,3.001349925994873,2.2843103408813477,-2.4034805297851562,0.7648356556892395
161,245297,245299,-0.035645030438899994,-0.0038111358880996704,0.9322247505187988,27.43791961669922,-38.19579315185547,-13.221625328063965,0.9824508428573608,1.9784010648727417,3.0193488597869873,2.5735208988189697,-2.2369751930236816,0.487123042345047
162,245307,245309,-0.031019695103168488,-0.028507662937045097,0.9362020492553711,61.408111572265625,-28.17904281616211,-13.325276374816895,0.9839507937431335,1.982900857925415,3.02384877204895,2.911778211593628,-1.695793867111206,0.24423865973949432
163,245317,245319,0.0022556011099368334,-0.10688826441764832,0.9673940539360046,81.41455078125,-12.827879905700684,-12.372912406921387,0.9719513654708862,2.0009000301361084,3.0418479442596436,3.063699960708618,-1.243647813796997,0.18276797235012054
164,245327,245329,-0.030241819098591805,-0.0322343111038208,0.9530562162399292,86.45341491699219,8.921931266784668,-12.70939826965332,0.9719513654708862,1.9949002265930176,3.0658466815948486,3.220935106277466,-0.14664767682552338,-0.07003942877054214
165,245337,245339,0.02914593182504177,-0.029185356572270393,0.9614020586013794,74.22415924072266,29.67437744140625,-13.527963638305664,0.9824508428573608,2.005399703979492,3.0643467903137207,2.8879988193511963,0.436908096075058,-0.07720929384231567
166,245347,245349,-0.05314544215798378,-0.027873042970895767,1.0205652713775635,49.238040924072266,40.22544479370117,-15.395830154418945,0.9734513163566589,1.9934003353118896,3.055347204208374,2.6907479763031006,1.0772597789764404,-0.15391860902309418
167,245357,245359,-0.08196474611759186,-0.1515509933233261,1.010076880455017,16.475255966186523,44.18115997314453,-15.242777824401855,0.9689515233039856,1.9979000091552734,3.0418479442596436,2.236893653869629,1.3419265747070312,-0.19632017612457275
168,245367,245369,-0.13253843784332275,-0.14792919158935547,1.0000803470611572,-13.964057922363281,36.232444763183594,-14.522555351257324,0.9674516320228577,1.9874006509780884,3.0463476181030273,1.6927706003189087,1.5220019817352295,-0.3490690588951111
169,245377,245379,-0.13096579909324646,-0.10371934622526169,1.0387684106826782,-30.19706916809082,20.222551345825195,-11.379973411560059,0.9644517302513123,1.999400019645691,3.0193488597869873,1.540238618850708,1.2644535303115845,-0.4007389545440674
170,245387,245389,-0.09882712364196777,-0.06658530980348587,1.0272489786148071,-29.400196075439453,1.6347132921218872,-9.440119743347168,0.9629518389701843,1.9919003248214722,3.026848554611206,1.3743056058883667,1.0252958536148071,-0.5273780226707458
171,245397,245399,-0.044027429074048996,-0.013381092809140682,1.0368595123291016,-18.35398292541504,-12.379617691040039,-7.490438938140869,0.9674516320228577,1.9814008474349976,3.0223488807678223,1.2274448871612549,0.8413518071174622,-0.6816672682762146
172,245407,245409,0.04988393187522888,0.02852572314441204,1.0918813943862915,-6.9859232902526855,-20.08016586303711,-4.808507919311523,0.9719513654708862,1.982900857925415,3.0148491859436035,1.4411762952804565,0.616238534450531,-0.7290822863578796
173,245417,245419,-0.05896935984492302,-0.03542926162481308,1.1316757202148438,3.907341480255127,-22.252843856811523,-2.043595790863037,0.965951681137085,1.982900857925415,3.02384877204895,1.7509303092956543,0.6572200059890747,-0.8000262379646301
174,245427,245429,-0.07246445119380951,-0.13044586777687073,1.1596108675003052,5.969580173492432,-7.311103820800781,3.58404803276062,0.9614518880844116,1.9874006509780884,3.034348249435425,1.9947017431259155,0.7600644826889038,-0.8371198773384094
175,245437,245439,-0.15544699132442474,-0.06262055039405823,1.1509300470352173,-1.5435422658920288,18.3417911529541,10.302995681762695,0.9704514741897583,1.9784010648727417,3.0223488807678223,1.9931696653366089,0.7700139284133911,-0.7970512509346008
176,245447,245449,-0.07413621246814728,-0.0074094850569963455,1.1294212341308594,-16.923553466796875,39.086734771728516,10.757210731506348,0.9644517302513123,1.9784010648727417,3.0133492946624756,1.6044285297393799,0.6821703314781189,-0.7145565748214722
177,245457,245459,0.018572697415947914,0.06710559874773026,1.1136438846588135,-31.833934783935547,50.03076934814453,8.118851661682129,0.9674516320228577,1.984400749206543,3.0193488597869873,1.0188933610916138,0.43632811307907104,-0.6220281720161438
178,245467,245469,-0.039774589240550995,0.00688108429312706,1.1027588844299316,-44.529075622558594,47.475345611572266,6.518937587738037,0.9689515233039856,1.9919003248214722,3.0178489685058594,0.6137222647666931,0.018163150176405907,-0.4997410476207733
179,245477,245479,-0.1269763708114624,0.03689461946487427,1.1373823881149292,-47.61298370361328,34.35456848144531,6.808518886566162,0.9644517302513123,2.0023999214172363,3.031348466873169,0.33535096049308777,-0.1260908544063568,-0.46957653760910034
180,245487,245489,-0.11792191118001938,-0.028151554986834526,1.1043851375579834,-41.116207122802734,12.463160514831543,5.767909049987793,0.9599519968032837,1.9949002265930176,3.026848554611206,0.06282677501440048,-0.8582080006599426,-0.3387296199798584
181,245497,245499,-0.16968514025211334,0.016351766884326935,1.1274967193603516,-25.684595108032227,-11.061810493469238,-1.238033652305603,0.9449527263641357,1.9739012718200684,3.005849599838257,0.013524276204407215,-1.2347272634506226,-0.28000736236572266
182,245507,245509,-0.04752005636692047,0.015605924651026726,1.0847156047821045,5.1580963134765625,-28.508989334106445,-6.156204700469971,0.958452045917511,1.9904004335403442,3.0133492946624756,0.2640855014324188,-1.4256281852722168,-0.2782828211784363
183,245517,245519,-0.04216444864869118,0.06162638962268829,1.1057978868484497,39.935482025146484,-39.52415466308594,-9.38067626953125,0.9449527263641357,1.985900640487671,3.0118494033813477,0.4200386703014374,-1.2297425270080566,-0.36211371421813965
184,245527,245529,-0.08993536978960037,0.03550179675221443,1.1254302263259888,64.52557373046875,-38.18459701538086,-11.708613395690918,0.9644517302513123,1.9934003353118896,3.0193488597869873,0.7864075899124146,-0.7894573211669922,-0.45491015911102295
185,245537,245539,-0.0676538422703743,-0.07135458290576935,1.101799726486206,77.97486877441406,-20.754549026489258,-13.537559509277344,0.9704514741897583,1.984400749206543,3.025348663330078,1.050349235534668,-0.14860069751739502,-0.5744205117225647
186,245547,245549,-0.03479136899113655,-0.1006479412317276,0.9946849346160889,81.01530456542969,2.7410852909088135,-15.168033599853516,0.958452045917511,1.9754011631011963,3.0163490772247314,1.2938746213912964,0.8822907209396362,-0.7274274230003357
187,245557,245559,-0.02995525486767292,-0.035139039158821106,1.0072599649429321,70.45173645019531,18.863847732543945,-17.14613914489746,0.9479525685310364,1.970901370048523,3.0178489685058594,1.1924904584884644,1.3780102729797363,-0.8621232509613037
188,245567,245569,-0.0010114727774634957,-0.04605008661746979,0.9434933066368103,51.903297424316406,35.09099578857422,-17.40618324279785,0.9734513163566589,1.9604018926620483,2.9863505363464355,1.0433052778244019,2.1853854656219482,-1.0296733379364014
189,245577,245579,-0.03951287642121315,-0.05609360337257385,0.9607548117637634,26.63412094116211,53.29425811767578,-18.157329559326172,0.9644517302513123,1.9574021100997925,2.977351188659668,0.5894494652748108,2.5229098796844482,-1.1861608028411865
190,245587,245589,-0.08967102319002151,-0.04074077308177948,0.9687274098396301,9.82433032989502,51.9300651550293,-16.516149520874023,0.9554522037506104,1.9664016962051392,3.001349925994873,-0.0830325335264206,2.8981730937957764,-1.3619697093963623
191,245597,245599,-0.07551125437021255,-0.006873135454952717,1.0279699563980103,5.407415866851807,23.188400268554688,-11.684690475463867,0.958452045917511,1.9574021100997925,2.9863505363464355,-0.3209705352783203,2.9198544025421143,-1.4497036933898926
192,245607,245609,-0.05616540461778641,-2.3382617655443028e-05,1.0582585334777832,-1.4968801736831665,-12.412405967712402,-7.156313419342041,0.9539523124694824,1.9499024152755737,2.9668517112731934,-0.5459774732589722,2.9180262088775635,-1.5542916059494019
193,245617,245619,-0.0803607925772667,-0.07078219205141068,1.0494154691696167,-5.183707237243652,-41.294822692871094,-3.580339193344116,0.950952410697937,1.9349032640457153,2.9638516902923584,-0.22914694249629974,2.895071268081665,-1.5860216617584229
194,245627,245629,-0.12142492830753326,-0.14143849909305573,1.0052626132965088,-17.211389541625977,-46.7065544128418,-1.8577035665512085,0.9389530420303345,1.9499024152755737,2.9908504486083984,0.016709480434656143,2.7848477363586426,-1.6848543882369995
195,245637,245639,-0.21117787063121796,-0.12799644470214844,1.026164174079895,-27.57743263244629,-26.639629364013672,-2.5875566005706787,0.9689515233039856,1.9529023170471191,2.9818508625030518,0.4400850534439087,2.7442402839660645,-1.718597412109375
196,245647,245649,-0.1319660246372223,-0.13137643039226532,0.9355477094650269,-26.792238235473633,5.486445426940918,-3.6220815181732178,0.965951681137085,1.9409029483795166,2.9638516902923584,0.6489500403404236,2.4350695610046387,-1.7705318927764893
197,245657,245659,-0.08844427019357681,-0.06907642632722855,0.9546210765838623,-29.220169067382812,36.857810974121094,-2.695888042449951,0.9614518880844116,1.9424028396606445,2.9683516025543213,0.4891382157802582,2.190429925918579,-1.832940936088562
198,245667,245669,-0.08407945930957794,-0.07804488390684128,1.0029939413070679,-31.438474655151367,53.14643478393555,-1.3742042779922485,0.9479525685310364,1.9439027309417725,2.972851276397705,-0.19962970912456512,1.7714169025421143,-1.9669125080108643
199,245677,245679,-0.12261391431093216,-0.11874983459711075,0.9957334399223328,-25.043420791625977,56.41192626953125,0.6339234113693237,0.950952410697937,1.967901587486267,2.9878506660461426,-0.47763681411743164,1.7062711715698242,-1.8373421430587769
200,245687,245689,-0.06331802904605865,-0.021925214678049088,1.0191928148269653,-10.131392478942871,35.60079574584961,1.7197318077087402,0.9494525194168091,1.9814008474349976,2.9833507537841797,-1.0417884588241577,1.4763127565383911,-1.811976671218872
201,245697,245699,-0.06657273322343826,-0.1170276626944542,0.9631792306900024,8.028965950012207,3.9321465492248535,5.764716625213623,0.9569521546363831,1.9619019031524658,2.975851058959961,-1.4325976371765137,1.4104397296905518,-1.7834227085113525
202,245707,245709,-0.10287147015333176,-0.12769854068756104,0.9292816519737244,22.85232162475586,-24.53923225402832,12.8135347366333,0.9479525685310364,1.93190336227417,2.9668517112731934,-1.3410884141921997,1.5102019309997559,-1.6767020225524902
203,245717,245719,-0.03587903082370758,0.025556812062859535,0.9844623804092407,23.3603458404541,-45.24333953857422,19.814556121826172,0.9434528350830078,1.9514024257659912,2.9923503398895264,-1.0840824842453003,1.8521405458450317,-1.5325050354003906
204,245727,245729,0.04069916158914566,0.059788692742586136,0.9819821119308472,6.593972206115723,-63.878501892089844,24.640880584716797,0.958452045917511,1.9724013805389404,2.9953501224517822,-0.5629041194915771,2.136815071105957,-1.326788067817688
205,245737,245739,0.028413500636816025,0.054109957069158554,1.0233345031738281,-26.866722106933594,-67.2310562133789,27.46852684020996,0.9614518880844116,1.984400749206543,3.004349708557129,0.10110505670309067,2.0037786960601807,-1.1471378803253174
206,245747,245749,-0.02254588156938553,-0.0033447579480707645,1.066369891166687,-55.16236877441406,-55.694244384765625,27.373537063598633,0.9704514741897583,1.9574021100997925,2.998350143432617,0.739212155342102,1.6925451755523682,-0.9194537401199341
207,245757,245759,-0.08564700186252594,-0.001264818711206317,1.042478322982788,-65.67813873291016,-29.608562469482422,29.276674270629883,0.965951681137085,1.9439027309417725,2.9818508625030518,1.2473117113113403,0.8432893753051758,-0.7362489700317383
208,245767,245769,-0.08483204990625381,-0.02405695803463459,0.9885200262069702,-52.4705696105957,-1.3501136302947998,32.495765686035156,0.9614518880844116,1.9574021100997925,2.980350971221924,1.2193543910980225,0.5671780109405518,-0.49170902371406555
209,245777,245779,-0.011935635469853878,0.020743675529956818,0.9576089382171631,-34.161354064941406,24.127748489379883,35.88460159301758,0.9719513654708862,1.9529023170471191,2.9638516902923584,1.1151494979858398,-0.18698462843894958,-0.24632197618484497
210,245787,245789,-0.05972103029489517,0.009584054350852966,0.9690863490104675,-22.448551177978516,43.396995544433594,37.95748519897461,0.9449527263641357,1.967901587486267,2.951852321624756,0.9447583556175232,-0.2992660105228424,0.1658821403980255
211,245797,245799,-0.05753273144364357,-0.008936871774494648,0.9651671051979065,-14.587540626525879,49.038448333740234,36.75412368774414,0.9449527263641357,1.970901370048523,2.9818508625030518,0.4400336444377899,-0.536451518535614,0.5192045569419861
212,245807,245809,-0.08597918599843979,-0.01945379190146923,0.9675073027610779,-8.28384780883789,45.273521423339844,34.65705108642578,0.9599519968032837,1.9739012718200684,2.99685001373291,0.030149953439831734,-0.7259693741798401,0.8953784108161926
213,245817,245819,-0.11086798459291458,-0.041494257748126984,0.9910488128662109,0.04178557172417641,37.7603645324707,30.766836166381836,0.9479525685310364,1.9769011735916138,2.9848506450653076,-0.5835534930229187,-0.7964969277381897,1.2022385597229004
214,245827,245829,-0.062334634363651276,-0.02320045977830887,0.9649925231933594,7.645435810089111,28.21528434753418,26.318218231201172,0.9434528350830078,1.969401478767395,2.974351167678833,-1.0424331426620483,-0.8010790944099426,1.4878267049789429
215,245837,245839,-0.06563680619001389,-0.05206497758626938,0.9953417181968689,11.444807052612305,19.970495223999023,22.683822631835938,0.958452045917511,1.9634017944335938,2.971351385116577,-1.1570732593536377,-0.691070020198822,1.779632568359375
216,245847,245849,-0.053550928831100464,-0.024517102167010307,0.9696596264839172,3.2334604263305664,13.086790084838867,18.054718017578125,0.950952410697937,1.9619019031524658,2.972851276397705,-1.1411441564559937,-0.5682001113891602,2.0303378105163574
217,245857,245859,0.029988842085003853,-0.011920236982405186,0.9129289388656616,-11.422038078308105,6.137850761413574,13.32379150390625,0.950952410697937,1.9499024152755737,2.972851276397705,-1.3024849891662598,-0.5478186011314392,2.2047526836395264
218,245867,245869,0.019458608701825142,7.384984201053157e-05,0.8842064142227173,-26.75437355041504,-2.9268598556518555,7.960066318511963,0.9434528350830078,1.9514024257659912,2.9683516025543213,-1.2704105377197266,-0.5600448250770569,2.369192600250244
219,245877,245879,-0.01633579470217228,-0.06275826692581177,0.8676964640617371,-37.27432632446289,-8.760310173034668,3.3377339839935303,0.9479525685310364,1.9619019031524658,2.975851058959961,-1.1862989664077759,-1.0144914388656616,2.402695894241333
220,245887,245889,-0.013377179391682148,-0.0322493351995945,0.9207167625427246,-40.7294807434082,-13.925793647766113,-2.759345293045044,0.950952410697937,1.967901587486267,2.9668517112731934,-1.076218605041504,-1.388690710067749,2.4343082904815674
221,245897,245899,-0.037119582295417786,-0.0721006840467453,0.9431137442588806,-35.76735305786133,-14.648640632629395,-5.892431259155273,0.9629518389701843,1.967901587486267,2.9878506660461426,-0.8253829479217529,-1.7130835056304932,2.4379172325134277
222,245907,245909,-0.03458552435040474,-0.11415532231330872,0.9832586050033569,-24.087390899658203,-13.023805618286133,-8.180818557739258,0.9554522037506104,1.9634017944335938,2.9893505573272705,-0.6526140570640564,-1.9420801401138306,2.421395778656006
223,245917,245919,-0.08708758652210236,-0.08706970512866974,1.0157670974731445,-2.4331893920898438,-9.713269233703613,-8.718382835388184,0.9569521546363831,1.970901370048523,2.9938502311706543,-0.5098046064376831,-2.2926204204559326,2.3141353130340576
224,245927,245929,-0.054994821548461914,-0.03685208410024643,0.9894629120826721,17.6556453704834,-0.4328518211841583,-10.643335342407227,0.958452045917511,1.9664016962051392,2.9893505573272705,-0.5898743867874146,-2.280437707901001,2.257657766342163
225,245937,245939,-0.037925031036138535,0.009669103659689426,1.0048059225082397,34.062252044677734,8.342256546020508,-11.933205604553223,0.9434528350830078,1.9874006509780884,3.004349708557129,-0.5969889163970947,-1.962860345840454,2.2007734775543213
226,245947,245949,-0.03910062089562416,-0.025366727262735367,1.0096516609191895,47.6517333984375,8.176838874816895,-12.475930213928223,0.9449527263641357,1.9979000091552734,3.02384877204895,-0.7003552913665771,-1.6727511882781982,2.0734527111053467
227,245957,245959,-0.040410999208688736,0.0015114413108676672,1.015692949295044,51.2171745300293,4.133081912994385,-10.355740547180176,0.9449527263641357,1.9919003248214722,3.032848358154297,-0.7898367643356323,-1.1993231773376465,1.9520692825317383
228,245967,245969,-0.09001188725233078,-0.07709529995918274,1.0179638862609863,42.775630950927734,0.8510697484016418,-7.275341987609863,0.9494525194168091,1.9964001178741455,3.034348249435425,-0.8142915368080139,-0.7234901785850525,1.835442066192627
229,245977,245979,-0.044259849935770035,-0.05466989800333977,1.0153610706329346,21.197629928588867,-4.958836078643799,-4.081397533416748,0.9494525194168091,2.005399703979492,3.0373480319976807,-0.9103320240974426,-0.23117069900035858,1.8020449876785278
230,245987,245989,-0.06586303561925888,-0.05513588711619377,0.986155092716217,-3.72336745262146,-13.31298828125,0.19352765381336212,0.9599519968032837,1.9769011735916138,3.005849599838257,-0.9013951420783997,-0.08186385780572891,1.7459828853607178
231,245997,245999,-0.047012023627758026,-0.02327546663582325,0.9641441106796265,-36.958740234375,-25.10067367553711,4.289689540863037,0.9629518389701843,1.9769011735916138,3.0118494033813477,-0.591399073600769,-0.30476564168930054,1.655595064163208
232,246007,246009,-0.057170044630765915,-0.021327024325728416,0.9797441959381104,-60.33047866821289,-39.167930603027344,6.47692346572876,0.950952410697937,1.9769011735916138,3.0118494033813477,-0.8075841069221497,-0.7312731146812439,1.750302791595459
233,246017,246019,-0.03282639756798744,0.023451801389455795,1.0352312326431274,-71.9644775390625,-69.41158294677734,5.736649513244629,0.9674516320228577,1.999400019645691,3.0433478355407715,-0.11899785697460175,-1.5622632503509521,1.7017936706542969
234,246027,246029,-0.09426719695329666,-0.023514220491051674,1.059557557106018,-69.66917419433594,-93.50391387939453,6.12840461730957,0.9689515233039856,2.00689959526062,3.026848554611206,0.21480998396873474,-2.0130910873413086,1.912082314491272
235,246037,246039,-0.1725897192955017,-0.03073853813111782,1.1244449615478516,-55.421669006347656,-100.82459259033203,4.67747163772583,0.9749512076377869,1.9889005422592163,3.0148491859436035,1.6356282234191895,-2.696431875228882,1.9218816757202148
236,246047,246049,-0.17530304193496704,0.058905646204948425,1.1248019933700562,-25.942758560180664,-78.25397491455078,9.170496940612793,0.9644517302513123,2.008399486541748,3.0373480319976807,2.299210786819458,-3.2034335136413574,2.101316452026367
237,246057,246059,-0.0944812148809433,0.040405549108982086,1.1839386224746704,-0.24754732847213745,-41.722145080566406,12.343332290649414,0.9689515233039856,2.0038998126983643,3.056847095489502,3.109334707260132,-3.529087543487549,2.220001220703125
238,246067,246069,-0.12183334678411484,-0.023344852030277252,1.1875569820404053,35.80021286010742,2.787876844406128,13.014419555664062,0.9884505867958069,1.9934003353118896,3.0073494911193848,3.563816785812378,-3.373239278793335,2.3688838481903076
239,246077,246079,-0.05693827569484711,-0.0457792691886425,1.0990530252456665,63.544647216796875,45.47768783569336,12.27400016784668,0.9779511094093323,1.9919003248214722,3.0118494033813477,3.445553779602051,-2.9794979095458984,2.525927782058716
240,246087,246089,-0.07770498096942902,-0.022901926189661026,1.1031792163848877,78.46965789794922,78.31627655029297,8.270859718322754,0.9674516320228577,1.984400749206543,3.028348445892334,2.8594601154327393,-2.6569676399230957,2.6729397773742676
241,246097,246099,-0.06652138382196426,0.0030916412360966206,1.0427098274230957,70.02500915527344,82.68856811523438,7.603529453277588,0.9704514741897583,2.0173990726470947,3.049347400665283,1.9677422046661377,-1.5250873565673828,2.7601916790008545
242,246107,246109,-0.04939030855894089,0.03645005822181702,1.0036442279815674,54.500213623046875,66.52559661865234,10.113338470458984,0.9719513654708862,1.9919003248214722,3.0148491859436035,1.491816759109497,-1.066227912902832,2.7092173099517822
243,246117,246119,-0.07987711578607559,0.04881018027663231,1.0387930870056152,35.26482009887695,35.554012298583984,13.687369346618652,0.9734513163566589,1.9754011631011963,2.980350971221924,0.6800351738929749,-0.5137001872062683,2.851811647415161
244,246127,246129,-0.09711120277643204,0.001411585370078683,1.077964425086975,14.609694480895996,5.685080528259277,16.242511749267578,0.9794510006904602,1.9574021100997925,2.977351188659668,0.3786605894565582,-0.2766309380531311,2.969770669937134
245,246137,246139,-0.12287703156471252,0.025550568476319313,1.0482820272445679,-3.767810821533203,-17.62529754638672,21.1807918548584,0.9764511585235596,1.9574021100997925,2.974351167678833,0.464169979095459,-0.08275169879198074,3.0816094875335693
246,246147,246149,-0.09672673791646957,0.08035223931074142,1.0350323915481567,-20.438444137573242,-28.33074951171875,23.83747673034668,0.958452045917511,1.9484025239944458,2.980350971221924,0.6461461186408997,-0.11853771656751633,3.2858009338378906
247,246157,246159,-0.08117223531007767,0.0817771628499031,1.0091139078140259,-26.252248764038086,-27.10856819152832,23.453725814819336,0.9704514741897583,1.9574021100997925,2.9683516025543213,0.9565236568450928,-0.45310598611831665,3.519972085952759
248,246167,246169,-0.09427710622549057,0.12368825078010559,1.0302470922470093,-19.641616821289062,-17.771282196044922,24.417707443237305,0.9734513163566589,1.9604018926620483,2.971351385116577,1.1998685598373413,-0.6641153693199158,3.7588841915130615
249,246177,246179,-0.041173968464136124,0.11051642149686813,1.0215407609939575,-18.712844848632812,-5.507743835449219,23.47771644592285,0.9764511585235596,1.9364031553268433,2.9563522338867188,1.3602813482284546,-0.936271071434021,4.008244037628174
250,246187,246189,-0.046500928699970245,0.022197403013706207,0.993547260761261,-21.172346115112305,5.233148574829102,19.027849197387695,0.9824508428573608,1.9484025239944458,2.9563522338867188,1.4092745780944824,-1.2052698135375977,4.2493414878845215
251,246197,246199,0.0035391056444495916,0.07653392106294632,1.0306265354156494,-24.686323165893555,21.93642234802246,13.131488800048828,0.9779511094093323,1.9529023170471191,2.9488525390625,1.2008802890777588,-1.386502981185913,4.472193717956543
252,246207,246209,0.04150547459721565,0.03730032965540886,0.9561497569084167,-19.468116760253906,36.808990478515625,5.646543979644775,0.9689515233039856,1.9379030466079712,2.9548521041870117,0.8744527697563171,-1.7866435050964355,4.633997917175293
253,246217,246219,0.023092173039913177,0.07058089971542358,0.944329023361206,-8.58411693572998,42.73177719116211,0.6671122908592224,0.9719513654708862,1.9469026327133179,2.9398529529571533,0.7409589886665344,-1.8578709363937378,4.617473602294922
254,246227,246229,-0.00546428095549345,0.04301979020237923,0.9863183498382568,3.8458855152130127,33.37113571166992,-4.576796531677246,0.9734513163566589,1.9484025239944458,2.944352626800537,0.07159624993801117,-1.8970129489898682,4.662909984588623
255,246237,246239,-0.052955858409404755,0.022556370124220848,0.9898890852928162,26.632448196411133,19.404495239257812,-9.852919578552246,0.9554522037506104,1.954402208328247,2.944352626800537,-0.12516488134860992,-1.889491081237793,4.574449062347412
256,246247,246249,-0.07872879505157471,0.028823643922805786,0.9668211936950684,49.7424430847168,10.326898574829102,-14.420658111572266,0.9644517302513123,1.9424028396606445,2.953352212905884,-0.2765335440635681,-1.3691515922546387,4.44702672958374
257,246257,246259,-0.07257920503616333,0.001624106545932591,0.9786348938941956,69.45388793945312,3.6268115043640137,-18.73990821838379,0.958452045917511,1.9514024257659912,2.971351385116577,-0.14921171963214874,-0.9215503931045532,4.240371227264404
258,246267,246269,-0.07549543678760529,-0.10118415206670761,0.9708108901977539,79.46727752685547,-0.24939638376235962,-21.34654998779297,0.9644517302513123,1.9634017944335938,2.9833507537841797,-0.15052539110183716,-0.05585028603672981,4.04185152053833
259,246277,246279,-0.06731539219617844,-0.17124074697494507,0.931810736656189,77.5970230102539,-4.886958122253418,-22.148481369018555,0.9674516320228577,1.9724013805389404,3.001349925994873,-0.15011054277420044,0.5620335936546326,3.828420639038086
260,246287,246289,-0.09223396331071854,-0.19027817249298096,0.9433176517486572,57.76945495605469,-7.9127020835876465,-22.082815170288086,0.9464526772499084,1.9604018926620483,2.9953501224517822,-0.1515713483095169,1.4275038242340088,3.619075059890747
261,246297,246299,-0.16322633624076843,-0.20631934702396393,0.9385368824005127,24.36942481994629,-1.7468382120132446,-23.125078201293945,0.9524523615837097,1.94540274143219,2.980350971221924,-0.14954277873039246,1.7532119750976562,3.4010508060455322
262,246307,246309,-0.22209453582763672,-0.1293865591287613,0.9521904587745667,-5.839939117431641,2.3620035648345947,-22.676918029785156,0.9569521546363831,1.9439027309417725,2.9638516902923584,-0.17801843583583832,1.9238824844360352,3.1720943450927734
263,246317,246319,-0.21486449241638184,-0.07131634652614594,1.021518349647522,-34.912418365478516,-3.391026496887207,-21.498634338378906,0.9494525194168091,1.94540274143219,2.9863505363464355,-0.2367173284292221,1.7528115510940552,2.9443864822387695
264,246327,246329,-0.10874136537313461,-0.05066872760653496,1.0414392948150635,-56.73694610595703,-10.450714111328125,-23.129398345947266,0.9614518880844116,1.954402208328247,2.9923503398895264,-0.1884000152349472,1.1334495544433594,2.7130565643310547
265,246337,246339,-0.1280524879693985,-0.04262726381421089,1.0642513036727905,-66.55103302001953,-20.81199836730957,-28.6784610748291,0.9449527263641357,1.9769011735916138,3.0148491859436035,-0.05907927826046944,0.6550617814064026,2.483031988143921
266,246347,246349,-0.06388091295957565,-0.05246591195464134,1.050158977508545,-66.1358413696289,-29.0722713470459,-36.80687713623047,0.9539523124694824,1.985900640487671,3.0208489894866943,0.0187824796885252,-0.16247262060642242,2.181928873062134
267,246357,246359,-0.06666600704193115,-0.03619839623570442,1.047919750213623,-44.192604064941406,-39.42120361328125,-43.09274673461914,0.9494525194168091,1.984400749206543,3.0163490772247314,0.33166176080703735,-0.5736706256866455,1.8368953466415405
268,246367,246369,-0.04200534150004387,-0.13345563411712646,1.0488221645355225,-13.080781936645508,-39.12858581542969,-47.69211196899414,0.9359531998634338,1.982900857925415,3.005849599838257,0.6982700824737549,-0.8921211361885071,1.4214413166046143
269,246377,246379,-0.015973376110196114,-0.12165483087301254,0.988673210144043,16.23941421508789,-26.430885314941406,-49.90555191040039,0.9449527263641357,1.967901587486267,2.9938502311706543,1.233392596244812,-1.008728265762329,0.956072211265564
270,246387,246389,-0.02539604902267456,-0.07598786056041718,0.9830241799354553,41.436954498291016,-2.7375118732452393,-50.15167999267578,0.9479525685310364,1.9499024152755737,2.9818508625030518,1.4320169687271118,-0.7930060029029846,0.4642937183380127
271,246397,246399,-0.008366472087800503,-0.032822687178850174,0.9451833963394165,67.05835723876953,25.441604614257812,-47.723793029785156,0.9389530420303345,1.9529023170471191,2.969851493835449,1.366708517074585,-0.3687076270580292,-0.03300038352608681
272,246407,246409,-0.03252691030502319,-0.07404609024524689,0.9799880981445312,94.65455627441406,52.16895294189453,-47.74658966064453,0.9359531998634338,1.9439027309417725,2.9818508625030518,0.9072904586791992,0.47990143299102783,-0.504792332649231
273,246417,246419,-0.04674921929836273,-0.07809164375066757,1.0109487771987915,119.1554183959961,53.282501220703125,-45.525909423828125,0.9479525685310364,1.9619019031524658,3.0148491859436035,0.39887210726737976,1.2036609649658203,-0.9714562296867371
274,246427,246429,-0.06086320802569389,-0.045893337577581406,1.0873339176177979,125.34020233154297,39.43238830566406,-37.42688751220703,0.9314534068107605,1.9754011631011963,3.0373480319976807,-0.2717422842979431,2.741532325744629,-1.4019819498062134
275,246437,246439,-0.07708654552698135,-0.03234061971306801,1.0548229217529297,108.98707580566406,22.633033752441406,-25.621824264526367,0.9629518389701843,1.9589020013809204,3.02384877204895,-0.5816392302513123,3.775911569595337,-1.7508771419525146
276,246447,246449,-0.12332835793495178,-0.10798770934343338,0.961057186126709,62.2823486328125,11.663128852844238,-14.270967483520508,0.9389530420303345,1.9529023170471191,3.008849620819092,-0.9207518100738525,4.767904281616211,-2.000459909439087
277,246457,246459,-0.08024734258651733,-0.11181994527578354,0.9181218147277832,1.2189967632293701,-2.282632350921631,-5.392683982849121,0.950952410697937,1.9199039936065674,2.945852756500244,-0.9011734127998352,5.209277153015137,-2.1222987174987793
278,246467,246469,-0.01880539581179619,-0.0365169495344162,0.8398972749710083,-59.371978759765625,-21.960538864135742,1.4945876598358154,0.9464526772499084,1.9184041023254395,2.953352212905884,-0.7514947652816772,5.015935897827148,-2.1691577434539795
279,246477,246479,0.028132755309343338,0.021144865080714226,0.8416870832443237,-111.7095718383789,-37.367958068847656,4.767162322998047,0.9449527263641357,1.9469026327133179,2.999850034713745,-0.5246928334236145,4.516258716583252,-2.1669154167175293
280,246487,246489,-0.060565270483493805,-0.015378572978079319,0.9051375389099121,-148.42185974121094,-48.74299240112305,5.074060440063477,0.9569521546363831,1.967901587486267,3.008849620819092,-0.10850609093904495,2.880740165710449,-2.1804261207580566
281,246497,246499,-0.13120613992214203,-0.04248930141329765,0.9360337853431702,-166.40863037109375,-52.361080169677734,3.361555337905884,0.9689515233039856,1.9649016857147217,3.0208489894866943,0.40048977732658386,1.7872259616851807,-2.0958263874053955
282,246507,246509,-0.09824705123901367,0.005741112865507603,0.9835588932037354,-161.67478942871094,-44.63187789916992,-0.025136031210422516,0.9689515233039856,1.9739012718200684,3.0118494033813477,0.9168009757995605,-0.1559576690196991,-2.0946462154388428
283,246517,246519,-0.04335043206810951,-0.03158850967884064,1.0001322031021118,-137.67465209960938,-28.50461769104004,-5.370818614959717,0.9719513654708862,1.9889005422592163,3.0178489685058594,1.3639558553695679,-1.4915612936019897,-2.066140651702881
284,246527,246529,-0.03125688433647156,-0.029730090871453285,1.042425274848938,-98.27835845947266,-9.873433113098145,-8.318102836608887,0.9689515233039856,1.9919003248214722,3.0178489685058594,1.622687816619873,-2.8156566619873047,-2.1186397075653076
285,246537,246539,-0.07537691295146942,0.0430804118514061,1.0121142864227295,-42.1036491394043,22.303678512573242,-11.588356018066406,0.965951681137085,2.0009000301361084,3.0208489894866943,1.647576093673706,-3.5021753311157227,-2.2115700244903564
286,246547,246549,-0.12475528568029404,0.06956467777490616,1.066565990447998,31.5499210357666,42.967803955078125,-11.321279525756836,0.9719513654708862,2.0009000301361084,2.9908504486083984,1.206488013267517,-3.8356688022613525,-2.3916914463043213
287,246557,246559,-0.08967064321041107,0.12278342247009277,1.1125844717025757,101.36299133300781,56.820533752441406,-12.457273483276367,0.9644517302513123,1.9874006509780884,2.977351188659668,0.8103547692298889,-3.4773447513580322,-2.530392646789551
288,246567,246569,-0.06112312152981758,0.02471393160521984,1.0346689224243164,156.74319458007812,60.73093032836914,-13.110496520996094,0.9464526772499084,2.0173990726470947,3.0403478145599365,0.16888371109962463,-2.0394022464752197,-2.6871395111083984
289,246577,246579,-0.07073567807674408,0.000952950562350452,0.9669995903968811,179.33921813964844,62.073089599609375,-13.839770317077637,0.9419528841972351,2.03389835357666,3.083845853805542,-0.38654011487960815,-0.7796146273612976,-2.835667610168457
290,246587,246589,0.005176266189664602,-0.07026753574609756,0.9433296918869019,174.09088134765625,55.343502044677734,-12.903950691223145,0.9374530911445618,2.0293984413146973,3.0763461589813232,-1.2054226398468018,1.251442313194275,-2.9600634574890137
291,246597,246599,0.003634030930697918,-0.08167339116334915,0.9647164940834045,142.3948211669922,44.19245147705078,-11.179178237915039,0.9329533576965332,1.9979000091552734,3.0448477268218994,-1.5511183738708496,2.700312614440918,-3.083404541015625
292,246607,246609,-0.028879260644316673,-0.05307520925998688,0.974582314491272,84.65213775634766,25.875558853149414,-8.644304275512695,0.9389530420303345,2.0009000301361084,3.050847291946411,-2.108597993850708,4.293128490447998,-3.1540403366088867
293,246617,246619,0.044872596859931946,-0.03051285445690155,0.9196193814277649,23.749353408813477,6.062411785125732,-5.040250778198242,0.9404529333114624,1.9754011631011963,2.998350143432617,-2.3092312812805176,4.813718795776367,-3.2566800117492676
294,246627,246629,-0.006398315075784922,-0.02360544726252556,0.9299010038375854,-37.40766906738281,-14.554122924804688,-1.595647931098938,0.9359531998634338,1.9439027309417725,2.972851276397705,-2.384763240814209,4.836860179901123,-3.3392891883850098
295,246637,246639,-0.002420753240585327,-0.07201100140810013,0.96686851978302,-85.35739135742188,-26.231178283691406,0.11855161190032959,0.9209539294242859,1.9499024152755737,2.9908504486083984,-2.26686954498291,4.528862953186035,-3.3571412563323975
296,246647,246649,-0.0021913039963692427,-0.027482695877552032,0.9899095892906189,-106.47661590576172,-35.24998474121094,0.9491016864776611,0.950952410697937,1.9739012718200684,3.005849599838257,-1.8290987014770508,3.338332414627075,-3.408869504928589
297,246657,246659,-0.02106950804591179,0.04842645302414894,1.01801598072052,-93.64783477783203,-46.18583679199219,2.3214426040649414,0.9464526772499084,1.9814008474349976,3.0133492946624756,-1.72316312789917,2.758951187133789,-3.3858802318573
298,246667,246669,0.025554277002811432,0.0635080337524414,1.055291771888733,-59.40311813354492,-49.44562530517578,2.8436121940612793,0.9689515233039856,1.9649016857147217,2.9818508625030518,-0.9791295528411865,1.5453766584396362,-3.3614022731781006
299,246677,246679,0.01146186888217926,0.029336195439100266,1.1279534101486206,-20.37468719482422,-47.3198127746582,4.264286041259766,0.958452045917511,1.9664016962051392,2.9833507537841797,-0.8623337149620056,1.3557484149932861,-3.3745713233947754
300,246687,246689,-0.031007740646600723,-0.030810857191681862,1.074498176574707,13.99465560913086,-37.98184585571289,5.596706390380859,0.9419528841972351,1.9619019031524658,2.9878506660461426,-0.16305391490459442,1.1885604858398438,-3.2527894973754883
301,246697,246699,-0.08969825506210327,0.019487455487251282,1.0209497213363647,32.36557388305664,-35.53694534301758,4.829931259155273,0.9569521546363831,1.9469026327133179,2.9848506450653076,0.1427249312400818,1.4141926765441895,-3.211695909500122
302,246707,246709,-0.0682118758559227,-0.054783597588539124,1.037818193435669,44.874874114990234,-23.50787353515625,3.880241632461548,0.9464526772499084,1.9634017944335938,3.004349708557129,0.5608827471733093,1.7196130752563477,-3.1530699729919434
303,246717,246719,-0.13117553293704987,-0.10480514168739319,1.00770103931427,48.605506896972656,-4.268976211547852,2.9150819778442383,0.958452045917511,1.9574021100997925,2.977351188659668,0.595649778842926,2.180171012878418,-3.180866003036499
304,246727,246729,-0.09085508435964584,-0.08236107975244522,0.942607045173645,42.24892044067383,12.590347290039062,2.5980215072631836,0.958452045917511,1.9574021100997925,2.9923503398895264,0.42108407616615295,2.780914545059204,-3.200408458709717
305,246737,246739,-0.0639626756310463,-0.03445388749241829,0.9378737807273865,28.407764434814453,21.55291748046875,4.123578071594238,0.9674516320228577,1.9634017944335938,2.9953501224517822,0.2440890669822693,3.1018526554107666,-3.201991319656372
306,246747,246749,-0.0494372583925724,-0.003962802235037088,0.9535115957260132,4.120481014251709,26.946516036987305,5.598672389984131,0.9539523124694824,1.9559022188186646,2.975851058959961,0.13758772611618042,3.437718391418457,-3.0985000133514404
307,246757,246759,0.025017159059643745,-0.03223129361867905,0.967971682548523,-22.1972713470459,31.29172134399414,6.210073471069336,0.9524523615837097,1.9634017944335938,2.9683516025543213,-0.27853548526763916,3.3648669719696045,-3.096416473388672
308,246767,246769,-0.00993207935243845,-0.028674086555838585,0.9662510752677917,-41.95780944824219,25.16161346435547,8.314885139465332,0.9494525194168091,1.9754011631011963,3.0073494911193848,-0.5550493001937866,3.171786308288574,-2.997377395629883
309,246777,246779,-0.002858831314370036,0.043580882251262665,0.9799984097480774,-53.674110412597656,9.488908767700195,9.379593849182129,0.9539523124694824,1.9739012718200684,3.005849599838257,-0.6753461360931396,2.5426595211029053,-2.887728452682495
310,246787,246789,-0.030568033456802368,0.08738740533590317,1.0376209020614624,-53.75151443481445,-7.278929710388184,10.760908126831055,0.9539523124694824,1.9799009561538696,3.0118494033813477,-0.6966696381568909,2.0072426795959473,-2.7632272243499756
311,246797,246799,0.013347909785807133,0.029436184093356133,1.0817164182662964,-48.686683654785156,-21.34969139099121,9.37893295288086,0.9524523615837097,1.984400749206543,3.0133492946624756,-0.6288370490074158,1.3512704372406006,-2.6791889667510986
312,246807,246809,0.05947063863277435,-0.10981691628694534,1.0401957035064697,-41.663082122802734,-34.217891693115234,6.6030473709106445,0.9629518389701843,1.982900857925415,3.002849817276001,-0.6059576869010925,0.9973294138908386,-2.6458046436309814
313,246817,246819,-0.006768604274839163,-0.09269603341817856,1.020512342453003,-36.27926254272461,-40.2849235534668,2.8641879558563232,0.9464526772499084,1.9784010648727417,3.001349925994873,0.05049549788236618,0.5864289999008179,-2.4596004486083984
314,246827,246829,-7.632678898517042e-05,-0.033813029527664185,0.9567147493362427,-28.076967239379883,-41.01838684082031,-1.101404070854187,0.9569521546363831,1.970901370048523,3.005849599838257,0.3660324811935425,0.4142903983592987,-2.4428601264953613
315,246837,246839,0.03540518507361412,-0.021897362545132637,0.9370826482772827,-15.242105484008789,-36.37196731567383,-4.1703901290893555,0.950952410697937,1.985900640487671,2.999850034713745,0.7509452700614929,-0.02933533675968647,-2.492743730545044
316,246847,246849,-0.03260789066553116,-0.02892981469631195,1.0188993215560913,2.792869806289673,-23.597272872924805,-6.162877082824707,0.9554522037506104,1.9814008474349976,2.9923503398895264,0.7692107558250427,-0.013421873562037945,-2.6218862533569336
317,246857,246859,-0.10731752961874008,-0.07393109053373337,1.0672543048858643,24.137821197509766,-14.06680679321289,-6.483287334442139,0.9599519968032837,1.9769011735916138,2.9938502311706543,1.1571977138519287,0.08938328921794891,-2.6298959255218506
318,246867,246869,-0.07302889972925186,-0.04318908229470253,0.9893712997436523,33.79226303100586,-15.467486381530762,-8.160569190979004,0.9599519968032837,1.970901370048523,3.008849620819092,1.3182101249694824,0.4073758125305176,-2.687380790710449
319,246877,246879,-0.09109611064195633,0.00609608693048358,1.001473069190979,37.762088775634766,-25.243267059326172,-7.730724334716797,0.9614518880844116,1.9754011631011963,3.001349925994873,1.5846954584121704,0.7853437066078186,-2.7433207035064697
320,246887,246889,-0.06530220061540604,-0.011548174545168877,1.1422048807144165,39.03245544433594,-46.00651931762695,-5.602180480957031,0.9644517302513123,1.9634017944335938,2.998350143432617,1.6822046041488647,1.1591957807540894,-2.852959394454956
321,246897,246899,-0.09101467579603195,-0.06949087232351303,1.179223656654358,29.09972381591797,-72.5804214477539,-2.762432098388672,0.9629518389701843,1.970901370048523,3.0208489894866943,2.297971725463867,1.492954969406128,-2.8857581615448
322,246907,246909,-0.0785585343837738,-0.07156074047088623,1.1968504190444946,-1.6997509002685547,-97.20856475830078,-0.27672097086906433,0.9734513163566589,1.9784010648727417,3.0163490772247314,2.863449811935425,1.7869584560394287,-2.965972661972046
323,246917,246919,-0.05567928031086922,-0.055254220962524414,1.2299773693084717,-29.243988037109375,-96.7947998046875,1.949299931526184,0.9869506359100342,1.9799009561538696,3.032848358154297,4.1412224769592285,1.6200084686279297,-2.9159743785858154
324,246927,246929,-0.04390273243188858,-0.01862981915473938,1.260998249053955,-55.07927703857422,-81.77027893066406,3.7477149963378906,1.0064496994018555,1.9724013805389404,3.028348445892334,4.82237434387207,1.536482334136963,-3.0126962661743164
325,246937,246939,-0.05079735442996025,-0.02000339701771736,1.1108204126358032,-81.0660171508789,-51.69711685180664,6.124454975128174,0.9914504289627075,1.9784010648727417,3.0073494911193848,5.587615489959717,0.6206222772598267,-2.905543327331543
326,246947,246949,-0.11644840240478516,-0.025546761229634285,1.1053917407989502,-81.72222900390625,-22.230344772338867,5.018543720245361,0.9989500045776367,1.967901587486267,2.9938502311706543,6.006170272827148,0.0005711506819352508,-2.929983615875244
327,246957,246959,-0.12124338001012802,0.027422096580266953,1.1382956504821777,-51.346805572509766,14.200057983398438,11.053709030151367,0.9884505867958069,1.9664016962051392,2.9893505573272705,6.208715438842773,-0.8394652009010315,-2.8655645847320557
328,246967,246969,-0.12558455765247345,-0.020808400586247444,1.1660290956497192,-16.929622650146484,50.932193756103516,17.65346336364746,0.9929503202438354,1.9409029483795166,2.9488525390625,5.92246150970459,-1.1588891744613647,-2.8796279430389404
329,246977,246979,-0.14597775042057037,0.0022485670633614063,1.1430436372756958,12.11546802520752,85.40955352783203,21.811555862426758,0.9764511585235596,1.9604018926620483,2.953352212905884,5.201113700866699,-1.2732406854629517,-2.748753786087036
330,246987,246989,-0.16165511310100555,-0.0032677105627954006,1.1153820753097534,38.17470932006836,114.5339584350586,22.40369987487793,0.9794510006904602,1.954402208328247,2.9683516025543213,4.38230037689209,-1.2305428981781006,-2.506666421890259
331,246997,246999,-0.08663947135210037,-0.03815248981118202,0.9851096868515015,52.657901763916016,123.5585708618164,22.556991577148438,0.9644517302513123,1.9724013805389404,2.998350143432617,3.058321475982666,-0.6594907641410828,-2.415236711502075
332,247007,247009,0.041256584227085114,0.006267855409532785,0.9246649146080017,43.72856521606445,112.74224090576172,22.904348373413086,0.9719513654708862,1.9619019031524658,2.975851058959961,2.188833475112915,-0.1940733641386032,-2.174426317214966
333,247017,247019,0.03954566642642021,0.08744683116674423,0.9595934748649597,14.09442138671875,76.00597381591797,22.10138511657715,0.9554522037506104,1.9514024257659912,2.9593520164489746,0.9602923393249512,0.2188565731048584,-1.9381074905395508
334,247027,247029,-0.014913882128894329,0.08821037411689758,0.9407570958137512,-11.847564697265625,29.709238052368164,22.11697769165039,0.9749512076377869,1.9259036779403687,2.897855043411255,0.5846531987190247,0.11640313267707825,-1.6010321378707886
335,247037,247039,-0.04067552462220192,0.044708795845508575,0.8856399059295654,-22.89392852783203,-9.824881553649902,23.53508758544922,0.9524523615837097,1.9124042987823486,2.9023547172546387,0.3302221894264221,-0.10889091342687607,-1.3260291814804077
336,247047,247049,-0.08826929330825806,0.03750284016132355,0.9054098725318909,-18.714923858642578,-49.78597640991211,24.31014633178711,0.9689515233039856,1.9139043092727661,2.918853998184204,0.4464111626148224,-0.2912210524082184,-1.1092724800109863
337,247057,247059,-0.14197206497192383,0.033175401389598846,0.925480306148529,-8.21764850616455,-70.8612289428711,26.81279754638672,0.9719513654708862,1.9259036779403687,2.942852735519409,1.1915271282196045,-0.5786327123641968,-0.8358233571052551
338,247067,247069,-0.1741662621498108,0.046815499663352966,0.9886922240257263,7.9847822189331055,-63.00194549560547,31.180397033691406,0.9689515233039856,1.93190336227417,2.9818508625030518,1.680464267730713,-0.6717463135719299,-0.5380618572235107
339,247077,247079,-0.17913410067558289,0.04800926893949509,0.9903449416160583,29.85224723815918,-35.88276290893555,35.8685188293457,0.9914504289627075,1.930403470993042,2.980350971221924,2.379289388656616,-0.40295925736427307,-0.3046005964279175
340,247087,247089,-0.14789937436580658,0.02653203345835209,0.9450187683105469,39.47457504272461,4.479272365570068,39.52527618408203,0.9734513163566589,1.9184041023254395,2.947352647781372,2.662996530532837,0.06096811220049858,-0.013873637653887272
341,247097,247099,-0.07145114243030548,0.012020616792142391,0.8792616724967957,37.000301361083984,57.305572509765625,44.868370056152344,0.9854506850242615,1.9274035692214966,2.9623517990112305,2.6496386528015137,0.4050663709640503,0.39022064208984375
342,247107,247109,-0.00830900389701128,-0.03166425600647926,0.8968715071678162,17.44361686706543,103.48877716064453,47.07453155517578,0.9674516320228577,1.9334032535552979,2.9653515815734863,2.2116799354553223,0.631797194480896,0.8747135996818542
343,247117,247119,0.031721968203783035,-0.0415259413421154,0.8977212309837341,-18.804080963134766,122.4692611694336,47.072078704833984,0.9539523124694824,1.9469026327133179,2.9878506660461426,0.8114068508148193,0.8790069818496704,1.367632508277893
344,247127,247129,0.02586636319756508,-0.05572608858346939,0.8648900389671326,-65.7406005859375,114.8251953125,45.69029998779297,0.9329533576965332,1.9739012718200684,2.9938502311706543,-0.11026807129383087,0.4219575822353363,1.9129047393798828
345,247137,247139,0.0037819072604179382,-0.045641034841537476,0.8660247921943665,-110.12632751464844,71.97828674316406,43.44862747192383,0.9599519968032837,1.9889005422592163,3.029848337173462,-1.2572118043899536,-0.4720504581928253,2.445382833480835
346,247147,247149,-0.10601050406694412,-0.061521779745817184,0.8913294672966003,-127.79633331298828,33.27619552612305,38.22378921508789,0.9479525685310364,1.967901587486267,3.005849599838257,-1.7734781503677368,-1.2890628576278687,2.7843265533447266
347,247157,247159,-0.12446622550487518,-0.041334401816129684,0.9665507674217224,-120.88555145263672,-3.895925760269165,30.7376708984375,0.9599519968032837,1.9919003248214722,3.008849620819092,-2.2103312015533447,-2.666144847869873,3.184410333633423
348,247167,247169,-0.10258501768112183,-0.002526282100006938,0.9490440487861633,-89.01935577392578,-39.41144943237305,23.15985679626465,0.9554522037506104,1.9814008474349976,3.004349708557129,-1.909780502319336,-3.635568141937256,3.4265518188476562
349,247177,247179,-0.08966156840324402,0.013949152082204819,1.0063291788101196,-44.045494079589844,-72.4804458618164,20.70176887512207,0.9539523124694824,1.982900857925415,2.9938502311706543,-1.4807199239730835,-4.535963535308838,3.6800036430358887
350,247187,247189,-0.06198552995920181,0.026516912505030632,1.0258852243423462,16.341402053833008,-86.78463745117188,20.83807373046875,0.9644517302513123,1.9934003353118896,3.034348249435425,-0.8260854482650757,-4.925213813781738,3.9550912380218506
351,247197,247199,-0.1376676857471466,0.013436357490718365,1.0292257070541382,63.94567108154297,-83.78321075439453,22.049861907958984,0.9614518880844116,2.014399290084839,3.049347400665283,0.11997514963150024,-4.549206733703613,4.200057029724121
352,247207,247209,-0.13665346801280975,-0.029836328700184822,1.0425028800964355,102.65176391601562,-61.65137481689453,22.515300750732422,0.958452045917511,2.011399507522583,3.0643467903137207,1.0011036396026611,-4.046494960784912,4.450491905212402
353,247217,247219,-0.04566631466150284,-0.04479048401117325,1.0200797319412231,115.78792572021484,-22.119949340820312,21.619741439819336,0.9704514741897583,2.0023999214172363,3.0763461589813232,1.5109798908233643,-2.9663071632385254,4.751312255859375
354,247227,247229,-0.05138583481311798,-0.057775355875492096,0.9953892230987549,101.331787109375,23.7629337310791,18.157068252563477,0.9644517302513123,1.999400019645691,3.05834698677063,1.5981169939041138,-2.019545078277588,5.049102306365967
355,247237,247239,-0.023127153515815735,-0.04045211523771286,0.9829175472259521,70.12671661376953,66.59021759033203,10.824837684631348,0.9569521546363831,1.9889005422592163,3.02384877204895,1.1702531576156616,-0.935344398021698,5.3278279304504395
356,247247,247249,-0.0465712770819664,-0.04253246635198593,0.9519721269607544,27.4027156829834,94.63880920410156,1.0842890739440918,0.9479525685310364,1.9739012718200684,3.0208489894866943,0.11583613604307175,-0.26913687586784363,5.631015777587891
357,247257,247259,-0.03947678208351135,-0.0338919423520565,0.9757611751556396,-16.832321166992188,102.71357727050781,-8.099328994750977,0.9419528841972351,2.00689959526062,3.0478475093841553,-0.4375864565372467,-0.06971929222345352,5.469667434692383
358,247267,247269,-0.04339626431465149,-0.04949793219566345,0.9962711930274963,-47.10679244995117,87.56529998779297,-12.230293273925781,0.9389530420303345,1.9979000091552734,3.0178489685058594,-1.672316551208496,-0.4650140404701233,5.476827144622803
359,247277,247279,-0.022522013634443283,-0.06558822095394135,1.0345834493637085,-54.68183135986328,60.832454681396484,-15.723971366882324,0.9539523124694824,2.009899377822876,3.0388479232788086,-2.2511825561523438,-0.967576801776886,5.2194952964782715
360,247287,247289,-0.045622751116752625,-0.029491886496543884,1.043567180633545,-35.537532806396484,36.853458404541016,-18.868099212646484,0.9449527263641357,1.9889005422592163,3.008849620819092,-2.8549516201019287,-1.4797319173812866,5.049062728881836
361,247297,247299,-0.031197326257824898,-0.013713771477341652,1.0720864534378052,-0.12137064337730408,13.831171989440918,-20.2320499420166,0.9464526772499084,1.9754011631011963,2.977351188659668,-3.0678224563598633,-1.830736517906189,4.793765544891357
362,247307,247309,-0.04601862654089928,-0.0003449525684118271,1.0448355674743652,39.642311096191406,-2.3538827896118164,-16.037769317626953,0.9359531998634338,1.9649016857147217,2.9878506660461426,-3.2930474281311035,-1.6569160223007202,4.670055389404297
363,247317,247319,-0.1016119122505188,-0.02490396425127983,1.016900897026062,66.2975082397461,-13.102643966674805,-10.964873313903809,0.9284535646438599,1.9784010648727417,3.0163490772247314,-3.275149345397949,-1.180344820022583,4.543216228485107
364,247327,247329,-0.13130731880664825,0.01606590300798416,0.9732766151428223,73.83424377441406,-24.183534622192383,-4.4209160804748535,0.9464526772499084,1.9784010648727417,3.001349925994873,-3.076338529586792,-0.40648847818374634,4.451859951019287
365,247337,247339,-0.010519059374928474,0.06431576609611511,0.9632271528244019,57.56827163696289,-30.52993392944336,2.5686283111572266,0.9419528841972351,1.9799009561538696,3.005849599838257,-2.794611692428589,-0.0016477939207106829,4.267260551452637
366,247347,247349,0.03408440575003624,0.014773641712963581,0.9559058547019958,28.882204055786133,-31.808250427246094,7.202236175537109,0.950952410697937,1.9469026327133179,2.975851058959961,-2.3590023517608643,0.7459797859191895,4.314690589904785
367,247357,247359,0.009575371630489826,0.009169772267341614,0.9395304918289185,-10.349760055541992,-30.62812042236328,7.08484411239624,0.9494525194168091,1.94540274143219,2.9683516025543213,-2.177964210510254,0.6194837093353271,4.24286413192749
368,247367,247369,-0.06105431169271469,-0.061643727123737335,0.9322144985198975,-39.33173751831055,-19.65131187438965,7.5039567947387695,0.950952410697937,1.9409029483795166,2.978851079940796,-1.9956251382827759,0.3610246479511261,4.265985488891602
369,247377,247379,-0.0835118517279625,-0.02499971352517605,0.952567458152771,-60.26372528076172,-2.4957430362701416,7.2824482917785645,0.9494525194168091,1.954402208328247,2.9893505573272705,-1.866388201713562,0.015700891613960266,4.377445697784424
370,247387,247389,-0.05677271634340286,0.012041139416396618,0.9868180155754089,-67.09356689453125,8.569774627685547,6.644519329071045,0.9494525194168091,1.9784010648727417,3.004349708557129,-2.037696123123169,-0.6677843928337097,4.454922199249268
371,247397,247399,-0.05013145133852959,-0.015064428560435772,0.9860498905181885,-59.867286682128906,12.047056198120117,6.238655090332031,0.958452045917511,2.0023999214172363,3.0193488597869873,-2.1366217136383057,-1.1808123588562012,4.597695827484131
372,247407,247409,-0.03263649716973305,-0.029287753626704216,0.9830363392829895,-45.82844161987305,12.493230819702148,4.615908145904541,0.9374530911445618,1.999400019645691,3.0193488597869873,-2.557171583175659,-1.8454498052597046,4.691023826599121
373,247417,247419,-0.09122802317142487,-0.03875832259654999,1.0189844369888306,-28.369361877441406,7.424281597137451,2.3084068298339844,0.9554522037506104,1.984400749206543,3.0163490772247314,-2.720134735107422,-2.1826205253601074,4.807152271270752
374,247427,247429,-0.0998951718211174,-0.01652989536523819,1.0254794359207153,-1.7621705532073975,-3.3085787296295166,-1.7894654273986816,0.958452045917511,1.9964001178741455,3.001349925994873,-2.7624125480651855,-2.412503957748413,4.846793174743652
375,247437,247439,-0.04410041868686676,0.011192035861313343,0.9837011098861694,22.549589157104492,-14.272244453430176,-6.337898254394531,0.950952410697937,1.970901370048523,2.999850034713745,-2.6337013244628906,-2.2981033325195312,4.88761568069458
376,247447,247449,-0.006609179079532623,0.026279490441083908,0.967098593711853,50.52341079711914,-29.056386947631836,-11.702675819396973,0.9614518880844116,1.9814008474349976,3.0133492946624756,-2.347151279449463,-2.0303561687469482,4.813131332397461
377,247457,247459,-0.020939556881785393,0.05581918731331825,0.9584436416625977,66.95699310302734,-37.74516677856445,-15.89687442779541,0.9449527263641357,1.9979000091552734,3.0418479442596436,-2.140352249145508,-1.6520392894744873,4.667071342468262
378,247467,247469,-0.06758341193199158,-0.023702310398221016,1.008873701095581,68.74730682373047,-46.09385681152344,-19.91005516052246,0.9614518880844116,1.9964001178741455,3.0433478355407715,-1.4601668119430542,-0.7850656509399414,4.5425496101379395
379,247477,247479,-0.057850249111652374,0.020274141803383827,1.0657585859298706,64.81356048583984,-55.40192413330078,-22.950847625732422,0.950952410697937,1.985900640487671,3.0358481407165527,-1.1599353551864624,-0.2906668186187744,4.293699264526367
380,247487,247489,-0.05299106612801552,0.036254141479730606,1.1073439121246338,62.16368865966797,-59.62944793701172,-23.905363082885742,0.9479525685310364,1.9889005422592163,3.0358481407165527,-0.2923327088356018,0.5270999670028687,4.062920570373535
381,247497,247499,-0.07136232405900955,0.00033343909308314323,1.127274751663208,47.012779235839844,-48.14755630493164,-20.61724281311035,0.950952410697937,1.9739012718200684,3.029848337173462,-0.032261621206998825,0.9402987360954285,3.8018863201141357
382,247507,247509,-0.07289088517427444,0.04032956063747406,1.184675931930542,22.992387771606445,-24.934326171875,-16.806787490844727,0.9614518880844116,1.9754011631011963,3.0223488807678223,0.5419022440910339,1.3535124063491821,3.536637783050537
383,247517,247519,-0.10159691423177719,-0.011433478444814682,1.1418957710266113,-8.566699028015137,-17.779918670654297,-13.790196418762207,0.9629518389701843,1.9619019031524658,2.9938502311706543,0.9048509001731873,1.4924136400222778,3.304058313369751
384,247527,247529,-0.10025031119585037,-0.02547585964202881,1.1493616104125977,-38.962398529052734,-21.627391815185547,-13.357532501220703,0.9614518880844116,1.9634017944335938,2.9953501224517822,0.8489112854003906,1.3560372591018677,3.1694583892822266
385,247537,247539,-0.0988936722278595,-0.04213224723935127,1.1964929103851318,-50.20703125,-24.150171279907227,-10.376091003417969,0.965951681137085,1.9649016857147217,3.0118494033813477,1.1532433032989502,0.8802247643470764,2.9866764545440674
386,247547,247549,-0.11254090815782547,-0.019070401787757874,1.2226760387420654,-39.90102005004883,-11.605548858642578,-4.438772678375244,0.9719513654708862,1.967901587486267,3.0148491859436035,1.2871322631835938,0.46686527132987976,2.909968376159668
387,247557,247559,-0.11256211996078491,-0.04372299462556839,1.2165213823318481,-24.877233505249023,6.436206340789795,1.3743906021118164,0.9704514741897583,1.9664016962051392,2.9923503398895264,1.3992143869400024,0.22287383675575256,2.9026315212249756
388,247567,247569,-0.1322505921125412,-0.031132230535149574,1.243009328842163,-13.649299621582031,9.187650680541992,5.049681663513184,0.9689515233039856,1.9589020013809204,2.9878506660461426,1.3370428085327148,-0.07569573074579239,2.90872859954834
389,247577,247579,-0.12187135219573975,0.041083745658397675,1.2450282573699951,-5.743300437927246,0.2481178194284439,-0.36317259073257446,0.9719513654708862,1.9409029483795166,2.9638516902923584,1.2253636121749878,-0.20928524434566498,2.9538486003875732
390,247587,247589,-0.12426488846540451,-0.04106388986110687,1.1471449136734009,3.3921186923980713,-17.005151748657227,-5.309971809387207,0.965951681137085,1.9409029483795166,2.9548521041870117,1.4550299644470215,-0.213247612118721,2.9481799602508545
391,247597,247599,-0.09620644897222519,-0.07076533138751984,1.1024763584136963,9.973475456237793,-20.259397506713867,-8.362444877624512,0.9569521546363831,1.9349032640457153,2.9638516902923584,1.5378146171569824,-0.0926092192530632,2.9062931537628174
392,247607,247609,-0.11176106333732605,0.0017201092559844255,1.054765224456787,14.878918647766113,1.5847578048706055,-9.681660652160645,0.9629518389701843,1.9289034605026245,2.9578521251678467,1.811704397201538,-0.009074117057025433,2.821767807006836
393,247617,247619,-0.13964803516864777,-0.018118131905794144,1.0198204517364502,16.814105987548828,14.568013191223145,-12.423190116882324,0.9674516320228577,1.930403470993042,2.920353889465332,1.8375325202941895,0.07549633085727692,2.7206790447235107
394,247627,247629,-0.1116785779595375,-0.034934837371110916,1.034286379814148,17.584064483642578,16.750322341918945,-14.805379867553711,0.9779511094093323,1.9199039936065674,2.9308533668518066,1.5683465003967285,0.18889975547790527,2.6005938053131104
395,247637,247639,-0.12266673892736435,-0.06988327950239182,1.0529942512512207,32.57902145385742,21.722103118896484,-15.826184272766113,0.9629518389701843,1.9079046249389648,2.927853584289551,1.4778128862380981,0.5113828182220459,2.449885606765747
396,247647,247649,-0.14642386138439178,-0.08984017372131348,1.0295549631118774,39.0716667175293,34.029903411865234,-16.88238525390625,0.9494525194168091,1.915404200553894,2.926353693008423,1.330315351486206,1.0922620296478271,2.2779080867767334
397,247657,247659,-0.10446742922067642,-0.12723153829574585,0.9641625881195068,38.33534622192383,43.61771774291992,-21.395980834960938,0.9554522037506104,1.9244037866592407,2.9593520164489746,1.327379584312439,1.192078948020935,2.144745111465454
398,247667,247669,-0.06107298657298088,-0.1437370777130127,0.974664568901062,20.093656539916992,47.39594268798828,-25.54143714904785,0.9554522037506104,1.9394029378890991,2.9623517990112305,0.6034085750579834,1.765483021736145,1.9127811193466187
399,247677,247679,-0.12595589458942413,-0.12456616014242172,1.0038328170776367,10.555221557617188,44.326927185058594,-28.09346580505371,0.9539523124694824,1.9229037761688232,2.924853801727295,0.4819391369819641,1.7880268096923828,1.7173309326171875
400,247687,247689,-0.17949612438678741,-0.13416951894760132,1.0167149305343628,10.345165252685547,25.870283126831055,-28.525617599487305,0.9464526772499084,1.915404200553894,2.9353532791137695,0.02866967022418976,1.9727333784103394,1.443442940711975
401,247697,247699,-0.2128349095582962,-0.14250117540359497,0.9950864911079407,19.5710506439209,3.303241729736328,-21.9950008392334,0.9524523615837097,1.9214038848876953,2.9113543033599854,-0.22008483111858368,2.1962406635284424,1.1644691228866577
402,247707,247709,-0.16484735906124115,-0.09640199691057205,0.9439520239830017,22.869876861572266,-7.824133396148682,-9.948209762573242,0.9404529333114624,1.9124042987823486,2.9413528442382812,-0.2790670692920685,2.3924307823181152,0.9469282031059265
403,247717,247719,-0.02947922982275486,-0.023884445428848267,0.9839427471160889,14.98102855682373,-16.27474594116211,-0.5368155837059021,0.950952410697937,1.9139043092727661,2.9488525390625,0.1128455400466919,2.5283892154693604,0.90772545337677
404,247727,247729,-0.012229111045598984,-0.0016132764285430312,1.0307443141937256,4.351316452026367,-12.44991397857666,5.963588714599609,0.965951681137085,1.916904091835022,2.9368531703948975,0.21096962690353394,2.6896631717681885,0.882655143737793
405,247737,247739,-0.09806885570287704,-0.0559113584458828,0.9450764656066895,-17.67628288269043,14.121424674987793,10.698266983032227,0.9554522037506104,1.915404200553894,2.9293534755706787,0.42716050148010254,2.6666135787963867,0.9644004702568054
406,247747,247749,-0.05440500006079674,0.0016427295049652457,0.9181295037269592,-25.19127655029297,37.345069885253906,11.872459411621094,0.9629518389701843,1.9229037761688232,2.92185378074646,0.026218779385089874,2.431033134460449,1.0009572505950928
407,247757,247759,-0.01827295310795307,0.027881847694516182,0.8918570280075073,-18.92751121520996,53.31471252441406,13.124899864196777,0.9374530911445618,1.915404200553894,2.926353693008423,-0.023799048736691475,2.2694015502929688,1.2251886129379272
408,247767,247769,-0.0489913746714592,0.027239926159381866,0.9501104354858398,-2.4359171390533447,59.38267135620117,17.601869583129883,0.9464526772499084,1.9034048318862915,2.917354106903076,-0.9417767524719238,2.2572693824768066,1.24642813205719
409,247777,247779,-0.06671485304832458,-0.05301281437277794,0.9534885287284851,6.5153913497924805,69.06716918945312,21.038299560546875,0.9269536137580872,1.93190336227417,2.9338531494140625,-1.0423928499221802,2.2444798946380615,1.6113572120666504
410,247787,247789,-0.04792489856481552,-0.11069446802139282,0.9122827053070068,7.912845611572266,67.69239807128906,22.009178161621094,0.9344532489776611,1.9184041023254395,2.9293534755706787,-1.9639787673950195,2.3508248329162598,1.7606185674667358
411,247797,247799,0.005735821556299925,-0.13845635950565338,0.9271210432052612,-4.551455020904541,51.59812927246094,21.32379722595215,0.9254537224769592,1.930403470993042,2.947352647781372,-2.573801040649414,2.414898633956909,2.022796869277954
412,247807,247809,-0.0418546088039875,-0.12673819065093994,0.9318631291389465,-25.285297393798828,24.60820198059082,15.647998809814453,0.9344532489776611,1.9244037866592407,2.9323532581329346,-3.0052220821380615,2.313767671585083,2.2701170444488525
413,247817,247819,-0.059578362852334976,-0.11593766510486603,0.9175273180007935,-47.93970489501953,-2.7852237224578857,7.4054718017578125,0.9419528841972351,1.9139043092727661,2.9368531703948975,-2.9445688724517822,2.067411422729492,2.547499418258667
414,247827,247829,-0.04973797872662544,-0.1118653267621994,0.8909827470779419,-65.86516571044922,-23.15542984008789,-0.36349231004714966,0.9389530420303345,1.9199039936065674,2.9488525390625,-2.913682222366333,1.666579246520996,2.6368703842163086
415,247837,247839,-0.05641033872961998,-0.04686104878783226,0.9084133505821228,-68.38927459716797,-33.73200607299805,-7.885829925537109,0.9614518880844116,1.9484025239944458,2.953352212905884,-2.859636068344116,0.9635445475578308,2.5443103313446045
416,247847,247849,-0.031544383615255356,-0.033129651099443436,0.891455888748169,-59.32032775878906,-34.56785202026367,-14.93995189666748,0.9404529333114624,1.930403470993042,2.947352647781372,-2.721667528152466,0.4895187318325043,2.437767267227173
417,247857,247859,-0.04617886245250702,0.021882470697164536,0.8568807244300842,-47.558189392089844,-26.675281524658203,-19.548707962036133,0.9494525194168091,1.94540274143219,2.9323532581329346,-2.253708600997925,-0.32705801725387573,2.266796827316284
418,247867,247869,-0.06514202803373337,0.05837893858551979,0.9534183740615845,-28.680322647094727,-16.63192367553711,-22.198871612548828,0.9404529333114624,1.9484025239944458,2.944352626800537,-2.0098631381988525,-0.6239625811576843,2.121955394744873
419,247877,247879,-0.04293249174952507,0.022875584661960602,0.923112154006958,-11.304590225219727,1.2260364294052124,-23.265663146972656,0.9494525194168091,1.94540274143219,2.944352626800537,-1.809464693069458,-0.7737655639648438,1.9603203535079956
420,247887,247889,-0.059821292757987976,0.014772920869290829,0.8727806806564331,-1.215696096420288,13.559350967407227,-22.63031005859375,0.9494525194168091,1.9514024257659912,2.953352212905884,-1.9279202222824097,-0.829504668712616,1.7200602293014526
421,247897,247899,-0.09186187386512756,-0.004139108117669821,0.9185925722122192,8.047928810119629,27.98235321044922,-20.13393211364746,0.9494525194168091,1.9634017944335938,2.9623517990112305,-2.2057344913482666,-0.857624888420105,1.4572169780731201
422,247907,247909,-0.11238743364810944,0.0276199784129858,0.9144706130027771,5.165185451507568,38.17216110229492,-18.848583221435547,0.9479525685310364,1.967901587486267,2.9818508625030518,-2.4778852462768555,-0.7303104400634766,1.2750385999679565
423,247917,247919,-0.08532344549894333,0.09401342272758484,0.8939957618713379,-11.894075393676758,34.34596633911133,-19.360363006591797,0.9389530420303345,1.970901370048523,2.972851276397705,-2.8427462577819824,-0.7846511006355286,1.0480751991271973
424,247927,247929,-0.043017394840717316,0.13113939762115479,0.9425150752067566,-26.838775634765625,23.515018463134766,-18.05509376525879,0.9344532489776611,1.9784010648727417,2.980350971221924,-3.053734302520752,-0.8843110203742981,0.8773975968360901
425,247937,247939,-0.04254719987511635,0.07042795419692993,0.9861239194869995,-33.427207946777344,9.774544715881348,-15.925030708312988,0.9224538803100586,1.9754011631011963,2.9683516025543213,-3.4460878372192383,-1.2662984132766724,0.6293429732322693
426,247947,247949,-0.030633360147476196,0.02630976028740406,0.9510517120361328,-35.135292053222656,-9.005910873413086,-14.696085929870605,0.9164541363716125,1.9784010648727417,2.977351188659668,-3.4751908779144287,-1.5318284034729004,0.5108561515808105
427,247957,247959,-0.007645071484148502,0.031026063486933708,0.9573883414268494,-23.04184913635254,-19.069664001464844,-16.95664405822754,0.9419528841972351,1.9799009561538696,2.9848506450653076,-3.309112071990967,-1.893689751625061,0.36344271898269653
428,247967,247969,-0.033183854073286057,0.014643264934420586,0.975583553314209,1.8836214542388916,-7.097120761871338,-19.001386642456055,0.9329533576965332,1.9739012718200684,2.9878506660461426,-3.009838104248047,-1.8523262739181519,0.333400160074234
429,247977,247979,-0.07459492981433868,-0.0562729574739933,0.916326105594635,20.24578285217285,0.9440659880638123,-19.985429763793945,0.9314534068107605,1.969401478767395,2.980350971221924,-2.954615592956543,-1.8182268142700195,0.1657707691192627
430,247987,247989,-0.09211014956235886,-0.10192392021417618,0.9562909007072449,25.552743911743164,1.103245735168457,-19.796607971191406,0.9389530420303345,2.0038998126983643,3.008849620819092,-3.000645160675049,-1.6688169240951538,-0.0484665110707283
431,247997,247999,-0.12751832604408264,-0.13796086609363556,0.980648398399353,25.253158569335938,5.140279769897461,-19.967111587524414,0.919454038143158,1.9964001178741455,3.001349925994873,-3.14422607421875,-1.3886377811431885,-0.21601006388664246
432,248007,248009,-0.12141241133213043,-0.08969058841466904,0.9281848669052124,15.514266967773438,-1.28286874294281,-21.229211807250977,0.911954402923584,1.9979000091552734,3.0178489685058594,-3.198862314224243,-1.1657211780548096,-0.4212019443511963
433,248017,248019,-0.09303805232048035,-0.03946502134203911,0.9635541439056396,5.652468681335449,-21.615219116210938,-23.25298309326172,0.9164541363716125,1.9874006509780884,3.004349708557129,-3.018841505050659,-1.0370991230010986,-0.6594556570053101
434,248027,248029,-0.08813691884279251,-0.07006072252988815,1.0517621040344238,5.6972174644470215,-46.97105407714844,-23.920074462890625,0.9224538803100586,1.9934003353118896,3.0163490772247314,-2.850597620010376,-0.9980379939079285,-0.8856989145278931
435,248037,248039,-0.15741723775863647,-0.09430206567049026,1.0903956890106201,-5.4093756675720215,-67.23087310791016,-22.48303985595703,0.9344532489776611,2.005399703979492,3.034348249435425,-2.3532650470733643,-1.0206502676010132,-1.1530401706695557
436,248047,248049,-0.17363965511322021,-0.08581744134426117,1.0930641889572144,-23.975788116455078,-77.80378723144531,-20.435733795166016,0.9389530420303345,2.0248987674713135,3.053847312927246,-1.826829433441162,-1.243338704109192,-1.4219086170196533
437,248057,248059,-0.13997776806354523,-0.03770783916115761,1.1534332036972046,-42.04976272583008,-66.04082489013672,-20.928831100463867,0.9269536137580872,2.030898332595825,3.059846878051758,-0.8902144432067871,-1.6187736988067627,-1.7052953243255615
438,248067,248069,-0.11949789524078369,-0.01818506419658661,1.1181093454360962,-53.3605842590332,-36.72882843017578,-24.248666763305664,0.9359531998634338,2.0278985500335693,3.056847095489502,-0.8067626953125,-2.0281105041503906,-1.7782552242279053
439,248077,248079,-0.11769711971282959,-0.012836400419473648,1.1399693489074707,-44.760589599609375,-12.009804725646973,-27.289819717407227,0.9359531998634338,2.030898332595825,3.032848358154297,-0.34046173095703125,-2.679593563079834,-2.078688383102417
440,248087,248089,-0.09493208676576614,-0.016022637486457825,1.1263964176177979,-17.412612915039062,18.25602149963379,-24.950115203857422,0.9344532489776611,2.0233988761901855,3.0223488807678223,-0.3657979667186737,-2.946751832962036,-2.2346372604370117
441,248097,248099,-0.1437656581401825,-0.047983068972826004,1.1225889921188354,19.826702117919922,31.705312728881836,-25.050901412963867,0.9359531998634338,2.0009000301361084,3.008849620819092,-0.5206189751625061,-3.1060736179351807,-2.4878203868865967
442,248107,248109,-0.15097180008888245,-0.012894765473902225,1.1637545824050903,69.62972259521484,33.58190155029297,-25.804838180541992,0.9374530911445618,2.008399486541748,3.0163490772247314,-0.8540467619895935,-2.7208991050720215,-2.681380271911621
443,248117,248119,-0.10556568950414658,-0.08941197395324707,1.1375898122787476,117.35017395019531,26.13435935974121,-24.379825592041016,0.9374530911445618,2.0203988552093506,3.025348663330078,-1.0496183633804321,-1.8172318935394287,-2.9309470653533936
444,248127,248129,-0.13295145332813263,-0.13544069230556488,1.0351322889328003,139.83309936523438,16.26769256591797,-20.479476928710938,0.9359531998634338,2.0248987674713135,3.059846878051758,-1.134522795677185,-0.9044739007949829,-3.3195600509643555
445,248137,248139,-0.12458452582359314,-0.17119641602039337,0.9551210403442383,132.30323791503906,1.6440237760543823,-11.763479232788086,0.9314534068107605,1.999400019645691,3.031348466873169,-1.376160979270935,0.7439882159233093,-3.412957191467285
446,248147,248149,-0.07274274528026581,-0.11031195521354675,1.0022504329681396,98.37445831298828,-21.70359992980957,-0.9822195768356323,0.9404529333114624,1.9904004335403442,3.025348663330078,-1.2613288164138794,1.8025377988815308,-3.637474775314331
447,248157,248159,-0.03377633914351463,-0.00833786278963089,0.9918279051780701,44.472103118896484,-46.88985061645508,14.490819931030273,0.9299534559249878,1.9619019031524658,2.999850034713745,-0.9129083156585693,2.8033180236816406,-3.6802616119384766
448,248167,248169,-0.02476929873228073,0.04667801782488823,0.9404659271240234,-13.721306800842285,-60.40140151977539,28.31565284729004,0.9494525194168091,1.9334032535552979,2.944352626800537,-0.548646092414856,3.185220718383789,-3.5493221282958984
449,248177,248179,-0.043955132365226746,-0.03358770161867142,0.9433587193489075,-74.18122100830078,-54.72594451904297,36.34482955932617,0.965951681137085,1.9409029483795166,2.9608519077301025,0.16933047771453857,2.7524960041046143,-3.3788161277770996
450,248187,248189,-0.09715621173381805,-0.033846352249383926,1.0302265882492065,-127.3003921508789,-36.1192741394043,40.157718658447266,0.9524523615837097,1.9484025239944458,2.974351167678833,0.7241002917289734,1.9982560873031616,-3.0410044193267822
451,248197,248199,-0.115213543176651,-0.05847758799791336,1.0501214265823364,-155.66366577148438,-3.6274492740631104,42.74540710449219,0.965951681137085,1.9739012718200684,3.0148491859436035,0.9942407011985779,0.5502929091453552,-2.667785406112671
452,248207,248209,-0.13053227961063385,-0.0418533980846405,0.9562248587608337,-161.60162353515625,25.49962043762207,46.39836120605469,0.9689515233039856,1.9889005422592163,3.005849599838257,0.8937588930130005,-0.7667409181594849,-2.217729091644287
453,248217,248219,-0.11455380916595459,0.053143180906772614,1.0246248245239258,-138.3699951171875,47.699859619140625,48.7439079284668,0.9614518880844116,1.999400019645691,3.0133492946624756,0.4644096791744232,-2.6820476055145264,-1.7759857177734375
454,248227,248229,-0.10322391241788864,0.04847540333867073,0.9891036748886108,-99.52935028076172,65.75161743164062,49.36972427368164,0.9629518389701843,1.9979000091552734,3.002849817276001,0.027332499623298645,-3.644101142883301,-1.3134784698486328
455,248237,248239,-0.061251260340213776,0.08425421267747879,0.9341341853141785,-60.96107482910156,58.22767639160156,44.69281768798828,0.9569521546363831,2.012899398803711,3.0178489685058594,-0.7981035709381104,-4.670477867126465,-0.8597663044929504
456,248247,248249,-0.046638067811727524,0.06985120475292206,0.9836848974227905,-22.221811294555664,34.60371780395508,37.764686584472656,0.9524523615837097,1.9724013805389404,2.9653515815734863,-1.2213175296783447,-5.212650299072266,-0.4967155158519745
457,248257,248259,-0.05698901414871216,-0.011266862973570824,0.9899304509162903,17.127620697021484,8.237590789794922,31.166540145874023,0.9614518880844116,1.969401478767395,2.9563522338867188,-1.59990394115448,-5.335833549499512,-0.1543765813112259
458,248267,248269,-0.07735712826251984,-0.03804948553442955,0.9445151090621948,64.65016174316406,-17.48409080505371,24.408710479736328,0.9434528350830078,1.9634017944335938,2.9383530616760254,-1.5523134469985962,-5.039869785308838,0.1089974045753479
459,248277,248279,-0.003768226597458124,0.009192528203129768,0.9480211734771729,104.70106506347656,-32.589942932128906,19.962881088256836,0.9209539294242859,1.9589020013809204,2.972851276397705,-1.3209115266799927,-4.212165355682373,0.3448912501335144
460,248287,248289,0.03057635948061943,0.01740633323788643,0.9538971185684204,130.62806701660156,-37.50069046020508,18.07012176513672,0.9329533576965332,1.9799009561538696,3.0178489685058594,-1.0992858409881592,-3.5138304233551025,0.5856828093528748
461,248297,248299,0.0044849407859146595,-0.021565107628703117,0.946199893951416,135.1046905517578,-31.04188346862793,16.327903747558594,0.9434528350830078,1.9634017944335938,2.9923503398895264,-0.78792804479599,-2.0473527908325195,0.812404990196228
462,248307,248309,-0.01388165820389986,-0.054048702120780945,0.9416016936302185,116.26555633544922,-21.188480377197266,13.940495491027832,0.9434528350830078,1.9724013805389404,3.001349925994873,-0.44814565777778625,-0.49924325942993164,0.9734942317008972
463,248317,248319,0.0380375050008297,-0.004044793080538511,0.9227331280708313,72.82669067382812,-10.237588882446289,10.726117134094238,0.9524523615837097,1.9814008474349976,2.9893505573272705,-0.2664870321750641,0.25357750058174133,1.1109700202941895
464,248327,248329,-0.025959445163607597,0.060971811413764954,0.9389469623565674,16.335041046142578,-2.9354186058044434,5.387791156768799,0.9434528350830078,1.9244037866592407,2.926353693008423,-0.03852827101945877,0.8821935653686523,1.160805344581604
465,248337,248339,0.028203114867210388,0.07047148048877716,0.9426602721214294,-32.81395721435547,0.4973755180835724,0.5040814280509949,0.9569521546363831,1.9199039936065674,2.9548521041870117,0.01967659592628479,0.7776942253112793,1.2012263536453247
466,248347,248349,0.024995947256684303,-0.03009689226746559,0.9564948678016663,-62.069000244140625,-1.1468477249145508,-2.9877984523773193,0.950952410697937,1.967901587486267,2.9848506450653076,0.05167655646800995,0.34001410007476807,1.195926308631897
467,248357,248359,0.04429376870393753,-0.08538202196359634,0.9732632637023926,-65.5406265258789,-4.568877696990967,-5.107309818267822,0.965951681137085,1.967901587486267,2.9818508625030518,0.10997346043586731,-0.2177371233701706,1.1519138813018799
468,248367,248369,0.03172929212450981,-0.10367544740438461,0.998214066028595,-43.9212760925293,-19.005836486816406,-6.024740695953369,0.9569521546363831,1.9649016857147217,2.9818508625030518,0.006586885079741478,-0.8500919342041016,1.1403695344924927
469,248377,248379,-0.05147993192076683,-0.03492937237024307,1.0439701080322266,0.7221365571022034,-35.20331954956055,-3.0747599601745605,0.9494525194168091,1.954402208328247,2.9683516025543213,0.07282665371894836,-1.029052734375,1.1022751331329346
470,248387,248389,-0.10445567220449448,-0.028692835941910744,1.0485574007034302,37.4888801574707,-42.78700256347656,5.285255432128906,0.958452045917511,1.9724013805389404,2.998350143432617,0.7184058427810669,-0.8313023447990417,0.9935593605041504
471,248397,248399,-0.07321243733167648,-0.06014389172196388,1.0562448501586914,46.472225189208984,-41.957706451416016,12.365145683288574,0.9569521546363831,1.970901370048523,3.005849599838257,0.9375359416007996,-0.5316446423530579,1.0971115827560425
472,248407,248409,-0.10030818730592728,-0.12248250842094421,1.0447442531585693,39.0396728515625,-44.2896842956543,16.688955307006836,0.9764511585235596,1.9514024257659912,2.980350971221924,1.3857202529907227,-0.08029662072658539,1.2173868417739868
473,248417,248419,-0.14289726316928864,-0.05531652271747589,1.0061984062194824,17.682987213134766,-48.30592727661133,14.449710845947266,0.9704514741897583,1.9514024257659912,2.977351188659668,1.6753432750701904,0.17908845841884613,1.4295132160186768
474,248427,248429,-0.11224105209112167,-0.02313792146742344,1.0276767015457153,-15.164290428161621,-43.04558563232422,8.45993709564209,0.9764511585235596,1.9394029378890991,2.9683516025543213,2.419466972351074,0.26236411929130554,1.5393025875091553
475,248437,248439,-0.07026268541812897,-0.03875252977013588,1.0638935565948486,-32.833126068115234,-19.540761947631836,3.3168046474456787,0.9749512076377869,1.9349032640457153,2.969851493835449,2.7423293590545654,-0.03876156732439995,1.678966999053955
476,248447,248449,-0.10307343304157257,-0.02971813455224037,1.0615016222000122,-26.276227951049805,14.869656562805176,5.61781644821167,0.9704514741897583,1.969401478767395,2.9833507537841797,2.6180787086486816,-0.3643398880958557,1.7575968503952026
477,248457,248459,-0.11977282166481018,0.005189021583646536,1.0129420757293701,2.2176547050476074,43.44632339477539,9.90915584564209,0.965951681137085,1.9589020013809204,2.9878506660461426,2.5582263469696045,-0.5911367535591125,1.7976024150848389
