,timestamp_start,timestamp_end,acc.x,acc.y,acc.z,gyro.x,gyro.y,gyro.z,mag.x,mag.y,mag.z,stabilizer.pitch,stabilizer.roll,stabilizer.yaw
0,491734,491736,-0.07129021733999252,-0.04270760715007782,0.9940189123153687,-4.171792984008789,4.0481672286987305,-0.39921075105667114,-0.7064646482467651,1.435428261756897,0.3404829800128937,-0.03762958198785782,0.20270554721355438,2.504899024963379
1,491744,491746,-0.1182447075843811,-0.0340193547308445,1.0503807067871094,-7.178578853607178,3.474060535430908,-0.26800909638404846,-0.7289635539054871,1.46092689037323,0.35698214173316956,-0.434469074010849,0.08553391695022583,2.485760450363159
2,491754,491756,-0.05885385349392891,-0.06313275545835495,0.9764683842658997,-8.381635665893555,2.4555795192718506,0.13080435991287231,-0.7184640765190125,1.4624269008636475,0.3404829800128937,-0.12317654490470886,-0.13227948546409607,2.48765230178833
3,491764,491766,-0.060078587383031845,0.07370158284902573,0.9730859398841858,-8.196349143981934,0.6927831172943115,-0.03521166369318962,-0.7214639186859131,1.4534273147583008,0.3314834237098694,-0.21105040609836578,-0.20617559552192688,2.4870693683624268
4,491774,491776,-0.0715111792087555,0.11602961272001266,0.9776827692985535,-6.185489177703857,-3.2612669467926025,-0.025354381650686264,-0.7334632873535156,1.444427728652954,0.3404829800128937,-0.18193551898002625,-0.32608339190483093,2.4883010387420654
5,491784,491786,-0.054803475737571716,0.007065405137836933,0.9652551412582397,-2.9747323989868164,-4.730109214782715,0.042136359959840775,-0.7184640765190125,1.4564270973205566,0.3314834237098694,-0.048547253012657166,-0.6056708097457886,2.485825538635254
6,491794,491796,-0.07763103395700455,0.017484134063124657,1.031571626663208,0.2187260538339615,-4.772185325622559,-0.054849833250045776,-0.7124643921852112,1.4534273147583008,0.3404829800128937,-0.04485500976443291,-0.42393001914024353,2.4864819049835205
7,491804,491806,-0.023624960333108902,0.06407208740711212,0.9604875445365906,4.803114891052246,-3.5502803325653076,-0.31146764755249023,-0.722963809967041,1.4579271078109741,0.3539822995662689,0.02631480060517788,-0.6012268662452698,2.4839868545532227
8,491814,491816,-0.0062077464535832405,0.12061727046966553,0.9109498262405396,10.104551315307617,-0.2111174464225769,-0.20240861177444458,-0.7154642343521118,1.435428261756897,0.33748310804367065,0.20362256467342377,-0.6074978113174438,2.483447551727295
9,491824,491826,-0.013827688060700893,0.08138405531644821,0.9748739004135132,10.786831855773926,2.934252977371216,-0.24029071629047394,-0.7214639186859131,1.4564270973205566,0.3254837095737457,0.04626733437180519,-0.08498641103506088,2.491007089614868
10,491834,491836,0.008771268650889397,-0.014675679616630077,1.017175316810608,9.763790130615234,4.623900890350342,-0.5745790004730225,-0.7199639678001404,1.445927619934082,0.3329833447933197,0.123908631503582,-0.13669642806053162,2.485405921936035
11,491844,491846,-0.005085882730782032,-3.3437463571317494e-06,1.0282623767852783,7.112512111663818,5.737642288208008,-0.5681023597717285,-0.7274636030197144,1.4414279460906982,0.3224838674068451,0.09907194972038269,-0.3991124629974365,2.480294942855835
12,491854,491856,0.004171204287558794,0.05447730794548988,0.9707407355308533,2.2522664070129395,5.676429271697998,-0.42706888914108276,-0.7289635539054871,1.4309284687042236,0.3539822995662689,0.00016875352594070137,-0.27772024273872375,2.4785802364349365
13,491864,491866,-0.0009231599397026002,0.0019755640532821417,0.9810870289802551,-2.111403703689575,4.4657673835754395,-0.4420616924762726,-0.7259637117385864,1.421928882598877,0.34498274326324463,-0.0871342122554779,-0.23341217637062073,2.478083848953247
14,491874,491876,-0.017553307116031647,0.01363431941717863,1.003743052482605,-1.3302613496780396,2.3453361988067627,-0.6177672147750854,-0.7139642834663391,1.436928153038025,0.33598318696022034,-0.022807521745562553,-0.894091784954071,2.4703805446624756
15,491884,491886,0.026087142527103424,-0.0786798819899559,1.0134220123291016,1.882973313331604,0.9524145126342773,-0.9260912537574768,-0.7154642343521118,1.444427728652954,0.32848358154296875,-0.08120767772197723,-0.8108497858047485,2.4628922939300537
16,491894,491896,0.03283509984612465,-0.10950659960508347,0.9850810766220093,7.2949957847595215,-1.4409531354904175,-1.2399753332138062,-0.7244637608528137,1.4384280443191528,0.3314834237098694,-0.10646428167819977,-0.6835833191871643,2.4501888751983643
17,491904,491906,-0.017087846994400024,0.029372407123446465,1.021350383758545,17.118846893310547,-2.474466323852539,-1.1274434328079224,-0.7169641256332397,1.4249287843704224,0.33598318696022034,-0.09106136113405228,-0.5103405117988586,2.437413454055786
18,491914,491916,-0.009179957211017609,-0.0032573563512414694,0.9725706577301025,25.018224716186523,-1.8348207473754883,-1.127420425415039,-0.7244637608528137,1.4384280443191528,0.32848358154296875,-0.0686003714799881,-0.3998121917247772,2.4257123470306396
19,491924,491926,-0.03936325013637543,-0.009661132469773293,0.9719739556312561,28.07351303100586,0.6314541101455688,-0.8175482153892517,-0.7169641256332397,1.4249287843704224,0.32698363065719604,-0.06494410336017609,0.010153756476938725,2.4146294593811035
20,491934,491936,-0.043251339346170425,0.018227968364953995,1.0032992362976074,25.024158477783203,2.6944615840911865,-0.6036785244941711,-0.722963809967041,1.436928153038025,0.33598318696022034,-0.09669677913188934,0.4834253489971161,2.405488967895508
21,491944,491946,-0.040446363389492035,0.021911097690463066,0.9818179607391357,18.86332130432129,4.813931465148926,-0.7193775773048401,-0.7259637117385864,1.4279285669326782,0.3329833447933197,-0.3586671054363251,0.7508217096328735,2.4121406078338623
22,491954,491956,-0.04353775456547737,0.011194337159395218,0.9966934323310852,8.778582572937012,6.886818885803223,-1.5127909183502197,-0.7184640765190125,1.4174290895462036,0.32848358154296875,-0.4250638484954834,1.1082594394683838,2.410820245742798
23,491964,491966,-0.03121538832783699,-0.0039010080508887768,0.9726369976997375,-1.3155443668365479,4.379797458648682,-1.8747162818908691,-0.7334632873535156,1.4234287738800049,0.3254837095737457,-0.4990471601486206,1.0157052278518677,2.3949077129364014
24,491974,491976,-0.03145674243569374,0.03745555505156517,0.9059488773345947,-9.999016761779785,-0.3362103998661041,-2.105698347091675,-0.7094644904136658,1.4234287738800049,0.31948402523994446,-0.5933129191398621,1.1874704360961914,2.3833088874816895
25,491984,491986,0.019236063584685326,0.031028052791953087,0.9298635125160217,-16.12902069091797,-6.705036163330078,-2.44437313079834,-0.7184640765190125,1.420428991317749,0.3314834237098694,-0.5362601280212402,1.0211509466171265,2.363121271133423
26,491994,491996,0.011403613723814487,-0.005437157116830349,0.9669443964958191,-15.743304252624512,-12.476497650146484,-2.2516932487487793,-0.7274636030197144,1.4294284582138062,0.33748310804367065,-0.18783681094646454,0.862964391708374,2.3508846759796143
27,492004,492006,-0.0014303780626505613,0.009647469967603683,0.9912357330322266,-12.015298843383789,-14.529376029968262,-2.2513885498046875,-0.722963809967041,1.4189289808273315,0.3239837884902954,0.007737054955214262,0.6527538299560547,2.32879376411438
28,492014,492016,-0.029489947482943535,0.07306436449289322,0.9621790647506714,-5.878018856048584,-12.245808601379395,-1.4684995412826538,-0.7094644904136658,1.4264286756515503,0.3224838674068451,0.14049109816551208,0.5107959508895874,2.303443193435669
29,492024,492026,-0.02106187865138054,0.02508743479847908,0.9620153903961182,0.31647443771362305,-7.243278980255127,-1.483795166015625,-0.7184640765190125,1.4174290895462036,0.3254837095737457,0.29844948649406433,0.46819695830345154,2.290687084197998
30,492034,492036,-0.016192439943552017,0.03056473471224308,0.9836022257804871,6.502070426940918,0.7443233728408813,-1.1646026372909546,-0.7184640765190125,1.4114294052124023,0.3224838674068451,0.22386333346366882,0.7261348366737366,2.270329713821411
31,492044,492046,-0.016893576830625534,0.009935575537383556,0.9661915302276611,10.407817840576172,8.745779037475586,-0.9872759580612183,-0.7169641256332397,1.421928882598877,0.3149842321872711,0.10451138019561768,0.714441180229187,2.2503223419189453
32,492054,492056,-0.05796940624713898,0.051154326647520065,0.9602230191230774,10.132255554199219,13.725031852722168,-0.8162340521812439,-0.730463445186615,1.4144293069839478,0.3314834237098694,-0.04631426930427551,0.8125274777412415,2.236902952194214
33,492064,492066,-0.03800882026553154,0.02773491106927395,0.9335395693778992,5.460322856903076,13.26198959350586,-0.8637332916259766,-0.7319633960723877,1.4099295139312744,0.3209839463233948,-0.24222806096076965,0.9501074552536011,2.225710153579712
34,492074,492076,-0.01559567078948021,-0.027770748361945152,0.9188836812973022,-1.073306679725647,9.291407585144043,-1.23826003074646,-0.7259637117385864,1.421928882598877,0.3209839463233948,-0.41095206141471863,0.9943625926971436,2.21527361869812
35,492084,492086,0.015637915581464767,0.01168789528310299,0.9542945623397827,-7.049344062805176,1.791680932044983,-1.345532774925232,-0.7094644904136658,1.4144293069839478,0.3314834237098694,-0.4990275800228119,0.9412826299667358,2.2044827938079834
36,492094,492096,-0.025935089215636253,0.10908032208681107,0.973437488079071,-10.324105262756348,-6.934803485870361,-1.3742306232452393,-0.7169641256332397,1.4279285669326782,0.3329833447933197,-0.46781298518180847,1.4202549457550049,2.211092948913574
37,492104,492106,-0.02854853868484497,0.038829997181892395,0.9660159349441528,-11.86037826538086,-13.678470611572266,-1.0556061267852783,-0.7109644412994385,1.4099295139312744,0.3209839463233948,-0.3063061535358429,0.5980170369148254,2.186816453933716
38,492114,492116,-0.02362406626343727,0.012487458996474743,0.954699695110321,-12.597421646118164,-18.26188850402832,-0.684897243976593,-0.7079645991325378,1.4279285669326782,0.32698363065719604,-0.523643434047699,1.288037657737732,2.1598989963531494
39,492124,492126,-0.022221291437745094,0.03219877555966377,0.9756335020065308,-12.677040100097656,-18.090347290039062,-0.8506238460540771,-0.7169641256332397,1.4339282512664795,0.33598318696022034,-1.4748448133468628,2.107487916946411,2.0572032928466797
40,492134,492136,-0.018088864162564278,0.020864637568593025,0.9512017369270325,-12.050867080688477,-15.951224327087402,-0.5635250210762024,-0.7214639186859131,1.420428991317749,0.31048446893692017,-1.0630468130111694,1.844267725944519,2.065251111984253
41,492144,492146,-0.01345461793243885,0.004686290398240089,0.9398053288459778,-16.903249740600586,-16.7381534576416,-0.9905388355255127,-0.7349632382392883,1.4339282512664795,0.33898305892944336,-0.9530829191207886,1.6982132196426392,2.045105457305908
42,492154,492156,-0.005427849479019642,-0.0065706344321370125,0.9310428500175476,-25.746068954467773,-21.726398468017578,-0.9553478360176086,-0.730463445186615,1.4114294052124023,0.31948402523994446,-0.601878821849823,1.256365180015564,2.0406136512756348
43,492164,492166,-0.0008387422421947122,-0.0008322516805492342,0.9429193735122681,-35.1528205871582,-27.980056762695312,-0.888543426990509,-0.7139642834663391,1.421928882598877,0.31798410415649414,-0.17903058230876923,0.8927467465400696,2.054194927215576
44,492174,492176,-0.008982687257230282,-0.014947149902582169,0.9318650960922241,-41.5607795715332,-32.36319351196289,-1.2818022966384888,-0.7154642343521118,1.4294284582138062,0.3314834237098694,0.37794366478919983,0.2688019573688507,2.071995258331299
45,492184,492186,-0.00508058350533247,0.013599642552435398,0.9569875597953796,-40.17558670043945,-33.10361862182617,-1.877489447593689,-0.7199639678001404,1.4159291982650757,0.3209839463233948,0.35538962483406067,0.08491125702857971,2.0138368606567383
46,492194,492196,-0.004009098280221224,0.013377198949456215,0.9555825591087341,-33.37511444091797,-30.023330688476562,-1.7526743412017822,-0.7094644904136658,1.4414279460906982,0.33448326587677,0.8921532034873962,-0.47782406210899353,2.021488904953003
47,492204,492206,-0.007012249436229467,-0.011299111880362034,0.975586473941803,-24.771059036254883,-22.856861114501953,-1.2919780015945435,-0.6899654865264893,1.4339282512664795,0.32998350262641907,1.2719961404800415,-0.8493358492851257,2.0162086486816406
48,492214,492216,-0.023924116045236588,0.007156798616051674,0.9760838150978088,-13.609467506408691,-15.090065002441406,-1.0060744285583496,-0.7034648060798645,1.4474276304244995,0.3254837095737457,1.5964641571044922,-1.2683686017990112,2.017484664916992
49,492224,492226,-0.0014518442330881953,0.012583581730723381,0.9678128957748413,-4.100388050079346,-6.4832444190979,-0.70271897315979,-0.7169641256332397,1.4429278373718262,0.32698363065719604,1.784460186958313,-1.3637510538101196,2.0122501850128174
50,492234,492236,-0.011685032397508621,0.004732390400022268,0.9592466354370117,3.706451177597046,2.7006657123565674,-0.5192325115203857,-0.6929653286933899,1.445927619934082,0.3329833447933197,1.8930256366729736,-1.4514822959899902,2.0127172470092773
51,492244,492246,-0.012734347023069859,-0.0005756778409704566,0.9631998538970947,5.662646293640137,7.814840316772461,-0.30559393763542175,-0.7034648060798645,1.4474276304244995,0.3254837095737457,1.8783838748931885,-1.512917399406433,2.016275644302368
52,492254,492256,-0.026712460443377495,0.01142905279994011,0.9635823369026184,5.1857686042785645,10.004439353942871,-0.35866156220436096,-0.7094644904136658,1.4474276304244995,0.31948402523994446,1.7887217998504639,-1.4761323928833008,2.0127978324890137
53,492264,492266,-0.03382759913802147,-0.020305778831243515,1.0021079778671265,1.1221357583999634,9.340348243713379,-0.394864022731781,-0.7169641256332397,1.4579271078109741,0.3329833447933197,1.7418054342269897,-1.4656742811203003,2.0086867809295654
54,492274,492276,-0.026649123057723045,-0.03912031650543213,0.9991621971130371,-0.4752059280872345,6.725657939910889,-0.5544911026954651,-0.7109644412994385,1.4639267921447754,0.3209839463233948,1.7009717226028442,-1.4979702234268188,2.0010695457458496
55,492284,492286,-0.020147420465946198,-0.035292379558086395,0.9786992073059082,-2.9130594730377197,1.4241148233413696,-0.5778137445449829,-0.7064646482467651,1.4534273147583008,0.33748310804367065,1.6466050148010254,-1.5638359785079956,1.9982050657272339
56,492294,492296,0.0009418085101060569,-0.008163614198565483,0.9438120722770691,-2.05218505859375,-2.318666696548462,-0.23319895565509796,-0.7004649639129639,1.4534273147583008,0.3254837095737457,1.6644326448440552,-1.6393829584121704,1.9946268796920776
57,492304,492306,0.015474284067749977,-0.011233525350689888,0.9221451878547668,-1.1654634475708008,-3.349888563156128,-0.284686803817749,-0.7184640765190125,1.459426999092102,0.32848358154296875,1.7265379428863525,-1.6985195875167847,1.9958125352859497
58,492314,492316,0.014528688043355942,-0.015135521069169044,0.9186806082725525,1.4140419960021973,-2.447628974914551,-0.013731533661484718,-0.7109644412994385,1.4399279356002808,0.33898305892944336,1.797042727470398,-1.7229344844818115,1.996765375137329
59,492324,492326,0.026895754039287567,0.007340285927057266,0.9151448607444763,5.328828811645508,2.0643503665924072,0.0268916804343462,-0.7064646482467651,1.4474276304244995,0.3314834237098694,1.897144079208374,-1.6922574043273926,1.9884250164031982
60,492334,492336,0.0027416422963142395,0.0017348064575344324,0.9891862273216248,6.491578578948975,5.918209075927734,0.0005892381886951625,-0.6959651708602905,1.4489275217056274,0.32998350262641907,1.8538529872894287,-1.6844544410705566,2.0056278705596924
61,492344,492346,-0.05697375163435936,-0.06497279554605484,0.9860829710960388,7.861999988555908,10.190871238708496,0.16913428902626038,-0.6854656934738159,1.4624269008636475,0.3314834237098694,1.9436999559402466,-1.716118335723877,2.0013341903686523
62,492354,492356,-0.07288887351751328,-0.05649938806891441,1.0224907398223877,8.755182266235352,13.899908065795898,0.11148002743721008,-0.7094644904136658,1.459426999092102,0.3224838674068451,1.8776122331619263,-1.8606750965118408,2.0418896675109863
63,492364,492366,-0.04470757395029068,-0.03822925686836243,1.0097137689590454,10.107965469360352,16.00812530517578,0.021225282922387123,-0.7124643921852112,1.459426999092102,0.32848358154296875,1.692762851715088,-1.6964516639709473,2.021552801132202
64,492374,492376,-0.05839686468243599,-0.025442764163017273,0.9434253573417664,11.07319164276123,16.961881637573242,-0.2951393127441406,-0.7064646482467651,1.4654266834259033,0.3314834237098694,1.4234851598739624,-1.5216768980026245,2.0191946029663086
65,492384,492386,-0.04637852683663368,0.044169820845127106,0.9242931604385376,12.151535987854004,17.536684036254883,-0.19976796209812164,-0.7019649147987366,1.4519274234771729,0.32998350262641907,1.2191048860549927,-1.3990081548690796,2.020128011703491
66,492394,492396,0.01672240160405636,0.10462597757577896,0.972466766834259,14.408684730529785,16.03202247619629,-0.2886106073856354,-0.7169641256332397,1.4339282512664795,0.32698363065719604,0.9488620758056641,-1.2456365823745728,2.032886505126953
67,492404,492406,0.02711237221956253,0.09102462232112885,1.0206358432769775,12.51949691772461,11.623313903808594,-0.3122822344303131,-0.7034648060798645,1.4534273147583008,0.3254837095737457,0.9241061806678772,-1.082898736000061,1.9954439401626587
68,492414,492416,0.043947573751211166,-0.00012228696141391993,1.0222086906433105,11.281903266906738,7.777678966522217,-0.501612663269043,-0.7184640765190125,1.4564270973205566,0.3164841830730438,1.1459197998046875,-1.150435447692871,1.9594169855117798
69,492424,492426,0.0720691904425621,-0.07665938138961792,1.0215171575546265,9.206801414489746,3.3572945594787598,-0.3507954776287079,-0.7154642343521118,1.4474276304244995,0.32848358154296875,1.1268291473388672,-0.9522812366485596,1.914596438407898
70,492434,492436,0.02078263834118843,-0.06286820024251938,1.054390549659729,6.829991340637207,1.6550832986831665,0.2015572190284729,-0.7049647569656372,1.4489275217056274,0.32998350262641907,1.0998036861419678,-1.074338674545288,1.95477294921875
71,492444,492446,-0.032645147293806076,-0.025264104828238487,1.048824667930603,6.334880828857422,4.6209821701049805,0.5878218412399292,-0.7124643921852112,1.4534273147583008,0.3224838674068451,1.143312692642212,-0.8599366545677185,1.908334493637085
72,492454,492456,-0.06724802404642105,0.057814326137304306,1.0318483114242554,7.163679122924805,11.523588180541992,0.395001083612442,-0.7124643921852112,1.444427728652954,0.3254837095737457,0.9804264307022095,-0.8661389946937561,1.9518479108810425
73,492464,492466,-0.04592512547969818,0.10666821151971817,1.0070308446884155,8.670489311218262,19.096717834472656,-0.002892453223466873,-0.7154642343521118,1.4414279460906982,0.3224838674068451,0.7863638401031494,-0.7079883217811584,1.9547967910766602
74,492474,492476,0.01354670524597168,0.021746084094047546,0.9940667748451233,9.62088394165039,25.826824188232422,-0.3094548285007477,-0.7289635539054871,1.4549272060394287,0.3209839463233948,0.682054340839386,-0.6002630591392517,1.9352518320083618
75,492484,492486,0.01776970364153385,0.009615430608391762,1.0090748071670532,11.310873985290527,26.600162506103516,-0.3503703773021698,-0.7169641256332397,1.4489275217056274,0.33598318696022034,0.4261735677719116,-0.4050421118736267,1.91243577003479
76,492494,492496,0.008227046579122543,-0.0028565472457557917,0.9898209571838379,12.807336807250977,23.468557357788086,0.09387211501598358,-0.7274636030197144,1.4414279460906982,0.3134843111038208,0.30692318081855774,-0.540684700012207,1.9219588041305542
77,492504,492506,5.6093140301527455e-05,-0.03948553651571274,0.947327733039856,11.212574005126953,18.08078956604004,0.5620363354682922,-0.7334632873535156,1.4384280443191528,0.33448326587677,0.02890196442604065,-0.4450749456882477,1.929000735282898
78,492514,492516,0.004215249791741371,-0.10567662864923477,0.9077032804489136,10.652385711669922,12.428644180297852,0.3225668668746948,-0.7274636030197144,1.4414279460906982,0.33448326587677,-0.22677451372146606,-0.22170677781105042,1.9267432689666748
79,492524,492526,0.05201965570449829,-0.041171859949827194,0.9651765823364258,11.228229522705078,8.449358940124512,-0.10518520325422287,-0.7094644904136658,1.4564270973205566,0.3224838674068451,-0.3942005932331085,-0.14973509311676025,1.9381296634674072
80,492534,492536,-0.0280547384172678,0.0038371416740119457,0.9909219145774841,9.266267776489258,5.5902276039123535,-0.4746205806732178,-0.722963809967041,1.4279285669326782,0.3119843900203705,-0.35541966557502747,-0.013862966559827328,1.9172288179397583
81,492544,492546,-0.042908404022455215,0.008736860938370228,1.012241244316101,8.868311882019043,4.6756181716918945,-0.7927171587944031,-0.730463445186615,1.435428261756897,0.3254837095737457,-0.4940842390060425,-0.03477035462856293,1.9337788820266724
82,492554,492556,-0.004377046134322882,0.018916068598628044,0.9948597550392151,7.791363716125488,5.763342380523682,-0.577642023563385,-0.730463445186615,1.4504274129867554,0.31948402523994446,-0.4882301688194275,0.1497386395931244,1.9153143167495728
83,492564,492566,0.0420522503554821,-0.06801291555166245,0.9988018870353699,7.302415370941162,7.230220794677734,-0.25371289253234863,-0.7244637608528137,1.4414279460906982,0.3224838674068451,-0.3649666905403137,0.04103360325098038,1.9014348983764648
84,492574,492576,-0.0059819091111421585,-0.01843886263668537,0.9920677542686462,6.970088958740234,8.339899063110352,0.25373998284339905,-0.736463189125061,1.435428261756897,0.31948402523994446,-0.5556433200836182,0.00295952707529068,1.912372350692749
85,492584,492586,-0.015104236081242561,0.005794543772935867,0.9941967129707336,6.386687278747559,10.623011589050293,0.26823845505714417,-0.7244637608528137,1.4534273147583008,0.3134843111038208,-0.5566590428352356,0.17497208714485168,1.9067473411560059
86,492594,492596,-0.014143858104944229,0.029056742787361145,1.0144500732421875,8.707855224609375,13.329628944396973,0.11143160611391068,-0.7319633960723877,1.436928153038025,0.31798410415649414,-0.7426890134811401,0.2809007167816162,1.9140974283218384
87,492604,492606,0.012203965336084366,0.06732629239559174,0.9636832475662231,12.942058563232422,14.385289192199707,0.47512030601501465,-0.7469626665115356,1.4489275217056274,0.31798410415649414,-0.8829270601272583,0.4959530234336853,1.9180254936218262
88,492614,492616,0.03333275392651558,0.051666367799043655,0.9729738235473633,12.824464797973633,13.745309829711914,0.24112440645694733,-0.7334632873535156,1.444427728652954,0.3164841830730438,-1.0215351581573486,0.74172443151474,1.9308644533157349
89,492624,492626,0.01478689443320036,0.008361336775124073,1.0279293060302734,10.647021293640137,12.780275344848633,-0.2840259075164795,-0.7319633960723877,1.4399279356002808,0.3209839463233948,-1.1523363590240479,0.6223878860473633,1.9218930006027222
90,492634,492636,-0.020136382430791855,-0.054162316024303436,1.0315406322479248,6.7559356689453125,10.17398452758789,-0.25717592239379883,-0.7349632382392883,1.4429278373718262,0.31798410415649414,-1.1911746263504028,0.4749254286289215,1.899100661277771
91,492644,492646,-0.008474995382130146,-0.03787766769528389,0.9780584573745728,3.7586114406585693,6.834715843200684,0.4275256395339966,-0.7349632382392883,1.4399279356002808,0.3209839463233948,-1.4692885875701904,0.7054811120033264,1.9112266302108765
92,492654,492656,0.008769875392317772,-0.025630788877606392,0.9748383164405823,2.696211814880371,3.5441789627075195,0.33314061164855957,-0.7484625577926636,1.4324283599853516,0.3164841830730438,-1.3967130184173584,0.8119636178016663,1.925281047821045
93,492664,492666,-0.006010610144585371,0.007228911854326725,1.0132044553756714,5.181869983673096,1.0598801374435425,-0.10188116133213043,-0.7454627156257629,1.4234287738800049,0.3224838674068451,-1.495322823524475,0.7793275713920593,1.9189987182617188
94,492674,492676,-0.05499046668410301,0.08584816008806229,0.9787105917930603,6.779242515563965,-0.254412442445755,-0.05679422616958618,-0.7439627647399902,1.436928153038025,0.3239837884902954,-1.5587397813796997,0.7808727622032166,1.9094038009643555
95,492684,492686,-0.013238436542451382,0.1031981110572815,0.9758070707321167,7.735296249389648,1.391281247138977,-0.022635525092482567,-0.7619618773460388,1.4429278373718262,0.3209839463233948,-1.6028767824172974,0.8082084655761719,1.9014782905578613
96,492694,492696,-0.010512770153582096,0.021175401285290718,1.0228930711746216,7.08219051361084,2.3618435859680176,-0.05512496829032898,-0.7409629225730896,1.4339282512664795,0.31798410415649414,-1.66633939743042,0.9871955513954163,1.91815185546875
97,492704,492706,-0.005435646511614323,-0.02548905648291111,1.0369700193405151,6.344465255737305,1.371648907661438,0.36198312044143677,-0.7454627156257629,1.4414279460906982,0.3224838674068451,-1.7279677391052246,1.145626187324524,1.9336339235305786
98,492714,492716,0.0017626790795475245,-0.11146093159914017,0.9738242626190186,4.503238201141357,0.6320847272872925,0.24489258229732513,-0.737963080406189,1.445927619934082,0.32698363065719604,-1.7814422845840454,1.2052552700042725,1.9322012662887573
99,492724,492726,0.014585794880986214,-0.13376690447330475,0.9565607905387878,6.876231670379639,-1.8668997287750244,0.6899322271347046,-0.737963080406189,1.445927619934082,0.32698363065719604,-1.8039973974227905,1.2608003616333008,1.9349913597106934
100,492734,492736,0.016949519515037537,-0.0335204154253006,0.9898622632026672,4.019654273986816,-4.62559175491333,0.8451358675956726,-0.730463445186615,1.4294284582138062,0.32848358154296875,-1.7116669416427612,1.31435227394104,1.9460505247116089
101,492744,492746,0.018858928233385086,-0.0076616862788796425,0.9979833960533142,1.723353385925293,-6.272474765777588,0.906737744808197,-0.730463445186615,1.4324283599853516,0.3164841830730438,-1.651813268661499,1.3323591947555542,1.9491642713546753
102,492754,492756,-0.021383492276072502,0.02402614615857601,1.041473627090454,-1.9829893112182617,-8.181347846984863,0.2637312412261963,-0.7394630312919617,1.4294284582138062,0.31948402523994446,-1.5568151473999023,1.3743081092834473,1.9667315483093262
103,492764,492766,-0.0118411835283041,-0.03911072015762329,1.0800070762634277,-3.39931058883667,-6.937732219696045,-0.24736952781677246,-0.7334632873535156,1.4474276304244995,0.3134843111038208,-1.4522730112075806,1.4378832578659058,1.9931877851486206
104,492774,492776,-0.020482169464230537,-0.09379544109106064,1.1013253927230835,-3.9235379695892334,-6.339099884033203,-0.34547895193099976,-0.7424628734588623,1.4414279460906982,0.3224838674068451,-1.3708105087280273,1.4049034118652344,1.9904643297195435
105,492784,492786,-0.047402676194906235,-0.08331840485334396,1.0571303367614746,-3.88012433052063,-4.345220565795898,-0.033286482095718384,-0.737963080406189,1.4429278373718262,0.3239837884902954,-1.3061021566390991,1.290059208869934,1.9645981788635254
106,492794,492796,-0.009710568934679031,-0.010454694740474224,1.0176708698272705,-3.69482159614563,-2.1106040477752686,-0.03354999050498009,-0.7439627647399902,1.4159291982650757,0.3149842321872711,-1.2683340311050415,1.1802126169204712,1.9420353174209595
107,492804,492806,-0.0014810319989919662,0.010589146986603737,1.0305767059326172,-2.339712619781494,0.5465330481529236,-0.07134853303432465,-0.7484625577926636,1.4324283599853516,0.3224838674068451,-1.2683990001678467,1.1578367948532104,1.9426027536392212
108,492814,492816,-0.03996213898062706,0.06885648518800735,1.0612784624099731,-0.5141444802284241,1.168475866317749,-0.19397738575935364,-0.7319633960723877,1.436928153038025,0.32998350262641907,-1.2918177843093872,1.227260708808899,1.9653288125991821
109,492824,492826,-0.021142950281500816,0.007264536339789629,1.0677448511123657,-0.11853835731744766,0.4170099198818207,-0.6973108053207397,-0.7334632873535156,1.4384280443191528,0.3314834237098694,-1.3199782371520996,1.3098257780075073,1.9863088130950928
110,492834,492836,-0.017733072862029076,-0.03261423483490944,1.0012309551239014,1.3137766122817993,-1.488650918006897,-0.6366992592811584,-0.7469626665115356,1.445927619934082,0.32998350262641907,-1.329532265663147,1.32239830493927,1.9844260215759277
111,492844,492846,-0.011935672722756863,0.01099079567939043,0.9629971981048584,-1.1175518035888672,-3.5162243843078613,-0.3454117774963379,-0.736463189125061,1.4384280443191528,0.32848358154296875,-1.3044077157974243,1.2569880485534668,1.960836410522461
112,492854,492856,0.03114495240151882,-0.005060041323304176,0.928183913230896,-1.0467792749404907,-4.6273651123046875,-0.6954550743103027,-0.737963080406189,1.4279285669326782,0.31798410415649414,-1.2519069910049438,1.2535048723220825,1.962624192237854
113,492864,492866,0.024358538910746574,0.024063831195235252,0.9747602939605713,-5.714137077331543,-7.101517200469971,-0.6176100373268127,-0.7289635539054871,1.4249287843704224,0.3209839463233948,-1.1679261922836304,1.2153538465499878,1.9574934244155884
114,492874,492876,0.040679771453142166,0.017042258754372597,1.0335098505020142,-8.494370460510254,-7.503386497497559,-1.0465643405914307,-0.7409629225730896,1.4399279356002808,0.3149842321872711,-1.3437248468399048,1.123969316482544,1.8896541595458984
115,492884,492886,0.08752001821994781,-0.058878518640995026,1.0654634237289429,-9.143611907958984,-7.029860496520996,-0.9613344669342041,-0.7424628734588623,1.4414279460906982,0.3224838674068451,-1.3604062795639038,1.0660324096679688,1.867282509803772
116,492894,492896,0.0020305095240473747,0.017325635999441147,1.040690302848816,-7.328605651855469,-8.407864570617676,-0.3118091821670532,-0.7454627156257629,1.4534273147583008,0.31948402523994446,-1.2225302457809448,1.0741832256317139,1.8972960710525513
117,492904,492906,-0.012867318466305733,0.0030268928967416286,1.0065897703170776,-4.003098487854004,-10.612854957580566,-0.3965229392051697,-0.7334632873535156,1.4414279460906982,0.3044847846031189,-1.1260631084442139,0.9704587459564209,1.8881186246871948
118,492914,492916,-0.011900106444954872,-0.011974331922829151,1.0087629556655884,-3.0979721546173096,-11.796510696411133,-0.5737500786781311,-0.7334632873535156,1.4414279460906982,0.3044847846031189,-1.0011931657791138,0.9035696387290955,1.8821187019348145
119,492924,492926,-0.03398929163813591,0.012844708748161793,1.0627905130386353,-3.229210138320923,-12.160707473754883,-0.8864584565162659,-0.7334632873535156,1.4414279460906982,0.3044847846031189,-0.8585525155067444,0.8507567644119263,1.875197410583496
120,492934,492936,-0.0055421325378119946,-0.012715022079646587,1.006608486175537,-3.076275110244751,-11.378500938415527,-0.7163125872612,-0.7334632873535156,1.4414279460906982,0.3044847846031189,-0.7882713079452515,0.8032386302947998,1.8515154123306274
121,492944,492946,0.007286439649760723,-0.0053861369378864765,1.0139590501785278,-2.0650339126586914,-10.18511962890625,-0.3489072024822235,-0.736463189125061,1.4474276304244995,0.32848358154296875,-0.5878919959068298,0.8307583332061768,1.873388409614563
122,492954,492956,-0.04850522801280022,-0.0648142546415329,1.0312647819519043,-3.493385076522827,-8.511750221252441,-0.5976149439811707,-0.7409629225730896,1.4339282512664795,0.3209839463233948,-0.5572691559791565,0.7832338213920593,1.8489325046539307
123,492964,492966,-0.02298630028963089,-0.017892397940158844,1.0082018375396729,-4.053647518157959,-6.201091766357422,-0.7556363344192505,-0.736463189125061,1.4264286756515503,0.33448326587677,-0.4137137532234192,0.7191081643104553,1.8441969156265259
124,492974,492976,-0.011476763524115086,-0.013648062013089657,0.9951695799827576,-6.45989465713501,-5.389377593994141,-0.3219083547592163,-0.7289635539054871,1.436928153038025,0.3119843900203705,-0.3690587282180786,0.7106035947799683,1.838663935661316
125,492984,492986,-0.03923049196600914,0.021080786362290382,1.0306971073150635,-6.140324115753174,-4.931572437286377,-0.11804625391960144,-0.7394630312919617,1.4234287738800049,0.3254837095737457,-0.26281651854515076,0.607527494430542,1.8361923694610596
126,492994,492996,-0.0479954294860363,0.05493323504924774,1.0280488729476929,-5.351061820983887,-4.629211902618408,-0.1810256689786911,-0.7214639186859131,1.4324283599853516,0.3164841830730438,-0.3069469928741455,0.7172636985778809,1.8487367630004883
127,493004,493006,0.006603046786040068,-0.0011560703860595822,0.9855996966362,-4.321234703063965,-5.285991191864014,-0.05174475908279419,-0.722963809967041,1.436928153038025,0.3239837884902954,-0.20777367055416107,0.6226662397384644,1.849556803703308
128,493014,493016,0.0018102193716913462,0.027875296771526337,1.0199368000030518,-2.68353271484375,-5.172049045562744,-0.05659349262714386,-0.7214639186859131,1.4264286756515503,0.31948402523994446,-0.38174915313720703,0.8294580578804016,1.8501253128051758
129,493024,493026,-0.009044579230248928,0.04410990700125694,1.026365876197815,-3.430100202560425,-5.112729072570801,-0.07840583473443985,-0.7244637608528137,1.4264286756515503,0.31948402523994446,-0.333915650844574,0.6069620847702026,1.8226029872894287
130,493034,493036,0.0010086530819535255,0.016564516350626945,0.9978774189949036,-6.26925802230835,-6.9236955642700195,0.14585146307945251,-0.7214639186859131,1.4414279460906982,0.3164841830730438,-0.20188689231872559,0.5143369436264038,1.8246471881866455
131,493044,493046,0.02248164638876915,-0.017661457881331444,0.9684329032897949,-8.589513778686523,-8.84648323059082,0.03441174328327179,-0.736463189125061,1.4234287738800049,0.3164841830730438,-0.11710553616285324,0.7314715385437012,1.8569763898849487
132,493054,493056,0.001737047336064279,0.0017568914918228984,0.9874464869499207,-8.58924674987793,-9.570542335510254,-0.27260008454322815,-0.736463189125061,1.4414279460906982,0.3164841830730438,-0.07810497283935547,0.5564570426940918,1.840583086013794
133,493064,493066,-0.015536671504378319,0.009385463781654835,0.9978254437446594,-9.414137840270996,-9.327546119689941,-0.3485501706600189,-0.7289635539054871,1.4339282512664795,0.31798410415649414,0.037529464811086655,0.3781985342502594,1.8318768739700317
134,493074,493076,0.005449399817734957,-0.0033101211301982403,0.9768499732017517,-10.484122276306152,-8.928529739379883,0.11564940959215164,-0.7214639186859131,1.4384280443191528,0.3164841830730438,0.21682944893836975,0.19274891912937164,1.8323473930358887
135,493084,493086,0.010420193895697594,0.007570943795144558,0.9943435788154602,-10.788866996765137,-7.827068328857422,0.1927175521850586,-0.7199639678001404,1.4489275217056274,0.3329833447933197,0.3780522346496582,0.07328476756811142,1.840545654296875
136,493094,493096,0.004083604086190462,0.0029078687075525522,0.9939888715744019,-9.662342071533203,-7.378633975982666,0.3794962465763092,-0.7244637608528137,1.4384280443191528,0.32848358154296875,0.5220747590065002,-0.11042200028896332,1.8464809656143188
137,493104,493106,-0.08504674583673477,0.014517049305140972,0.9532958269119263,-5.803424835205078,-5.54444694519043,0.7159736156463623,-0.7214639186859131,1.4294284582138062,0.3224838674068451,0.5746923685073853,-0.046080902218818665,1.8526886701583862
138,493114,493116,-0.0319901742041111,-0.02099560759961605,0.9595267176628113,-3.4846510887145996,-0.357339471578598,0.7160086631774902,-0.7274636030197144,1.444427728652954,0.3224838674068451,0.6493344306945801,-0.08444787561893463,1.8611252307891846
139,493124,493126,-0.023397522047162056,0.11062593758106232,0.9598811864852905,1.0214110612869263,2.4859957695007324,1.2778593301773071,-0.7199639678001404,1.436928153038025,0.32698363065719604,0.652077317237854,-0.20919111371040344,1.868017554283142
140,493134,493136,0.00286542484536767,0.10176236182451248,0.9956102967262268,1.3443093299865723,6.167242050170898,0.6721078157424927,-0.7139642834663391,1.4429278373718262,0.3209839463233948,0.6084631681442261,-0.14385706186294556,1.877915382385254
141,493144,493146,-0.0050102462992072105,-0.012912601232528687,0.9908208250999451,0.8181746602058411,7.299801826477051,0.008268953301012516,-0.7199639678001404,1.4399279356002808,0.3239837884902954,0.5204064846038818,-0.006626608781516552,1.8796122074127197
142,493154,493156,0.01862107217311859,-0.09102588146924973,0.9669109582901001,-1.1533817052841187,5.895663738250732,0.12187718600034714,-0.722963809967041,1.4399279356002808,0.3209839463233948,0.426405668258667,-0.10698845982551575,1.8849657773971558
143,493164,493166,0.02034963294863701,-0.03313230723142624,0.9576930403709412,-2.1340525150299072,1.9441964626312256,0.29555487632751465,-0.7259637117385864,1.4309284687042236,0.3239837884902954,0.372103214263916,-0.15002180635929108,1.8888803720474243
144,493174,493176,-0.0012324483832344413,0.0033841112162917852,0.981977105140686,-5.106213092803955,-0.7829365730285645,0.568406879901886,-0.7214639186859131,1.4324283599853516,0.3224838674068451,0.3740150034427643,-0.15208694338798523,1.8925435543060303
145,493184,493186,-0.016826987266540527,0.03766737878322601,1.0095444917678833,-4.863111972808838,-2.830268144607544,0.5567755699157715,-0.730463445186615,1.4324283599853516,0.32848358154296875,0.41291728615760803,-0.25248414278030396,1.9016611576080322
146,493194,493196,-0.00591601338237524,-0.014189458452165127,0.9725093841552734,-5.997774600982666,-5.6886982917785645,0.41218438744544983,-0.7259637117385864,1.4429278373718262,0.32998350262641907,0.416694313287735,-0.0799153670668602,1.8908073902130127
147,493204,493206,0.006665256805717945,-0.004840576555579901,0.9906380772590637,-4.49527645111084,-5.4010701179504395,0.09743893891572952,-0.7244637608528137,1.444427728652954,0.3254837095737457,0.5155268311500549,-0.13152609765529633,1.8933110237121582
148,493214,493216,-0.0007823185878805816,-0.0023597392719238997,0.9883682727813721,-3.8667988777160645,-4.280277729034424,0.517983615398407,-0.7259637117385864,1.4549272060394287,0.32698363065719604,0.46400412917137146,-0.16899247467517853,1.894426703453064
149,493224,493226,-0.017289191484451294,0.009534426033496857,1.0063471794128418,-4.88891077041626,-1.5220775604248047,0.28534674644470215,-0.7259637117385864,1.46092689037323,0.31798410415649414,0.5311817526817322,-0.2745741009712219,1.9040335416793823
150,493234,493236,-0.013901342637836933,-0.01826704666018486,0.9904550313949585,-4.617303848266602,1.3977383375167847,0.3028853237628937,-0.7274636030197144,1.4564270973205566,0.33448326587677,0.620919942855835,-0.38234299421310425,1.9113054275512695
151,493244,493246,-0.0764458179473877,0.021524515002965927,0.9334689974784851,-5.885684490203857,1.983816385269165,0.3588488698005676,-0.7289635539054871,1.445927619934082,0.33898305892944336,0.5330057740211487,-0.3524068593978882,1.908534288406372
152,493254,493256,-0.06886474788188934,0.07392614334821701,0.9144394993782043,-4.556140899658203,3.364819049835205,0.6106933951377869,-0.7094644904136658,1.4504274129867554,0.3314834237098694,0.5073044896125793,-0.4004823565483093,1.9112436771392822
153,493264,493266,-0.006780508905649185,0.07927746325731277,0.9397936463356018,-4.508106231689453,3.5795867443084717,0.46590858697891235,-0.7334632873535156,1.4624269008636475,0.32848358154296875,0.46527257561683655,-0.5068925619125366,1.9238364696502686
154,493274,493276,0.010084953159093857,0.06863314658403397,1.0093389749526978,-4.75747537612915,3.765141248703003,0.21170732378959656,-0.7274636030197144,1.459426999092102,0.32848358154296875,0.4188007414340973,-0.5370352268218994,1.927703857421875
155,493284,493286,0.017452821135520935,-0.00861441157758236,1.0220236778259277,-2.79945707321167,2.9299826622009277,0.047407396137714386,-0.7409629225730896,1.4519274234771729,0.32698363065719604,0.3770253360271454,-0.6276453137397766,1.9352270364761353
156,493294,493296,0.023441322147846222,-0.0319637730717659,0.9909769296646118,-0.49863195419311523,1.5361398458480835,0.26524806022644043,-0.730463445186615,1.4684265851974487,0.3314834237098694,0.35057908296585083,-0.6847614049911499,1.9383758306503296
157,493304,493306,0.020942972972989082,-0.030980359762907028,1.035707950592041,-0.24593614041805267,-1.4909785985946655,0.7573922872543335,-0.7259637117385864,1.4549272060394287,0.3239837884902954,0.35936251282691956,-0.7109569907188416,1.9426382780075073
158,493314,493316,0.0016816100105643272,0.00530903460457921,1.0163452625274658,2.921262264251709,-3.377166986465454,0.7843865156173706,-0.7139642834663391,1.4639267921447754,0.31798410415649414,0.4012792408466339,-0.7137371897697449,1.947177529335022
159,493324,493326,-0.009232043288648129,0.015885647386312485,1.0248725414276123,3.2538628578186035,-2.0666897296905518,0.3171898424625397,-0.7259637117385864,1.4639267921447754,0.32998350262641907,0.452463835477829,-0.6853001713752747,1.9534395933151245
160,493334,493336,-0.028181513771414757,-0.02171454392373562,1.0538673400878906,2.829089641571045,-0.31829023361206055,0.08619077503681183,-0.722963809967041,1.4579271078109741,0.3149842321872711,0.4813646972179413,-0.6488279104232788,1.9568653106689453
161,493344,493346,0.009844296611845493,-0.0040923915803432465,1.032665491104126,2.2135305404663086,1.679951548576355,0.09400471299886703,-0.7214639186859131,1.4624269008636475,0.3314834237098694,0.47802484035491943,-0.6214646100997925,1.9586341381072998
162,493354,493356,-0.034893203526735306,-0.05748918652534485,1.0456757545471191,-0.6749455332756042,3.134035110473633,-0.1954725980758667,-0.7169641256332397,1.46092689037323,0.3239837884902954,0.44883993268013,-0.6170660853385925,1.9652551412582397
163,493364,493366,-0.006520578637719154,-0.008776858448982239,1.0334705114364624,-0.5139049291610718,4.13722562789917,0.314791202545166,-0.7289635539054871,1.4579271078109741,0.32698363065719604,0.3976922929286957,-0.6365687251091003,1.9684324264526367
164,493374,493376,-0.019545672461390495,-0.02127908356487751,1.005486011505127,-1.0451667308807373,4.0232977867126465,0.13253450393676758,-0.7274636030197144,1.4504274129867554,0.31948402523994446,0.3340061902999878,-0.659052848815918,1.9759238958358765
165,493384,493386,-0.050379157066345215,-0.0167357437312603,1.0137348175048828,0.1150798350572586,3.372224807739258,0.03000139631330967,-0.7289635539054871,1.4489275217056274,0.3239837884902954,0.3454532027244568,-0.675620973110199,1.9712945222854614
166,493394,493396,-0.08912691473960876,-0.02502615563571453,1.0473543405532837,1.5341300964355469,2.538105010986328,-0.10394544899463654,-0.7109644412994385,1.436928153038025,0.3239837884902954,0.2976004183292389,-0.6701117157936096,1.9724626541137695
167,493404,493406,-0.10482479631900787,-0.04434453696012497,1.0499954223632812,2.8228466510772705,-0.7078924775123596,-0.061004769057035446,-0.7154642343521118,1.4534273147583008,0.32848358154296875,0.2785934805870056,-0.6477259993553162,1.9683125019073486
168,493414,493416,-0.07407216727733612,-0.04029237851500511,0.9906037449836731,5.76685905456543,-1.395424723625183,0.13804133236408234,-0.7334632873535156,1.444427728652954,0.3224838674068451,0.29141247272491455,-0.594055712223053,1.9627794027328491
169,493424,493426,-0.01960696466267109,-0.002711019478738308,1.0167388916015625,5.309578895568848,0.08237595856189728,0.16003762185573578,-0.722963809967041,1.4549272060394287,0.3119843900203705,0.3760129511356354,-0.5153058767318726,1.9521121978759766
170,493434,493436,-0.04686657711863518,0.10645164549350739,1.022420883178711,5.044809341430664,-0.07275336235761642,0.3284447193145752,-0.7319633960723877,1.4519274234771729,0.3119843900203705,0.36813968420028687,-0.4409639239311218,1.9510372877120972
171,493444,493446,-0.06019309535622597,0.1199336051940918,1.0632976293563843,3.1875159740448,2.67612361907959,-0.14121530950069427,-0.7154642343521118,1.444427728652954,0.3254837095737457,0.20995856821537018,-0.38063284754753113,1.9746313095092773
172,493454,493456,-0.01437488291412592,0.017982713878154755,1.060591459274292,1.1444834470748901,4.059308052062988,-0.39447981119155884,-0.7109644412994385,1.445927619934082,0.31798410415649414,0.23819279670715332,-0.35098451375961304,1.9674495458602905
173,493464,493466,-0.005434790626168251,-0.016735967248678207,1.003952980041504,-2.4740376472473145,2.6050236225128174,-0.2952967584133148,-0.7259637117385864,1.4429278373718262,0.3149842321872711,0.1863430291414261,-0.36678171157836914,1.9679607152938843
174,493474,493476,-0.02541505917906761,0.041363444179296494,0.9643300175666809,-2.2165257930755615,2.265221118927002,-0.13465169072151184,-0.7184640765190125,1.4504274129867554,0.3314834237098694,0.21866610646247864,-0.40670448541641235,1.9592949151992798
175,493484,493486,0.01630249246954918,0.02594919502735138,0.9168933033943176,0.01262937393039465,1.0728079080581665,-0.2644250690937042,-0.7289635539054871,1.436928153038025,0.3239837884902954,0.18811263144016266,-0.43451645970344543,1.9593459367752075
176,493494,493496,0.01979169063270092,0.03018168918788433,0.9608744978904724,0.19048304855823517,-0.21249687671661377,-0.6478270888328552,-0.7289635539054871,1.4249287843704224,0.32998350262641907,0.17445477843284607,-0.4380931258201599,1.9562739133834839
177,493504,493506,0.027276288717985153,0.026979409158229828,1.029073715209961,1.5624645948410034,1.0331491231918335,-1.1153403520584106,-0.7199639678001404,1.4399279356002808,0.3239837884902954,0.16617141664028168,-0.42882388830184937,1.9504626989364624
178,493514,493516,0.07649806141853333,-0.045099977403879166,1.0644866228103638,1.158827543258667,1.0031274557113647,-1.2405915260314941,-0.7109644412994385,1.4399279356002808,0.3209839463233948,0.15044356882572174,-0.4124163091182709,1.9405078887939453
179,493524,493526,0.06600289791822433,-0.09937667101621628,1.0628290176391602,3.422473192214966,0.023197954520583153,-0.9173011779785156,-0.730463445186615,1.4414279460906982,0.3314834237098694,0.13782921433448792,-0.38006338477134705,1.925802230834961
180,493534,493536,-0.010449416004121304,-0.024977190420031548,0.9859331846237183,5.9248151779174805,-1.5201146602630615,-0.16395233571529388,-0.7214639186859131,1.4324283599853516,0.31948402523994446,0.14101141691207886,-0.3122153878211975,1.912827491760254
181,493544,493546,-0.020642081275582314,-0.044976018369197845,0.9571126699447632,5.853686332702637,-1.7474443912506104,-0.10477827489376068,-0.7079645991325378,1.4339282512664795,0.30898454785346985,0.2306041717529297,-0.226307213306427,1.9001636505126953
182,493554,493556,-0.022994661703705788,0.029906950891017914,0.9856430292129517,4.495691299438477,-0.058099985122680664,-0.4044942855834961,-0.7199639678001404,1.4339282512664795,0.3239837884902954,0.2407512217760086,-0.15295527875423431,1.8987412452697754
183,493564,493566,-0.010898523032665253,0.022967178374528885,1.0000399351119995,0.08611132204532623,1.7626776695251465,-0.15399004518985748,-0.7244637608528137,1.4264286756515503,0.3254837095737457,0.22724179923534393,-0.11705935001373291,1.8976449966430664
184,493574,493576,-0.0194357018917799,-0.00325843901373446,0.9827664494514465,-1.4015575647354126,3.325282573699951,-0.24512745440006256,-0.7214639186859131,1.4384280443191528,0.3254837095737457,0.11047922074794769,-0.1283196657896042,1.9054913520812988
185,493584,493586,0.01707710325717926,-0.03223207965493202,0.948196530342102,-3.1713058948516846,4.325618267059326,-0.7906839847564697,-0.7184640765190125,1.4474276304244995,0.3164841830730438,0.12217412143945694,-0.17048178613185883,1.9008640050888062
186,493594,493596,0.015385894104838371,-0.008995071053504944,0.978580117225647,-4.510058879852295,3.467681884765625,-0.8329535722732544,-0.7169641256332397,1.4399279356002808,0.32698363065719604,0.1288890838623047,-0.23239052295684814,1.8921712636947632
187,493604,493606,0.0019026451045647264,-0.01625520922243595,0.9761809706687927,-3.2325539588928223,3.194614887237549,-1.2425320148468018,-0.7349632382392883,1.4429278373718262,0.3209839463233948,0.06824952363967896,-0.2967265546321869,1.8875128030776978
188,493614,493616,-0.020150236785411835,-0.013080529868602753,0.9712080359458923,-1.4024738073349,1.7927950620651245,-1.3328214883804321,-0.7259637117385864,1.4489275217056274,0.32698363065719604,0.021890534088015556,-0.34300291538238525,1.8776580095291138
189,493624,493626,0.021750599145889282,-0.048935409635305405,0.9419159889221191,0.9952175617218018,0.5178976058959961,-1.0929245948791504,-0.7109644412994385,1.4489275217056274,0.3329833447933197,-0.0005256614531390369,-0.35310935974121094,1.8649482727050781
190,493634,493636,0.01055851485580206,-0.009699520654976368,0.9781721234321594,3.2521908283233643,-0.24878638982772827,-1.5684372186660767,-0.7214639186859131,1.4504274129867554,0.31948402523994446,0.060934197157621384,-0.3242998421192169,1.8478928804397583
191,493644,493646,0.038377292454242706,0.0018959671724587679,1.0447636842727661,4.809635639190674,0.9390937685966492,-2.041748523712158,-0.7274636030197144,1.4504274129867554,0.31948402523994446,0.04974503070116043,-0.265337198972702,1.8317779302597046
192,493654,493656,0.01041664183139801,-0.08842572569847107,1.0320920944213867,4.980653762817383,1.1987290382385254,-2.546332836151123,-0.730463445186615,1.435428261756897,0.3134843111038208,0.026472829282283783,-0.1896812617778778,1.8123443126678467
193,493664,493666,-0.01021457277238369,-0.13725650310516357,1.00564706325531,3.591721773147583,1.4178149700164795,-2.496105432510376,-0.7469626665115356,1.4519274234771729,0.31798410415649414,-0.0025836799759417772,-0.12350388616323471,1.7873798608779907
194,493674,493676,-0.027137188240885735,-0.012545361183583736,1.0099338293075562,2.991931915283203,1.3993874788284302,-1.8992769718170166,-0.730463445186615,1.459426999092102,0.32848358154296875,-0.03093031607568264,-0.07451807707548141,1.762592077255249
195,493684,493686,-0.010127491317689419,0.02421814389526844,1.0058579444885254,1.1300289630889893,2.4281444549560547,-1.9126489162445068,-0.7334632873535156,1.4414279460906982,0.3314834237098694,-0.061534032225608826,-0.04405501112341881,1.744826078414917
196,493694,493696,0.008972068317234516,0.0004155001661274582,0.9854928851127625,-1.828597903251648,2.4924700260162354,-2.2544126510620117,-0.7259637117385864,1.4549272060394287,0.3149842321872711,-0.0981583297252655,-0.04908052086830139,1.727609395980835
197,493704,493706,-0.0056981672532856464,-0.0018859109841287136,0.9886513352394104,-4.107453346252441,2.2004733085632324,-2.4485890865325928,-0.730463445186615,1.4384280443191528,0.3254837095737457,-0.1322796791791916,-0.09317899495363235,1.7080378532409668
198,493714,493716,-0.10358088463544846,0.0999288335442543,0.9706866145133972,-4.393363952636719,-1.1012251377105713,-2.2214155197143555,-0.7184640765190125,1.4324283599853516,0.3164841830730438,-0.14193129539489746,-0.1594802439212799,1.6848104000091553
199,493724,493726,-0.04252826049923897,0.02640845626592636,0.9860419034957886,-4.429281234741211,-1.4798336029052734,-2.483128309249878,-0.7259637117385864,1.4489275217056274,0.32698363065719604,-0.1218855082988739,-0.23077523708343506,1.6632325649261475
200,493734,493736,-0.00096803781343624,0.04544604942202568,0.9890713691711426,-2.0755562782287598,-1.8403196334838867,-2.801093101501465,-0.7139642834663391,1.4519274234771729,0.31798410415649414,-0.027070939540863037,-0.2166518270969391,1.6337834596633911
201,493744,493746,0.015458294190466404,0.013312731869518757,1.002518892288208,-0.1595984846353531,-1.9122192859649658,-2.605853319168091,-0.736463189125061,1.4474276304244995,0.31948402523994446,-0.07384993880987167,-0.24066270887851715,1.6095151901245117
202,493754,493756,-0.002606441266834736,-0.06679529696702957,0.9845117330551147,3.360227108001709,-1.8287230730056763,-2.48909068107605,-0.7199639678001404,1.4489275217056274,0.3149842321872711,-0.11681054532527924,-0.22218966484069824,1.586085319519043
203,493764,493766,-0.02467970736324787,-0.018907010555267334,0.9910079836845398,4.438679218292236,-0.8446810841560364,-2.3803353309631348,-0.7139642834663391,1.4429278373718262,0.3209839463233948,-0.021268188953399658,-0.1682218760251999,1.5576832294464111
204,493774,493776,0.0034292859490960836,-0.036776136606931686,0.9478154182434082,5.370782375335693,0.3005560338497162,-1.756003499031067,-0.7349632382392883,1.4519274234771729,0.3209839463233948,-0.015304915606975555,-0.1646050214767456,1.5353010892868042
205,493784,493786,0.015853026881814003,-0.028877319768071175,0.966590940952301,3.9518775939941406,0.31176072359085083,-2.0562918186187744,-0.7334632873535156,1.4564270973205566,0.31948402523994446,-0.022734249010682106,-0.0899856686592102,1.5175069570541382
206,493794,493796,0.0687929019331932,0.013351035304367542,1.0443599224090576,2.17097544670105,2.9317879676818848,-2.185809373855591,-0.722963809967041,1.445927619934082,0.3239837884902954,-0.047671958804130554,-0.04081225022673607,1.4981300830841064
207,493804,493806,0.08989694714546204,-0.007594003342092037,1.0776149034500122,-1.404466986656189,3.4786319732666016,-2.291611671447754,-0.7259637117385864,1.4399279356002808,0.3059847056865692,-0.09723182767629623,-0.034247349947690964,1.4772417545318604
208,493814,493816,0.03230366110801697,-0.008394068107008934,1.0204639434814453,-2.8045480251312256,1.2447690963745117,-1.9983967542648315,-0.730463445186615,1.4324283599853516,0.3224838674068451,-0.1376173347234726,-0.06818132102489471,1.4543681144714355
209,493824,493826,0.025351466611027718,-0.1038377583026886,1.0544605255126953,-3.570601224899292,0.6718087792396545,-2.4557225704193115,-0.7184640765190125,1.444427728652954,0.31948402523994446,-0.15501192212104797,-0.11873111873865128,1.4337799549102783
210,493834,493836,-0.0021786093711853027,-0.15824203193187714,1.0206044912338257,-2.402712106704712,-2.3168749809265137,-2.118386745452881,-0.7154642343521118,1.4474276304244995,0.3254837095737457,-0.14524111151695251,-0.1693492978811264,1.4085652828216553
211,493844,493846,-0.009573318995535374,-0.0359928198158741,1.001797080039978,0.24842001497745514,-3.623213052749634,-1.7674561738967896,-0.7319633960723877,1.4429278373718262,0.32698363065719604,-0.16752132773399353,-0.1889037787914276,1.3884459733963013
212,493854,493856,-0.0007044361555017531,-0.009955493733286858,0.993941068649292,2.9811196327209473,-3.638756036758423,-1.7323163747787476,-0.7319633960723877,1.4489275217056274,0.32998350262641907,-0.10243570059537888,-0.16663296520709991,1.371138334274292
213,493864,493866,-0.023245900869369507,0.0630020797252655,1.035456895828247,3.868910551071167,-3.818880319595337,-1.2504122257232666,-0.7274636030197144,1.4414279460906982,0.3254837095737457,-0.03740520030260086,-0.11331656575202942,1.3545442819595337
214,493874,493876,-0.0296468622982502,0.11734369397163391,1.086936116218567,3.891462564468384,-2.769650936126709,-1.2039767503738403,-0.7169641256332397,1.4339282512664795,0.3209839463233948,0.02012714184820652,-0.05130595713853836,1.3419090509414673
215,493884,493886,-0.03363066539168358,0.06567419320344925,1.0626002550125122,3.2759451866149902,-1.6004869937896729,-1.4548007249832153,-0.7154642343521118,1.4414279460906982,0.3254837095737457,0.05880538374185562,0.005444323178380728,1.32949960231781
216,493894,493896,-0.05019492655992508,-0.0017480116803199053,1.0280804634094238,2.1047403812408447,0.8119451403617859,-1.4439727067947388,-0.7244637608528137,1.4384280443191528,0.3224838674068451,0.06845392286777496,0.049475692212581635,1.3154596090316772
217,493904,493906,-0.07700689136981964,-0.0449909083545208,0.9848965406417847,-0.40506264567375183,1.8895560503005981,-1.4743913412094116,-0.7289635539054871,1.4309284687042236,0.3119843900203705,0.05031413584947586,0.06180904060602188,1.3011572360992432
218,493914,493916,-0.0933530330657959,-0.027740061283111572,0.9544492959976196,-2.8782541751861572,1.1111923456192017,-1.1731128692626953,-0.7289635539054871,1.436928153038025,0.3149842321872711,0.026087811216711998,0.035316988825798035,1.286558985710144
219,493924,493926,-0.10294148325920105,0.045405808836221695,0.9454652667045593,-3.0656285285949707,1.9722445011138916,-1.3188337087631226,-0.7184640765190125,1.435428261756897,0.3134843111038208,0.0014842074597254395,-0.012209123000502586,1.2749652862548828
220,493934,493936,-0.05255216360092163,0.12005607783794403,0.9528350830078125,-2.2217824459075928,1.8965274095535278,-1.2971713542938232,-0.7319633960723877,1.4339282512664795,0.3209839463233948,-0.027913447469472885,-0.05662744864821434,1.2624104022979736
221,493944,493946,0.016433749347925186,0.13079582154750824,0.9694169163703918,-1.6210461854934692,1.5355929136276245,-1.41940176486969,-0.7139642834663391,1.4399279356002808,0.3239837884902954,-0.05596121773123741,-0.08945344388484955,1.249519944190979
222,493954,493956,-0.0035597041714936495,0.03695318475365639,1.0117405652999878,0.26623448729515076,-0.032496288418769836,-1.9677534103393555,-0.7289635539054871,1.4489275217056274,0.3239837884902954,-0.07360091060400009,-0.10308065265417099,1.235077977180481
223,493964,493966,0.025425296276807785,0.000562186585739255,1.0174636840820312,0.1154170036315918,-0.24657776951789856,-2.3645834922790527,-0.7349632382392883,1.4339282512664795,0.3239837884902954,-0.07836957275867462,-0.10305534303188324,1.215349793434143
224,493974,493976,0.07218006998300552,-0.048099249601364136,1.0214016437530518,1.7637611627578735,-1.2825323343276978,-2.5248711109161377,-0.7169641256332397,1.4519274234771729,0.31798410415649414,-0.06645715981721878,-0.08937998861074448,1.1926257610321045
225,493984,493986,0.019407421350479126,-0.017477212473750114,0.9963189959526062,2.2482380867004395,-5.741269111633301,-1.8359323740005493,-0.7334632873535156,1.4324283599853516,0.3224838674068451,-0.02043325826525688,-0.05990792065858841,1.1670140027999878
226,493994,493996,0.0032049266155809164,0.06793530285358429,0.9648059010505676,3.1308016777038574,-6.482010364532471,-1.1531946659088135,-0.7244637608528137,1.435428261756897,0.3224838674068451,0.06980672478675842,-0.018886085599660873,1.1478389501571655
227,494004,494006,-0.011076227761805058,0.03719636797904968,1.0028884410858154,1.3220454454421997,-3.581491470336914,-1.8555808067321777,-0.7349632382392883,1.4489275217056274,0.31798410415649414,0.14539040625095367,0.013919846154749393,1.1337699890136719
228,494014,494016,-0.03105565905570984,0.0341530367732048,1.0369504690170288,-0.10998421162366867,-1.5111641883850098,-1.899164080619812,-0.7319633960723877,1.445927619934082,0.32698363065719604,0.1827320158481598,0.02987820655107498,1.1156038045883179
229,494024,494026,-0.013053488917648792,0.01103125885128975,1.0164793729782104,-1.864538311958313,1.3984967470169067,-1.814113736152649,-0.7139642834663391,1.4429278373718262,0.32998350262641907,0.18427163362503052,0.014588273130357265,1.097687005996704
230,494034,494036,0.0030872547067701817,0.006843090523034334,1.0266764163970947,-3.653190851211548,4.126644611358643,-1.9930713176727295,-0.722963809967041,1.4549272060394287,0.3119843900203705,0.14505785703659058,-0.02635570801794529,1.0794405937194824
231,494044,494046,-0.0007510340656153858,0.0003587100945878774,1.0145847797393799,-4.582773208618164,5.358994960784912,-1.7303985357284546,-0.7319633960723877,1.445927619934082,0.3239837884902954,0.07015012204647064,-0.08821814507246017,1.0588669776916504
232,494054,494056,-0.02286464534699917,-0.016499854624271393,1.0683186054229736,-3.8009531497955322,5.252051830291748,-2.0545854568481445,-0.7184640765190125,1.4474276304244995,0.31048446893692017,-0.01678750105202198,-0.15492402017116547,1.0402013063430786
233,494064,494066,-0.03986707702279091,-0.03341706469655037,1.06208336353302,-1.9253299236297607,2.9441158771514893,-1.9597386121749878,-0.7169641256332397,1.46092689037323,0.32698363065719604,-0.08445198088884354,-0.20193549990653992,1.0195269584655762
234,494074,494076,-0.040879249572753906,-0.029594218358397484,1.0153465270996094,0.8639036417007446,-1.182952642440796,-1.7352255582809448,-0.722963809967041,1.4489275217056274,0.31798410415649414,-0.10253133624792099,-0.21483132243156433,1.0000619888305664
235,494084,494086,-0.06447115540504456,0.0395110584795475,0.9938123226165771,4.08367919921875,-3.4928526878356934,-1.5887279510498047,-0.7274636030197144,1.4324283599853516,0.3404829800128937,-0.0696328729391098,-0.17846883833408356,0.9828470945358276
236,494094,494096,-0.09213846921920776,0.09990374743938446,0.9764083623886108,5.636045455932617,-4.615551948547363,-1.630012035369873,-0.7319633960723877,1.4489275217056274,0.31798410415649414,-0.006565720774233341,-0.10173730552196503,0.9671011567115784
237,494104,494106,-0.11730586737394333,0.1286192238330841,0.9903070330619812,4.978246212005615,-4.520734786987305,-1.8405619859695435,-0.7274636030197144,1.4474276304244995,0.32848358154296875,0.06712930649518967,-0.014943676069378853,0.9514245986938477
238,494114,494116,-0.10016650706529617,0.08152341842651367,0.9925694465637207,2.827387571334839,-2.6866443157196045,-2.0153582096099854,-0.7334632873535156,1.444427728652954,0.3224838674068451,0.126604825258255,0.051398903131484985,0.9335956573486328
239,494124,494126,-0.009372353553771973,-0.03420561924576759,0.9675977230072021,-0.15527784824371338,-0.3211057484149933,-1.8658077716827393,-0.7289635539054871,1.4519274234771729,0.32998350262641907,0.1556774079799652,0.08042369782924652,0.9139384627342224
240,494134,494136,-0.0270830150693655,-0.05542810261249542,0.9813806414604187,-3.438871145248413,1.7192456722259521,-2.2459967136383057,-0.7289635539054871,1.4519274234771729,0.32998350262641907,0.14735020697116852,0.05367892608046532,0.8942404985427856
241,494144,494146,-0.042110394686460495,-0.03842950984835625,0.9746408462524414,-6.065381050109863,1.9765985012054443,-1.892781376838684,-0.7289635539054871,1.4519274234771729,0.32998350262641907,0.11735610663890839,-0.01533880177885294,0.8723953366279602
242,494154,494156,-0.06456104665994644,0.02921932190656662,0.9648056626319885,-5.757906913757324,2.420140027999878,-1.7010408639907837,-0.7289635539054871,1.4519274234771729,0.32998350262641907,0.08168026059865952,-0.10510746389627457,0.8538098931312561
243,494164,494166,-0.010803522542119026,0.0006952915573492646,0.9828407168388367,-5.421661853790283,3.5078306198120117,-1.660282850265503,-0.7169641256332397,1.4489275217056274,0.32698363065719604,0.035478588193655014,0.08550365269184113,0.8355115056037903
244,494174,494176,0.009032292291522026,0.0561349056661129,0.9695432782173157,-1.0811442136764526,2.0976743698120117,-1.5371737480163574,-0.7244637608528137,1.4534273147583008,0.3164841830730438,-0.012422825209796429,-0.1965761035680771,0.8201133608818054
245,494184,494186,0.011560577899217606,0.06183495372533798,1.0116101503372192,0.7887327671051025,1.2887455224990845,-1.3163520097732544,-0.7199639678001404,1.4429278373718262,0.3149842321872711,0.025921786203980446,-0.06500605493783951,0.8048226833343506
246,494194,494196,-0.006720593199133873,0.018353261053562164,1.0198235511779785,0.9695355892181396,-0.7768638134002686,-1.2125946283340454,-0.7199639678001404,1.4519274234771729,0.32698363065719604,0.011015904136002064,-0.06137499585747719,0.7914648056030273
247,494204,494206,0.017557725310325623,-0.04201711341738701,1.0052005052566528,0.9445846080780029,-1.0862582921981812,-1.250312328338623,-0.7199639678001404,1.46092689037323,0.32698363065719604,0.019213512539863586,0.015752237290143967,0.7786918878555298
248,494214,494216,0.04210469499230385,-0.06022265926003456,0.9685420989990234,0.6541522145271301,-2.728135347366333,-1.0426476001739502,-0.722963809967041,1.4489275217056274,0.32998350262641907,-0.030151154845952988,0.018008876591920853,0.7659345269203186
249,494224,494226,0.042360514402389526,0.01029119361191988,0.9617476463317871,-1.4023239612579346,-2.6398627758026123,-1.0608489513397217,-0.730463445186615,1.4504274129867554,0.32848358154296875,-0.05921773612499237,0.003322189673781395,0.755066990852356
250,494234,494236,-0.009904437698423862,-0.02148962765932083,0.9690077900886536,-3.803978681564331,-1.6028813123703003,-1.3249273300170898,-0.7394630312919617,1.4684265851974487,0.3224838674068451,-0.0176137275993824,-0.041498005390167236,0.7453638911247253
251,494244,494246,0.02481379359960556,0.044107843190431595,0.9871589541435242,-3.104341983795166,-0.6547912955284119,-1.0342965126037598,-0.7274636030197144,1.4504274129867554,0.3314834237098694,-0.06309433281421661,-0.03374747931957245,0.7317161560058594
252,494254,494256,0.05667303130030632,0.01809440739452839,1.0081111192703247,-4.6012725830078125,0.24435298144817352,-1.3461613655090332,-0.7199639678001404,1.4579271078109741,0.32698363065719604,0.02139202691614628,-0.10808856785297394,0.722930908203125
253,494264,494266,0.004403960891067982,0.030504755675792694,1.0503369569778442,-4.722904682159424,-0.9286190867424011,-1.5539640188217163,-0.7439627647399902,1.4549272060394287,0.32998350262641907,0.025255247950553894,-0.18643836677074432,0.709402859210968
254,494274,494276,0.008497091010212898,0.002630189759656787,1.02021062374115,-3.5216991901397705,-1.5609415769577026,-1.4084795713424683,-0.722963809967041,1.4639267921447754,0.32998350262641907,0.045432306826114655,-0.2579182982444763,0.6949458718299866
255,494284,494286,-0.005155059974640608,0.010208944790065289,1.0302700996398926,-1.3573395013809204,-1.4972953796386719,-1.5121243000030518,-0.7289635539054871,1.4639267921447754,0.32998350262641907,0.07161630690097809,-0.23324821889400482,0.6817889213562012
256,494294,494296,0.033465463668107986,0.051953233778476715,0.9833401441574097,1.957611322402954,-1.9566786289215088,-0.8658226728439331,-0.7214639186859131,1.4474276304244995,0.32848358154296875,0.10074210166931152,-0.24265128374099731,0.6686211824417114
257,494304,494306,0.003577400464564562,0.009681032039225101,1.0031548738479614,2.5520641803741455,-0.7124956250190735,-1.4747258424758911,-0.7214639186859131,1.4534273147583008,0.32848358154296875,0.12506137788295746,-0.21928273141384125,0.6596482396125793
258,494314,494316,0.03590884059667587,-0.018459683284163475,1.0269883871078491,0.5906371474266052,1.3428802490234375,-1.6325790882110596,-0.7349632382392883,1.4549272060394287,0.31798410415649414,0.05577816441655159,-0.26928550004959106,0.6464736461639404
259,494324,494326,0.04838372766971588,-0.0305977463722229,1.0418734550476074,1.0320590734481812,2.131728172302246,-1.2096647024154663,-0.7259637117385864,1.4489275217056274,0.32998350262641907,0.039533764123916626,-0.253678560256958,0.6318539977073669
260,494334,494336,0.0616699643433094,-0.02719663828611374,1.0080674886703491,0.9002871513366699,1.8234412670135498,-0.5488404631614685,-0.7244637608528137,1.4504274129867554,0.3164841830730438,0.012638227082788944,-0.23663471639156342,0.6194750070571899
261,494344,494346,0.057786956429481506,-0.00645430339500308,0.9673051834106445,3.0825998783111572,0.6690187454223633,-0.24661782383918762,-0.7349632382392883,1.46092689037323,0.3209839463233948,0.2027195394039154,-0.20827072858810425,0.6096065640449524
262,494354,494356,0.027035076171159744,0.07547607272863388,0.9915602207183838,2.008382558822632,0.05428216978907585,-0.4808852970600128,-0.7289635539054871,1.4549272060394287,0.3239837884902954,0.1089567318558693,-0.17548929154872894,0.6040823459625244
263,494364,494366,0.017995163798332214,0.09205221384763718,1.0213754177093506,1.169631004333496,0.7746731042861938,-1.0524756908416748,-0.722963809967041,1.4519274234771729,0.3209839463233948,0.09522809833288193,-0.1557820588350296,0.5972692370414734
264,494374,494376,0.037836555391550064,0.020435644313693047,1.0295063257217407,-0.32965484261512756,2.8616232872009277,-1.5119032859802246,-0.7319633960723877,1.4549272060394287,0.3209839463233948,-0.00034742127172648907,0.06122080236673355,0.5869852304458618
265,494384,494386,0.02906411699950695,-0.01517457328736782,1.0382815599441528,-2.7301199436187744,2.522775650024414,-1.44810152053833,-0.7259637117385864,1.4549272060394287,0.32698363065719604,-0.10461889207363129,0.0947127416729927,0.5744932293891907
266,494394,494396,0.034138575196266174,-0.03731228783726692,0.9987236857414246,-2.318857192993164,1.2898536920547485,-0.8212290406227112,-0.7349632382392883,1.4549272060394287,0.3239837884902954,-0.1282942146062851,0.03556054085493088,0.5605244636535645
267,494404,494406,0.04044463485479355,-0.015018146485090256,0.9661101698875427,-3.2698588371276855,-1.3135658502578735,-0.10396560281515121,-0.7154642343521118,1.4534273147583008,0.3314834237098694,-0.12503844499588013,0.041357919573783875,0.5502061247825623
268,494414,494416,0.041312284767627716,0.03337910398840904,0.9625659584999084,-3.5928025245666504,-2.6439177989959717,-0.21873952448368073,-0.7394630312919617,1.4414279460906982,0.3254837095737457,-0.0941300168633461,0.03002903424203396,0.5450488924980164
269,494424,494426,0.01960589550435543,0.08942729979753494,1.0011125802993774,-5.050719261169434,-2.6493027210235596,-0.9187968373298645,-0.7349632382392883,1.4489275217056274,0.32698363065719604,-0.18764393031597137,-0.06500185281038284,0.5390529632568359
270,494434,494436,0.027429232373833656,0.05215900391340256,1.0055863857269287,-7.807824611663818,-1.9894737005233765,-1.8481240272521973,-0.722963809967041,1.4549272060394287,0.3209839463233948,-0.13047175109386444,-0.18544235825538635,0.5279182195663452
271,494444,494446,0.009454956278204918,-0.022504564374685287,0.9852769374847412,-8.231581687927246,-5.041668891906738,-1.682875633239746,-0.7244637608528137,1.4504274129867554,0.3314834237098694,-0.05627851560711861,-0.3266802430152893,0.5099927186965942
272,494454,494456,-0.01616567000746727,-0.013574901036918163,1.0108792781829834,-7.468714714050293,-5.8410186767578125,-1.2946587800979614,-0.7289635539054871,1.4579271078109741,0.32698363065719604,0.03902687877416611,-0.32339799404144287,0.4935990273952484
273,494464,494466,-0.030775675550103188,0.01971246674656868,1.0419734716415405,-4.320638179779053,-5.573549747467041,-1.0153889656066895,-0.7319633960723877,1.4549272060394287,0.31798410415649414,-0.004028639756143093,-0.4383654296398163,0.4795990586280823
274,494474,494476,-0.025646299123764038,0.04257800430059433,1.044050931930542,-0.22904962301254272,-3.630945920944214,-1.1029353141784668,-0.7259637117385864,1.4549272060394287,0.341982901096344,0.08621390163898468,-0.4946073293685913,0.4680054485797882
275,494484,494486,0.007111820392310619,-0.0022575901821255684,0.9993077516555786,0.8876450657844543,-2.388660192489624,-0.7707489728927612,-0.7259637117385864,1.4699264764785767,0.3209839463233948,0.14965938031673431,-0.5037755966186523,0.45624983310699463
276,494494,494496,-0.0016189035959541798,-0.004140286240726709,1.0099188089370728,3.583862781524658,-0.3345028758049011,-0.6106986403465271,-0.7199639678001404,1.4519274234771729,0.32998350262641907,0.18750645220279694,-0.4803612530231476,0.44841480255126953
277,494504,494506,-0.02121056243777275,-0.027084074914455414,0.9948034286499023,4.201061248779297,0.565517783164978,-0.3724368214607239,-0.7349632382392883,1.472926378250122,0.3329833447933197,0.13005350530147552,-0.49667543172836304,0.4438968002796173
278,494514,494516,-0.02723727747797966,-0.03117850050330162,0.9938706159591675,3.632333755493164,2.873673677444458,-0.3154201805591583,-0.7184640765190125,1.4654266834259033,0.31948402523994446,0.12019077688455582,-0.4365309178829193,0.43949317932128906
279,494524,494526,-0.0004132104804739356,-0.05658965930342674,0.973396897315979,1.5155361890792847,2.302053928375244,-0.23688307404518127,-0.722963809967041,1.4579271078109741,0.32998350262641907,0.09436774998903275,-0.4027000665664673,0.43502479791641235
280,494534,494536,-0.005095452070236206,-0.014603972434997559,1.0133618116378784,1.9563060998916626,0.6359291672706604,-0.1875241994857788,-0.730463445186615,1.4504274129867554,0.3314834237098694,0.08057942986488342,-0.37869006395339966,0.43115341663360596
281,494544,494546,-0.00650943024083972,0.009854198433458805,0.9816500544548035,1.922126293182373,-2.2153611183166504,0.2992790937423706,-0.7319633960723877,1.4579271078109741,0.3239837884902954,0.09941090643405914,-0.35764190554618835,0.426849901676178
282,494554,494556,4.291327786631882e-05,0.014193225651979446,1.0042126178741455,-0.4664733111858368,-2.0668437480926514,-0.3200550079345703,-0.7259637117385864,1.4579271078109741,0.3329833447933197,0.14093461632728577,-0.3541454076766968,0.42586392164230347
283,494564,494566,0.02698989398777485,0.02301398664712906,1.0466500520706177,-0.3455910384654999,-1.61239755153656,-0.3259279727935791,-0.7274636030197144,1.444427728652954,0.3134843111038208,0.18194003403186798,-0.36710795760154724,0.4223346710205078
284,494574,494576,-0.00017405902326572686,0.011396284215152264,1.0348855257034302,-0.3874265253543854,-2.4851598739624023,-0.39977410435676575,-0.7244637608528137,1.4504274129867554,0.3224838674068451,0.22789837419986725,-0.37999865412712097,0.41855350136756897
285,494584,494586,-0.006381070241332054,-0.05040590837597847,1.059544324874878,-0.7596235871315002,-1.701716423034668,-0.7092816829681396,-0.7244637608528137,1.444427728652954,0.3254837095737457,0.2696497440338135,-0.392254501581192,0.41412442922592163
286,494594,494596,-0.008605459704995155,-0.10214020311832428,1.0333845615386963,0.35878288745880127,-1.670391321182251,-0.4853444993495941,-0.7274636030197144,1.459426999092102,0.3224838674068451,0.30138376355171204,-0.3946819305419922,0.40716099739074707
287,494604,494606,-0.0275648832321167,-0.04406261816620827,1.011457920074463,2.190112829208374,-0.5085012912750244,0.5372338891029358,-0.7244637608528137,1.4474276304244995,0.3254837095737457,0.31820449233055115,-0.3772663474082947,0.40150919556617737
288,494614,494616,-0.029675964266061783,0.006721345707774162,0.9844488501548767,2.9029734134674072,2.4730312824249268,0.6552884578704834,-0.7484625577926636,1.4414279460906982,0.3134843111038208,0.30322709679603577,-0.34364554286003113,0.4039574861526489
289,494624,494626,-0.03815986216068268,0.02829102985560894,1.0155508518218994,2.6786887645721436,5.710858345031738,0.30398717522621155,-0.7199639678001404,1.4579271078109741,0.3239837884902954,0.2447466105222702,-0.30599239468574524,0.409218966960907
290,494634,494636,-0.03398359566926956,-0.01646289974451065,1.0263248682022095,1.166840672492981,6.8632330894470215,-0.03525586798787117,-0.7169641256332397,1.4399279356002808,0.32698363065719604,0.1547367423772812,-0.41686615347862244,0.4175930321216583
291,494644,494646,0.0027262403164058924,-0.030108056962490082,0.9883177876472473,0.8724360466003418,4.625088214874268,0.43056851625442505,-0.730463445186615,1.4534273147583008,0.3224838674068451,0.07104572653770447,-0.32289740443229675,0.417885959148407
292,494654,494656,-0.027814146131277084,-0.0891454741358757,1.0024724006652832,1.3559579849243164,2.534295082092285,-0.05297698825597763,-0.736463189125061,1.444427728652954,0.3134843111038208,0.01725350134074688,-0.3722022771835327,0.4242095649242401
293,494664,494666,-0.04657842591404915,-0.10229527950286865,1.0036094188690186,2.090365409851074,-0.8637668490409851,0.2884353697299957,-0.722963809967041,1.4399279356002808,0.3239837884902954,0.005245969630777836,-0.3370862901210785,0.4256764352321625
294,494674,494676,-0.0543469563126564,-0.038575299084186554,0.9919848442077637,3.719543695449829,-3.6659955978393555,0.7820048332214355,-0.7199639678001404,1.4339282512664795,0.31798410415649414,0.039352044463157654,-0.2861900329589844,0.4285038709640503
295,494684,494686,-0.07727392017841339,0.01964719034731388,0.9515554308891296,4.592935562133789,-4.436511039733887,0.9234259724617004,-0.7259637117385864,1.436928153038025,0.3149842321872711,0.09801198542118073,-0.3585401177406311,0.4367177188396454
296,494694,494696,-0.021098414435982704,-0.013696881011128426,0.949354887008667,4.497913837432861,-1.8019071817398071,0.865990161895752,-0.7139642834663391,1.4399279356002808,0.32698363065719604,0.14532314240932465,-0.27690672874450684,0.4441460072994232
297,494704,494706,0.011483816429972649,0.03812234103679657,0.9353761672973633,4.118740081787109,-0.27837732434272766,1.266497254371643,-0.7199639678001404,1.4309284687042236,0.3149842321872711,0.16575326025485992,-0.1992131620645523,0.4521138370037079
298,494714,494716,0.05076608434319496,0.09169435501098633,0.9698313474655151,4.417443752288818,1.4423781633377075,1.327345848083496,-0.7319633960723877,1.4399279356002808,0.3329833447933197,0.16387899219989777,-0.19509285688400269,0.464959979057312
299,494724,494726,0.07272986322641373,0.05957156792283058,0.9985775351524353,2.9426536560058594,3.5002479553222656,1.2453906536102295,-0.7199639678001404,1.4399279356002808,0.3239837884902954,0.13669659197330475,-0.12448085844516754,0.47798430919647217
300,494734,494736,0.05214955285191536,-0.03991982340812683,0.9847394227981567,1.64475679397583,5.450663089752197,0.9391095638275146,-0.7214639186859131,1.4414279460906982,0.32848358154296875,0.07917175441980362,-0.07418119162321091,0.4909643232822418
301,494744,494746,0.0343170203268528,-0.12461293488740921,0.9553677439689636,0.5727167725563049,4.881101131439209,0.7303609251976013,-0.7394630312919617,1.4474276304244995,0.32848358154296875,0.07817360758781433,-0.1839291900396347,0.5014914870262146
302,494754,494756,0.04160493612289429,-0.11781588941812515,0.9720554351806641,0.7278608083724976,2.454249858856201,0.5724400877952576,-0.7259637117385864,1.4429278373718262,0.31798410415649414,0.020690331235527992,-0.15370282530784607,0.5080580115318298
303,494764,494766,0.01918148063123226,-0.08626913279294968,0.9854785203933716,1.5594978332519531,-0.6090136170387268,0.44726210832595825,-0.722963809967041,1.4279285669326782,0.31798410415649414,-0.06725437939167023,-0.05077594518661499,0.5133612155914307
304,494774,494776,-0.03705185651779175,-0.04254239425063133,0.9825403690338135,3.608592987060547,-2.046842336654663,0.6551100015640259,-0.730463445186615,1.4414279460906982,0.3224838674068451,-0.049451716244220734,-0.07217543572187424,0.5169591903686523
305,494784,494786,-0.030575983226299286,-0.0008180025615729392,0.9846077561378479,4.244304656982422,0.19527341425418854,0.5614614486694336,-0.7154642343521118,1.4384280443191528,0.32848358154296875,-0.03243005648255348,-0.0006217160844244063,0.5216553211212158
306,494794,494796,-0.05988039821386337,0.09926111251115799,0.9874725341796875,5.385003566741943,-2.439676284790039,0.36514997482299805,-0.7169641256332397,1.4429278373718262,0.32698363065719604,-0.011254189535975456,0.08364039659500122,0.5263530015945435
307,494804,494806,-0.06775382906198502,0.18469296395778656,1.0268104076385498,4.1785454750061035,-0.7893026471138,0.2973432242870331,-0.7139642834663391,1.4279285669326782,0.3209839463233948,0.013513890095055103,0.16188041865825653,0.5301393270492554
308,494814,494816,-0.017779666930437088,0.05957387015223503,0.9915769696235657,1.9155340194702148,0.7046842575073242,0.34324556589126587,-0.737963080406189,1.4339282512664795,0.32698363065719604,0.016755472868680954,0.14726199209690094,0.5344064831733704
309,494824,494826,-0.003808123292401433,0.04893161356449127,0.9910728931427002,0.8081184029579163,2.2993829250335693,0.39727982878685,-0.730463445186615,1.4324283599853516,0.3314834237098694,0.00035411512362770736,0.18210552632808685,0.5393803119659424
310,494834,494836,0.016112759709358215,0.023804187774658203,0.9983907341957092,-0.8343714475631714,3.1937167644500732,0.45733270049095154,-0.722963809967041,1.4399279356002808,0.31798410415649414,-0.0308992862701416,0.19376564025878906,0.5453053116798401
311,494844,494846,0.04237458482384682,-0.03997804597020149,0.9973220229148865,-3.429741382598877,2.580260753631592,0.9550324082374573,-0.7154642343521118,1.4414279460906982,0.3224838674068451,0.0006201476790010929,0.17353031039237976,0.5520099401473999
312,494854,494856,0.041570354253053665,-0.13884107768535614,0.9559366106987,-2.880746603012085,0.6806339621543884,1.066825270652771,-0.722963809967041,1.4399279356002808,0.3209839463233948,-0.019472893327474594,0.13270507752895355,0.5614833831787109
313,494864,494866,0.02271965518593788,-0.14843535423278809,0.9566147327423096,-1.4281818866729736,-2.0133023262023926,0.9872303605079651,-0.7184640765190125,1.4474276304244995,0.30748462677001953,-0.0763598084449768,0.03271310403943062,0.5702505111694336
314,494874,494876,-0.025535305961966515,-0.08670198172330856,0.9869146347045898,-0.21617110073566437,-3.6783478260040283,1.2952797412872314,-0.7124643921852112,1.4294284582138062,0.3164841830730438,-0.028961945325136185,0.028279073536396027,0.5791592001914978
315,494884,494886,-0.06501998752355576,-0.010329517535865307,0.995072603225708,1.5619441270828247,-3.5757174491882324,1.3723030090332031,-0.7169641256332397,1.4339282512664795,0.3149842321872711,0.026807725429534912,0.04752551391720772,0.5901515483856201
316,494894,494896,-0.07312101870775223,0.06729268282651901,0.9822118282318115,4.238458156585693,-1.8630905151367188,1.3486995697021484,-0.7394630312919617,1.444427728652954,0.3314834237098694,0.13880740106105804,0.16757364571094513,0.604503870010376
317,494904,494906,-0.09539403766393661,0.1367788314819336,1.0057299137115479,3.607649564743042,-0.06617367267608643,1.2039917707443237,-0.722963809967041,1.4429278373718262,0.3329833447933197,0.21918128430843353,0.22855569422245026,0.6192116141319275
318,494914,494916,-0.08554289489984512,0.1481323391199112,1.0283387899398804,1.881321907043457,2.440523862838745,0.9821242094039917,-0.722963809967041,1.445927619934082,0.32698363065719604,0.19137245416641235,0.2037409394979477,0.6312835216522217
319,494924,494926,-0.030395954847335815,0.09527439624071121,1.046868085861206,-0.15433435142040253,6.184218883514404,0.8762134909629822,-0.7154642343521118,1.435428261756897,0.3314834237098694,0.12027677148580551,0.22566759586334229,0.6415272355079651
320,494934,494936,-0.012280428782105446,0.0020433589816093445,0.9997805953025818,-2.6373543739318848,5.665709018707275,1.6391510963439941,-0.7139642834663391,1.4399279356002808,0.3119843900203705,0.029479261487722397,0.2107771337032318,0.6519869565963745
321,494944,494946,0.013489237055182457,-0.03478633612394333,0.9664422273635864,-3.8551628589630127,5.430173873901367,1.5500500202178955,-0.7244637608528137,1.4414279460906982,0.3134843111038208,-0.060576602816581726,0.23725685477256775,0.6668123006820679
322,494954,494956,0.027387920767068863,-0.03407471999526024,0.9553717970848083,-3.151151657104492,5.654196262359619,1.839070439338684,-0.7244637608528137,1.4414279460906982,0.3314834237098694,-0.15373510122299194,0.11343484371900558,0.6810693144798279
323,494964,494966,0.051600877195596695,-0.026946423575282097,0.9608114957809448,-1.6140464544296265,2.0798773765563965,1.6943061351776123,-0.7199639678001404,1.4309284687042236,0.3209839463233948,-0.21220795810222626,0.07957856357097626,0.6974701285362244
324,494974,494976,0.09056037664413452,-0.01695054955780506,0.9653015732765198,0.7070344686508179,-2.1354916095733643,1.7193431854248047,-0.7094644904136658,1.4474276304244995,0.3134843111038208,-0.21373780071735382,0.07329336553812027,0.7122946977615356
325,494984,494986,0.045409176498651505,-0.013688676059246063,0.9727118611335754,1.6183799505233765,-4.947479248046875,0.7736455202102661,-0.7199639678001404,1.4489275217056274,0.32998350262641907,-0.1605447381734848,0.09245958179235458,0.7267969250679016
326,494994,494996,0.0036577116698026657,-0.0007437002495862544,0.9901741743087769,1.905638337135315,-5.833184242248535,0.5742328763008118,-0.7259637117385864,1.445927619934082,0.3119843900203705,-0.14626221358776093,0.12354649603366852,0.7330790162086487
327,495004,495006,-0.01662202924489975,-0.02758454717695713,1.0118030309677124,2.3685412406921387,-3.879697799682617,-0.1256522238254547,-0.736463189125061,1.4474276304244995,0.31048446893692017,0.007819835096597672,0.1608181744813919,0.7441807985305786
328,495014,495016,-0.025270730257034302,-0.012858914211392403,1.0427168607711792,0.4315292537212372,-4.442648887634277,0.19859088957309723,-0.7139642834663391,1.4399279356002808,0.3119843900203705,0.0759238749742508,0.18826086819171906,0.7482445240020752
329,495024,495026,-0.0520431287586689,-0.019346192479133606,1.0101754665374756,-0.7314895987510681,-4.1880598068237305,0.1511049121618271,-0.722963809967041,1.436928153038025,0.3209839463233948,0.1395772099494934,0.1941612958908081,0.7546717524528503
330,495034,495036,-0.019622711464762688,-0.006941052153706551,0.9876793026924133,-0.10251707583665848,-1.3380483388900757,1.0248445272445679,-0.737963080406189,1.4429278373718262,0.3209839463233948,0.10306896269321442,0.19303655624389648,0.7558815479278564
331,495044,495046,-0.08211150765419006,0.05385904759168625,0.9785364866256714,-1.213992953300476,0.17328175902366638,0.8431504964828491,-0.7289635539054871,1.4309284687042236,0.31798410415649414,0.10262729227542877,0.18285532295703888,0.7638200521469116
332,495054,495056,-0.09411250054836273,0.11966072767972946,0.9680647253990173,-1.628366231918335,3.3973569869995117,0.9604811668395996,-0.7244637608528137,1.4384280443191528,0.3254837095737457,0.05898917838931084,0.1578972339630127,0.7690984606742859
333,495064,495066,-0.03457086533308029,0.06412812322378159,1.0040276050567627,-2.7729005813598633,5.984437465667725,0.5688148140907288,-0.7334632873535156,1.4414279460906982,0.3254837095737457,-0.025511497631669044,0.11906279623508453,0.7732158303260803
334,495074,495076,0.013169582933187485,0.040674395859241486,0.9917747974395752,-2.351607322692871,6.52565860748291,0.16766014695167542,-0.7409629225730896,1.4519274234771729,0.3149842321872711,-0.05257781594991684,0.07639418542385101,0.7792389988899231
335,495084,495086,0.023731840774416924,-0.016042906790971756,0.9654036164283752,-0.9642603993415833,2.64492130279541,-0.14490552246570587,-0.7259637117385864,1.445927619934082,0.3149842321872711,-0.19261318445205688,0.048032838851213455,0.7762117981910706
336,495094,495096,-0.013971706852316856,-0.007516105659306049,0.9872079491615295,0.04388873279094696,0.3784964978694916,-0.17269907891750336,-0.7319633960723877,1.4489275217056274,0.32698363065719604,-0.2167491316795349,0.03672049939632416,0.7749412655830383
337,495104,495106,0.05641324445605278,-0.0998215526342392,1.0151073932647705,0.1596442610025406,-0.3866928815841675,-0.5692587494850159,-0.7349632382392883,1.4489275217056274,0.32998350262641907,-0.20621618628501892,0.04233579710125923,0.7744521498680115
338,495114,495116,0.06819372624158859,-0.14409393072128296,1.01811683177948,0.6600142121315002,-5.565525054931641,-0.23867608606815338,-0.7274636030197144,1.4534273147583008,0.3164841830730438,-0.14603285491466522,0.058733515441417694,0.7740315794944763
339,495124,495126,0.014808754436671734,-0.11758450418710709,0.990915834903717,1.6606353521347046,-9.172670364379883,0.37301456928253174,-0.7439627647399902,1.4579271078109741,0.3209839463233948,-0.09863317012786865,0.08545998483896255,0.7731636166572571
340,495134,495136,-0.03533066064119339,-0.036318421363830566,0.9858912229537964,1.6339644193649292,-8.363121032714844,0.4175764322280884,-0.7274636030197144,1.444427728652954,0.31948402523994446,-0.030549420043826103,0.1134662851691246,0.7746843099594116
341,495144,495146,-0.04960188269615173,0.03774028643965721,1.0375889539718628,-0.44646912813186646,-4.886892795562744,-0.18238526582717896,-0.730463445186615,1.4624269008636475,0.31048446893692017,0.08064908534288406,0.04963086172938347,0.7763528823852539
342,495154,495156,-0.025895683094859123,0.021447759121656418,1.0621509552001953,-3.0088911056518555,-2.1034464836120605,-0.6190342307090759,-0.7274636030197144,1.4504274129867554,0.3224838674068451,0.14369730651378632,-0.044029951095581055,0.7738043069839478
343,495164,495166,-0.05415741726756096,-0.0035776467993855476,1.0946003198623657,-5.4368767738342285,1.2217427492141724,-1.0726547241210938,-0.737963080406189,1.4579271078109741,0.31798410415649414,0.15704061090946198,-0.0943443775177002,0.7696850895881653
344,495174,495176,-0.07307405769824982,-0.054467733949422836,1.0693448781967163,-4.096848964691162,1.374995231628418,-1.1332721710205078,-0.7244637608528137,1.4504274129867554,0.32848358154296875,0.14048264920711517,-0.07923123985528946,0.7640202641487122
345,495184,495186,-0.07153348624706268,-0.027074316516518593,1.0202337503433228,1.1883100271224976,0.09969567507505417,0.022557416930794716,-0.736463189125061,1.4654266834259033,0.31048446893692017,0.12358175218105316,-0.16212642192840576,0.7562351822853088
346,495194,495196,-0.06770431995391846,0.06244010105729103,0.9887963533401489,4.797288417816162,-0.24201975762844086,0.44559967517852783,-0.7394630312919617,1.4534273147583008,0.31948402523994446,0.10925866663455963,-0.10882094502449036,0.7553935050964355
347,495204,495206,-0.09478312730789185,0.14806689321994781,1.0384337902069092,6.950965881347656,1.2461113929748535,-0.19533148407936096,-0.7244637608528137,1.459426999092102,0.3314834237098694,0.08398840576410294,0.055936019867658615,0.7563472390174866
348,495214,495216,-0.09357452392578125,0.09232573211193085,1.044593095779419,6.38305139541626,2.8060765266418457,-1.040420651435852,-0.7334632873535156,1.4534273147583008,0.33448326587677,0.04270077496767044,-0.04954753443598747,0.7515125274658203
349,495224,495226,-0.09332893043756485,0.017338767647743225,1.0560963153839111,4.699598789215088,1.3747551441192627,-1.5966589450836182,-0.7334632873535156,1.4504274129867554,0.3224838674068451,0.006090131122618914,0.12802854180335999,0.7425167560577393
350,495234,495236,-0.09297116845846176,-0.013054034672677517,1.0097777843475342,3.463587522506714,-2.012507438659668,-1.1042367219924927,-0.736463189125061,1.444427728652954,0.33448326587677,0.0036259593907743692,0.20866659283638,0.7309261560440063
351,495244,495246,-0.08446535468101501,0.02147124521434307,0.9552311301231384,2.234623432159424,-4.739263534545898,-0.4346001148223877,-0.7439627647399902,1.4549272060394287,0.32698363065719604,0.04021808132529259,0.1935049593448639,0.7215543985366821
352,495254,495256,-0.09079647809267044,0.08689655363559723,0.9504731893539429,-0.6172723174095154,-4.811507701873779,0.03935283049941063,-0.7139642834663391,1.4639267921447754,0.31798410415649414,0.09570308774709702,0.21550677716732025,0.7151219248771667
353,495264,495266,-0.09851744771003723,0.15855731070041656,0.9984106421470642,-3.757199764251709,-3.5412049293518066,-0.1288478523492813,-0.7319633960723877,1.4519274234771729,0.3239837884902954,0.14428165555000305,0.18576370179653168,0.7109720706939697
354,495274,495276,-0.060279931873083115,0.09368124604225159,1.0035624504089355,-5.7089362144470215,-0.9297515153884888,-0.530339777469635,-0.7349632382392883,1.46092689037323,0.3239837884902954,0.1696009337902069,0.11217592656612396,0.7064452171325684
355,495284,495286,-0.013652833178639412,0.01593170501291752,1.0373175144195557,-5.1921772956848145,-0.4816301763057709,-0.5240474939346313,-0.7334632873535156,1.4474276304244995,0.3134843111038208,0.1781938523054123,0.027815574780106544,0.7021006941795349
356,495294,495296,-0.03919371962547302,-0.0046600461937487125,1.008292555809021,-3.520418405532837,-0.8107922077178955,-0.39825454354286194,-0.722963809967041,1.4519274234771729,0.32698363065719604,0.18400999903678894,-0.03361697122454643,0.697723925113678
357,495304,495306,-0.04157167300581932,0.04741977900266647,0.9420324563980103,1.5982167720794678,-0.4684961140155792,0.656410813331604,-0.7244637608528137,1.4654266834259033,0.33448326587677,0.17977440357208252,0.026587124913930893,0.6919199228286743
358,495314,495316,-0.03199406713247299,0.14986909925937653,0.9707411527633667,6.232850551605225,2.1574864387512207,0.8607643246650696,-0.730463445186615,1.4624269008636475,0.32848358154296875,0.1486489623785019,0.0782921090722084,0.6907399892807007
359,495324,495326,-0.023149458691477776,0.13380646705627441,1.0152721405029297,7.314068794250488,4.629194259643555,-0.09738020598888397,-0.7319633960723877,1.4669265747070312,0.32698363065719604,0.08339102566242218,0.24349457025527954,0.6901667714118958
360,495334,495336,-0.02518007718026638,0.04466049745678902,1.041199803352356,5.209702014923096,5.336878776550293,-1.0996507406234741,-0.7334632873535156,1.459426999092102,0.33448326587677,0.0016011717962101102,0.26429352164268494,0.6873530745506287
361,495344,495346,-0.037954896688461304,-0.0023532751947641373,0.9937611222267151,2.8002724647521973,2.7662129402160645,-0.5046653151512146,-0.7334632873535156,1.459426999092102,0.33448326587677,-0.06707653403282166,0.3324711322784424,0.6783448457717896
362,495354,495356,-0.045602936297655106,0.0417359359562397,0.9558053016662598,-0.5936600565910339,-0.14092665910720825,0.2852063477039337,-0.7334632873535156,1.459426999092102,0.33448326587677,-0.0997738167643547,0.21010196208953857,0.6731017827987671
363,495364,495366,0.001029552542604506,-0.014153353869915009,0.991588294506073,-5.313520431518555,0.1651342362165451,-0.5326838493347168,-0.7334632873535156,1.459426999092102,0.33448326587677,-0.11280318349599838,0.17199699580669403,0.6707524657249451
364,495374,495376,-0.03247901797294617,0.11543532460927963,1.0302013158798218,-5.126051902770996,-4.094803333282471,0.313068151473999,-0.7319633960723877,1.4549272060394287,0.3209839463233948,-0.08845426887273788,0.23319868743419647,0.6651753783226013
365,495384,495386,-0.015577418729662895,0.06319084018468857,1.012146234512329,-6.1164445877075195,-4.293827533721924,-0.4935329258441925,-0.7319633960723877,1.4669265747070312,0.33598318696022034,-0.030146488919854164,0.2715781331062317,0.6642737984657288
366,495394,495396,-0.05568573996424675,0.00332918344065547,1.0263750553131104,-4.8220906257629395,-5.999676704406738,-0.499332457780838,-0.7169641256332397,1.4519274234771729,0.33598318696022034,0.050041113048791885,0.09910951554775238,0.6604900360107422
367,495404,495406,-0.04249036684632301,0.01701153814792633,0.9773399233818054,-2.0027806758880615,-7.161746978759766,0.2961924076080322,-0.7274636030197144,1.47442626953125,0.3314834237098694,0.14388318359851837,0.10943586379289627,0.6563835740089417
368,495414,495416,-0.009461240842938423,0.09761753678321838,0.9567471146583557,0.6569497585296631,-4.288705825805664,0.6900609135627747,-0.7319633960723877,1.4549272060394287,0.32998350262641907,0.07580706477165222,0.1535315215587616,0.6481882333755493
369,495424,495426,-0.03290321305394173,0.138472780585289,0.9936999082565308,0.945647656917572,1.6624677181243896,-0.05531908944249153,-0.7244637608528137,1.4714263677597046,0.31948402523994446,0.16308553516864777,0.07333026826381683,0.6495514512062073
370,495434,495436,-0.051738157868385315,0.025457629933953285,1.0561641454696655,-1.946838617324829,4.627078056335449,-1.4941657781600952,-0.7199639678001404,1.472926378250122,0.31798410415649414,0.03908687084913254,0.12656956911087036,0.640091061592102
371,495444,495446,-0.059609200805425644,-0.014853628352284431,1.0324630737304688,-1.1972424983978271,4.373479843139648,-1.1197012662887573,-0.7349632382392883,1.4519274234771729,0.3239837884902954,0.035807907581329346,0.02803215943276882,0.6298184394836426
372,495454,495456,-0.051642678678035736,0.05805803835391998,0.982882022857666,-1.1484408378601074,2.8112146854400635,-0.39510515332221985,-0.737963080406189,1.4699264764785767,0.33598318696022034,-0.04154067859053612,0.007312402594834566,0.6174484491348267
373,495464,495466,-0.05952795222401619,0.1375427097082138,1.0021041631698608,-0.36215946078300476,2.271414279937744,-0.698935866355896,-0.722963809967041,1.4699264764785767,0.3149842321872711,-0.17262887954711914,0.05608750134706497,0.6043416261672974
374,495474,495476,-0.04698733612895012,0.09559272229671478,1.0211620330810547,-1.7802276611328125,1.9576880931854248,-1.6088371276855469,-0.7259637117385864,1.46092689037323,0.32698363065719604,-0.20989108085632324,0.0226158294826746,0.5910125374794006
375,495484,495486,-0.020252401009202003,0.008848410099744797,1.1120460033416748,-4.034511089324951,-0.15869802236557007,-2.334660291671753,-0.7349632382392883,1.4789260625839233,0.30898454785346985,-0.21735115349292755,0.04100726172327995,0.574690580368042
376,495494,495496,-0.022700399160385132,-0.04228819161653519,1.0796500444412231,-3.5412027835845947,-5.113422393798828,-1.9449982643127441,-0.7274636030197144,1.4654266834259033,0.3164841830730438,-0.23866203427314758,-0.019879864528775215,0.5538663268089294
377,495504,495506,-0.021006591618061066,0.005241211969405413,1.0114414691925049,-0.6166901588439941,-8.77955150604248,-1.4664626121520996,-0.7334632873535156,1.459426999092102,0.3404829800128937,-0.12706124782562256,-0.05788228660821915,0.5364677906036377
378,495514,495516,-0.050326552242040634,0.12103468924760818,1.0596530437469482,0.13367554545402527,-8.198426246643066,-1.4903664588928223,-0.7154642343521118,1.459426999092102,0.3314834237098694,-0.06657048314809799,-0.0727211982011795,0.5178202986717224
379,495524,495526,-0.03127977252006531,0.06814306974411011,1.0571527481079102,-1.0395070314407349,-4.3287835121154785,-2.7797539234161377,-0.722963809967041,1.46092689037323,0.3149842321872711,0.03985653445124626,-0.08653362840414047,0.4999048709869385
380,495534,495536,-0.04486890137195587,-0.0018751299940049648,1.121951699256897,-3.6667325496673584,-2.3035361766815186,-3.4370336532592773,-0.7184640765190125,1.4504274129867554,0.3254837095737457,-0.03176392987370491,-0.12140301614999771,0.4730978310108185
381,495544,495546,-0.051989927887916565,-0.06633983552455902,1.0665531158447266,-2.7796454429626465,-2.0329508781433105,-2.93436861038208,-0.7274636030197144,1.4504274129867554,0.3224838674068451,0.023199502378702164,-0.16343142092227936,0.44605565071105957
382,495554,495556,-0.04803558439016342,-0.0017839059000834823,0.9993563294410706,0.4383530616760254,-0.9575844407081604,-2.0775115489959717,-0.7184640765190125,1.4534273147583008,0.3224838674068451,-0.013608774170279503,-0.17960147559642792,0.4198925197124481
383,495564,495566,-0.05113396421074867,0.0807594358921051,0.9951274394989014,1.6680235862731934,0.19303667545318604,-1.7473132610321045,-0.7274636030197144,1.4414279460906982,0.3254837095737457,-0.13868381083011627,-0.3077203929424286,0.3950172960758209
384,495574,495576,-0.04433581233024597,0.11180466413497925,1.016406774520874,2.41709566116333,2.2683792114257812,-2.2807912826538086,-0.7139642834663391,1.4429278373718262,0.3149842321872711,-0.13695743680000305,-0.27060964703559875,0.37506499886512756
385,495584,495586,-0.0014026917051523924,0.04830402135848999,1.0145848989486694,1.644450068473816,0.9542859792709351,-2.706022262573242,-0.7349632382392883,1.4339282512664795,0.32998350262641907,-0.13913211226463318,-0.2299880087375641,0.35089075565338135
386,495594,495596,0.014776649884879589,-0.013604354113340378,1.0197904109954834,1.7730261087417603,-2.3386857509613037,-3.005385160446167,-0.7274636030197144,1.4504274129867554,0.3254837095737457,-0.24228081107139587,-0.19454897940158844,0.32526835799217224
387,495604,495606,0.008075612597167492,-0.04230722412467003,0.9878043532371521,2.863356113433838,-5.360598564147949,-2.791004180908203,-0.730463445186615,1.444427728652954,0.3224838674068451,-0.14652200043201447,-0.2181890457868576,0.29502230882644653
388,495614,495616,0.007906904444098473,-0.017446670681238174,0.9685940742492676,3.8874967098236084,-7.969168663024902,-2.479806900024414,-0.7259637117385864,1.4429278373718262,0.32998350262641907,-0.008867800235748291,-0.15026147663593292,0.2678038775920868
389,495624,495626,0.0376172699034214,-0.0001508812274551019,0.9409723877906799,3.9158270359039307,-9.506952285766602,-2.5649423599243164,-0.7214639186859131,1.4534273147583008,0.3164841830730438,-0.052843909710645676,-0.07670499384403229,0.2455480396747589
390,495634,495636,0.07192039489746094,0.010541399009525776,0.9274678230285645,3.9232864379882812,-9.198049545288086,-2.3153717517852783,-0.7154642343521118,1.435428261756897,0.32848358154296875,0.13285419344902039,-0.07564281672239304,0.21652300655841827
391,495644,495646,0.0793071761727333,0.042397886514663696,0.9672179222106934,3.311880588531494,-6.321496963500977,-2.517829418182373,-0.7154642343521118,1.444427728652954,0.3224838674068451,0.2880694270133972,-0.0098166698589921,0.19017472863197327
392,495654,495656,0.08487831801176071,0.04043709114193916,1.0128211975097656,0.38709431886672974,-2.909576892852783,-2.9353318214416504,-0.7184640765190125,1.4534273147583008,0.31948402523994446,0.3899742364883423,-0.044199250638484955,0.16165393590927124
393,495664,495666,0.09218547493219376,-0.012689455412328243,1.042733073234558,-1.2608567476272583,0.1709621548652649,-3.3527042865753174,-0.7124643921852112,1.4414279460906982,0.3224838674068451,0.37100911140441895,-0.03670099005103111,0.13229702413082123
394,495674,495676,0.09534453600645065,-0.08347257971763611,1.0553691387176514,-2.344381093978882,2.4373748302459717,-3.5255606174468994,-0.7214639186859131,1.4504274129867554,0.3404829800128937,0.3801746368408203,-0.046853430569171906,0.09975538402795792
395,495684,495686,0.019403137266635895,-0.06118600070476532,0.9861819744110107,-2.2524685859680176,-0.0677812397480011,-2.6068668365478516,-0.7199639678001404,1.4309284687042236,0.3209839463233948,0.3873032331466675,-0.06931295990943909,0.0669366642832756
396,495694,495696,-0.021190056577324867,-0.013185595162212849,0.9710868000984192,0.7011211514472961,0.4221729338169098,-2.7025187015533447,-0.7034648060798645,1.4294284582138062,0.3134843111038208,0.3986058831214905,-0.0732344314455986,0.04027443379163742
397,495704,495706,0.006339396815747023,-0.05038201063871384,0.9962853193283081,2.359757423400879,0.04569536820054054,-2.8590965270996094,-0.7289635539054871,1.4339282512664795,0.3119843900203705,0.40767693519592285,-0.04327152669429779,0.012941245920956135
398,495714,495716,0.016822434961795807,-0.04287031292915344,0.9809702038764954,4.098043441772461,-0.008189616724848747,-2.652968645095825,-0.7274636030197144,1.4414279460906982,0.3224838674068451,0.3491584062576294,-0.12121161073446274,-0.01138369645923376
399,495724,495726,0.0059576090425252914,-0.02116340585052967,0.9670467972755432,4.849481582641602,0.23594164848327637,-2.699784755706787,-0.7184640765190125,1.435428261756897,0.33748310804367065,0.3625071942806244,-0.032371487468481064,-0.040055107325315475
400,495734,495736,-0.01861749030649662,0.0661689043045044,1.0062395334243774,5.066832542419434,-0.7093045711517334,-2.491319417953491,-0.7184640765190125,1.435428261756897,0.31948402523994446,0.3777374029159546,0.13148078322410583,-0.0717698335647583
401,495744,495746,-0.01403452455997467,0.13644056022167206,1.0310940742492676,5.439563274383545,-0.8504894971847534,-2.6359429359436035,-0.7154642343521118,1.4294284582138062,0.3164841830730438,0.3979587256908417,0.14991071820259094,-0.09713517129421234
402,495754,495756,-0.016984496265649796,0.12586739659309387,1.0229933261871338,5.32204008102417,0.14431096613407135,-2.5454506874084473,-0.722963809967041,1.4279285669326782,0.31798410415649414,0.3438956141471863,0.24106049537658691,-0.12619464099407196
403,495764,495766,-0.014516343362629414,0.093891941010952,0.9927735924720764,1.9320937395095825,0.9671436548233032,-2.4126975536346436,-0.7064646482467651,1.4174290895462036,0.31948402523994446,0.35218730568885803,0.30587825179100037,-0.15367156267166138
404,495774,495776,-0.001190455979667604,0.06377540528774261,0.9601357579231262,-1.2320094108581543,0.5609995126724243,-2.4620141983032227,-0.7064646482467651,1.4264286756515503,0.31048446893692017,0.35726800560951233,0.3188987970352173,-0.17831072211265564
405,495784,495786,0.02248874492943287,0.025281615555286407,0.948123574256897,-3.929232120513916,0.20503923296928406,-2.522667646408081,-0.7139642834663391,1.4099295139312744,0.3209839463233948,0.36814025044441223,0.2848138213157654,-0.2022351622581482
406,495794,495796,0.0037861065939068794,-0.006534423679113388,0.9439890384674072,-4.948419094085693,-1.7105308771133423,-2.784621000289917,-0.7124643921852112,1.4324283599853516,0.3224838674068451,0.3956117033958435,0.1510448455810547,-0.22224648296833038
407,495804,495806,0.031552474945783615,-0.05826686695218086,0.9655218124389648,-5.563570022583008,0.4368639290332794,-3.2616515159606934,-0.7169641256332397,1.4099295139312744,0.3149842321872711,0.21070799231529236,0.07790446281433105,-0.25074654817581177
408,495814,495816,0.00991112645715475,-0.06925100088119507,0.9830713868141174,-3.372614622116089,0.4927363395690918,-3.356433629989624,-0.7244637608528137,1.4174290895462036,0.31948402523994446,0.23729830980300903,0.014427936635911465,-0.2797578275203705
409,495824,495826,-0.06178805232048035,-0.0744021087884903,0.9495070576667786,-0.2510249614715576,-0.8065803647041321,-3.0355098247528076,-0.7214639186859131,1.4294284582138062,0.30748462677001953,0.19650746881961823,-0.006263481918722391,-0.31081846356391907
410,495834,495836,-0.06328336894512177,-0.06380768865346909,0.9107938408851624,4.1042022705078125,-2.9898014068603516,-2.220186710357666,-0.722963809967041,1.4249287843704224,0.32698363065719604,0.18186534941196442,0.03175240010023117,-0.3400876522064209
411,495844,495846,-0.0384092852473259,-0.057350996881723404,0.8777633905410767,6.473755359649658,-2.7958385944366455,-1.860012412071228,-0.7169641256332397,1.4279285669326782,0.31798410415649414,0.2572389841079712,0.12386149913072586,-0.36269712448120117
412,495854,495856,0.0005635956767946482,-0.04583210498094559,0.8777284026145935,7.402947425842285,-2.338473081588745,-1.5382285118103027,-0.7154642343521118,1.435428261756897,0.30748462677001953,0.330129474401474,0.24200864136219025,-0.38218414783477783
413,495864,495866,0.028172913938760757,-0.08692765235900879,0.900976836681366,5.677343845367432,-2.057331085205078,-1.6955302953720093,-0.7169641256332397,1.4429278373718262,0.3209839463233948,0.2580564022064209,0.28416165709495544,-0.3969312310218811
414,495874,495876,0.0006548725650645792,-0.04621610790491104,0.9283877611160278,2.1289539337158203,-3.4605119228363037,-1.6968694925308228,-0.7244637608528137,1.4294284582138062,0.31948402523994446,0.19991326332092285,0.2916896641254425,-0.4114662706851959
415,495884,495886,0.047231584787368774,-0.09208210557699203,0.9389450550079346,-0.7741566896438599,-2.2140235900878906,-1.819433569908142,-0.7244637608528137,1.4384280443191528,0.3224838674068451,0.28127551078796387,0.31782764196395874,-0.4269152879714966
416,495894,495896,0.026147732511162758,-0.14952488243579865,0.9403088092803955,-4.5993452072143555,-4.993799686431885,-1.6448605060577393,-0.7184640765190125,1.4474276304244995,0.31948402523994446,0.3688575029373169,0.28833892941474915,-0.44034573435783386
417,495904,495906,-0.046110305935144424,-0.1263589709997177,0.9470158815383911,-5.6113762855529785,-6.885271072387695,-1.7504674196243286,-0.7109644412994385,1.4489275217056274,0.3209839463233948,0.482716828584671,0.21975143253803253,-0.4518325626850128
418,495914,495916,-0.08113822340965271,-0.03794211894273758,0.9723002910614014,-5.3729472160339355,-8.475955963134766,-1.2190122604370117,-0.7199639678001404,1.4429278373718262,0.3239837884902954,0.6160004138946533,0.14244186878204346,-0.46428972482681274
419,495924,495926,-0.11015938967466354,0.034143466502428055,0.9798429608345032,-2.5148351192474365,-7.052602291107178,-1.060959815979004,-0.736463189125061,1.4294284582138062,0.3224838674068451,0.5375488996505737,0.08631658554077148,-0.4808600842952728
420,495934,495936,-0.11263105273246765,0.06687367707490921,0.9307519793510437,0.47127383947372437,-4.1682024002075195,-0.7603309750556946,-0.7154642343521118,1.435428261756897,0.3224838674068451,0.6473630666732788,0.07518207281827927,-0.49197614192962646
421,495944,495946,-0.06525568664073944,0.08920320868492126,0.8866957426071167,3.3007307052612305,-0.5397074222564697,-0.5470672249794006,-0.7214639186859131,1.4474276304244995,0.31048446893692017,0.7029082179069519,0.11107852309942245,-0.5034341216087341
422,495954,495956,-0.012773493304848671,0.11772890388965607,0.9014625549316406,7.039306640625,2.3531882762908936,-0.4160812497138977,-0.7214639186859131,1.444427728652954,0.31948402523994446,0.7035780549049377,0.19534184038639069,-0.5155420303344727
423,495964,495966,0.012423229403793812,0.12076151371002197,0.9433034062385559,6.812487602233887,3.7202067375183105,-0.17156465351581573,-0.7124643921852112,1.4474276304244995,0.3224838674068451,0.6686961054801941,0.3037785291671753,-0.5263259410858154
424,495974,495976,0.02193433791399002,0.08981233090162277,0.9811184406280518,6.068807125091553,4.433605194091797,-0.29481223225593567,-0.7139642834663391,1.4429278373718262,0.3149842321872711,0.6173895597457886,0.3343694508075714,-0.5277876257896423
425,495984,495986,0.03880254179239273,0.05478432774543762,0.9983225464820862,1.9860444068908691,4.450775623321533,-0.45346128940582275,-0.7139642834663391,1.4579271078109741,0.32998350262641907,0.7019873261451721,0.400566041469574,-0.5286462306976318
426,495994,495996,0.06125663220882416,0.016570240259170532,1.0063908100128174,-1.0948580503463745,2.882539987564087,-0.922463059425354,-0.730463445186615,1.4504274129867554,0.3224838674068451,0.5106330513954163,0.4116305708885193,-0.5381041765213013
427,496004,496006,0.0674218162894249,-0.02149580791592598,1.0143241882324219,-4.958601474761963,1.5348881483078003,-1.2176451683044434,-0.7349632382392883,1.4549272060394287,0.3209839463233948,0.4958238899707794,0.4370729923248291,-0.5498464703559875
428,496014,496016,0.05021510645747185,-0.05566449835896492,1.0354007482528687,-7.370004177093506,0.17545466125011444,-1.0780173540115356,-0.7199639678001404,1.4669265747070312,0.32998350262641907,0.5028871297836304,0.33767780661582947,-0.5552767515182495
429,496024,496026,0.01817082054913044,-0.09187521785497665,1.0406728982925415,-6.068032264709473,-1.3043988943099976,-1.2464377880096436,-0.730463445186615,1.4624269008636475,0.3224838674068451,0.5354909896850586,0.22958071529865265,-0.5587317943572998
430,496034,496036,0.010085063055157661,-0.126897931098938,1.0295886993408203,-4.403509140014648,-3.2822587490081787,-1.0590453147888184,-0.7319633960723877,1.4549272060394287,0.3239837884902954,0.591480016708374,0.14580394327640533,-0.5634871125221252
431,496044,496046,0.0005641645984724164,-0.09960266947746277,1.0253535509109497,-2.0068492889404297,-3.8407857418060303,-0.5169138312339783,-0.7139642834663391,1.46092689037323,0.3329833447933197,0.6625397801399231,0.16812878847122192,-0.5751863121986389
432,496054,496056,-0.0038248696364462376,-0.02111416682600975,1.019374132156372,-0.5746269226074219,-1.069369912147522,-0.2508545517921448,-0.7214639186859131,1.4624269008636475,0.3314834237098694,0.711076557636261,0.14602409303188324,-0.5784586668014526
433,496064,496066,0.013829972594976425,0.01718028448522091,1.0155869722366333,2.223436117172241,0.6278469562530518,0.5117775201797485,-0.730463445186615,1.4504274129867554,0.3224838674068451,0.7216669321060181,0.15647952258586884,-0.5815879106521606
434,496074,496076,0.015303419902920723,0.03632652759552002,1.052156925201416,2.10524845123291,4.399827003479004,0.28539177775382996,-0.7274636030197144,1.4624269008636475,0.3164841830730438,0.6848523020744324,0.18495208024978638,-0.5811564326286316
435,496084,496086,0.031180109828710556,-0.010338804684579372,1.0722588300704956,1.478333592414856,8.495671272277832,0.02508237212896347,-0.7199639678001404,1.46092689037323,0.32998350262641907,0.5923606753349304,0.2100336253643036,-0.5819101333618164
436,496094,496096,0.012948112562298775,-0.012459221296012402,1.0566902160644531,-0.1816478818655014,8.043209075927734,0.4322032034397125,-0.7184640765190125,1.4654266834259033,0.3224838674068451,0.4707159996032715,0.21853455901145935,-0.5814384818077087
437,496104,496106,0.01715296134352684,0.0041619534604251385,1.0356414318084717,-2.398402214050293,5.901671886444092,0.7293744087219238,-0.7139642834663391,1.4549272060394287,0.3209839463233948,0.5034169554710388,0.410084992647171,-0.5919522047042847
438,496114,496116,0.024227119982242584,-0.0657060518860817,1.0419825315475464,-4.382333755493164,3.7822763919830322,0.6168903708457947,-0.7289635539054871,1.4669265747070312,0.3209839463233948,0.48972442746162415,0.33966168761253357,-0.5777798295021057
439,496124,496126,0.031717803329229355,-0.0940437987446785,1.0282952785491943,-4.781807899475098,-0.4707984924316406,1.3781260251998901,-0.7319633960723877,1.46092689037323,0.32698363065719604,0.45189210772514343,0.25671225786209106,-0.5655394196510315
440,496134,496136,0.06757689267396927,-0.0737890899181366,0.9981550574302673,-4.027091979980469,-0.8195868134498596,1.5716146230697632,-0.7289635539054871,1.4669265747070312,0.32698363065719604,0.4497033655643463,-0.3154245615005493,-0.5025122761726379
441,496144,496146,0.07035272568464279,0.005847232881933451,1.0501182079315186,-5.646681785583496,0.6528353691101074,1.3367992639541626,-0.7259637117385864,1.46092689037323,0.3209839463233948,0.5170348882675171,-0.15380144119262695,-0.5051968097686768
442,496154,496156,0.05693281441926956,0.012788866646587849,1.089550495147705,-3.378525495529175,2.8594539165496826,0.6940547227859497,-0.7334632873535156,1.4714263677597046,0.3224838674068451,0.48662036657333374,0.06294259428977966,-0.5194037556648254
443,496164,496166,0.06083767116069794,-0.05948798358440399,1.0906434059143066,0.6291469931602478,4.707726955413818,0.4802034795284271,-0.7334632873535156,1.4714263677597046,0.3254837095737457,0.5020014643669128,-0.11490397155284882,-0.4971237778663635
444,496174,496176,0.08084635436534882,-0.12085563689470291,1.0513120889663696,5.013800144195557,6.233251571655273,0.6414721012115479,-0.7124643921852112,1.4654266834259033,0.3404829800128937,0.34940293431282043,0.06957315653562546,-0.5061815977096558
445,496184,496186,0.047698237001895905,-0.07395509630441666,1.0096224546432495,5.570813179016113,5.248961448669434,1.7446688413619995,-0.7244637608528137,1.4714263677597046,0.3224838674068451,0.2620689272880554,0.1450500637292862,-0.4982852637767792
446,496194,496196,0.01430224347859621,-0.014605125412344933,0.9501816034317017,5.050145626068115,5.648650646209717,1.8766206502914429,-0.730463445186615,1.459426999092102,0.3224838674068451,0.24471022188663483,0.013406002894043922,-0.4650866985321045
447,496204,496206,0.002723056124523282,0.04684721305966377,0.985582709312439,2.041912317276001,5.847239017486572,1.757419228553772,-0.7274636030197144,1.4474276304244995,0.3314834237098694,0.15008988976478577,0.00943612027913332,-0.44197550415992737
448,496214,496216,0.029517292976379395,0.05412762239575386,1.0211408138275146,-1.366724967956543,5.399984359741211,1.2904067039489746,-0.7259637117385864,1.4639267921447754,0.3209839463233948,0.1273455023765564,-0.04096296802163124,-0.418966144323349
449,496224,496226,0.016929926350712776,0.006379120983183384,1.0222663879394531,-3.554569721221924,1.4996060132980347,1.5111981630325317,-0.730463445186615,1.4534273147583008,0.31048446893692017,0.06149694696068764,-0.06471847742795944,-0.4044491648674011
450,496234,496236,0.02612522430717945,-0.052915364503860474,1.030350685119629,-3.2369277477264404,-0.17052575945854187,0.8812527060508728,-0.7214639186859131,1.4564270973205566,0.3254837095737457,0.11026066541671753,-0.037055179476737976,-0.3925820291042328
451,496244,496246,0.035918157547712326,-0.05890682339668274,1.011502742767334,0.03727467730641365,-3.040680170059204,1.2625741958618164,-0.7214639186859131,1.4714263677597046,0.31948402523994446,0.12437575310468674,0.010896103456616402,-0.3862913250923157
452,496254,496256,-0.0017007767455652356,-0.014821075834333897,1.0465154647827148,3.686655044555664,-4.029163360595703,0.9307299256324768,-0.7349632382392883,1.4519274234771729,0.32698363065719604,0.09577768296003342,-0.03335956856608391,-0.3742111027240753
453,496264,496266,-0.01727033033967018,0.003952577244490385,1.016249179840088,5.575826168060303,-2.693824052810669,1.4400683641433716,-0.7289635539054871,1.4489275217056274,0.32698363065719604,0.14740663766860962,0.04599796235561371,-0.36448201537132263
454,496274,496276,-0.022402223199605942,0.035452842712402344,1.0080562829971313,6.100446701049805,0.3137195110321045,1.7124269008636475,-0.7289635539054871,1.4339282512664795,0.3239837884902954,0.16814164817333221,-0.13217401504516602,-0.34203004837036133
455,496284,496286,0.0033194527495652437,0.015515199862420559,1.011232852935791,4.735225677490234,4.168203830718994,1.5279426574707031,-0.7154642343521118,1.4474276304244995,0.3224838674068451,0.20172172784805298,-0.017626887187361717,-0.325234055519104
456,496294,496296,0.0006379560218192637,-0.02604551799595356,0.9962185621261597,2.356492757797241,6.5103325843811035,1.143579363822937,-0.7319633960723877,1.4549272060394287,0.31798410415649414,0.10852478444576263,0.06225789710879326,-0.3104354441165924
457,496304,496306,-0.034116942435503006,-0.012779450975358486,1.0085458755493164,2.2542712688446045,6.608368873596191,0.9243053197860718,-0.7244637608528137,1.4414279460906982,0.3254837095737457,0.13711057603359222,0.2561716139316559,-0.3027959167957306
458,496314,496316,-0.02536855638027191,-0.05659089609980583,1.0177887678146362,2.59800386428833,6.750756740570068,0.1075117290019989,-0.722963809967041,1.4489275217056274,0.3209839463233948,0.016004880890250206,0.29746711254119873,-0.2943558692932129
459,496324,496326,-0.017661117017269135,-0.07415870577096939,0.9891127943992615,3.701831817626953,4.10717248916626,0.7874782681465149,-0.7289635539054871,1.4519274234771729,0.3239837884902954,-0.0821853056550026,0.2753917872905731,-0.2916872799396515
460,496334,496336,-0.007587573491036892,-0.030333146452903748,0.9854061603546143,1.4674721956253052,1.8311011791229248,0.7779682874679565,-0.7244637608528137,1.4474276304244995,0.3254837095737457,-0.13953955471515656,0.32045891880989075,-0.2856404483318329
461,496344,496346,-0.010416682809591293,-0.01616169884800911,0.9944002032279968,-0.18671374022960663,0.6832718253135681,0.5506249666213989,-0.7289635539054871,1.4339282512664795,0.32998350262641907,-0.164946049451828,0.33517730236053467,-0.2786801755428314
462,496354,496356,-0.014179544523358345,-0.010029196739196777,0.997932493686676,-3.341773509979248,-0.9672338962554932,0.19437453150749207,-0.730463445186615,1.444427728652954,0.3254837095737457,-0.1651175171136856,0.3106306493282318,-0.27382373809814453
463,496364,496366,-0.015912765637040138,0.009456139989197254,1.0089983940124512,-4.8141188621521,-1.8016011714935303,-0.2924594581127167,-0.7199639678001404,1.4429278373718262,0.3329833447933197,-0.144059956073761,0.32008230686187744,-0.2708599865436554
464,496374,496376,-0.05451575666666031,0.0766516923904419,1.00089430809021,-3.185056209564209,-2.9633047580718994,-0.2634429633617401,-0.7109644412994385,1.4399279356002808,0.3329833447933197,-0.10724075883626938,0.2541268765926361,-0.27312543988227844
465,496384,496386,-0.02477766014635563,0.038507129997015,0.9820930361747742,-1.678259015083313,-1.6945760250091553,-0.47425585985183716,-0.7184640765190125,1.444427728652954,0.32848358154296875,-0.07317179441452026,0.21150751411914825,-0.2766265571117401
466,496394,496396,-0.030352119356393814,0.05125720798969269,1.0055103302001953,-0.23684976994991302,-0.5804981589317322,-0.4295647144317627,-0.7199639678001404,1.4309284687042236,0.3119843900203705,-0.05473296716809273,0.19567207992076874,-0.28110742568969727
467,496404,496406,-0.053494445979595184,0.07396535575389862,1.0276334285736084,0.2754308879375458,0.9928293824195862,-0.500511884689331,-0.7259637117385864,1.4579271078109741,0.3239837884902954,-0.058715224266052246,0.1938108652830124,-0.2857123613357544
468,496414,496416,-0.037047985941171646,0.04461100324988365,1.0071054697036743,0.3743922710418701,2.3199398517608643,-0.7610330581665039,-0.7199639678001404,1.4429278373718262,0.31798410415649414,-0.08344979584217072,0.19520683586597443,-0.29153314232826233
469,496424,496426,-0.026762191206216812,0.004604697693139315,0.9909588098526001,1.2918331623077393,1.4023373126983643,-0.48939695954322815,-0.730463445186615,1.4324283599853516,0.3224838674068451,-0.1146765723824501,0.20662744343280792,-0.2986765503883362
470,496434,496436,-0.011000559665262699,-0.02347179315984249,0.9645570516586304,1.6110941171646118,2.3516807556152344,-0.6664875745773315,-0.7334632873535156,1.4624269008636475,0.3314834237098694,-0.15106654167175293,0.22993528842926025,-0.3045192360877991
471,496444,496446,-0.0037960263434797525,-0.05045658349990845,0.9189587235450745,1.8063682317733765,2.525965452194214,-0.5577122569084167,-0.7139642834663391,1.4489275217056274,0.31798410415649414,-0.18762421607971191,0.18736885488033295,-0.3134009838104248
