,timestamp_start,timestamp_end,acc.x,acc.y,acc.z,gyro.x,gyro.y,gyro.z,mag.x,mag.y,mag.z,stabilizer.pitch,stabilizer.roll,stabilizer.yaw
0,278693,278694,-0.016082825139164925,0.03209761530160904,0.9796381592750549,-4.737590312957764,-2.3565988540649414,-0.8737212419509888,-0.7259637117385864,1.4189289808273315,0.3239837884902954,-0.08642670512199402,-0.10404272377490997,1.998658537864685
1,278703,278704,-0.005060023628175259,0.015500867739319801,0.9871944189071655,-3.4644129276275635,-2.387378215789795,-1.4270530939102173,-0.7199639678001404,1.4489275217056274,0.32698363065719604,-0.039796456694602966,-0.8361613154411316,2.0122814178466797
2,278713,278714,0.022505106404423714,-0.02285899966955185,0.952407956123352,1.8224519491195679,-4.175232410430908,-1.0587257146835327,-0.7214639186859131,1.4384280443191528,0.31948402523994446,0.010911079123616219,-0.36076468229293823,1.9849121570587158
3,278723,278724,0.047291893512010574,-0.031722187995910645,0.960250973701477,9.680557250976562,-4.351304531097412,-0.23958894610404968,-0.7184640765190125,1.4324283599853516,0.33448326587677,0.0801517590880394,-0.7669145464897156,1.9846442937850952
4,278733,278734,0.030497370287775993,-0.05204051360487938,0.925531804561615,13.190675735473633,-3.6677143573760986,0.471610426902771,-0.7199639678001404,1.436928153038025,0.32998350262641907,0.14808937907218933,-0.1685093492269516,1.9657349586486816
5,278743,278744,0.004459957126528025,-0.01706559769809246,0.9481315612792969,16.7551212310791,0.6925984621047974,-0.0336029976606369,-0.7184640765190125,1.4324283599853516,0.3254837095737457,-0.3910960853099823,1.294115662574768,1.9807476997375488
6,278753,278754,0.014349564909934998,0.027424590662121773,0.992222249507904,8.940679550170898,3.25563383102417,-0.23052534461021423,-0.7499625086784363,1.421928882598877,0.3209839463233948,-0.4779844582080841,1.3080495595932007,1.9867916107177734
7,278763,278764,0.049899592995643616,0.027126450091600418,1.0057073831558228,-5.018563747406006,0.7868350744247437,-0.7880011200904846,-0.722963809967041,1.421928882598877,0.3209839463233948,-0.45626300573349,1.2081468105316162,1.9837301969528198
8,278773,278774,0.035286348313093185,0.003786341054365039,1.003897786140442,-22.277170181274414,-5.175815582275391,-0.8788994550704956,-0.7274636030197144,1.4234287738800049,0.3314834237098694,-0.4005659222602844,1.0313576459884644,1.975036859512329
9,278783,278784,-0.013192659243941307,-0.02259407937526703,0.9994567632675171,-36.416778564453125,-11.197073936462402,-1.216342806816101,-0.7154642343521118,1.4234287738800049,0.3224838674068451,-0.25661173462867737,0.5954908728599548,1.964570164680481
10,278793,278794,-0.059178777039051056,-0.050869666039943695,0.9703176021575928,-41.746768951416016,-17.025815963745117,-1.5294392108917236,-0.7154642343521118,1.4234287738800049,0.33448326587677,-0.022913241758942604,0.16149918735027313,1.956468105316162
11,278803,278804,-0.055576566606760025,-0.06263338029384613,0.9476932883262634,-37.75868606567383,-20.2175235748291,-1.5972812175750732,-0.7049647569656372,1.4249287843704224,0.31798410415649414,0.3529445230960846,-0.6163654327392578,1.9488537311553955
12,278813,278814,-0.05211166664958,-0.05158345773816109,0.9402144551277161,-25.72504234313965,-20.312376022338867,-1.0800305604934692,-0.7079645991325378,1.445927619934082,0.3119843900203705,0.4186059832572937,-0.8967397809028625,1.9333664178848267
13,278823,278824,-0.022793328389525414,0.06644144654273987,0.901002049446106,-9.327937126159668,-13.153665542602539,0.11397787183523178,-0.7064646482467651,1.4324283599853516,0.3314834237098694,0.7464935779571533,-1.2617368698120117,1.9305565357208252
14,278833,278834,-0.007192715536803007,0.1559501737356186,0.9646212458610535,7.697746753692627,-2.9754409790039062,0.663295328617096,-0.7124643921852112,1.435428261756897,0.32848358154296875,0.7564725279808044,-1.3586727380752563,1.9297281503677368
15,278843,278844,0.018454119563102722,-0.003523759776726365,0.9808962345123291,17.65789031982422,7.037102699279785,-0.14726749062538147,-0.7124643921852112,1.4474276304244995,0.3434828221797943,0.8979860544204712,-1.5201863050460815,1.9398120641708374
16,278853,278854,0.10442725569009781,-0.07521960139274597,1.0425975322723389,24.443281173706055,13.056703567504883,-0.5491203665733337,-0.7184640765190125,1.435428261756897,0.3314834237098694,0.8175718784332275,-1.296589732170105,1.9383713006973267
17,278863,278864,0.06790514290332794,-0.12565720081329346,1.0191227197647095,25.488861083984375,13.822081565856934,0.1623649150133133,-0.7214639186859131,1.4384280443191528,0.3314834237098694,0.6415889859199524,-1.1683228015899658,1.942983627319336
18,278873,278874,-0.015640921890735626,-0.11637662351131439,0.9662674069404602,23.24834442138672,11.906304359436035,0.5528740882873535,-0.7169641256332397,1.4309284687042236,0.33598318696022034,0.7137832641601562,-0.7454776763916016,1.9186592102050781
19,278883,278884,-0.03405223786830902,-0.027226191014051437,0.9484619498252869,15.148481369018555,6.54014778137207,0.9972765445709229,-0.7094644904136658,1.4384280443191528,0.3314834237098694,0.5253838896751404,-0.38053587079048157,1.9207432270050049
20,278893,278894,-0.05937694385647774,0.07863455265760422,0.9531711339950562,7.043381690979004,5.088486194610596,0.8018161058425903,-0.7184640765190125,1.4264286756515503,0.32848358154296875,0.410662978887558,-0.1545661985874176,1.928057074546814
21,278903,278904,-0.10977253317832947,0.0987519845366478,0.8989490866661072,-2.454193353652954,2.1100263595581055,0.9838805198669434,-0.7169641256332397,1.421928882598877,0.3239837884902954,0.5251684784889221,-1.1397751569747925,1.9966309070587158
22,278913,278914,-0.08790896087884903,0.13546903431415558,0.8839194178581238,-6.0121636390686035,0.0952877327799797,0.9507442116737366,-0.7139642834663391,1.4309284687042236,0.3119843900203705,0.4677979648113251,-1.17044997215271,2.0066869258880615
23,278923,278924,-0.0046989270485937595,0.13567638397216797,0.9552029967308044,-3.342989921569824,-0.2599102556705475,0.6932584047317505,-0.7109644412994385,1.421928882598877,0.3239837884902954,0.451796293258667,-1.187231421470642,2.011622905731201
24,278933,278934,0.002633526688441634,0.029695168137550354,0.9688094854354858,8.706780433654785,-0.3274243474006653,0.511673629283905,-0.7244637608528137,1.4264286756515503,0.3254837095737457,0.5170717239379883,-1.157731294631958,2.006012439727783
25,278943,278944,0.005544562824070454,-0.08643052726984024,0.9840781688690186,18.884706497192383,1.7215129137039185,-0.22429059445858002,-0.7154642343521118,1.4264286756515503,0.3224838674068451,0.5767508149147034,-0.9430223703384399,1.9931812286376953
26,278953,278954,-0.004501715302467346,-0.043081969022750854,0.9661589860916138,31.378664016723633,4.943244457244873,1.2595237493515015,-0.7064646482467651,1.4324283599853516,0.32848358154296875,0.5292410254478455,-0.6419886350631714,1.986996054649353
27,278963,278964,-0.04764172434806824,0.06162891536951065,0.9557446837425232,33.16450500488281,5.223409652709961,1.8153903484344482,-0.7184640765190125,1.4174290895462036,0.31948402523994446,0.4298498034477234,-0.16129790246486664,1.9898134469985962
28,278973,278974,-0.09730858355760574,0.09687989205121994,0.9242838621139526,30.422937393188477,10.149293899536133,1.630570888519287,-0.736463189125061,1.408429503440857,0.31948402523994446,0.4458058476448059,-0.20162978768348694,2.027252674102783
29,278983,278984,-0.05418233200907707,0.08432290703058243,0.9086923003196716,22.830652236938477,13.538982391357422,1.2092421054840088,-0.7274636030197144,1.4144293069839478,0.31948402523994446,0.25317490100860596,0.2855263948440552,2.0380465984344482
30,278993,278994,0.029562829062342644,0.08475811034440994,0.952958345413208,14.797741889953613,13.926050186157227,0.8186467289924622,-0.7274636030197144,1.4174290895462036,0.3164841830730438,0.16300128400325775,0.43744659423828125,2.0530216693878174
31,279003,279004,0.05631130188703537,0.04442451149225235,0.9747287631034851,4.403700351715088,11.837502479553223,0.41807791590690613,-0.730463445186615,1.4234287738800049,0.3314834237098694,0.07033206522464752,0.5313093662261963,2.063755989074707
32,279013,279014,0.06827696412801743,-0.03543923422694206,0.9708812832832336,0.7567359209060669,9.440917015075684,-0.004569179378449917,-0.7199639678001404,1.4129292964935303,0.31798410415649414,-0.056122712790966034,0.6076353788375854,2.069718599319458
33,279023,279024,0.03627892583608627,-0.05663903057575226,1.0250378847122192,-0.7480359673500061,4.51467227935791,-0.11114385724067688,-0.7199639678001404,1.4129292964935303,0.31798410415649414,-0.139430969953537,0.4158974289894104,2.0848023891448975
34,279033,279034,-0.03530021756887436,-0.06754569709300995,0.9929189682006836,1.5134283304214478,-0.0793246328830719,0.04654954746365547,-0.7199639678001404,1.4129292964935303,0.31798410415649414,-0.22915993630886078,0.4895968437194824,2.083721876144409
35,279043,279044,-0.0996847152709961,-0.03393061086535454,0.9446158409118652,7.324397087097168,-3.1062564849853516,0.513670027256012,-0.7199639678001404,1.4129292964935303,0.31798410415649414,-0.18966563045978546,0.3887661099433899,2.0882089138031006
36,279053,279054,-0.09746698290109634,0.04222097992897034,0.8766422271728516,13.83084774017334,-2.4717648029327393,1.590356707572937,-0.7214639186859131,1.4174290895462036,0.31048446893692017,-0.18253852427005768,0.5846961736679077,2.0871634483337402
37,279063,279064,-0.004905750975012779,0.15803103148937225,0.9378677010536194,18.00856590270996,1.0467437505722046,1.7535282373428345,-0.7274636030197144,1.408429503440857,0.3254837095737457,-0.17400914430618286,0.7997876405715942,2.095806837081909
38,279073,279074,-0.002409016015008092,0.1178884357213974,0.984874963760376,20.46952247619629,5.074926376342773,1.368991732597351,-0.7244637608528137,1.4114294052124023,0.31048446893692017,-0.07512379437685013,0.8782852292060852,2.111567974090576
39,279083,279084,0.056975506246089935,-0.0023920920211821795,1.0003734827041626,18.073232650756836,8.159092903137207,0.19191600382328033,-0.7289635539054871,1.4159291982650757,0.3149842321872711,-0.23660016059875488,1.1330890655517578,2.1232597827911377
40,279093,279094,0.07863851636648178,-0.05715363845229149,1.0212482213974,13.854697227478027,8.823989868164062,-0.30867114663124084,-0.7259637117385864,1.4129292964935303,0.31798410415649414,-0.29564955830574036,1.3517582416534424,2.1310205459594727
41,279103,279104,0.01601196452975273,-0.1291392743587494,0.9543560147285461,8.241790771484375,7.581802845001221,-0.1229332685470581,-0.730463445186615,1.4174290895462036,0.3224838674068451,-0.5741420388221741,1.7027944326400757,2.1274313926696777
42,279113,279114,0.000876365345902741,-0.1236078217625618,0.8932949900627136,2.195802927017212,4.502902507781982,0.18807454407215118,-0.7184640765190125,1.4024298191070557,0.31948402523994446,-0.6861841678619385,1.4066660404205322,2.1268484592437744
43,279123,279124,-0.04153835400938988,-0.050919078290462494,0.8865242004394531,-4.062780857086182,-2.72265625,0.9101139307022095,-0.7469626665115356,1.4009299278259277,0.31798410415649414,-0.6850007772445679,1.512902021408081,2.1368472576141357
44,279133,279134,-0.04924052953720093,0.014643431641161442,0.8964980840682983,-4.9453864097595215,-6.5649237632751465,0.37896379828453064,-0.7319633960723877,1.4039298295974731,0.3149842321872711,-0.5821297764778137,1.5128486156463623,2.1516995429992676
45,279143,279144,-0.03191550076007843,-0.013097165152430534,0.9061240553855896,-1.135729193687439,-8.090193748474121,0.17247337102890015,-0.7244637608528137,1.4144293069839478,0.3224838674068451,-0.5549734830856323,1.4241856336593628,2.146010398864746
46,279153,279154,-0.008396503515541553,-0.0015819278778508306,0.9391514658927917,2.403531312942505,-8.463245391845703,-0.015874089673161507,-0.7199639678001404,1.421928882598877,0.3239837884902954,-0.43547412753105164,1.460201382637024,2.1505465507507324
47,279163,279164,-0.045010119676589966,0.019896313548088074,0.9700573086738586,4.0958027839660645,-7.659842491149902,-0.41867920756340027,-0.7199639678001404,1.4129292964935303,0.3059847056865692,-0.3123115003108978,1.5382366180419922,2.1561107635498047
48,279173,279174,-0.03076605126261711,-0.02813037857413292,0.9337154626846313,4.572228908538818,-3.222182273864746,-0.018078066408634186,-0.722963809967041,1.4159291982650757,0.3239837884902954,-0.2071915566921234,1.434319257736206,2.1488442420959473
49,279183,279184,-0.005786821711808443,0.01946733519434929,0.9878471493721008,4.047168731689453,2.6021318435668945,-0.40419209003448486,-0.722963809967041,1.4249287843704224,0.30898454785346985,-0.025748014450073242,1.5581587553024292,2.175091028213501
50,279193,279194,-0.006614932790398598,-0.01411013025790453,0.957770586013794,5.136382102966309,4.841660976409912,-0.009961331263184547,-0.7274636030197144,1.4234287738800049,0.3224838674068451,-0.07638620585203171,1.607385516166687,2.168583631515503
51,279203,279204,-0.039049405604600906,0.06679941713809967,0.9586509466171265,3.6674299240112305,6.5265398025512695,0.10517560690641403,-0.722963809967041,1.4249287843704224,0.31798410415649414,-0.16623401641845703,1.731361985206604,2.1654605865478516
52,279213,279214,-0.04018043354153633,0.08910685032606125,1.0002285242080688,0.06426185369491577,10.527963638305664,-0.22984641790390015,-0.7319633960723877,1.436928153038025,0.32698363065719604,-0.36096519231796265,1.8244279623031616,2.1462011337280273
53,279223,279224,-0.006749907974153757,0.022132420912384987,0.9822066426277161,-4.1864333152771,9.408284187316895,-0.2961333692073822,-0.7454627156257629,1.4234287738800049,0.31948402523994446,-0.5361708402633667,1.785008430480957,2.130303382873535
54,279233,279234,0.011768443509936333,0.006381130311638117,0.9704159498214722,-5.348181247711182,5.141632080078125,0.25470659136772156,-0.7469626665115356,1.4279285669326782,0.3149842321872711,-0.68600994348526,1.746974229812622,2.11869478225708
55,279243,279244,-0.0031143396627157927,0.01295318640768528,0.9909693598747253,-7.33026123046875,-0.7017195224761963,-0.6885213255882263,-0.7259637117385864,1.4189289808273315,0.31798410415649414,-0.5554398894309998,1.6087485551834106,2.1549980640411377
56,279253,279254,-0.012053084559738636,-0.0008333900477737188,0.9851313829421997,-8.505326271057129,-5.670639514923096,-1.0375536680221558,-0.7409629225730896,1.421928882598877,0.3209839463233948,-0.5579438805580139,1.5845296382904053,2.1510026454925537
57,279263,279264,-0.06307751685380936,0.03325219452381134,0.9960470795631409,-8.03879451751709,-9.11648178100586,-0.9789086580276489,-0.7319633960723877,1.4309284687042236,0.31798410415649414,-0.4106828570365906,1.5456799268722534,2.1652276515960693
58,279273,279274,-0.07983516901731491,-0.028858089819550514,0.9155988097190857,-5.958974838256836,-9.847441673278809,-0.49906256794929504,-0.730463445186615,1.4174290895462036,0.3164841830730438,-0.3523527681827545,1.442974328994751,2.1472301483154297
59,279283,279284,-0.048268161714076996,0.0262717604637146,0.9425424933433533,-2.714034080505371,-6.156514644622803,-0.05312289670109749,-0.7244637608528137,1.4294284582138062,0.32848358154296875,-0.2152210921049118,1.3771727085113525,2.1509480476379395
60,279293,279294,-0.03758895769715309,0.07906122505664825,0.9658451676368713,1.3544398546218872,-0.5971201062202454,0.2205730527639389,-0.7154642343521118,1.4264286756515503,0.30748462677001953,-0.20938703417778015,1.360288143157959,2.135629177093506
61,279303,279304,-0.03234485536813736,0.09522397816181183,0.9997778534889221,-0.13158726692199707,4.845949172973633,0.010021225549280643,-0.7289635539054871,1.4279285669326782,0.3149842321872711,-0.2158517837524414,1.3899670839309692,2.1337051391601562
62,279313,279314,0.04349076747894287,-0.0049447426572442055,1.0006191730499268,-2.7715060710906982,10.383269309997559,-1.0646494626998901,-0.730463445186615,1.420428991317749,0.3164841830730438,-0.29630061984062195,1.394364356994629,2.125288963317871
63,279323,279324,0.09766089171171188,-0.0687842145562172,1.0571225881576538,-4.315333843231201,10.673685073852539,-1.7956045866012573,-0.7334632873535156,1.4264286756515503,0.3254837095737457,-0.4440181851387024,1.359100580215454,2.103971242904663
64,279333,279334,0.05435558781027794,-0.10179784893989563,1.070159673690796,-7.383552551269531,6.807758808135986,-1.665207862854004,-0.7319633960723877,1.4279285669326782,0.30898454785346985,-0.5937427878379822,1.3004875183105469,2.078296184539795
65,279343,279344,-0.028717583045363426,-0.09667547792196274,1.0228915214538574,-8.40074634552002,0.3221666216850281,-0.7551207542419434,-0.7274636030197144,1.435428261756897,0.31948402523994446,-0.6862109303474426,1.2054176330566406,2.0584042072296143
66,279353,279354,-0.05456241965293884,-0.014213372953236103,0.9750024080276489,-7.399495601654053,-5.447083473205566,0.032459743320941925,-0.7349632382392883,1.4249287843704224,0.33598318696022034,-0.6146456599235535,1.22759211063385,2.0787768363952637
67,279363,279364,-0.05984855815768242,0.06286431849002838,0.9382432699203491,-6.627536296844482,-8.760954856872559,0.0787169337272644,-0.7259637117385864,1.4129292964935303,0.30898454785346985,-0.5310618281364441,1.2519596815109253,2.0927350521087646
68,279373,279374,-0.027083585038781166,0.1236954778432846,0.9724200963973999,-5.495487213134766,-8.801091194152832,-0.13939014077186584,-0.736463189125061,1.4264286756515503,0.3224838674068451,-0.39533594250679016,1.06856369972229,2.090008497238159
69,279383,279384,-0.003928049933165312,0.015308610163629055,0.9815160036087036,-6.593709945678711,-7.566932678222656,-1.6999050378799438,-0.7244637608528137,1.4264286756515503,0.31948402523994446,-0.25573447346687317,1.1839412450790405,2.1073215007781982
70,279393,279394,0.045476578176021576,-0.06608256697654724,1.0140130519866943,-9.354517936706543,-1.7210314273834229,-1.3890467882156372,-0.7214639186859131,1.4174290895462036,0.3164841830730438,-0.20549406111240387,1.2701013088226318,2.097207546234131
71,279403,279404,0.08029986172914505,-0.12194402515888214,0.9886268377304077,-10.498602867126465,2.363464593887329,-1.3505407571792603,-0.7289635539054871,1.4309284687042236,0.33898305892944336,-0.3708529472351074,1.0987330675125122,2.035529136657715
72,279413,279414,0.04893181100487709,-0.10561313480138779,0.983241081237793,-15.136026382446289,1.3585845232009888,-0.7602331042289734,-0.7214639186859131,1.435428261756897,0.3164841830730438,-0.3136294186115265,0.9053337574005127,2.0306448936462402
73,279423,279424,0.03161466866731644,-0.06428997218608856,0.9623964428901672,-14.951016426086426,-0.5372183322906494,-0.5962727069854736,-0.7199639678001404,1.421928882598877,0.31798410415649414,-0.3348998427391052,0.7193889021873474,2.017072916030884
74,279433,279434,0.017854059115052223,-0.0128764808177948,0.9657313823699951,-13.83869457244873,-1.126268982887268,-0.7833203077316284,-0.7259637117385864,1.4429278373718262,0.32998350262641907,-0.33278918266296387,0.45786479115486145,2.0006346702575684
75,279443,279444,-0.02271885983645916,0.0395728275179863,1.001965045928955,-9.793191909790039,-0.9314589500427246,-1.958551287651062,-0.7394630312919617,1.4294284582138062,0.31948402523994446,-0.11059470474720001,0.21896064281463623,2.023419141769409
76,279453,279454,-0.03913320228457451,0.0956670418381691,1.0530791282653809,-6.9305806159973145,-2.0177738666534424,-2.2943038940429688,-0.7274636030197144,1.4414279460906982,0.31948402523994446,-0.11262641102075577,0.4675355553627014,2.027268409729004
77,279463,279464,-0.01700707897543907,0.03262054920196533,1.0223283767700195,-1.8162891864776611,-1.0500096082687378,-1.861464500427246,-0.7274636030197144,1.4324283599853516,0.3254837095737457,-0.3736717402935028,0.6135956048965454,1.9762576818466187
78,279473,279474,-0.05015596002340317,-0.005243559833616018,0.9572330117225647,-1.3563034534454346,-4.550364971160889,-0.9127926230430603,-0.7319633960723877,1.4339282512664795,0.3239837884902954,-0.34466513991355896,0.5382522344589233,1.9573451280593872
79,279483,279484,-0.08974618464708328,0.05956517904996872,0.9442863464355469,-3.3309383392333984,-4.384700775146484,-0.9065629839897156,-0.7349632382392883,1.445927619934082,0.32698363065719604,-0.34731343388557434,0.5421929955482483,1.9414963722229004
80,279493,279494,-0.05150642991065979,0.11410120874643326,0.9383895397186279,-6.551390647888184,-4.621140480041504,-1.0509555339813232,-0.7394630312919617,1.435428261756897,0.30748462677001953,-0.27884501218795776,0.5039844512939453,1.9319995641708374
81,279503,279504,0.0034550803247839212,0.11838279664516449,0.9511404633522034,-12.221019744873047,-4.0531744956970215,-1.5320627689361572,-0.736463189125061,1.4534273147583008,0.3134843111038208,-0.20502221584320068,0.3349723219871521,1.914905309677124
82,279513,279514,0.02927255444228649,0.06530369073152542,0.9821833372116089,-16.517383575439453,-2.923323154449463,-2.008139133453369,-0.7259637117385864,1.436928153038025,0.31798410415649414,-0.27161842584609985,0.2235361784696579,1.885874629020691
83,279523,279524,0.01821700483560562,-0.010911259800195694,1.0263817310333252,-19.200693130493164,-3.2308874130249023,-2.497901678085327,-0.7334632873535156,1.444427728652954,0.3044847846031189,-0.1974077671766281,0.05055534839630127,1.8694591522216797
84,279533,279534,0.02265804260969162,-0.11616644263267517,1.0109161138534546,-16.264827728271484,-4.983682155609131,-2.8213305473327637,-0.7214639186859131,1.435428261756897,0.3164841830730438,-0.2544102370738983,-0.08259733766317368,1.8405375480651855
85,279543,279544,0.004151982720941305,-0.11205162853002548,1.012732744216919,-11.670055389404297,-8.161952018737793,-1.920485496520996,-0.737963080406189,1.4279285669326782,0.3239837884902954,-0.14471913874149323,-0.3822801113128662,1.8127132654190063
86,279553,279554,-0.06096366047859192,-0.0948578491806984,1.0091522932052612,-6.702264785766602,-9.080790519714355,-1.5275812149047852,-0.730463445186615,1.435428261756897,0.3224838674068451,-0.0731874406337738,-0.2559188902378082,1.8062769174575806
87,279563,279564,-0.08066317439079285,0.056608445942401886,1.037392497062683,-2.7124834060668945,-7.701844692230225,-1.4860378503799438,-0.730463445186615,1.4414279460906982,0.31948402523994446,0.07547857612371445,-0.4186258316040039,1.7881280183792114
88,279573,279574,-0.07364217191934586,0.09355665743350983,1.0325185060501099,-3.8490636348724365,-4.44611930847168,-1.4726008176803589,-0.737963080406189,1.4429278373718262,0.3209839463233948,0.1990731954574585,-0.5163028240203857,1.7729315757751465
89,279583,279584,-0.07258006185293198,0.059612173587083817,1.0477973222732544,-3.7509095668792725,0.36096805334091187,-2.0183675289154053,-0.7259637117385864,1.445927619934082,0.31798410415649414,0.2756718695163727,-0.5468218922615051,1.7613296508789062
90,279593,279594,-0.06178877875208855,-0.006103855092078447,1.0245145559310913,-4.469181060791016,1.6091583967208862,-2.0177724361419678,-0.7214639186859131,1.435428261756897,0.3164841830730438,0.008174700662493706,-0.6379442811012268,1.7437899112701416
91,279603,279604,-0.0867479145526886,0.007352934218943119,0.9855332374572754,-4.2300519943237305,1.6490397453308105,-1.2511576414108276,-0.730463445186615,1.435428261756897,0.3224838674068451,0.14887438714504242,-0.531133234500885,1.728322982788086
92,279613,279614,-0.08574218302965164,0.06845749914646149,0.9371625781059265,-4.5561909675598145,0.008078272454440594,-0.6085941195487976,-0.736463189125061,1.444427728652954,0.3164841830730438,0.057960301637649536,-0.6451840400695801,1.7153210639953613
93,279623,279624,-0.03134667128324509,0.1253296583890915,0.9288386702537537,-5.023007392883301,-0.24688678979873657,-0.7154867649078369,-0.722963809967041,1.4309284687042236,0.3209839463233948,0.06448856741189957,-0.7631092667579651,1.702912449836731
94,279633,279634,0.013433689251542091,0.16122275590896606,0.9890236854553223,-5.193709850311279,-1.5601115226745605,-1.0109835863113403,-0.7259637117385864,1.4429278373718262,0.31798410415649414,0.15437035262584686,-0.8177909851074219,1.6866905689239502
95,279643,279644,0.0270293727517128,0.07559717446565628,1.0145480632781982,-4.571394443511963,-1.9003000259399414,-2.1459977626800537,-0.7214639186859131,1.435428261756897,0.3224838674068451,0.20068678259849548,-0.942184329032898,1.6715548038482666
96,279653,279654,0.06230355426669121,-0.037518661469221115,1.028542160987854,-2.651549816131592,-2.6527042388916016,-2.6934170722961426,-0.7274636030197144,1.444427728652954,0.3224838674068451,0.12490922212600708,-0.8356326818466187,1.6613491773605347
97,279663,279664,0.02055574581027031,-0.02990899421274662,0.9943795800209045,0.3786935806274414,-5.507847309112549,-1.944563865661621,-0.737963080406189,1.4519274234771729,0.32698363065719604,0.1390964537858963,-0.9126195311546326,1.6428909301757812
98,279673,279674,0.0009520933963358402,-0.07608163356781006,0.9977597594261169,0.26714929938316345,-5.102829933166504,-2.4468817710876465,-0.7349632382392883,1.436928153038025,0.3149842321872711,0.25125429034233093,-0.9379779696464539,1.6199839115142822
99,279683,279684,-0.03272469714283943,-0.06729786843061447,1.0205961465835571,1.9885854721069336,-4.585381031036377,-1.2506415843963623,-0.7199639678001404,1.436928153038025,0.31798410415649414,0.3499769866466522,-0.9528814554214478,1.5962694883346558
100,279693,279694,-0.06287013739347458,-0.004941178951412439,0.9930523037910461,2.32790207862854,-2.5683939456939697,-0.9861965775489807,-0.7169641256332397,1.421928882598877,0.32698363065719604,0.35713863372802734,-0.94333815574646,1.59013831615448
101,279703,279704,-0.06578665226697922,0.08540929853916168,0.9882076978683472,0.572791576385498,-0.7938316464424133,-0.9161251783370972,-0.7259637117385864,1.4309284687042236,0.3239837884902954,0.4093902111053467,-0.9299042820930481,1.5758355855941772
102,279713,279714,-0.04583679884672165,0.11346084624528885,0.9801017045974731,-0.47898921370506287,3.356531858444214,-1.2504491806030273,-0.722963809967041,1.4339282512664795,0.31798410415649414,0.4246944189071655,-0.8745617270469666,1.5606048107147217
103,279723,279724,-0.01028655469417572,0.04159526899456978,0.9648393988609314,-0.21662329137325287,5.205499649047852,-1.6779464483261108,-0.7199639678001404,1.436928153038025,0.3239837884902954,0.37351927161216736,-0.9058113098144531,1.5487556457519531
104,279733,279734,0.036283981055021286,0.009929005056619644,0.9938227534294128,-1.3445098400115967,6.645266056060791,-1.9057163000106812,-0.7184640765190125,1.4384280443191528,0.3224838674068451,0.2971471846103668,-0.9342871308326721,1.5357688665390015
105,279743,279744,0.07333632558584213,-0.04872995615005493,0.9968973398208618,-1.1259968280792236,4.640467643737793,-2.019508123397827,-0.7169641256332397,1.4429278373718262,0.3149842321872711,0.2112085074186325,-0.9766794443130493,1.5228716135025024
106,279753,279754,0.06390165537595749,-0.13301552832126617,0.9662081599235535,1.0414094924926758,0.5761868357658386,-2.112755060195923,-0.7244637608528137,1.4324283599853516,0.30748462677001953,0.1578754037618637,-1.008467674255371,1.5073113441467285
107,279763,279764,0.020870627835392952,-0.12071865051984787,0.9752662777900696,2.3966307640075684,-4.076719284057617,-2.009474992752075,-0.7124643921852112,1.444427728652954,0.3134843111038208,0.16791501641273499,-1.0014833211898804,1.486580729484558
108,279773,279774,-0.05065574124455452,-0.060159191489219666,0.9876018762588501,3.249159574508667,-6.588282585144043,-1.8852554559707642,-0.7214639186859131,1.4384280443191528,0.3254837095737457,0.24304313957691193,-1.037646770477295,1.463788390159607
109,279783,279784,-0.0868312194943428,0.004203688353300095,0.9592227339744568,5.82628059387207,-7.631127834320068,-1.033912181854248,-0.7154642343521118,1.4414279460906982,0.3134843111038208,0.3539312481880188,-0.9160693883895874,1.4318817853927612
110,279793,279794,-0.04166584461927414,0.04582292214035988,0.9784007668495178,5.909980773925781,-1.7434377670288086,-1.3225758075714111,-0.7109644412994385,1.4429278373718262,0.31798410415649414,0.472299188375473,-0.9017535448074341,1.4114973545074463
111,279803,279804,0.004848782438784838,0.039577484130859375,1.0007102489471436,6.301660060882568,1.6906297206878662,-1.162458062171936,-0.7199639678001404,1.4309284687042236,0.32698363065719604,0.3001573085784912,-0.8786924481391907,1.4399465322494507
112,279813,279814,0.016706371679902077,-0.008250828832387924,0.965050220489502,5.194724082946777,3.1221556663513184,-0.9294945597648621,-0.7274636030197144,1.444427728652954,0.3254837095737457,0.22347554564476013,-0.8454129695892334,1.442826509475708
113,279823,279824,0.009001153521239758,-0.016754066571593285,0.9683058857917786,5.010261058807373,3.375359058380127,-1.1189141273498535,-0.7274636030197144,1.444427728652954,0.3134843111038208,0.12457151710987091,-0.7579004168510437,1.4445068836212158
114,279833,279834,0.008940321393311024,0.01922445558011532,1.0052684545516968,4.775195598602295,0.473396360874176,-1.3350852727890015,-0.7289635539054871,1.4339282512664795,0.32998350262641907,0.16894333064556122,-0.6785803437232971,1.4162801504135132
115,279843,279844,-0.003160756081342697,0.02030254900455475,1.0133936405181885,4.358190536499023,-2.569746494293213,-1.2064244747161865,-0.7259637117385864,1.4399279356002808,0.31798410415649414,0.18158084154129028,-0.6049702763557434,1.3990228176116943
116,279853,279854,-0.01906581036746502,0.02322235330939293,1.0172951221466064,4.032297134399414,-4.266340255737305,-1.163757085800171,-0.7094644904136658,1.4504274129867554,0.32848358154296875,0.17068149149417877,-0.5372890830039978,1.3932000398635864
117,279863,279864,-0.007022056262940168,-0.04114390164613724,0.9771714210510254,2.9259772300720215,-7.82936954498291,-0.7489135265350342,-0.7169641256332397,1.4429278373718262,0.3209839463233948,0.26585853099823,-0.5456987619400024,1.3760713338851929
118,279873,279874,-0.007263103500008583,-0.04792629927396774,0.9633877873420715,2.032294273376465,-8.287707328796387,-0.5206907987594604,-0.7244637608528137,1.4384280443191528,0.30748462677001953,0.4059275686740875,-0.5650655627250671,1.3597514629364014
119,279883,279884,-0.04019435867667198,0.06331536173820496,1.0202562808990479,2.8129029273986816,-6.128018856048584,-0.7570009827613831,-0.730463445186615,1.444427728652954,0.31948402523994446,0.5438591837882996,-0.52663254737854,1.3420405387878418
120,279893,279894,-0.042719095945358276,0.12335842847824097,1.0413484573364258,2.843729019165039,-1.7496459484100342,-0.7967749834060669,-0.7259637117385864,1.445927619934082,0.3209839463233948,0.5674527883529663,-0.47589752078056335,1.3388081789016724
121,279903,279904,-0.0452292375266552,0.0925656110048294,1.0500211715698242,3.6149981021881104,4.03733491897583,-1.1392405033111572,-0.7199639678001404,1.4429278373718262,0.3209839463233948,0.5935137867927551,-0.4279835820198059,1.3276097774505615
122,279913,279914,-0.021858543157577515,-0.026334764435887337,0.9864098429679871,2.5152103900909424,6.83328104019165,-1.1527800559997559,-0.7274636030197144,1.444427728652954,0.31948402523994446,0.5335081815719604,-0.5093159675598145,1.3313127756118774
123,279923,279924,-0.009067815728485584,-0.07068648934364319,0.94626384973526,3.3343749046325684,6.933054447174072,-0.5317234992980957,-0.7184640765190125,1.4504274129867554,0.3224838674068451,0.7140530943870544,-0.45132526755332947,1.2789394855499268
124,279933,279934,-0.011595647782087326,-0.012497344985604286,0.957679271697998,4.474933624267578,6.534460544586182,0.38400039076805115,-0.730463445186615,1.4324283599853516,0.3164841830730438,0.5269911289215088,-0.38451069593429565,1.2917238473892212
125,279943,279944,0.025649098679423332,0.04986456036567688,0.9704925417900085,7.103604793548584,7.126970291137695,0.24138036370277405,-0.7349632382392883,1.4489275217056274,0.3149842321872711,0.4865161180496216,-0.2975286841392517,1.2850666046142578
126,279953,279954,0.062005288898944855,0.08385750651359558,1.0044275522232056,7.983004570007324,7.4159040451049805,0.4472193419933319,-0.7214639186859131,1.4324283599853516,0.31948402523994446,0.2943529486656189,-0.248188778758049,1.3051804304122925
127,279963,279964,0.10689140111207962,0.03085200861096382,0.9998498558998108,5.34473991394043,6.772014141082764,0.09708402305841446,-0.7139642834663391,1.4429278373718262,0.3119843900203705,0.03524326905608177,-0.25635048747062683,1.3410569429397583
128,279973,279974,0.12708666920661926,-0.038228750228881836,1.0295186042785645,2.476257801055908,4.564651012420654,-0.6879172921180725,-0.737963080406189,1.4489275217056274,0.3239837884902954,-0.05702309310436249,-0.15804602205753326,1.3408925533294678
129,279983,279984,0.03231487795710564,-0.030581744387745857,1.03340482711792,2.358323574066162,-3.2331793308258057,-0.2736087441444397,-0.7349632382392883,1.4399279356002808,0.32698363065719604,-0.03404800221323967,-0.039130378514528275,1.3203169107437134
130,279993,279994,0.004743184428662062,-0.1079474687576294,1.0180400609970093,0.2000865340232849,-5.9267449378967285,-0.6944965720176697,-0.7409629225730896,1.445927619934082,0.3239837884902954,-0.04526739940047264,-0.07173770666122437,1.3254287242889404
131,280003,280004,-0.01255043689161539,-0.16255740821361542,1.0227771997451782,0.6583986878395081,-9.791889190673828,-0.2618420720100403,-0.7169641256332397,1.4279285669326782,0.3149842321872711,0.14145241677761078,-0.05670468136668205,1.3058836460113525
132,280013,280014,-0.02785857766866684,-0.08583982288837433,1.0001299381256104,2.0658485889434814,-10.812743186950684,0.5591356158256531,-0.7244637608528137,1.4414279460906982,0.32848358154296875,0.236032173037529,-0.037979498505592346,1.3038699626922607
133,280023,280024,-0.04949627071619034,0.07295861840248108,1.041542410850525,2.46211576461792,-9.001891136169434,0.8467335104942322,-0.7169641256332397,1.4339282512664795,0.3119843900203705,0.12995702028274536,0.005297672003507614,1.3285846710205078
134,280033,280034,-0.0335623137652874,0.14378485083580017,1.0640820264816284,1.6408518552780151,-4.85505485534668,0.7846338152885437,-0.7259637117385864,1.4279285669326782,0.3239837884902954,0.21458537876605988,0.04568317532539368,1.3333463668823242
135,280043,280044,-0.015290840528905392,0.06202854588627815,1.0420342683792114,2.3903651237487793,-1.6184676885604858,0.6068872213363647,-0.7319633960723877,1.436928153038025,0.31798410415649414,0.23824627697467804,0.14214523136615753,1.3366522789001465
136,280053,280054,-0.009477866813540459,-0.009574096649885178,1.005562663078308,-0.32892635464668274,-1.6757910251617432,0.5617408156394958,-0.722963809967041,1.4489275217056274,0.3149842321872711,0.2877233028411865,0.10307671874761581,1.341726541519165
137,280063,280064,-0.042075835168361664,-0.013054223731160164,0.9645980000495911,-0.6022727489471436,-2.2933130264282227,0.9842758178710938,-0.7109644412994385,1.4279285669326782,0.30898454785346985,0.335389107465744,0.09921123087406158,1.34580659866333
138,280073,280074,-0.04741865396499634,0.02646815963089466,0.915833055973053,-1.7113183736801147,-2.8006644248962402,1.4631943702697754,-0.7289635539054871,1.4279285669326782,0.31798410415649414,0.3907719850540161,0.09104565531015396,1.3524779081344604
139,280083,280084,-0.0015025472966954112,0.07486161589622498,0.9049777984619141,-0.029528619721531868,-2.3352346420288086,1.4257853031158447,-0.722963809967041,1.4429278373718262,0.3209839463233948,0.2388213872909546,0.1356639713048935,1.3715544939041138
140,280093,280094,0.011486339382827282,0.1297261267900467,0.9671815037727356,-0.05400212109088898,-1.8661247491836548,1.420591950416565,-0.7319633960723877,1.4309284687042236,0.3149842321872711,0.3000178039073944,0.12783457338809967,1.3801419734954834
141,280103,280104,0.026796212419867516,0.0740165039896965,1.004417896270752,-1.7323609590530396,-0.8811877965927124,0.6755448579788208,-0.7109644412994385,1.4339282512664795,0.3209839463233948,0.34910640120506287,0.04974118247628212,1.3928191661834717
142,280113,280114,0.043717436492443085,-0.025023939087986946,1.0279514789581299,-1.5315425395965576,-1.6941334009170532,-0.04015149176120758,-0.7154642343521118,1.4384280443191528,0.3224838674068451,0.3836190700531006,0.022570127621293068,1.3986709117889404
143,280123,280124,0.03921924903988838,-0.10401496291160583,1.0263205766677856,-2.711616039276123,-2.8509361743927,-0.5176559090614319,-0.736463189125061,1.4294284582138062,0.3254837095737457,0.4315735399723053,-0.004213904961943626,1.4005242586135864
144,280133,280134,-0.04702933505177498,-0.06491098552942276,1.0615878105163574,-0.2973633110523224,-4.646306991577148,0.23956197500228882,-0.7184640765190125,1.444427728652954,0.3134843111038208,0.4241299033164978,-0.03757811337709427,1.401822566986084
145,280143,280144,-0.08066360652446747,-0.00778581015765667,1.0144827365875244,2.495603322982788,-4.226055145263672,0.538532018661499,-0.7259637117385864,1.4579271078109741,0.31798410415649414,0.5143827199935913,-0.02824675291776657,1.4037582874298096
146,280153,280154,-0.07018721103668213,0.07934161275625229,1.0165659189224243,2.8530080318450928,-2.820514678955078,0.5720344185829163,-0.7214639186859131,1.4414279460906982,0.31048446893692017,0.5883991122245789,0.01820320263504982,1.4057732820510864
147,280163,280164,-0.0755511000752449,0.11539513617753983,1.0485930442810059,0.6671575903892517,1.030576467514038,-0.03343741223216057,-0.722963809967041,1.436928153038025,0.31798410415649414,0.6321364641189575,-0.005698363296687603,1.4123700857162476
148,280173,280174,-0.09979391098022461,0.08977968245744705,1.0826287269592285,-0.640262246131897,4.664699077606201,-0.238816499710083,-0.7319633960723877,1.436928153038025,0.3329833447933197,0.619608998298645,0.008561386726796627,1.4126890897750854
149,280183,280184,-0.05239752680063248,-0.05181162804365158,0.9941081404685974,-1.3801597356796265,4.399759292602539,-0.22343844175338745,-0.7439627647399902,1.4489275217056274,0.31798410415649414,0.5580947399139404,-0.06688155233860016,1.4185322523117065
150,280193,280194,-0.05441585183143616,-0.019856564700603485,0.9652703404426575,-0.8876072764396667,2.8260483741760254,0.6675742864608765,-0.7319633960723877,1.4399279356002808,0.3149842321872711,0.5004136562347412,-0.004005084279924631,1.4143229722976685
151,280203,280204,-0.071388378739357,0.11860758811235428,0.9788419604301453,1.4326317310333252,2.5401718616485596,0.9191269278526306,-0.7349632382392883,1.445927619934082,0.30898454785346985,0.46473121643066406,-0.014000291004776955,1.4189127683639526
152,280213,280214,-0.012673799879848957,0.17364713549613953,0.9977982640266418,3.566720962524414,2.7417984008789062,0.3866986036300659,-0.730463445186615,1.4564270973205566,0.31948402523994446,0.43094587326049805,0.01099568884819746,1.4233006238937378
153,280223,280224,0.027865417301654816,0.10866895318031311,1.0194733142852783,2.0171289443969727,3.5434796810150146,-0.4199785590171814,-0.7244637608528137,1.4474276304244995,0.3254837095737457,0.3950551748275757,0.20357657968997955,1.4126614332199097
154,280233,280234,-0.006739175878465176,0.06582759320735931,1.0632749795913696,2.7337892055511475,0.5329541563987732,-0.26043757796287537,-0.7349632382392883,1.4489275217056274,0.3209839463233948,0.35592538118362427,0.22655782103538513,1.4096653461456299
155,280243,280244,0.017783544957637787,-0.0893191248178482,0.9945217370986938,-1.508489727973938,-0.31268516182899475,-0.46938273310661316,-0.7184640765190125,1.459426999092102,0.31948402523994446,0.35668525099754333,0.18369044363498688,1.4125319719314575
156,280253,280254,0.013970908708870411,-0.12913240492343903,0.9465581178665161,-2.6428442001342773,-1.787886619567871,-0.44524094462394714,-0.7199639678001404,1.4519274234771729,0.31798410415649414,0.3752656877040863,0.1601904332637787,1.4102271795272827
157,280263,280264,-0.011932475492358208,-0.023037126287817955,0.9689674377441406,-1.7556226253509521,-2.970364809036255,-0.020063187927007675,-0.7289635539054871,1.4429278373718262,0.31798410415649414,0.4123460650444031,-0.022783620283007622,1.4174954891204834
158,280273,280274,0.010260699316859245,0.036913879215717316,1.037270188331604,-2.5884928703308105,-1.3153825998306274,-0.34054431319236755,-0.7199639678001404,1.4249287843704224,0.3209839463233948,0.4610183835029602,0.01989908330142498,1.4118155241012573
159,280283,280284,0.03586456924676895,-0.011288355104625225,1.0876166820526123,-3.037571668624878,0.6876680850982666,-0.7406657934188843,-0.7199639678001404,1.4249287843704224,0.3209839463233948,0.48309263586997986,-0.08897780627012253,1.4147862195968628
160,280293,280294,-0.0005811394657939672,-0.07673487812280655,1.1033515930175781,-1.2310854196548462,1.6944353580474854,-1.1348220109939575,-0.7199639678001404,1.4249287843704224,0.3209839463233948,0.4769423305988312,-0.12560595571994781,1.4112730026245117
161,280303,280304,-0.02850128524005413,-0.0834108293056488,1.0692238807678223,1.7193222045898438,1.8539032936096191,-0.5746572613716125,-0.7199639678001404,1.4249287843704224,0.3209839463233948,0.45552101731300354,-0.1301300972700119,1.4040347337722778
162,280313,280314,-0.014258000999689102,-0.07304036617279053,0.9758625030517578,5.927674293518066,2.749861001968384,-0.1002044603228569,-0.7244637608528137,1.444427728652954,0.3224838674068451,0.42585882544517517,-0.08723064512014389,1.3986176252365112
163,280323,280324,-0.04227970913052559,-0.0007027690298855305,0.9873119592666626,7.4324564933776855,5.251506328582764,-0.22886942327022552,-0.7334632873535156,1.459426999092102,0.3224838674068451,0.38856077194213867,0.023120513185858727,1.3945262432098389
164,280333,280334,-0.023433102294802666,0.036322470754384995,0.9886946678161621,7.7022318840026855,5.755599021911621,-0.4508596658706665,-0.7259637117385864,1.4339282512664795,0.30898454785346985,0.30911505222320557,0.07970337569713593,1.3940247297286987
165,280343,280344,5.82379252591636e-05,0.05543932318687439,1.000657320022583,5.298567771911621,4.863779067993164,-0.5904115438461304,-0.7244637608528137,1.435428261756897,0.3134843111038208,0.2892644703388214,0.13684815168380737,1.3901346921920776
166,280353,280354,0.035366639494895935,-0.008825301192700863,0.9843764901161194,1.5912692546844482,2.7184042930603027,-0.5713651180267334,-0.7169641256332397,1.4309284687042236,0.32998350262641907,0.20966024696826935,0.15328635275363922,1.3851897716522217
167,280363,280364,0.010048707015812397,-0.027671324089169502,0.9730324745178223,-0.8066632747650146,-0.6004573106765747,-0.9790153503417969,-0.7154642343521118,1.4294284582138062,0.31948402523994446,0.23705880343914032,0.18304774165153503,1.378137230873108
168,280373,280374,0.01826169341802597,-0.037156593054533005,0.9747543931007385,-1.1114212274551392,-1.3803538084030151,-0.9134032130241394,-0.722963809967041,1.436928153038025,0.3239837884902954,0.23609128594398499,0.11092951148748398,1.3722121715545654
169,280383,280384,0.022464770823717117,-0.06169753149151802,0.9359526038169861,-0.9600347876548767,-1.579749345779419,-1.2103819847106934,-0.7214639186859131,1.4294284582138062,0.32848358154296875,0.256672203540802,0.10371938347816467,1.3630808591842651
170,280393,280394,-0.0024393245112150908,-0.018998868763446808,0.9518444538116455,0.49790817499160767,-1.3450103998184204,-1.436493992805481,-0.7259637117385864,1.421928882598877,0.3209839463233948,0.2863928973674774,0.09872246533632278,1.3514708280563354
171,280403,280404,-0.011136389337480068,0.00498562678694725,0.9730619192123413,1.9997665882110596,-0.8236221671104431,-1.2684431076049805,-0.7154642343521118,1.4174290895462036,0.3134843111038208,0.3105243444442749,0.11947306245565414,1.337473750114441
172,280413,280414,-0.01007537730038166,0.039805978536605835,1.0014334917068481,3.4109740257263184,1.6046087741851807,-1.5487704277038574,-0.7124643921852112,1.4264286756515503,0.3224838674068451,0.17664407193660736,0.1674334853887558,1.3202887773513794
173,280423,280424,-0.049303799867630005,0.08661672472953796,1.0219274759292603,4.625959396362305,2.8573434352874756,-1.5280516147613525,-0.7124643921852112,1.4234287738800049,0.32848358154296875,0.15901269018650055,0.2315616011619568,1.3029263019561768
174,280433,280434,-0.05496969074010849,0.04413149878382683,0.9992656111717224,4.263605117797852,2.034600019454956,-1.4212844371795654,-0.7244637608528137,1.4324283599853516,0.31948402523994446,0.194289430975914,0.3069336712360382,1.2866878509521484
175,280443,280444,-0.025304066017270088,-0.0021562844049185514,0.9733756184577942,3.0395636558532715,1.1240580081939697,-1.2430832386016846,-0.7244637608528137,1.4234287738800049,0.3134843111038208,0.15429504215717316,0.3810266852378845,1.2701088190078735
176,280453,280454,-0.02051038108766079,0.0005611568340100348,0.9679352641105652,-0.21542273461818695,0.0217753816395998,-1.3388272523880005,-0.7259637117385864,1.4279285669326782,0.3119843900203705,0.19562484323978424,0.42786651849746704,1.2576243877410889
177,280463,280464,0.005438283085823059,0.03455109894275665,0.9869268536567688,-2.2963104248046875,-0.2818579077720642,-1.0939754247665405,-0.722963809967041,1.4129292964935303,0.31798410415649414,0.18172958493232727,0.4229176342487335,1.243470549583435
178,280473,280474,0.03357093036174774,-0.03191174194216728,0.9511448740959167,-4.096625328063965,-0.687104344367981,-1.6039109230041504,-0.7214639186859131,1.4174290895462036,0.31948402523994446,0.25076743960380554,0.3823794424533844,1.2343083620071411
179,280483,280484,0.0470908023416996,-0.03412160649895668,0.9409053325653076,-5.820876121520996,0.283844918012619,-1.8239710330963135,-0.7079645991325378,1.4279285669326782,0.3239837884902954,0.2524442970752716,0.3185110092163086,1.2194992303848267
180,280493,280494,0.010445190593600273,0.015320423990488052,0.9693644642829895,-5.512551784515381,-0.8030433654785156,-1.6719427108764648,-0.7244637608528137,1.4384280443191528,0.3224838674068451,0.1777336597442627,0.22808708250522614,1.199331283569336
181,280503,280504,0.012879835441708565,-0.00776318134739995,0.9662959575653076,-5.020900249481201,2.30773663520813,-1.8921983242034912,-0.722963809967041,1.4309284687042236,0.3209839463233948,0.1139356717467308,0.07380276918411255,1.1809409856796265
182,280513,280514,-0.01527241338044405,0.04094821587204933,1.0034680366516113,-1.0245609283447266,3.998537540435791,-1.8642898797988892,-0.7169641256332397,1.4309284687042236,0.3149842321872711,0.08241095393896103,0.07809346169233322,1.1612324714660645
183,280523,280524,-0.020871363580226898,0.026783166453242302,1.0010530948638916,0.8474506139755249,2.3827385902404785,-1.570919156074524,-0.7259637117385864,1.4429278373718262,0.3209839463233948,0.16225475072860718,0.06431662291288376,1.1477336883544922
184,280533,280534,-0.007008874788880348,-0.020968884229660034,0.9513300657272339,4.153687000274658,0.23907874524593353,-1.6384656429290771,-0.7259637117385864,1.4399279356002808,0.3239837884902954,0.1915811002254486,0.08168040961027145,1.1335750818252563
185,280543,280544,-0.012913561426103115,-0.035558879375457764,0.9358752369880676,5.683959007263184,-0.37582698464393616,-1.3296741247177124,-0.737963080406189,1.4489275217056274,0.3149842321872711,0.11080943048000336,0.15090341866016388,1.1142184734344482
186,280553,280554,-0.016313040629029274,-0.052171893417835236,0.9217952489852905,5.453342437744141,0.14307257533073425,-1.4043275117874146,-0.7274636030197144,1.435428261756897,0.3134843111038208,0.048965901136398315,0.24607734382152557,1.098414421081543
187,280563,280564,-0.011609566397964954,-0.007454054430127144,0.9407280087471008,3.5974795818328857,0.40064796805381775,-1.249224066734314,-0.7274636030197144,1.435428261756897,0.3164841830730438,0.0552964061498642,0.33680710196495056,1.0865256786346436
188,280573,280574,-0.001465005916543305,0.019377008080482483,0.9741030931472778,-0.6243076324462891,1.706795573234558,-1.377094030380249,-0.7139642834663391,1.436928153038025,0.3239837884902954,0.1208166852593422,0.3922465443611145,1.0777455568313599
189,280583,280584,0.010787073522806168,0.0006678936188109219,0.9929249882698059,-4.141500473022461,2.4407942295074463,-1.8183507919311523,-0.7199639678001404,1.436928153038025,0.31798410415649414,0.08620034903287888,0.37917542457580566,1.0635108947753906
190,280593,280594,-0.011984404176473618,-0.008663395419716835,1.0356855392456055,-7.6253557205200195,1.978628396987915,-2.1232597827911377,-0.7394630312919617,1.4324283599853516,0.3254837095737457,0.10976254194974899,0.30367574095726013,1.0476634502410889
191,280603,280604,-0.035053644329309464,-0.046438321471214294,1.0440417528152466,-8.246284484863281,0.28275221586227417,-1.8031604290008545,-0.7259637117385864,1.4429278373718262,0.3149842321872711,-0.00441132253035903,0.17661705613136292,1.0224297046661377
192,280613,280614,-0.05641259253025055,-0.0497005395591259,1.0507798194885254,-7.757695198059082,-2.5147926807403564,-1.2881762981414795,-0.7289635539054871,1.4309284687042236,0.3119843900203705,-0.011600705794990063,0.04294437915086746,1.0039416551589966
193,280623,280624,-0.060111552476882935,-0.0345325693488121,1.0061695575714111,-4.545762062072754,-2.908494234085083,-1.2748287916183472,-0.730463445186615,1.4474276304244995,0.3164841830730438,0.10281801968812943,-0.07720421254634857,0.9947940707206726
194,280633,280634,-0.039173148572444916,-0.02055969275534153,0.9789506196975708,-0.7392146587371826,-1.5558832883834839,-1.157208800315857,-0.736463189125061,1.4534273147583008,0.3164841830730438,0.15495146811008453,-0.07013881206512451,0.9841905832290649
195,280643,280644,-0.024211911484599113,0.04766043275594711,1.0153285264968872,3.385695219039917,-0.14535194635391235,-0.9844018816947937,-0.7199639678001404,1.436928153038025,0.3329833447933197,0.17424608767032623,-0.07891316711902618,0.9729442596435547
196,280653,280654,-0.06261536478996277,0.14365476369857788,1.0970038175582886,5.296436309814453,2.74574613571167,-0.787970781326294,-0.730463445186615,1.444427728652954,0.3044847846031189,0.16502946615219116,-0.017437756061553955,0.9623777866363525
197,280663,280664,-0.04262873902916908,0.056173086166381836,1.0724807977676392,4.855517387390137,3.883767604827881,-0.6747746467590332,-0.730463445186615,1.4294284582138062,0.3254837095737457,0.10846740752458572,0.06872148811817169,0.9523573517799377
198,280673,280674,-0.0223238468170166,0.008915860205888748,1.0173994302749634,2.5992729663848877,3.9748897552490234,-0.7011601328849792,-0.7319633960723877,1.4489275217056274,0.3119843900203705,0.04224028438329697,0.1371905505657196,0.9439560174942017
199,280683,280684,-0.029145125299692154,0.021029463037848473,0.9437456130981445,-0.5259073376655579,4.0398359298706055,-0.46828213334083557,-0.7274636030197144,1.435428261756897,0.3224838674068451,-0.02017238922417164,0.17339934408664703,0.9364619851112366
200,280693,280694,-0.05116346478462219,0.09255357086658478,0.9578510522842407,-2.315542459487915,3.3452446460723877,-0.520442008972168,-0.7394630312919617,1.4384280443191528,0.30748462677001953,-0.00867479294538498,0.16203932464122772,0.9330998659133911
201,280703,280704,-0.02596779726445675,0.08742858469486237,0.9576829075813293,-5.537738800048828,3.038236618041992,-1.1554354429244995,-0.7259637117385864,1.4399279356002808,0.31798410415649414,-0.06510148197412491,0.12313192337751389,0.9268016815185547
202,280713,280714,-0.016623832285404205,0.030776381492614746,0.9925448894500732,-6.561860084533691,-0.6228905320167542,-1.257866621017456,-0.7319633960723877,1.445927619934082,0.3149842321872711,-0.11860458552837372,0.030101940035820007,0.9141303896903992
203,280723,280724,0.021542800590395927,-0.062019117176532745,0.992085874080658,-6.019946098327637,-0.567342221736908,-1.4218264818191528,-0.7289635539054871,1.4429278373718262,0.3209839463233948,-0.18596386909484863,-0.077224001288414,0.8991162180900574
204,280733,280734,0.02035151980817318,-0.10272210091352463,0.9857560396194458,-3.8215513229370117,-3.1044042110443115,-1.429865837097168,-0.7319633960723877,1.4519274234771729,0.3209839463233948,-0.10321138799190521,-0.17325785756111145,0.8860758543014526
205,280743,280744,0.0005469700554385781,-0.08655785769224167,0.9520406723022461,0.06205858662724495,-4.802497863769531,-1.3503364324569702,-0.722963809967041,1.4429278373718262,0.3239837884902954,-0.19509701430797577,-0.22462105751037598,0.869229793548584
206,280753,280754,-0.016930148005485535,0.008193831890821457,0.9939523935317993,4.409820079803467,-5.760008811950684,-1.5921630859375,-0.7154642343521118,1.4384280443191528,0.3164841830730438,-0.10963908582925797,-0.20398643612861633,0.8580413460731506
207,280763,280764,0.054388321936130524,-0.006540087517350912,1.032484769821167,4.824149131774902,-4.08012056350708,-1.7825840711593628,-0.7349632382392883,1.4519274234771729,0.3209839463233948,-0.2213156819343567,0.012973111122846603,0.8476161360740662
208,280773,280774,0.09496766328811646,-0.011251074261963367,1.1061557531356812,5.096380233764648,-3.5684571266174316,-1.848982572555542,-0.722963809967041,1.46092689037323,0.3149842321872711,-0.14614036679267883,0.08687346428632736,0.8316462635993958
209,280783,280784,0.06143416836857796,-0.028494343161582947,1.1151398420333862,2.547315835952759,-4.048280715942383,-1.4062144756317139,-0.730463445186615,1.4414279460906982,0.3014849126338959,-0.07877543568611145,0.017187949270009995,0.8086966872215271
210,280793,280794,0.05313795059919357,-0.07939193397760391,1.0076651573181152,0.40359532833099365,-4.9972825050354,-0.7715493440628052,-0.7334632873535156,1.4384280443191528,0.3134843111038208,-0.0022256348747760057,-0.010388142429292202,0.793011486530304
211,280803,280804,0.031881265342235565,-0.028361419215798378,0.9887182116508484,-1.5103915929794312,-4.648654937744141,-0.521359384059906,-0.7274636030197144,1.4534273147583008,0.31048446893692017,0.09079214930534363,0.07157889753580093,0.7895290851593018
212,280813,280814,0.021123383194208145,0.015815626829862595,1.038954257965088,-3.176974058151245,-3.4148342609405518,-0.8514177203178406,-0.730463445186615,1.4504274129867554,0.3134843111038208,0.17194882035255432,0.049845028668642044,0.7843195199966431
213,280823,280824,0.03050793707370758,-0.010945776477456093,1.0998138189315796,-5.1512556076049805,-2.0821871757507324,-1.0391520261764526,-0.7154642343521118,1.4294284582138062,0.31048446893692017,0.22364358603954315,-0.0017373228911310434,0.7752862572669983
214,280833,280834,0.047012194991111755,-0.11147279292345047,1.0733340978622437,-4.466806411743164,-1.6427809000015259,-0.8043823838233948,-0.736463189125061,1.4294284582138062,0.32848358154296875,0.11024176329374313,-0.08489173650741577,0.7623539566993713
215,280843,280844,0.03293129429221153,-0.12377046793699265,1.033026933670044,-3.0069580078125,-1.1652817726135254,-0.6286060214042664,-0.7199639678001404,1.4249287843704224,0.3149842321872711,0.14441105723381042,-0.15542426705360413,0.7533652782440186
216,280853,280854,0.0026621741708368063,-0.0222600270062685,1.0175180435180664,0.20236332714557648,-1.673659324645996,0.3049353063106537,-0.7244637608528137,1.4324283599853516,0.30748462677001953,0.10984192788600922,-0.19346372783184052,0.7477131485939026
217,280863,280864,-0.011969894170761108,0.0906880646944046,1.0561676025390625,3.3298540115356445,-1.2579315900802612,-0.43964284658432007,-0.7244637608528137,1.4474276304244995,0.3254837095737457,0.1536201685667038,-0.17535912990570068,0.7501432299613953
218,280873,280874,0.00037600219366140664,0.09642833471298218,1.0625636577606201,4.663578510284424,-0.38308537006378174,-0.8448268175125122,-0.7079645991325378,1.4399279356002808,0.3059847056865692,0.18480761349201202,-0.1116357371211052,0.7473229169845581
219,280883,280884,0.019683992490172386,-0.006311859004199505,1.007682204246521,5.390585422515869,-1.125723958015442,-0.4715276062488556,-0.7154642343521118,1.4294284582138062,0.31948402523994446,0.19810013473033905,-0.03171713650226593,0.7399106621742249
220,280893,280894,-0.00989790540188551,-0.06234759837388992,0.9840502142906189,5.78525972366333,-1.79781174659729,0.09791377186775208,-0.7184640765190125,1.4144293069839478,0.3254837095737457,0.22498153150081635,0.05602186173200607,0.7356740832328796
221,280903,280904,-0.06011726334691048,-0.020424380898475647,0.9753514528274536,4.285833358764648,-2.507645606994629,0.07261757552623749,-0.7199639678001404,1.421928882598877,0.3209839463233948,0.33856794238090515,0.07683958858251572,0.7347347736358643
222,280913,280914,-0.07882771641016006,0.05477210506796837,0.9543624520301819,0.15994074940681458,-0.3109053373336792,0.1445550173521042,-0.7169641256332397,1.4159291982650757,0.3149842321872711,0.38531723618507385,0.14404813945293427,0.7354649901390076
223,280923,280924,-0.045031215995550156,0.08827878534793854,0.9356389045715332,-2.9559075832366943,1.7624880075454712,0.002666693413630128,-0.7244637608528137,1.4234287738800049,0.3164841830730438,0.3905577063560486,0.1484902799129486,0.7360308766365051
224,280933,280934,0.02453828789293766,0.05621989071369171,0.933785617351532,-5.819645881652832,3.6254661083221436,-0.4615076780319214,-0.722963809967041,1.4309284687042236,0.3149842321872711,0.35898151993751526,0.10488530993461609,0.7354564070701599
225,280943,280944,0.044167887419462204,0.016051465645432472,0.9643178582191467,-5.085717678070068,3.658031463623047,-0.2604408860206604,-0.7094644904136658,1.435428261756897,0.3044847846031189,0.29376307129859924,0.013614286668598652,0.7310413718223572
226,280953,280954,0.06736306101083755,-0.06026105582714081,0.984431803226471,-4.9225850105285645,3.5850658416748047,-0.5605254173278809,-0.7274636030197144,1.4414279460906982,0.3164841830730438,0.22397774457931519,-0.07324399054050446,0.7273419499397278
227,280963,280964,0.07536865025758743,-0.08574267476797104,1.0197097063064575,-2.990434408187866,2.2702958583831787,-0.48654264211654663,-0.7259637117385864,1.4249287843704224,0.3149842321872711,0.0835922360420227,-0.1521652191877365,0.7209334969520569
228,280973,280974,0.05403679236769676,-0.07840827107429504,1.0087138414382935,-0.4585563838481903,0.03619943559169769,-0.49932852387428284,-0.7274636030197144,1.4234287738800049,0.30748462677001953,0.047694869339466095,-0.12682777643203735,0.7153688669204712
229,280983,280984,-0.008614222519099712,0.023190056905150414,1.004785418510437,2.7614736557006836,-2.1071033477783203,-0.6157166957855225,-0.7199639678001404,1.4309284687042236,0.3239837884902954,0.0540633350610733,-0.12734638154506683,0.7104324102401733
230,280993,280994,-0.018470197916030884,0.08742392808198929,1.0391952991485596,5.898904800415039,-3.726583480834961,-0.5062762498855591,-0.7289635539054871,1.436928153038025,0.31798410415649414,0.10218845307826996,-0.07226132601499557,0.7048481702804565
231,281003,281004,-0.009752633050084114,0.15817521512508392,1.0538805723190308,7.827375888824463,-4.963613033294678,-0.45974600315093994,-0.7244637608528137,1.4264286756515503,0.3224838674068451,0.17434661090373993,0.028644917532801628,0.6995797157287598
232,281013,281014,-0.029370494186878204,0.13335639238357544,1.0543594360351562,5.376309394836426,-3.5174763202667236,-0.013311509042978287,-0.722963809967041,1.4489275217056274,0.32698363065719604,0.2541816532611847,0.07859348505735397,0.6940479874610901
233,281023,281024,-0.013226733542978764,0.011801858432590961,0.9713859558105469,2.208449125289917,-2.04211163520813,0.16698691248893738,-0.7244637608528137,1.4324283599853516,0.3224838674068451,0.30780744552612305,0.15980587899684906,0.691543698310852
234,281033,281034,0.004088198766112328,-0.043263085186481476,0.927078366279602,-1.0689828395843506,0.18060097098350525,-0.16035473346710205,-0.7214639186859131,1.4324283599853516,0.31948402523994446,0.34068626165390015,0.18525099754333496,0.6917217373847961
235,281043,281044,0.015064263716340065,-0.0199400894343853,0.9373171329498291,-4.930024147033691,2.5477657318115234,-0.26670873165130615,-0.7199639678001404,1.4279285669326782,0.3239837884902954,0.343840092420578,0.15674977004528046,0.6920034885406494
236,281053,281054,0.02563471533358097,0.03568698838353157,0.964382529258728,-6.246644020080566,4.06277322769165,-0.6800554394721985,-0.7124643921852112,1.4324283599853516,0.31048446893692017,0.3113047480583191,0.07786942273378372,0.6931492686271667
237,281063,281064,0.020562781020998955,0.06502168625593185,0.9903495907783508,-5.68002462387085,5.723816871643066,-0.6837631464004517,-0.7259637117385864,1.4279285669326782,0.32698363065719604,0.25450459122657776,-0.014208106324076653,0.6922317743301392
238,281073,281074,0.0034435519482940435,0.00715533597394824,0.9909570813179016,-3.9358160495758057,5.840080261230469,-0.7951826453208923,-0.736463189125061,1.4534273147583008,0.30748462677001953,0.16256530582904816,-0.10310164093971252,0.6862236857414246
239,281083,281084,-0.0027517725247889757,-0.011282513849437237,1.012365460395813,-3.1592347621917725,4.281696319580078,-0.8869014978408813,-0.7334632873535156,1.4564270973205566,0.32848358154296875,0.06455425918102264,-0.09339845925569534,0.6770127415657043
240,281093,281094,-0.020726000890135765,-0.030090905725955963,0.9670093655586243,1.6062121391296387,2.451988697052002,-1.0797852277755737,-0.736463189125061,1.4504274129867554,0.3254837095737457,0.0010361525928601623,-0.13950005173683167,0.6691545844078064
241,281103,281104,-0.014563384465873241,-0.010037047788500786,0.9860086441040039,3.9499237537384033,-1.3357453346252441,-0.8815563321113586,-0.7244637608528137,1.4384280443191528,0.3254837095737457,-0.02835945039987564,-0.10989632457494736,0.659096896648407
242,281113,281114,0.007981736212968826,-0.015940526500344276,0.9760603904724121,4.198462963104248,-3.508469820022583,-1.1299771070480347,-0.7289635539054871,1.4549272060394287,0.3149842321872711,-0.0020935977809131145,-0.04203367978334427,0.6497446298599243
243,281123,281124,-0.04162612929940224,0.030235886573791504,0.9810757637023926,3.8192689418792725,-3.6599650382995605,-1.3990201950073242,-0.722963809967041,1.4399279356002808,0.3209839463233948,0.07746832072734833,0.03013983555138111,0.6398731470108032
244,281133,281134,-0.08254089206457138,0.09040441364049911,0.978116512298584,1.3163098096847534,-2.4046881198883057,-1.267661213874817,-0.7214639186859131,1.444427728652954,0.3254837095737457,0.15721584856510162,0.09433238208293915,0.6273374557495117
245,281143,281144,-0.09430364519357681,0.10096506774425507,1.006137728691101,-2.394386053085327,-2.231795072555542,-0.8475196361541748,-0.730463445186615,1.4504274129867554,0.3224838674068451,0.21001242101192474,0.1117534339427948,0.6149263381958008
246,281153,281154,-0.056314464658498764,0.0022969499696046114,0.9737071990966797,-4.267251491546631,-0.05025630444288254,-0.9247526526451111,-0.730463445186615,1.4564270973205566,0.3254837095737457,0.24836580455303192,-0.0016676080413162708,0.6043732166290283
247,281163,281164,-0.0154603635892272,-0.04841179400682449,0.9689565896987915,-6.929443359375,1.4340763092041016,-0.9173806309700012,-0.722963809967041,1.4519274234771729,0.3209839463233948,0.25417694449424744,-0.004132732283324003,0.5932309627532959
248,281173,281174,-0.01917092874646187,0.015806222334504128,1.013413667678833,-6.264899730682373,3.794276237487793,-0.9646084308624268,-0.7214639186859131,1.4534273147583008,0.3254837095737457,0.22232767939567566,-0.11774656921625137,0.5840697288513184
249,281183,281184,-0.0836668610572815,0.09956448525190353,0.9837245345115662,-4.322029113769531,4.511502742767334,-1.1072338819503784,-0.737963080406189,1.445927619934082,0.3209839463233948,0.17827245593070984,-0.2098069041967392,0.577701210975647
250,281193,281194,-0.06414134800434113,0.10501014441251755,0.9648684859275818,-0.43549710512161255,4.7661519050598145,-1.2426363229751587,-0.7289635539054871,1.4489275217056274,0.3209839463233948,0.12028473615646362,-0.2606002986431122,0.5710212588310242
251,281203,281204,-0.01793324388563633,0.06519612669944763,1.0187445878982544,4.138604164123535,3.1098792552948,-1.3645403385162354,-0.722963809967041,1.445927619934082,0.33898305892944336,0.044877901673316956,-0.253174364566803,0.5603983402252197
252,281213,281214,-0.031620051711797714,-0.018443411216139793,0.9957451224327087,6.231267929077148,1.402822732925415,-1.5839252471923828,-0.7244637608528137,1.4504274129867554,0.30748462677001953,-0.0008149284403771162,-0.18391351401805878,0.5473588109016418
253,281223,281224,-0.039723508059978485,-0.05094745010137558,0.9835937023162842,6.839753150939941,-0.008324634283781052,-1.8712725639343262,-0.7409629225730896,1.4549272060394287,0.31798410415649414,-0.011029723100364208,-0.08315610885620117,0.5336484909057617
254,281233,281234,-0.037391357123851776,-0.007082602474838495,0.9853772521018982,6.818830490112305,-1.7029930353164673,-1.9094792604446411,-0.7409629225730896,1.4339282512664795,0.3149842321872711,0.007377923000603914,0.03191106766462326,0.5191379189491272
255,281243,281244,0.03596767783164978,0.021819861605763435,0.9611636996269226,3.4950995445251465,-2.275871515274048,-1.8496689796447754,-0.7169641256332397,1.4519274234771729,0.31798410415649414,0.04595343396067619,0.14398863911628723,0.5046688318252563
256,281253,281254,0.07301328331232071,0.042006637901067734,1.0100302696228027,-1.6293021440505981,-2.398589849472046,-2.4551875591278076,-0.730463445186615,1.459426999092102,0.30748462677001953,0.08183563500642776,0.19209818542003632,0.48789024353027344
257,281263,281264,0.05161892622709274,-0.02043885737657547,1.0301004648208618,-6.3266401290893555,-1.8030633926391602,-2.5956318378448486,-0.730463445186615,1.4564270973205566,0.3224838674068451,0.1769128143787384,0.0812462717294693,0.4617575407028198
258,281273,281274,0.036625899374485016,-0.08837531507015228,1.0172755718231201,-8.605733871459961,-0.8954426050186157,-2.5575191974639893,-0.7259637117385864,1.4489275217056274,0.3329833447933197,0.18773828446865082,-0.029274288564920425,0.43463024497032166
259,281283,281284,0.07379008084535599,-0.09781552851200104,0.9868704080581665,-8.022730827331543,-0.17103074491024017,-2.0571200847625732,-0.7289635539054871,1.445927619934082,0.3209839463233948,0.18942423164844513,-0.1694634109735489,0.4100884795188904
260,281293,281294,0.08910246193408966,-0.0050272513180971146,1.00458562374115,-5.442749977111816,0.6389350295066833,-2.1185462474823,-0.7214639186859131,1.4474276304244995,0.3134843111038208,0.18768472969532013,-0.21867254376411438,0.3916664719581604
261,281303,281304,0.06281473487615585,0.01844789832830429,1.0033692121505737,-0.45129626989364624,2.9050452709198,-2.1590607166290283,-0.7244637608528137,1.4534273147583008,0.32848358154296875,0.16561046242713928,-0.2890510559082031,0.37257957458496094
262,281313,281314,0.014401090331375599,0.04112689197063446,1.0734020471572876,3.2343082427978516,3.675734043121338,-2.1147449016571045,-0.7274636030197144,1.4534273147583008,0.3164841830730438,0.18893396854400635,-0.2171933352947235,0.3512437045574188
263,281323,281324,0.03758487105369568,0.010740470141172409,1.1054233312606812,6.653185844421387,3.8109426498413086,-1.8653160333633423,-0.7274636030197144,1.4564270973205566,0.31948402523994446,0.034992922097444534,-0.16525299847126007,0.32928287982940674
264,281333,281334,0.02316572517156601,-0.05420071259140968,0.9815471172332764,6.932631015777588,2.8169238567352295,-1.7979732751846313,-0.7394630312919617,1.4414279460906982,0.31948402523994446,-0.025208530947566032,-0.05570686236023903,0.3105309009552002
265,281343,281344,0.012933963909745216,-0.01192978210747242,0.9883784651756287,7.020942687988281,1.389952540397644,-1.606413722038269,-0.7214639186859131,1.4504274129867554,0.3164841830730438,-0.06114308908581734,-0.07965422421693802,0.2945842146873474
266,281353,281354,0.0016577941132709384,0.02290157601237297,1.0038737058639526,3.640076160430908,-0.5026163458824158,-1.5760022401809692,-0.730463445186615,1.435428261756897,0.31948402523994446,-0.07748071104288101,0.043150268495082855,0.28130754828453064
267,281363,281364,-0.007611795794218779,-0.004216015338897705,1.0355913639068604,-0.11789058148860931,-0.4645477831363678,-2.079622507095337,-0.7244637608528137,1.4414279460906982,0.3314834237098694,-0.07483351975679398,0.10665185749530792,0.2647796869277954
268,281373,281374,0.008652687072753906,-0.08423135429620743,1.013603925704956,-3.880098581314087,-2.100680351257324,-1.8846940994262695,-0.736463189125061,1.4414279460906982,0.30748462677001953,-0.003228367306292057,0.09780539572238922,0.240086629986763
269,281383,281384,0.024534277617931366,-0.10037706047296524,1.0206165313720703,-3.940099000930786,-2.317847967147827,-2.166928291320801,-0.7199639678001404,1.436928153038025,0.3149842321872711,0.022460006177425385,0.03172532096505165,0.217458114027977
270,281393,281394,0.032155293971300125,-0.07624183595180511,0.9974719285964966,-4.314692497253418,-2.801083564758301,-1.7033729553222656,-0.7169641256332397,1.436928153038025,0.3239837884902954,-0.004562894813716412,-0.034740153700113297,0.1968635767698288
271,281403,281404,-0.02453039214015007,0.005671908147633076,0.9982100129127502,-3.0277206897735596,-2.8172078132629395,-1.4867764711380005,-0.7259637117385864,1.436928153038025,0.3209839463233948,-0.016422085464000702,-0.09852965921163559,0.18210537731647491
272,281413,281414,-0.04358958825469017,0.0637984424829483,1.023149013519287,-1.1634182929992676,0.42632561922073364,-1.721996784210205,-0.7139642834663391,1.4399279356002808,0.3119843900203705,0.03720623254776001,-0.13887567818164825,0.16864657402038574
273,281423,281424,-0.03845825046300888,0.06903351843357086,1.0612101554870605,1.2109029293060303,1.9973723888397217,-1.5568326711654663,-0.7289635539054871,1.4279285669326782,0.3059847056865692,0.03187417984008789,-0.15123537182807922,0.1503436416387558
274,281433,281434,-0.02650037407875061,-0.0015092181274667382,1.0299606323242188,3.843873977661133,2.3726444244384766,-1.4982272386550903,-0.7259637117385864,1.4279285669326782,0.3059847056865692,0.07104222476482391,-0.12549571692943573,0.13173873722553253
275,281443,281444,-0.040613580495119095,-0.037042539566755295,1.0130560398101807,6.749780654907227,1.9993536472320557,-1.3323721885681152,-0.7169641256332397,1.4339282512664795,0.3149842321872711,0.032814960926771164,-0.06309418380260468,0.11588767915964127
276,281453,281454,-0.046239953488111496,-0.037672244012355804,0.9502018690109253,5.312531471252441,1.584363579750061,-1.3450872898101807,-0.7199639678001404,1.4279285669326782,0.30898454785346985,0.015216208063066006,0.039465196430683136,0.10342645645141602
277,281463,281464,-0.07200738787651062,0.005729177501052618,0.9344909191131592,5.557015895843506,2.0810868740081787,-1.4828730821609497,-0.7334632873535156,1.4324283599853516,0.3164841830730438,0.08021651208400726,0.05583704635500908,0.08994120359420776
278,281473,281474,-0.07415913045406342,0.05418477952480316,0.9397052526473999,3.452225685119629,1.315598487854004,-1.5844876766204834,-0.7184640765190125,1.4264286756515503,0.31048446893692017,0.06070708483457565,0.1482822448015213,0.07798425108194351
279,281483,281484,-0.05420377105474472,0.07333234697580338,0.9604655504226685,-1.3715410232543945,0.9705803394317627,-1.2556607723236084,-0.730463445186615,1.4144293069839478,0.3164841830730438,0.04626839980483055,0.20255962014198303,0.06465498358011246
280,281493,281494,-0.041004955768585205,0.08170128613710403,1.0096420049667358,-2.7214901447296143,2.4368085861206055,-1.1400445699691772,-0.7124643921852112,1.4174290895462036,0.3134843111038208,0.025409428402781487,0.11192994564771652,0.05076325312256813
281,281503,281504,-0.012839331291615963,0.027963491156697273,0.9933074116706848,-4.132070064544678,2.315645694732666,-1.4392473697662354,-0.7199639678001404,1.4489275217056274,0.3209839463233948,-0.018239891156554222,-0.0032535765785723925,0.037420064210891724
282,281513,281514,-0.004610749892890453,-0.03130577877163887,0.9538421630859375,-2.611997365951538,1.4802377223968506,-1.5924625396728516,-0.7244637608528137,1.420428991317749,0.30748462677001953,-0.056748464703559875,-0.06434635072946548,0.02331545390188694
283,281523,281524,-0.03231149911880493,-0.06200674548745155,0.9362239241600037,-0.057053159922361374,1.870449423789978,-2.3056657314300537,-0.7199639678001404,1.421928882598877,0.3119843900203705,-0.07857950031757355,-0.029245570302009583,0.009782697074115276
284,281533,281534,-0.057278238236904144,-0.08038262277841568,0.9364542365074158,3.239170789718628,0.6259116530418396,-2.249203681945801,-0.7349632382392883,1.4309284687042236,0.31798410415649414,-0.09751138091087341,-0.022513236850500107,-0.009136560373008251
285,281543,281544,-0.05068013072013855,-0.02403305657207966,0.9732674956321716,4.955779552459717,-0.626899242401123,-2.039613723754883,-0.7349632382392883,1.4309284687042236,0.31798410415649414,-0.0982251763343811,0.11120478808879852,-0.025145908817648888
286,281553,281554,-0.02112663723528385,0.03924138844013214,1.0149885416030884,6.082638740539551,-1.0562957525253296,-2.2167303562164307,-0.7349632382392883,1.4309284687042236,0.31798410415649414,-0.08437416702508926,0.1269395500421524,-0.04344843327999115
287,281563,281564,-0.0014410887379199266,0.03554423153400421,1.005919337272644,3.1513125896453857,-1.4610021114349365,-2.1338024139404297,-0.7349632382392883,1.4309284687042236,0.31798410415649414,-0.06751912087202072,0.22634340822696686,-0.06255436688661575
288,281573,281574,-0.007878843694925308,0.019648345187306404,0.9821886420249939,-0.2739422619342804,-1.180340051651001,-2.292821168899536,-0.722963809967041,1.4399279356002808,0.30898454785346985,-0.05241432785987854,0.27361613512039185,-0.08361537009477615
289,281583,281584,-0.006879886146634817,0.040137674659490585,1.0210981369018555,-3.4208343029022217,-0.2893909811973572,-2.2912487983703613,-0.7169641256332397,1.4399279356002808,0.32698363065719604,-0.10664986073970795,0.3392868936061859,-0.10579508543014526
290,281593,281594,-0.018340786918997765,0.04918136075139046,1.0335094928741455,-5.330963611602783,0.20142221450805664,-2.3599910736083984,-0.7334632873535156,1.444427728652954,0.3224838674068451,-0.029897114261984825,0.20789018273353577,-0.1333547979593277
291,281603,281604,-0.033738091588020325,0.044179633259773254,1.0353600978851318,-6.6807451248168945,-1.1036670207977295,-2.2303366661071777,-0.7319633960723877,1.421928882598877,0.3119843900203705,-0.03398522362112999,0.04598637670278549,-0.16231445968151093
292,281613,281614,-0.0612252801656723,0.0359531044960022,1.015407919883728,-5.999179363250732,-1.0963608026504517,-2.4989726543426514,-0.7199639678001404,1.436928153038025,0.3209839463233948,-0.0852881520986557,0.0790698453783989,-0.18444471061229706
293,281623,281624,-0.07404986023902893,0.012829717248678207,0.965849757194519,-2.863382577896118,-0.8603737950325012,-2.568089246749878,-0.736463189125061,1.444427728652954,0.3134843111038208,0.015957437455654144,-0.023141926154494286,-0.20874424278736115
294,281633,281634,-0.01647237502038479,-0.001982076559215784,0.9659132957458496,0.2827650308609009,-0.5725265145301819,-2.71429181098938,-0.7214639186859131,1.4294284582138062,0.31948402523994446,-0.031162690371274948,-0.06700610369443893,-0.23530438542366028
295,281643,281644,-0.008517030626535416,0.07913447171449661,0.9467893838882446,2.6970691680908203,-0.06444553285837173,-2.70971941947937,-0.737963080406189,1.4339282512664795,0.3119843900203705,0.05623382329940796,-0.06109846010804176,-0.25857311487197876
296,281653,281654,0.014895942062139511,0.004613593220710754,0.9522365927696228,4.012638092041016,0.535216748714447,-2.7640554904937744,-0.7319633960723877,1.4189289808273315,0.3029848337173462,-0.012114610522985458,-0.016806717962026596,-0.283788800239563
297,281663,281664,0.015947595238685608,-0.018573660403490067,0.9589634537696838,4.003673076629639,1.2477551698684692,-2.5744261741638184,-0.7259637117385864,1.4339282512664795,0.3149842321872711,0.0516362227499485,0.04771565645933151,-0.3099226653575897
298,281673,281674,0.04773406684398651,0.013902873732149601,0.9515284895896912,2.6001713275909424,1.040321946144104,-2.327390432357788,-0.7334632873535156,1.435428261756897,0.31948402523994446,0.026040803641080856,0.04518790543079376,-0.33710387349128723
299,281683,281684,0.07231830805540085,0.028555380180478096,0.9899336695671082,1.2897073030471802,1.7553683519363403,-2.345742702484131,-0.7319633960723877,1.4489275217056274,0.32698363065719604,-0.002537843305617571,0.02170540578663349,-0.3616395890712738
300,281693,281694,0.021953610703349113,0.03171171247959137,0.9709776639938354,-1.7131168842315674,1.5705417394638062,-2.4919071197509766,-0.7349632382392883,1.4399279356002808,0.32698363065719604,-0.247083380818367,0.18341021239757538,-0.38217201828956604
301,281703,281704,0.04782374948263168,-0.04263153299689293,1.0090229511260986,-2.4020347595214844,0.05914926901459694,-2.540473461151123,-0.7334632873535156,1.444427728652954,0.30748462677001953,-0.04642893373966217,0.07866105437278748,-0.40664148330688477
302,281713,281714,0.007586214225739241,-0.02085372433066368,0.9821963906288147,-2.889755964279175,-2.1482162475585938,-2.4675886631011963,-0.7274636030197144,1.4414279460906982,0.30748462677001953,-0.048432882875204086,0.03970102220773697,-0.43145671486854553
303,281723,281724,0.004629925824701786,-0.040482714772224426,0.9514111280441284,-3.044940948486328,-3.8095812797546387,-1.9531753063201904,-0.7289635539054871,1.4429278373718262,0.3149842321872711,-0.011587056331336498,-0.004023632034659386,-0.45457279682159424
304,281733,281734,-0.014674472622573376,-0.01036211010068655,0.9968405961990356,-1.6236608028411865,-3.674518346786499,-1.8077424764633179,-0.7334632873535156,1.444427728652954,0.3164841830730438,0.045998845249414444,-0.047825224697589874,-0.4731031656265259
305,281743,281744,0.0053763557225465775,-0.025462528690695763,0.9904772043228149,-0.004540280904620886,-2.089463949203491,-2.1408934593200684,-0.7349632382392883,1.4549272060394287,0.31798410415649414,-0.03775675967335701,-0.001144029782153666,-0.48883169889450073
306,281753,281754,0.001687557203695178,-0.04059867933392525,1.0081387758255005,0.6410974264144897,-0.2516900300979614,-1.9688836336135864,-0.7289635539054871,1.4489275217056274,0.3209839463233948,-0.0022511708084493876,-0.0029631932266056538,-0.5080126523971558
307,281763,281764,-0.006668765563517809,-0.05419164150953293,1.0401546955108643,1.0154603719711304,0.5065096020698547,-1.857874870300293,-0.7349632382392883,1.4189289808273315,0.31798410415649414,0.0642169862985611,-0.13265618681907654,-0.5324423909187317
308,281773,281774,0.011833354830741882,-0.07714702934026718,1.0504512786865234,2.0866055488586426,-0.42227569222450256,-1.4129339456558228,-0.730463445186615,1.4504274129867554,0.3224838674068451,-0.10058966279029846,0.030176131054759026,-0.5515990853309631
309,281783,281784,0.01944037526845932,-0.07258772850036621,1.0671504735946655,1.895134687423706,-1.5441572666168213,-1.29507315158844,-0.7334632873535156,1.4414279460906982,0.31948402523994446,-0.23846226930618286,0.05310303717851639,-0.5709261894226074
310,281793,281794,0.0024140425957739353,-0.07950760424137115,1.0528901815414429,3.159130811691284,-3.92192006111145,-1.1197874546051025,-0.7274636030197144,1.4264286756515503,0.31948402523994446,-0.20144467055797577,0.07558773458003998,-0.5872744917869568
311,281803,281804,-0.0056163412518799305,-0.06529973447322845,1.0020205974578857,2.1920862197875977,-5.62391996383667,-1.0458102226257324,-0.7199639678001404,1.436928153038025,0.31798410415649414,-0.12331234663724899,0.11774387955665588,-0.6005703806877136
312,281813,281814,-0.029654283076524734,0.002808535238727927,1.0194804668426514,0.746920645236969,-7.128325462341309,-1.0551711320877075,-0.7394630312919617,1.4414279460906982,0.3134843111038208,-0.22542811930179596,-0.05714132636785507,-0.6196995377540588
313,281823,281824,-0.032943837344646454,0.08216137439012527,1.0631041526794434,-1.314382791519165,-7.222283840179443,-1.39704167842865,-0.7349632382392883,1.4519274234771729,0.3149842321872711,-0.07961439341306686,-0.16954487562179565,-0.6343019008636475
314,281833,281834,-0.005436703562736511,0.03898530825972557,1.0209969282150269,0.703444242477417,-7.983180046081543,-1.4614970684051514,-0.730463445186615,1.4324283599853516,0.31948402523994446,-0.012737376615405083,-0.16619561612606049,-0.6476354002952576
315,281843,281844,-0.04925386980175972,0.08322134613990784,1.062079906463623,2.3989903926849365,-7.8000569343566895,-1.5553443431854248,-0.7214639186859131,1.435428261756897,0.30748462677001953,0.13660003244876862,0.001638058922253549,-0.6583220958709717
316,281853,281854,-0.08719632774591446,0.029910726472735405,1.0427799224853516,3.9600706100463867,-6.389761924743652,-1.6574760675430298,-0.736463189125061,1.4324283599853516,0.31948402523994446,0.06864745914936066,-0.026153171434998512,-0.6788880228996277
317,281863,281864,-0.10086671262979507,-0.007001904770731926,1.043344259262085,5.366322994232178,-4.92300271987915,-1.2990260124206543,-0.7349632382392883,1.4399279356002808,0.31798410415649414,0.19914504885673523,0.04276882857084274,-0.6983805298805237
318,281873,281874,-0.10770178586244583,-0.004843082744628191,1.0366644859313965,6.002763271331787,-3.585942268371582,-1.3452965021133423,-0.7214639186859131,1.4324283599853516,0.3224838674068451,0.30391162633895874,0.13443219661712646,-0.7142122983932495
319,281883,281884,-0.1165253147482872,-0.01022451464086771,1.0287363529205322,4.0246124267578125,-2.8025853633880615,-1.561693787574768,-0.7349632382392883,1.436928153038025,0.3119843900203705,0.391038179397583,0.16413342952728271,-0.7306694984436035
320,281893,281894,-0.10639180988073349,0.037601273506879807,1.021570086479187,1.7881035804748535,-0.5301370024681091,-1.7604485750198364,-0.722963809967041,1.4339282512664795,0.3239837884902954,0.46536487340927124,0.16627995669841766,-0.7467586994171143
321,281903,281904,-0.07761567831039429,0.087569959461689,1.0155258178710938,-0.5609883069992065,1.9607096910476685,-1.4515399932861328,-0.722963809967041,1.4309284687042236,0.3209839463233948,0.5028964877128601,0.20464295148849487,-0.7618067264556885
322,281913,281914,-0.0650649443268776,0.105618417263031,1.0012784004211426,-2.519026279449463,3.0508508682250977,-1.524225115776062,-0.7319633960723877,1.4309284687042236,0.3239837884902954,0.4982292354106903,0.203249990940094,-0.7746639847755432
323,281923,281924,-0.06690189242362976,0.12055236846208572,1.036643624305725,-2.0751495361328125,3.2320191860198975,-1.453556776046753,-0.7289635539054871,1.4489275217056274,0.31798410415649414,0.46981602907180786,0.17774762213230133,-0.7887834310531616
324,281933,281934,-0.06037716194987297,0.11498326063156128,1.0599335432052612,-1.0750735998153687,2.7231907844543457,-1.5874241590499878,-0.7274636030197144,1.4384280443191528,0.31948402523994446,0.4302007853984833,0.1598140299320221,-0.8036866784095764
325,281943,281944,-0.0342257134616375,0.05393203720450401,1.0422346591949463,0.14184868335723877,1.0568500757217407,-1.6516700983047485,-0.7109644412994385,1.4339282512664795,0.30898454785346985,0.39596301317214966,0.15496623516082764,-0.8208491802215576
326,281953,281954,-0.027113640680909157,-0.0024921565782278776,0.9925647974014282,2.3124730587005615,0.5880265235900879,-1.8076145648956299,-0.730463445186615,1.420428991317749,0.3164841830730438,0.3887636959552765,0.16705791652202606,-0.8384869694709778
327,281963,281964,-0.05723155662417412,-0.023533064872026443,0.9682298302650452,3.589992046356201,-0.8466356992721558,-1.9382028579711914,-0.7214639186859131,1.4414279460906982,0.3134843111038208,0.32874342799186707,0.20773360133171082,-0.8575208187103271
328,281973,281974,-0.0715794488787651,-0.011902647092938423,0.9560160636901855,3.8247711658477783,-0.9392061829566956,-2.0247745513916016,-0.7244637608528137,1.4324283599853516,0.3134843111038208,0.5033334493637085,0.12710417807102203,-0.8688448667526245
329,281983,281984,-0.06564294546842575,0.04430770501494408,0.9617299437522888,2.5558598041534424,-0.520018458366394,-1.8367316722869873,-0.7184640765190125,1.435428261756897,0.30748462677001953,0.46156638860702515,0.19797131419181824,-0.8881393074989319
330,281993,281994,-0.03509346768260002,0.08779562264680862,0.9808529615402222,1.6672712564468384,0.6377298831939697,-1.7222846746444702,-0.7319633960723877,1.4399279356002808,0.3209839463233948,0.5624368786811829,0.2517552673816681,-0.9022061228752136
331,282003,282004,0.009393357671797276,0.07798892259597778,0.9674447774887085,0.6333877444267273,3.0270674228668213,-1.731362223625183,-0.7289635539054871,1.445927619934082,0.3119843900203705,0.49431297183036804,0.2918960750102997,-0.9169827103614807
332,282013,282014,0.012795143760740757,0.054008059203624725,0.9808322787284851,-1.2813854217529297,4.360119342803955,-2.0093111991882324,-0.7319633960723877,1.4489275217056274,0.31798410415649414,0.45349517464637756,0.3816906809806824,-0.9351571202278137
333,282023,282024,0.02358345501124859,0.03834877163171768,0.9683831334114075,-1.8969378471374512,4.893746852874756,-1.7358956336975098,-0.7319633960723877,1.4489275217056274,0.3239837884902954,0.38470834493637085,0.4348007142543793,-0.9567678570747375
334,282033,282034,0.044839728623628616,0.0008613858371973038,0.9767938256263733,-3.2233383655548096,4.403025150299072,-1.9272863864898682,-0.736463189125061,1.4504274129867554,0.3164841830730438,0.3744604289531708,0.2585449814796448,-0.9635754227638245
335,282043,282044,0.020682048052549362,-0.012752912007272243,0.9854058027267456,-4.090108394622803,3.231461524963379,-1.8344035148620605,-0.7184640765190125,1.4414279460906982,0.3164841830730438,0.23089434206485748,0.34832388162612915,-0.9937422275543213
336,282053,282054,0.009647422470152378,-0.04876890033483505,0.9748541712760925,-4.016340732574463,1.6306153535842896,-1.6795564889907837,-0.7289635539054871,1.4429278373718262,0.31798410415649414,0.18359918892383575,0.27417805790901184,-1.011634349822998
337,282063,282064,-0.010355701670050621,-0.04597088322043419,0.9581408500671387,-2.223499298095703,0.5513828992843628,-1.571485161781311,-0.7214639186859131,1.4324283599853516,0.3254837095737457,0.23437291383743286,0.1365109086036682,-1.0211364030838013
338,282073,282074,-0.028593264520168304,0.03466181829571724,0.9687065482139587,-1.2088977098464966,-0.5860878229141235,-1.3288766145706177,-0.7274636030197144,1.4504274129867554,0.3314834237098694,0.3046751022338867,0.03679785877466202,-1.028805136680603
339,282083,282084,-0.05297423526644707,0.07363566011190414,0.9533543586730957,0.07606390118598938,-0.22507618367671967,-1.372524380683899,-0.736463189125061,1.4534273147583008,0.3134843111038208,0.18199197947978973,0.17743895947933197,-1.052083134651184
340,282093,282094,-0.06688790768384933,0.08858788013458252,0.9767212271690369,1.665610671043396,-0.009383113123476505,-1.334841012954712,-0.7349632382392883,1.4669265747070312,0.32698363065719604,0.21008285880088806,0.1907871514558792,-1.061743974685669
341,282103,282104,-0.007208324037492275,0.06401077657938004,1.070224642753601,1.6167020797729492,-0.2299383133649826,-1.3438351154327393,-0.7244637608528137,1.4714263677597046,0.30748462677001953,0.15595130622386932,0.22197899222373962,-1.0754560232162476
342,282113,282114,-0.014879351481795311,0.04527249559760094,1.0742446184158325,1.6827964782714844,-0.08462253212928772,-1.2732359170913696,-0.7349632382392883,1.475926160812378,0.31798410415649414,0.1722383052110672,0.24601873755455017,-1.0884449481964111
343,282123,282124,-0.03550736606121063,0.027645252645015717,1.0745677947998047,-0.7063150405883789,-0.5437402129173279,-0.9912598729133606,-0.7454627156257629,1.47442626953125,0.3224838674068451,0.1867654174566269,0.26282408833503723,-1.1012989282608032
344,282133,282134,-0.04501865804195404,-0.0558575801551342,1.0604671239852905,-2.277247428894043,-0.6439589262008667,-0.8263323307037354,-0.7409629225730896,1.472926378250122,0.3149842321872711,0.20528946816921234,0.24018988013267517,-1.111830234527588
345,282143,282144,-0.04124493896961212,-0.012127642519772053,1.0892541408538818,-2.33620548248291,-0.7271538972854614,-0.7085098624229431,-0.7259637117385864,1.4579271078109741,0.3209839463233948,0.22648295760154724,0.19492661952972412,-1.1207581758499146
346,282153,282154,-0.02968467026948929,0.019895071163773537,1.0623950958251953,-2.369877815246582,-0.3790134787559509,-0.7598397731781006,-0.736463189125061,1.4624269008636475,0.3254837095737457,0.24624018371105194,0.15234602987766266,-1.127612590789795
347,282163,282164,-0.013115495443344116,0.04722278565168381,1.1100406646728516,-2.9380316734313965,0.532850444316864,-0.8216480612754822,-0.7349632382392883,1.4699264764785767,0.32698363065719604,0.252809077501297,0.1116308718919754,-1.1357401609420776
348,282173,282174,-0.006494459696114063,0.026529718190431595,1.0698744058609009,-1.8075803518295288,1.1088497638702393,-0.5335963368415833,-0.7244637608528137,1.4474276304244995,0.3314834237098694,0.2429308444261551,0.06477775424718857,-1.1445794105529785
349,282183,282184,0.007928318344056606,-0.10906639695167542,1.0319324731826782,-0.717675507068634,1.753692388534546,-0.5858705639839172,-0.7274636030197144,1.459426999092102,0.31948402523994446,0.3600311577320099,-0.10843559354543686,-1.141026258468628
350,282193,282194,0.03479504957795143,-0.002294790931046009,1.061143398284912,0.9202481508255005,2.171813488006592,-0.7391149997711182,-0.722963809967041,1.436928153038025,0.3329833447933197,0.2490435689687729,-0.0413048230111599,-1.1525781154632568
351,282203,282204,-0.007476078812032938,-0.018821123987436295,1.0289732217788696,3.3290677070617676,2.519700765609741,-0.46229010820388794,-0.730463445186615,1.4504274129867554,0.31948402523994446,0.4234614372253418,-0.0875660702586174,-1.1518982648849487
352,282213,282214,-0.003057877067476511,0.019385050982236862,1.0653191804885864,4.757673740386963,2.855924129486084,-0.2855386734008789,-0.7199639678001404,1.445927619934082,0.3209839463233948,0.36899057030677795,-0.018510691821575165,-1.1575325727462769
353,282223,282224,-0.030013907700777054,0.036904044449329376,1.075238823890686,5.922331809997559,4.445024013519287,-0.14251019060611725,-0.7289635539054871,1.4429278373718262,0.3329833447933197,0.30419331789016724,0.06909388303756714,-1.1627486944198608
354,282233,282234,-0.00966497603803873,0.01924128457903862,1.0478334426879883,4.8327860832214355,7.342601776123047,-0.42668837308883667,-0.7424628734588623,1.444427728652954,0.31048446893692017,0.28207987546920776,0.17064733803272247,-1.1668061017990112
355,282243,282244,-0.02846294455230236,-0.01316537894308567,1.0208219289779663,3.0152134895324707,9.556380271911621,-0.7622263431549072,-0.737963080406189,1.4399279356002808,0.3209839463233948,0.14600148797035217,0.2496546059846878,-1.173153281211853
356,282253,282254,-0.05893314257264137,-0.012887678109109402,0.970556914806366,1.1193938255310059,8.69924259185791,-0.867972731590271,-0.7259637117385864,1.4549272060394287,0.31798410415649414,0.06274940818548203,0.30057162046432495,-1.17952299118042
357,282263,282264,0.013095934875309467,0.018657533451914787,1.0274839401245117,-1.8532787561416626,6.979548454284668,-0.9367456436157227,-0.7334632873535156,1.435428261756897,0.3254837095737457,-0.07448651641607285,0.31642842292785645,-1.1866663694381714
358,282273,282274,-0.0176191758364439,0.05686212703585625,1.0295794010162354,-3.737168073654175,4.045835018157959,-1.0850739479064941,-0.7289635539054871,1.4399279356002808,0.31798410415649414,-0.11420158296823502,0.28761133551597595,-1.1928050518035889
359,282283,282284,-0.005664863623678684,0.06473485380411148,1.0691944360733032,-5.200197696685791,0.016310395672917366,-1.0617589950561523,-0.7394630312919617,1.4534273147583008,0.3164841830730438,-0.1804264932870865,0.2277461588382721,-1.2016557455062866
360,282293,282294,1.2726908607874066e-05,0.050328418612480164,1.052172303199768,-5.236083984375,-1.931066870689392,-1.040479063987732,-0.7274636030197144,1.444427728652954,0.3134843111038208,-0.18983003497123718,0.14570432901382446,-1.2122833728790283
361,282303,282304,-0.042134739458560944,0.0013155287597328424,1.0187082290649414,-3.0611257553100586,-3.4956061840057373,-0.8864002823829651,-0.736463189125061,1.4474276304244995,0.30748462677001953,-0.09707486629486084,0.2039920687675476,-1.2225934267044067
362,282313,282314,-0.08393758535385132,0.02368025854229927,1.0716990232467651,-1.6872998476028442,-3.0026135444641113,-0.2693604528903961,-0.7139642834663391,1.445927619934082,0.31798410415649414,0.015515781007707119,0.21315054595470428,-1.2311495542526245
363,282323,282324,-0.0198528952896595,0.02257183939218521,1.0323185920715332,-0.3499281406402588,-0.7653007507324219,-0.11459402740001678,-0.7199639678001404,1.436928153038025,0.3209839463233948,0.05097244307398796,0.24063222110271454,-1.2367334365844727
364,282333,282334,-0.010232750326395035,0.02847220189869404,1.02292799949646,-1.536766767501831,2.9646036624908447,-0.3122585415840149,-0.7319633960723877,1.436928153038025,0.32998350262641907,-0.017624367028474808,0.2180285006761551,-1.2404074668884277
365,282343,282344,-0.01365731842815876,0.021155579015612602,1.0132976770401,-3.3010311126708984,6.309933662414551,-0.11556033790111542,-0.7454627156257629,1.435428261756897,0.31948402523994446,-0.0684971958398819,-0.02680293656885624,-1.2441781759262085
366,282353,282354,-0.020393282175064087,-0.004072289913892746,0.9880432486534119,-4.9341044425964355,7.290639877319336,-0.01858246512711048,-0.7214639186859131,1.4534273147583008,0.3044847846031189,-0.23981903493404388,-0.0041695511899888515,-1.247137188911438
367,282363,282364,-0.04305559769272804,0.014993257820606232,1.0119781494140625,-2.6106185913085938,6.551017761230469,-0.2685079872608185,-0.730463445186615,1.444427728652954,0.31948402523994446,-0.28083324432373047,0.059725210070610046,-1.2450724840164185
368,282373,282374,-0.022821087390184402,-0.00877414457499981,0.9878470301628113,-0.3930822014808655,2.9674315452575684,-0.3010203540325165,-0.7289635539054871,1.445927619934082,0.3149842321872711,-0.31422701478004456,0.005855347961187363,-1.2484606504440308
369,282383,282384,-0.006220921874046326,0.006499616429209709,0.9948856234550476,1.5006920099258423,-0.8785828351974487,-0.17965400218963623,-0.7394630312919617,1.4384280443191528,0.32848358154296875,-0.36741867661476135,0.061411213129758835,-1.2514196634292603
370,282393,282394,-0.020757412537932396,0.011797381564974785,1.0040512084960938,1.33223295211792,-3.378938674926758,-0.3824605345726013,-0.7319633960723877,1.4429278373718262,0.3209839463233948,-0.36502280831336975,0.0732392966747284,-1.2552990913391113
371,282403,282404,-0.025832997635006905,0.0013507333351299167,0.9953851103782654,0.042760588228702545,-4.268756866455078,-0.37385398149490356,-0.7274636030197144,1.4294284582138062,0.3044847846031189,-0.31609785556793213,0.08286222815513611,-1.2604029178619385
372,282413,282414,-0.011450723744928837,-0.011154511012136936,0.9782605171203613,-2.360036849975586,-3.966346025466919,-0.5825322270393372,-0.7214639186859131,1.4474276304244995,0.31948402523994446,-0.24741633236408234,0.07048080116510391,-1.2655025720596313
373,282423,282424,-0.004310385324060917,-0.0014422832755371928,0.9862532019615173,-3.3138816356658936,-2.6239893436431885,-0.3826294541358948,-0.737963080406189,1.4429278373718262,0.3029848337173462,-0.25000759959220886,0.22982174158096313,-1.2627017498016357
374,282433,282434,-0.07481362670660019,0.04161382094025612,1.0086445808410645,-5.819761276245117,-0.8954480290412903,-0.4611314833164215,-0.7199639678001404,1.4489275217056274,0.32698363065719604,-0.19543658196926117,0.08412200957536697,-1.2727185487747192
375,282443,282444,-0.022238340228796005,0.02644464559853077,1.0075902938842773,-7.50468635559082,1.621874451637268,-0.4135073721408844,-0.7289635539054871,1.4429278373718262,0.3209839463233948,-0.16962258517742157,0.04701872915029526,-1.2753711938858032
376,282453,282454,-0.0032241642475128174,0.022440269589424133,1.0022410154342651,-6.952939510345459,2.705197334289551,-0.4334655702114105,-0.7259637117385864,1.436928153038025,0.3209839463233948,-0.18774811923503876,-0.08858602494001389,-1.2831439971923828
377,282463,282464,-0.014203242026269436,0.014320422895252705,0.9924952983856201,-5.132734298706055,2.775268316268921,-0.1885906457901001,-0.7214639186859131,1.4384280443191528,0.31948402523994446,-0.15499699115753174,-0.21139071881771088,-1.2896536588668823
378,282473,282474,-0.018167896196246147,-0.01003157440572977,0.9663225412368774,-2.5328187942504883,1.9537317752838135,-0.23147471249103546,-0.7169641256332397,1.4429278373718262,0.3329833447933197,-0.19852635264396667,-0.23491108417510986,-1.2900453805923462
379,282483,282484,-0.020253796130418777,-0.012725993990898132,0.9738905429840088,0.5045357942581177,0.2452312707901001,-0.13500936329364777,-0.7169641256332397,1.4429278373718262,0.3329833447933197,-0.3028337061405182,-0.2850698232650757,-1.2943305969238281
380,282493,282494,-0.03130113333463669,0.027333514764904976,1.0083645582199097,4.397975444793701,0.009958282113075256,-0.3548372685909271,-0.7289635539054871,1.4489275217056274,0.3329833447933197,-0.3102034032344818,-0.28251275420188904,-1.2967617511749268
381,282503,282504,-0.027874212712049484,0.02839953824877739,1.0120238065719604,5.393187046051025,-1.0288753509521484,-0.489116907119751,-0.7169641256332397,1.4519274234771729,0.3209839463233948,-0.3071582019329071,-0.22632305324077606,-1.2990586757659912
382,282513,282514,-0.016784565523266792,0.04560505226254463,1.0251753330230713,5.206453800201416,-2.3919904232025146,-0.5127513408660889,-0.7244637608528137,1.4384280443191528,0.31948402523994446,-0.28552231192588806,-0.15040209889411926,-1.3030718564987183
383,282523,282524,-0.0600411593914032,0.008855359628796577,0.9989637136459351,2.95870041847229,-2.4958865642547607,-0.6434016823768616,-0.7349632382392883,1.4399279356002808,0.30898454785346985,-0.2363521158695221,-0.07685405015945435,-1.3066812753677368
384,282533,282534,-0.07901610434055328,0.03081446886062622,0.9806599617004395,0.2996738851070404,-1.9676169157028198,-0.6080061197280884,-0.7274636030197144,1.4294284582138062,0.31948402523994446,-0.1817079335451126,-0.038974687457084656,-1.3130412101745605
385,282543,282544,-0.021926065906882286,0.010387138463556767,0.9835193753242493,-3.3533437252044678,-1.2378426790237427,-0.4076939821243286,-0.7124643921852112,1.4264286756515503,0.3224838674068451,-0.2766294479370117,-0.041790515184402466,-1.3165537118911743
386,282553,282554,-0.07932937890291214,0.08253730833530426,0.9805522561073303,-5.5327348709106445,-1.2023860216140747,-0.5745483040809631,-0.7394630312919617,1.4324283599853516,0.3314834237098694,-0.23776951432228088,-0.10141895711421967,-1.3231980800628662
387,282563,282564,-0.10579153150320053,0.11228974908590317,0.9677214026451111,-5.149830341339111,-1.2309865951538086,-0.6962457299232483,-0.730463445186615,1.4324283599853516,0.3164841830730438,-0.19293177127838135,-0.19310694932937622,-1.3301862478256226
388,282573,282574,-0.09493397176265717,0.09481050819158554,0.9500681757926941,-5.0598368644714355,-1.8631254434585571,-0.40562665462493896,-0.7334632873535156,1.435428261756897,0.31048446893692017,-0.21862101554870605,-0.27672749757766724,-1.335442066192627
389,282583,282584,-0.07409299910068512,0.09230780601501465,0.9542933106422424,-1.0366439819335938,-1.435131311416626,-0.5163177847862244,-0.7349632382392883,1.4489275217056274,0.30898454785346985,-0.16560469567775726,-0.35378459095954895,-1.3402502536773682
390,282593,282594,-0.016335131600499153,0.023224027827382088,0.9849711060523987,2.0748841762542725,-3.2468361854553223,-0.2972327470779419,-0.7139642834663391,1.4339282512664795,0.3209839463233948,-0.19550490379333496,-0.37111252546310425,-1.341600775718689
391,282603,282604,-0.012605938129127026,0.03963423892855644,0.9891921877861023,4.937679767608643,-4.353882312774658,-0.15727117657661438,-0.7214639186859131,1.4414279460906982,0.3164841830730438,-0.13257940113544464,-0.3369658887386322,-1.343948245048523
392,282613,282614,-0.002543673850595951,0.013452944345772266,0.9638136029243469,6.858762264251709,-5.539039134979248,-0.30016547441482544,-0.7289635539054871,1.4549272060394287,0.31798410415649414,-0.05776553601026535,-0.25919264554977417,-1.3450640439987183
393,282623,282624,-0.0045895762741565704,0.0180096123367548,0.9883049726486206,7.448933124542236,-4.400861740112305,-0.38020145893096924,-0.7274636030197144,1.4534273147583008,0.3164841830730438,0.034316666424274445,-0.1498139351606369,-1.3473637104034424
394,282633,282634,0.01123486552387476,0.0055757975205779076,0.9955911040306091,5.533103942871094,-2.3465089797973633,-0.32639968395233154,-0.722963809967041,1.4549272060394287,0.3059847056865692,0.03993189334869385,-0.034248415380716324,-1.3466440439224243
395,282643,282644,0.018476709723472595,-0.006965781096369028,0.9869795441627502,2.350062131881714,-0.25212183594703674,-0.1682947278022766,-0.7274636030197144,1.4474276304244995,0.31948402523994446,0.08400925248861313,0.04608471319079399,-1.3485597372055054
396,282653,282654,0.010197479277849197,-0.02992020547389984,0.9541165828704834,-0.9488090872764587,0.4551740288734436,-0.10109709203243256,-0.7439627647399902,1.4429278373718262,0.3209839463233948,0.09727451950311661,0.07507875561714172,-1.3497191667556763
397,282663,282664,-0.004989327397197485,-0.03142701834440231,0.9183167815208435,-4.959680080413818,1.4940050840377808,-0.14380791783332825,-0.7214639186859131,1.4384280443191528,0.31948402523994446,0.09567976742982864,0.05024625360965729,-1.350576400756836
398,282673,282674,-0.021275270730257034,0.007334258407354355,0.9822231531143188,-6.385148525238037,0.7131873369216919,0.006325445603579283,-0.7274636030197144,1.444427728652954,0.3134843111038208,0.14831918478012085,-0.17021848261356354,-1.3606603145599365
399,282683,282684,-0.019294094294309616,0.09496960788965225,0.9857578873634338,-5.654473304748535,0.3527728021144867,0.14338615536689758,-0.7274636030197144,1.4384280443191528,0.3164841830730438,0.1369757205247879,-0.12297198921442032,-1.3558300733566284
400,282693,282694,-0.003253418719395995,0.1525447964668274,0.9798493385314941,-1.4975991249084473,0.14155468344688416,-0.09076312184333801,-0.736463189125061,1.4414279460906982,0.3164841830730438,0.06688209623098373,-0.2122490555047989,-1.349898099899292
401,282703,282704,-0.0012360871769487858,0.14589780569076538,0.9960199594497681,1.8378297090530396,0.15524409711360931,-0.3727812170982361,-0.7184640765190125,1.4414279460906982,0.3134843111038208,0.07431308925151825,-0.2335064858198166,-1.3484731912612915
402,282713,282714,0.00018017877300735563,0.11909748613834381,1.019492268562317,4.696091651916504,-0.48872876167297363,-0.11826376616954803,-0.737963080406189,1.4489275217056274,0.3119843900203705,0.010190839879214764,-0.20096348226070404,-1.347029209136963
403,282723,282724,0.012392750009894371,0.05196009576320648,0.9890593886375427,5.870917320251465,-0.681934654712677,0.055278047919273376,-0.736463189125061,1.435428261756897,0.3164841830730438,0.02514657750725746,-0.12383358925580978,-1.3467351198196411
404,282733,282734,0.02043800987303257,-0.020673466846346855,0.9500879645347595,5.111143112182617,-2.501925230026245,0.1365831345319748,-0.7289635539054871,1.4429278373718262,0.3209839463233948,0.042976826429367065,-0.030025189742445946,-1.3452677726745605
405,282743,282744,0.01723293401300907,-0.040113415569067,0.951145589351654,4.9308247566223145,-1.6609872579574585,-0.13074377179145813,-0.7289635539054871,1.4549272060394287,0.31798410415649414,0.016417471691966057,-0.09033474326133728,-1.3437052965164185
406,282753,282754,0.009166516363620758,-0.012652146629989147,0.9924912452697754,1.6445497274398804,-3.0077435970306396,0.21187293529510498,-0.7169641256332397,1.4429278373718262,0.30898454785346985,0.054806940257549286,0.13315092027187347,-1.3411688804626465
407,282763,282764,0.005776424426585436,0.0002781616640277207,1.0046608448028564,-0.29270973801612854,-3.4067327976226807,0.26287972927093506,-0.7214639186859131,1.4504274129867554,0.31948402523994446,0.11220719665288925,0.15244020521640778,-1.3390812873840332
408,282773,282774,-0.0331847257912159,-0.020065486431121826,0.9846808910369873,-3.535813093185425,-2.4985568523406982,0.2476515918970108,-0.7259637117385864,1.4489275217056274,0.3119843900203705,0.17578472197055817,0.06740566343069077,-1.3372218608856201
409,282783,282784,-0.03400588780641556,0.03952309861779213,0.9671156406402588,-5.367114067077637,-1.487244963645935,0.1945272833108902,-0.7289635539054871,1.46092689037323,0.32998350262641907,0.22344590723514557,0.011241602711379528,-1.3341599702835083
410,282793,282794,-0.013373480178415775,0.10102935880422592,0.9774072170257568,-4.998091220855713,-0.5650975108146667,-0.11993813514709473,-0.7289635539054871,1.4639267921447754,0.3149842321872711,0.1871933490037918,-0.06596816331148148,-1.3275362253189087
411,282803,282804,-0.01619832031428814,0.004659742116928101,0.9989471435546875,-3.542752981185913,0.3854861259460449,-0.12719087302684784,-0.7289635539054871,1.4639267921447754,0.3149842321872711,0.20922787487506866,-0.13876071572303772,-1.3271093368530273
412,282813,282814,-0.0197870135307312,0.03870528191328049,1.0029895305633545,-0.5546606779098511,0.6942750215530396,-0.230965718626976,-0.7289635539054871,1.4639267921447754,0.3149842321872711,0.21298430860042572,-0.11956635117530823,-1.328626275062561
413,282823,282824,0.00883273221552372,-0.008115340955555439,1.0034229755401611,2.0839481353759766,-0.06576289236545563,-0.15197481215000153,-0.7289635539054871,1.4639267921447754,0.3149842321872711,0.20855644345283508,-0.12944532930850983,-1.331562876701355
414,282833,282834,-0.0026649381034076214,0.012258896604180336,1.03905189037323,3.8022658824920654,-0.04378661513328552,-0.04606978967785835,-0.7169641256332397,1.46092689037323,0.32998350262641907,0.20950375497341156,-0.09504231810569763,-1.3331485986709595
415,282843,282844,-0.0244173351675272,-0.030887864530086517,1.0057296752929688,5.937519550323486,0.39144137501716614,0.22905468940734863,-0.722963809967041,1.436928153038025,0.3239837884902954,0.2113604098558426,-0.030217936262488365,-1.3338507413864136
416,282853,282854,-0.03290297091007233,-0.00636059045791626,1.0265510082244873,4.892990589141846,0.9724393486976624,0.13477720320224762,-0.7319633960723877,1.4519274234771729,0.3239837884902954,0.2099236100912094,-0.011167185381054878,-1.3308839797973633
417,282863,282864,-0.010869568213820457,0.02674204856157303,1.049349069595337,3.4077892303466797,1.1525508165359497,0.07593823969364166,-0.7349632382392883,1.4549272060394287,0.3209839463233948,0.19901584088802338,-0.0023989686742424965,-1.328086018562317
418,282873,282874,-0.03930861875414848,0.025500250980257988,1.0528738498687744,0.47597795724868774,0.9727293252944946,-0.07719510793685913,-0.7439627647399902,1.4579271078109741,0.3119843900203705,0.11787232011556625,0.054894085973501205,-1.3251222372055054
419,282883,282884,-0.03776083141565323,-0.02217085286974907,1.0472055673599243,-0.9879096150398254,-0.09023336321115494,-0.14985157549381256,-0.7349632382392883,1.4429278373718262,0.3239837884902954,0.11588435620069504,-0.0014447870198637247,-1.3250669240951538
420,282893,282894,0.03387273848056793,0.017240049317479134,1.0344157218933105,-0.8096036911010742,-1.6126935482025146,0.3295177221298218,-0.7274636030197144,1.435428261756897,0.29848507046699524,0.12935277819633484,-0.007128723431378603,-1.3275680541992188
421,282903,282904,0.036158058792352676,-0.10480664670467377,0.9985237717628479,-0.9991634488105774,-2.4552805423736572,0.5991593599319458,-0.7259637117385864,1.445927619934082,0.30898454785346985,0.16405576467514038,-0.1520433872938156,-1.3217177391052246
422,282913,282914,0.0033101756125688553,-0.042581625282764435,0.9962016940116882,0.8380757570266724,-2.7919750213623047,0.8287638425827026,-0.7274636030197144,1.4384280443191528,0.3224838674068451,0.2071622908115387,-0.0778312087059021,-1.3199028968811035
423,282923,282924,0.04859356954693794,-0.06658735871315002,1.0054585933685303,2.656649112701416,-1.5923184156417847,0.7450308203697205,-0.722963809967041,1.4519274234771729,0.3149842321872711,0.25750085711479187,-0.05366016924381256,-1.3137776851654053
424,282933,282934,-0.010627963580191135,0.0037794855888932943,1.0251970291137695,4.359312057495117,-0.24734169244766235,0.4294734597206116,-0.7184640765190125,1.4324283599853516,0.31948402523994446,0.2901441752910614,-0.0035633649677038193,-1.307457685470581
425,282943,282944,0.034956444054841995,0.019579637795686722,1.0239901542663574,5.093864917755127,1.6611095666885376,0.740015983581543,-0.722963809967041,1.4279285669326782,0.3119843900203705,0.09329601377248764,0.2805873453617096,-1.3057805299758911
426,282953,282954,-0.044097501784563065,0.0010763915488496423,1.0311195850372314,3.472785234451294,1.8300483226776123,0.8222305774688721,-0.722963809967041,1.4399279356002808,0.30898454785346985,0.22937935590744019,0.07443465292453766,-1.293180227279663
427,282963,282964,-0.048408884555101395,0.008047551847994328,1.016685128211975,0.09107673913240433,1.2652428150177002,0.6799657940864563,-0.7139642834663391,1.4279285669326782,0.31798410415649414,0.2118297517299652,0.13968956470489502,-1.285153865814209
428,282973,282974,-0.020866231992840767,0.014935074374079704,1.0115714073181152,-1.0283048152923584,1.3915680646896362,0.6191414594650269,-0.7094644904136658,1.4294284582138062,0.3224838674068451,0.19806517660617828,0.07965487986803055,-1.276157259941101
429,282983,282984,0.009861549362540245,-0.015516089275479317,1.00932776927948,-0.8564521074295044,0.9014149308204651,0.7306557297706604,-0.7259637117385864,1.4339282512664795,0.3119843900203705,0.18351024389266968,0.06860460340976715,-1.2707633972167969
430,282993,282994,-0.02269655652344227,-0.025486905127763748,0.968721330165863,0.4113874137401581,-0.22993969917297363,1.1102558374404907,-0.7094644904136658,1.4294284582138062,0.3134843111038208,0.16918820142745972,0.06615839898586273,-1.2650789022445679
431,283003,283004,-0.021394481882452965,-0.0065723927691578865,0.9791017770767212,1.3612614870071411,-0.6864365339279175,1.066666603088379,-0.7154642343521118,1.4324283599853516,0.3224838674068451,0.1756548136472702,0.15087226033210754,-1.2572271823883057
432,283013,283014,-0.0011829358991235495,0.03793187811970711,1.0157499313354492,2.6554789543151855,-0.5058943033218384,1.2171963453292847,-0.737963080406189,1.4339282512664795,0.3239837884902954,-0.020731965079903603,-0.03323061764240265,-1.2406092882156372
433,283023,283024,0.002328530652448535,0.021906420588493347,1.0030231475830078,3.329643964767456,-0.26684072613716125,1.0707776546478271,-0.7289635539054871,1.4519274234771729,0.3149842321872711,0.005973518826067448,0.2363758087158203,-1.2363089323043823
434,283033,283034,0.003273152280598879,-0.02166050300002098,0.9588522911071777,3.3923163414001465,-1.4063807725906372,1.2454570531845093,-0.7214639186859131,1.444427728652954,0.33448326587677,0.24408939480781555,0.28608521819114685,-1.225793719291687
435,283043,283044,0.004168604034930468,-0.028169654309749603,0.9590398073196411,0.862637996673584,-2.6104633808135986,1.1464567184448242,-0.7259637117385864,1.4429278373718262,0.32698363065719604,0.06489260494709015,0.405613511800766,-1.216752290725708
436,283053,283054,-0.0075622377917170525,-0.011538281105458736,0.9771311283111572,-1.840038537979126,-1.7364333868026733,0.9426884651184082,-0.7334632873535156,1.4294284582138062,0.3314834237098694,0.1244661808013916,0.41715773940086365,-1.204929232597351
437,283063,283064,-0.02088695392012596,-0.021972859278321266,0.9660620093345642,-3.1189849376678467,-2.0436153411865234,0.7137480974197388,-0.7259637117385864,1.4399279356002808,0.3119843900203705,-0.17870216071605682,0.38269951939582825,-1.2002172470092773
438,283073,283074,-0.0164016280323267,-0.030967900529503822,0.9611026644706726,-6.945224761962891,-2.0215864181518555,0.4996711313724518,-0.7214639186859131,1.444427728652954,0.32848358154296875,-0.1080547422170639,0.3215694725513458,-1.190881371498108
439,283083,283084,-0.05608442425727844,0.008960121311247349,0.9292680025100708,-7.107004642486572,-6.750555515289307,1.1022944450378418,-0.7349632382392883,1.4429278373718262,0.31798410415649414,-0.039993975311517715,0.13696862757205963,-1.1832140684127808
440,283093,283094,-0.009855003096163273,0.0054579079151153564,0.9782372713088989,-5.978438854217529,-8.686214447021484,0.7250515818595886,-0.730463445186615,1.444427728652954,0.31948402523994446,0.02784416824579239,0.0946895182132721,-1.1732265949249268
441,283103,283104,-0.007189041934907436,-0.028632907196879387,0.9678329229354858,-2.47110652923584,-9.870241165161133,0.8282727599143982,-0.730463445186615,1.4474276304244995,0.3224838674068451,0.19785268604755402,-0.0011734144063666463,-1.1636661291122437
442,283113,283114,0.0172116756439209,0.029588621109724045,0.9649047255516052,0.3827306628227234,-9.546053886413574,1.2291961908340454,-0.7124643921852112,1.4264286756515503,0.31948402523994446,0.16871844232082367,0.026349101215600967,-1.1609139442443848
443,283123,283124,0.01970723830163479,0.0392298549413681,1.012620449066162,2.262366533279419,-7.371593475341797,0.7362098693847656,-0.7199639678001404,1.445927619934082,0.32698363065719604,0.35276514291763306,0.23880736529827118,-1.1489564180374146
444,283133,283134,0.01853579469025135,-0.0024846282321959734,0.9891474843025208,2.357022285461426,-5.017904281616211,0.4813250005245209,-0.7259637117385864,1.4429278373718262,0.3119843900203705,0.4292486608028412,0.11463867872953415,-1.1408486366271973
445,283143,283144,0.0036420347169041634,-0.004491505213081837,0.9916520118713379,0.031052978709340096,-1.0928318500518799,0.34802722930908203,-0.7169641256332397,1.4399279356002808,0.3239837884902954,0.5378800630569458,0.14175930619239807,-1.1350239515304565
446,283153,283154,-0.015784014016389847,0.01167760044336319,1.0092833042144775,-1.921072244644165,1.3890175819396973,0.4891833961009979,-0.7259637117385864,1.4489275217056274,0.32698363065719604,0.5854834914207458,0.13578180968761444,-1.1300921440124512
447,283163,283164,-0.04953857883810997,-0.006333263590931892,0.9431406855583191,-4.485752105712891,1.1303783655166626,0.9987255334854126,-0.7274636030197144,1.444427728652954,0.32848358154296875,0.5905212163925171,0.09796997159719467,-1.1241976022720337
448,283173,283174,-0.048266179859638214,-0.007765457034111023,0.9803212285041809,-5.106277942657471,2.726482391357422,0.9713746905326843,-0.736463189125061,1.435428261756897,0.3164841830730438,0.5918708443641663,0.021802561357617378,-1.1132148504257202
449,283183,283184,-0.033160507678985596,0.021645668894052505,1.0238432884216309,-4.847320556640625,2.450977087020874,1.316554307937622,-0.7154642343521118,1.444427728652954,0.3224838674068451,0.5649862289428711,-0.06623530387878418,-1.1026760339736938
450,283193,283194,-0.017929835245013237,0.041866544634103775,1.0349647998809814,-2.8447513580322266,0.5795537233352661,1.3429359197616577,-0.7349632382392883,1.4429278373718262,0.30898454785346985,0.5374195575714111,-0.14723451435565948,-1.0896384716033936
451,283203,283204,-0.04128038510680199,0.033867038786411285,1.0283184051513672,-0.1878356635570526,-0.23355500400066376,1.2628517150878906,-0.7199639678001404,1.445927619934082,0.3029848337173462,0.5349910259246826,-0.19681718945503235,-1.0766047239303589
452,283213,283214,-0.04122316464781761,0.09104236215353012,1.063738226890564,2.284449577331543,-0.1492791771888733,1.090416431427002,-0.7274636030197144,1.444427728652954,0.3314834237098694,0.5476007461547852,-0.20401164889335632,-1.0650136470794678
453,283223,283224,0.0023458388168364763,0.03742021694779396,1.0211163759231567,4.355108261108398,-0.637514591217041,0.8988101482391357,-0.7139642834663391,1.4489275217056274,0.30898454785346985,0.5603208541870117,-0.09789352118968964,-1.0606763362884521
454,283233,283234,0.043211884796619415,0.059968702495098114,1.039215087890625,4.596631050109863,1.3258006572723389,1.0858949422836304,-0.7184640765190125,1.4534273147583008,0.32848358154296875,0.5812049508094788,-0.10358880460262299,-1.0482887029647827
455,283243,283244,-0.0025225700810551643,-0.0029394833836704493,0.9930959343910217,2.8844826221466064,1.4656387567520142,0.9528317451477051,-0.722963809967041,1.445927619934082,0.3209839463233948,0.5723493099212646,-0.028552109375596046,-1.0388422012329102
456,283253,283254,0.03698589280247688,-0.10209199041128159,0.9640842080116272,1.563165307044983,3.393890619277954,0.8537160754203796,-0.7079645991325378,1.4519274234771729,0.32698363065719604,0.5571259260177612,0.018958648666739464,-1.0299688577651978
457,283263,283264,0.036433976143598557,-0.14896954596042633,0.9458645582199097,0.8132646083831787,2.584099769592285,1.409241795539856,-0.7244637608528137,1.435428261756897,0.3254837095737457,0.5024241209030151,0.040138017386198044,-1.0228184461593628
458,283273,283274,0.038986943662166595,-0.11410550773143768,0.9444241523742676,-1.4519565105438232,2.7297000885009766,1.7647044658660889,-0.7334632873535156,1.4504274129867554,0.3254837095737457,0.4581989347934723,0.04526915401220322,-1.011396884918213
459,283283,283284,0.01451412495225668,0.03507028892636299,1.0279189348220825,-2.401839017868042,1.8524128198623657,1.8260300159454346,-0.7244637608528137,1.4474276304244995,0.3134843111038208,0.41758373379707336,0.015062334015965462,-0.9936957955360413
460,283293,283294,0.039988089352846146,0.06659212708473206,0.9823413491249084,-1.7819080352783203,1.2652941942214966,1.64117431640625,-0.730463445186615,1.4564270973205566,0.3314834237098694,0.3906133770942688,-0.02958979457616806,-0.9745888710021973
461,283303,283304,0.050484221428632736,0.08117889612913132,0.944494903087616,-1.5983657836914062,1.4785473346710205,0.9904372692108154,-0.7244637608528137,1.4504274129867554,0.3224838674068451,0.37614524364471436,-0.06127188354730606,-0.9550498127937317
462,283313,283314,-0.006349600851535797,0.042030107229948044,1.0152755975723267,-1.162147879600525,1.7021496295928955,-0.06442754715681076,-0.730463445186615,1.4504274129867554,0.3134843111038208,0.3612700402736664,-0.0866754800081253,-0.9420357346534729
463,283323,283324,0.01965918205678463,0.05191991105675697,1.0427589416503906,-0.3694865107536316,2.032438039779663,-0.02535673975944519,-0.7349632382392883,1.445927619934082,0.3209839463233948,0.34256500005722046,-0.033026646822690964,-0.9472790956497192
464,283333,283334,0.04439963027834892,-0.013369712047278881,1.0210070610046387,-0.4845581352710724,0.5717315673828125,-0.04704730212688446,-0.7244637608528137,1.4474276304244995,0.3224838674068451,0.3862603008747101,-0.04261636734008789,-0.9469314813613892
465,283343,283344,0.03752157464623451,-0.08803444355726242,0.9897974133491516,1.05307137966156,0.8711511492729187,0.26038968563079834,-0.722963809967041,1.4429278373718262,0.32698363065719604,0.37044382095336914,0.015631703659892082,-0.9529398083686829
466,283353,283354,0.04466304928064346,-0.1041199192404747,0.9488789439201355,0.241777241230011,0.1422879546880722,0.6072707176208496,-0.730463445186615,1.4504274129867554,0.3224838674068451,0.27984458208084106,-0.12139707058668137,-0.9408207535743713
467,283363,283364,0.05306953564286232,-0.002679066266864538,0.9654018878936768,0.9048113226890564,-0.17182347178459167,0.883624792098999,-0.7274636030197144,1.4654266834259033,0.33748310804367065,0.27375030517578125,-0.04644157737493515,-0.9419766068458557
468,283373,283374,0.010774441994726658,0.011880473233759403,0.9996863603591919,0.6377490758895874,1.3004056215286255,0.7070470452308655,-0.7259637117385864,1.4579271078109741,0.32698363065719604,0.2742133140563965,-0.10895562171936035,-0.9290201663970947
469,283383,283384,-0.012865977361798286,-0.008258483372628689,1.0078482627868652,1.650806188583374,1.3490766286849976,0.6793281435966492,-0.7334632873535156,1.4534273147583008,0.32848358154296875,0.25551754236221313,-0.10005722939968109,-0.9229758977890015
470,283393,283394,-0.02965875156223774,0.034924328327178955,1.0547043085098267,1.6562206745147705,0.8811622262001038,0.4955216348171234,-0.7334632873535156,1.4534273147583008,0.31948402523994446,0.23700790107250214,-0.07448999583721161,-0.917496919631958
