,timestamp_start,timestamp_end,acc.x,acc.y,acc.z,gyro.x,gyro.y,gyro.z,mag.x,mag.y,mag.z,stabilizer.pitch,stabilizer.roll,stabilizer.yaw
0,170110,170111,-0.00029219870339147747,0.00011312555579934269,1.0378320217132568,5.603928565979004,-23.68446922302246,0.6097155809402466,-0.7484625577926636,1.4474276304244995,0.3494825065135956,-1.5962934494018555,0.015463022515177727,2.261777400970459
1,170120,170121,-0.018020788207650185,0.003845935221761465,1.0526057481765747,3.286646604537964,-22.778425216674805,0.4156700372695923,-0.7589620351791382,1.4579271078109741,0.3599819839000702,-1.2062668800354004,0.07488804310560226,2.2673494815826416
2,170130,170131,-0.01523907482624054,0.0286148302257061,1.0689096450805664,2.1395859718322754,-20.98280906677246,0.3332356810569763,-0.737963080406189,1.46092689037323,0.3689815402030945,-1.1749953031539917,0.05023149028420448,2.2544426918029785
3,170140,170141,-0.0057869357988238335,-0.05333549901843071,1.0141717195510864,0.023586759343743324,-18.077281951904297,0.3757321536540985,-0.7514623999595642,1.4564270973205566,0.36748161911964417,-0.7640972137451172,0.07169720530509949,2.2521352767944336
4,170150,170151,-0.026451990008354187,0.004892224911600351,1.0586788654327393,-2.3646209239959717,-16.352561950683594,0.22530685365200043,-0.7394630312919617,1.4534273147583008,0.3734813332557678,-0.7447495460510254,0.04588473588228226,2.254239797592163
5,170160,170161,0.003991409670561552,0.021683862432837486,1.0591710805892944,-4.3561811447143555,-16.100269317626953,0.10694543272256851,-0.7439627647399902,1.4579271078109741,0.36598169803619385,-0.5232789516448975,0.05195276811718941,2.264815330505371
6,170170,170171,-0.013711586594581604,0.004958494566380978,1.0492442846298218,-4.814133644104004,-15.937565803527832,-0.3579349219799042,-0.736463189125061,1.4384280443191528,0.3584820628166199,-0.3834218680858612,-0.032347604632377625,2.256824493408203
7,170180,170181,-0.01027882844209671,0.04708157107234001,1.0784077644348145,-2.7291276454925537,-16.342592239379883,-0.3910731375217438,-0.7409629225730896,1.4339282512664795,0.36598169803619385,-0.10897234082221985,0.024693304672837257,2.2694146633148193
8,170190,170191,0.03175303712487221,-0.06588858366012573,1.1142171621322632,-0.7212170362472534,-16.729633331298828,-0.3493898808956146,-0.7334632873535156,1.4504274129867554,0.37648117542266846,-0.0643761157989502,0.024161776527762413,2.2673215866088867
9,170200,170201,-0.13676394522190094,-0.010442126542329788,1.0387767553329468,-0.026041297242045403,-16.592376708984375,-0.41757792234420776,-0.730463445186615,1.4264286756515503,0.36448177695274353,0.16302253305912018,0.0012902009766548872,2.2609951496124268
10,170210,170211,-0.04419252648949623,0.026179587468504906,0.9446117877960205,1.1030116081237793,-16.707210540771484,-0.29220277070999146,-0.7274636030197144,1.4144293069839478,0.3584820628166199,0.25377655029296875,0.00955978687852621,2.2606658935546875
11,170220,170221,-0.022044889628887177,0.016192756593227386,0.9871819019317627,-0.04665010794997215,-14.467126846313477,-0.30895212292671204,-0.722963809967041,1.4129292964935303,0.3539822995662689,0.46256962418556213,0.032940447330474854,2.256943941116333
12,170230,170231,-0.01694655977189541,-0.1146702691912651,1.0143357515335083,-1.6337294578552246,-13.036890029907227,-0.19325999915599823,-0.7334632873535156,1.408429503440857,0.3614819049835205,0.5535755157470703,-0.00670367106795311,2.250166416168213
13,170240,170241,-0.05502073094248772,-0.10274219512939453,1.0240854024887085,-3.7223451137542725,-11.336008071899414,-0.2639806568622589,-0.722963809967041,1.4309284687042236,0.3539822995662689,0.7088760733604431,-0.0052252947352826595,2.2415621280670166
14,170250,170251,-0.04852043837308884,0.026500636711716652,0.9973862767219543,-2.951416492462158,-10.487363815307617,-0.03629116341471672,-0.7214639186859131,1.4174290895462036,0.3614819049835205,0.9846000075340271,-0.07609672844409943,2.237581729888916
15,170260,170261,0.009091250598430634,0.027101557701826096,0.9882652163505554,-2.9829964637756348,-7.991487503051758,-0.04627780616283417,-0.7274636030197144,1.4264286756515503,0.3494825065135956,1.013193964958191,0.062435951083898544,2.2215335369110107
16,170270,170271,-0.04712868854403496,0.14772653579711914,1.0662652254104614,-2.6926486492156982,-4.9669575691223145,-0.24400712549686432,-0.7289635539054871,1.4249287843704224,0.35698214173316956,1.0065752267837524,-0.011898557655513287,2.2263832092285156
17,170280,170281,-0.057584427297115326,0.06759420782327652,1.0580816268920898,-4.032973766326904,-3.6117630004882812,-0.24854345619678497,-0.7259637117385864,1.4339282512664795,0.3599819839000702,1.083686351776123,-0.09356014430522919,2.2265586853027344
18,170290,170291,0.004079223144799471,-0.0030721647199243307,0.9765664935112,-4.830765247344971,-2.19170880317688,-0.332367867231369,-0.7319633960723877,1.4249287843704224,0.35698214173316956,1.149063229560852,-0.24699486792087555,2.2447352409362793
19,170300,170301,-0.00851205550134182,0.05582255870103836,0.9306150078773499,-3.875683546066284,-2.5256905555725098,-0.1934555619955063,-0.7154642343521118,1.4234287738800049,0.35548222064971924,1.2750388383865356,-0.33209970593452454,2.25065279006958
20,170310,170311,-0.009466366842389107,0.057303544133901596,0.9147244095802307,-2.958574056625366,-2.298145055770874,-0.27510789036750793,-0.7259637117385864,1.4189289808273315,0.3509824573993683,1.2422550916671753,-0.3752405345439911,2.2577900886535645
21,170320,170321,0.030352968722581863,0.014941984787583351,0.9442275762557983,0.6557908654212952,-2.371243953704834,-0.24462351202964783,-0.7244637608528137,1.420428991317749,0.3494825065135956,1.2536216974258423,-0.3298868238925934,2.240562915802002
22,170330,170331,0.0052246218547225,-0.01446125190705061,0.950126051902771,1.917046070098877,-2.2814440727233887,0.0027656706515699625,-0.7169641256332397,1.4159291982650757,0.341982901096344,1.1434743404388428,-0.2578311562538147,2.2257957458496094
23,170340,170341,-0.0008205561898648739,-0.10987132787704468,0.9734550714492798,5.575893878936768,-1.8715559244155884,-0.09216863662004471,-0.7124643921852112,1.4114294052124023,0.36748161911964417,1.218910813331604,-0.23743510246276855,2.2170815467834473
24,170350,170351,-0.029076138511300087,-0.05612620338797569,0.9833507537841797,5.847589492797852,-3.3104801177978516,0.0068033733405172825,-0.722963809967041,1.4039298295974731,0.34798258543014526,1.2449772357940674,-0.18409687280654907,2.2105555534362793
25,170360,170361,-0.0254924725741148,0.006231382023543119,0.9348768591880798,5.715734004974365,-3.8712806701660156,0.11745475977659225,-0.730463445186615,1.3964301347732544,0.3434828221797943,1.3739871978759766,-0.11668930947780609,2.203042984008789
26,170370,170371,0.007402567658573389,0.04724150523543358,0.8904538750648499,4.3051629066467285,-4.116970539093018,0.30362844467163086,-0.7079645991325378,1.4039298295974731,0.34498274326324463,1.5088828802108765,-0.10969618707895279,2.2214951515197754
27,170380,170381,-0.01101353857666254,0.013087576255202293,0.8655701279640198,1.082885503768921,-3.326317071914673,0.3003001809120178,-0.7034648060798645,1.4024298191070557,0.3524823784828186,1.6244453191757202,-0.061521563678979874,2.2194783687591553
28,170390,170391,-0.009567482396960258,0.0004483665688894689,0.8941150903701782,-0.26112261414527893,-0.6161673069000244,0.20890747010707855,-0.7109644412994385,1.4159291982650757,0.3539822995662689,1.6979341506958008,-0.043152522295713425,2.220277786254883
29,170400,170401,-0.011434290558099747,0.004460414405912161,0.9407025575637817,-1.99838387966156,2.4638140201568604,0.08155442774295807,-0.7139642834663391,1.4159291982650757,0.3509824573993683,1.7231634855270386,-0.04590803012251854,2.2220892906188965
30,170410,170411,0.009590938687324524,0.09794996678829193,1.000194787979126,-3.4082834720611572,5.689187049865723,0.03478870168328285,-0.7259637117385864,1.4189289808273315,0.3509824573993683,1.6173826456069946,-0.0423392690718174,2.211651086807251
31,170420,170421,0.004532678984105587,0.03917905315756798,0.9395753741264343,-3.919728994369507,8.27319622039795,0.0669708326458931,-0.7259637117385864,1.4189289808273315,0.3509824573993683,1.5079317092895508,-0.12427541613578796,2.228623390197754
32,170430,170431,0.04861617460846901,-0.047626614570617676,0.8915446996688843,-3.661806583404541,9.821179389953613,-0.4395157992839813,-0.7259637117385864,1.4189289808273315,0.3509824573993683,1.3536776304244995,-0.2049039751291275,2.244288206100464
33,170440,170441,0.048797257244586945,-0.10885647684335709,0.8949516415596008,-1.841150164604187,10.124306678771973,-0.6261810064315796,-0.7259637117385864,1.4189289808273315,0.3509824573993683,1.1811496019363403,-0.34250709414482117,2.279076337814331
34,170450,170451,0.01602267660200596,-0.07084214687347412,0.9772032499313354,1.9645469188690186,8.194498062133789,-0.8682556748390198,-0.7259637117385864,1.4189289808273315,0.3509824573993683,1.070615291595459,-0.28061380982398987,2.2418391704559326
35,170460,170461,-0.047222625464200974,0.02354099228978157,0.9467495083808899,3.0675559043884277,4.314417839050293,-0.6072317361831665,-0.7259637117385864,1.4129292964935303,0.3539822995662689,1.0330411195755005,-0.23895229399204254,2.226219415664673
36,170470,170471,-0.011362737976014614,0.03079407848417759,0.9632927179336548,4.225307941436768,1.6376718282699585,-0.6693841814994812,-0.7184640765190125,1.4144293069839478,0.3494825065135956,1.0148158073425293,-0.20019899308681488,2.2159337997436523
37,170480,170481,-0.01652994006872177,0.01022922620177269,0.9352893829345703,5.210892200469971,-0.0859343409538269,-0.7817273139953613,-0.730463445186615,1.4174290895462036,0.33748310804367065,1.0202815532684326,-0.13300266861915588,2.198302745819092
38,170490,170491,0.004889926873147488,0.008012826554477215,0.9466532468795776,4.331668376922607,-2.1135897636413574,-0.6631144285202026,-0.722963809967041,1.4249287843704224,0.3539822995662689,0.9157217144966125,0.16145232319831848,2.1049766540527344
39,170500,170501,-0.010905858129262924,0.010614058934152126,0.95630943775177,1.7005409002304077,-1.3914672136306763,-0.14316442608833313,-0.7289635539054871,1.4249287843704224,0.35698214173316956,1.1126993894577026,0.20482595264911652,2.0908546447753906
40,170510,170511,-0.002985590836033225,0.06609147787094116,0.9506629705429077,-2.0443105697631836,-1.1627683639526367,-0.1010066494345665,-0.7244637608528137,1.4114294052124023,0.3524823784828186,0.9564633369445801,0.19424499571323395,2.1052346229553223
41,170520,170521,-0.006483681034296751,0.04423276707530022,0.953146755695343,-5.355499267578125,0.21017798781394958,-0.3840236961841583,-0.7244637608528137,1.420428991317749,0.3494825065135956,1.1920523643493652,0.18839667737483978,2.0895466804504395
42,170530,170531,0.0067878118716180325,0.02853233367204666,0.9385057687759399,-9.720873832702637,2.851733446121216,0.20531314611434937,-0.7154642343521118,1.4174290895462036,0.3524823784828186,-0.5227524042129517,-0.949242353439331,2.5209767818450928
43,170540,170541,0.024663005024194717,0.006761997472494841,0.9417607188224792,-9.52294921875,2.677333354949951,-2.0914037227630615,-0.736463189125061,1.4174290895462036,0.3524823784828186,-0.45045891404151917,-1.053073763847351,2.511565685272217
44,170550,170551,-0.020608821883797646,0.008230570703744888,0.9614468812942505,-3.648810863494873,-3.2095866203308105,-1.0767083168029785,-0.7259637117385864,1.4399279356002808,0.36598169803619385,-0.3345423936843872,-1.0554885864257812,2.463326930999756
45,170560,170561,-0.08092200756072998,-0.057460032403469086,0.9594843983650208,8.222550392150879,-14.449972152709961,-0.933891773223877,-0.7274636030197144,1.4264286756515503,0.3494825065135956,-0.0919397696852684,-1.0026891231536865,2.4242682456970215
46,170570,170571,-0.09049251675605774,0.019309507682919502,0.9445998668670654,20.433265686035156,-25.647409439086914,-1.0833390951156616,-0.7289635539054871,1.421928882598877,0.3509824573993683,0.1318855881690979,-0.7517863512039185,2.3806302547454834
47,170580,170581,-0.06179744377732277,0.02899073250591755,0.9543960094451904,29.84819221496582,-32.73114776611328,-0.23841539025306702,-0.7184640765190125,1.4234287738800049,0.3614819049835205,0.5620256662368774,-0.397152304649353,2.3327596187591553
48,170590,170591,0.0009544872445985675,0.012797175906598568,0.9470618963241577,33.76171875,-35.783626556396484,0.9745429754257202,-0.7199639678001404,1.4189289808273315,0.34798258543014526,1.0817495584487915,-0.10087443143129349,2.328376293182373
49,170600,170601,-0.008805518038570881,0.028786007314920425,0.9762165546417236,29.965059280395508,-33.33189010620117,1.5847111940383911,-0.7094644904136658,1.420428991317749,0.34648266434669495,1.332721471786499,0.33629369735717773,2.3231024742126465
50,170610,170611,-0.016286682337522507,0.04991074278950691,1.0020301342010498,20.771928787231445,-24.911251068115234,1.9151532649993896,-0.722963809967041,1.421928882598877,0.35698214173316956,1.6307379007339478,0.8090623021125793,2.289144515991211
51,170620,170621,0.002523096278309822,0.08341237902641296,1.0516084432601929,8.978231430053711,-14.761222839355469,1.745016098022461,-0.7184640765190125,1.408429503440857,0.34648266434669495,1.9083855152130127,0.8159350752830505,2.3424785137176514
52,170630,170631,-0.003035646164789796,0.018426356837153435,0.9629356265068054,-4.315037727355957,-6.062139987945557,0.8769561648368835,-0.7259637117385864,1.4189289808273315,0.3509824573993683,2.173764228820801,0.8342491388320923,2.3546371459960938
53,170640,170641,-0.04789266735315323,-0.013678433373570442,0.9495192766189575,-13.72253131866455,1.0938690900802612,0.5082319974899292,-0.7124643921852112,1.420428991317749,0.34648266434669495,2.0281286239624023,0.8013820052146912,2.3578619956970215
54,170650,170651,-0.0278822872787714,-0.0009917870629578829,0.9259662628173828,-19.010028839111328,6.443203926086426,0.009185037575662136,-0.7154642343521118,1.4234287738800049,0.3584820628166199,2.071171522140503,0.6979518532752991,2.3431785106658936
55,170660,170661,-0.011440291069447994,0.052532974630594254,0.938912034034729,-15.312365531921387,8.769301414489746,0.16458725929260254,-0.722963809967041,1.4399279356002808,0.341982901096344,2.1648027896881104,0.42093196511268616,2.37540602684021
56,170670,170671,-0.010512901470065117,0.033816199749708176,0.942101776599884,-9.78469181060791,7.227147102355957,-0.26279717683792114,-0.7064646482467651,1.4234287738800049,0.3524823784828186,2.1408915519714355,0.36470919847488403,2.3526089191436768
57,170680,170681,0.02178308740258217,0.028517965227365494,1.012224793434143,-2.234006881713867,5.051849365234375,-0.44761985540390015,-0.722963809967041,1.4399279356002808,0.3539822995662689,2.1309051513671875,0.34107327461242676,2.3330254554748535
58,170690,170691,0.04585680738091469,-0.008110228925943375,0.9711233973503113,4.938638210296631,2.4595754146575928,-0.508065402507782,-0.736463189125061,1.4264286756515503,0.3614819049835205,2.101306676864624,0.3669441044330597,2.3194186687469482
59,170700,170701,-0.00443320581689477,-0.026469292119145393,1.0188944339752197,9.369100570678711,1.478509545326233,-0.3185669779777527,-0.7409629225730896,1.4429278373718262,0.341982901096344,2.0885045528411865,0.45846205949783325,2.2958009243011475
60,170710,170711,-0.030871067196130753,-0.018231570720672607,0.9706283807754517,9.607895851135254,1.7061465978622437,-0.15319815278053284,-0.737963080406189,1.4489275217056274,0.3539822995662689,2.0966875553131104,0.6052461266517639,2.271686315536499
61,170720,170721,0.020715389400720596,0.03364693745970726,0.9128044247627258,4.174160003662109,4.363741397857666,-0.056881677359342575,-0.7274636030197144,1.4474276304244995,0.34648266434669495,2.1568758487701416,0.7440414428710938,2.2568042278289795
62,170730,170731,0.04671284928917885,0.058664485812187195,0.960586428642273,-0.25490665435791016,6.842360019683838,0.30038586258888245,-0.7334632873535156,1.444427728652954,0.3584820628166199,2.165118932723999,0.8080969452857971,2.2543880939483643
63,170740,170741,0.020689211785793304,0.044724300503730774,1.0216710567474365,-7.9373345375061035,9.83413314819336,0.32116588950157166,-0.736463189125061,1.4384280443191528,0.3524823784828186,2.1081104278564453,0.7636125683784485,2.269702911376953
64,170750,170751,0.020001718774437904,-0.061237744987010956,1.0397952795028687,-13.692163467407227,12.212971687316895,-0.06241568550467491,-0.722963809967041,1.445927619934082,0.35698214173316956,2.0471696853637695,0.5840011239051819,2.3038952350616455
65,170760,170761,-0.012981881387531757,-0.002027995651587844,1.0223033428192139,-16.39611053466797,14.108226776123047,-0.1998256891965866,-0.7349632382392883,1.4429278373718262,0.3509824573993683,2.109808921813965,0.34267309308052063,2.3509521484375
66,170770,170771,0.012758095748722553,0.043925691395998,0.9953849911689758,-15.491007804870605,14.308028221130371,-0.4356215298175812,-0.7199639678001404,1.4549272060394287,0.3509824573993683,1.7103325128555298,0.30536600947380066,2.287830114364624
67,170780,170781,-0.04186243563890457,0.018084006384015083,1.018653392791748,-10.970701217651367,15.389029502868652,0.3015541136264801,-0.736463189125061,1.4384280443191528,0.35548222064971924,1.6108659505844116,0.21627451479434967,2.2696471214294434
68,170790,170791,-0.006002970039844513,-0.018755506724119186,1.0054881572723389,-5.41435432434082,13.209567070007324,0.9292076826095581,-0.7334632873535156,1.4384280443191528,0.3494825065135956,1.4253056049346924,0.12753689289093018,2.2692196369171143
69,170800,170801,0.002345983637496829,0.003074981737881899,1.018080234527588,-0.8178185224533081,11.986742973327637,0.9369075894355774,-0.7319633960723877,1.4489275217056274,0.3629818558692932,1.2087461948394775,0.12704963982105255,2.256939172744751
70,170810,170811,-0.03212575241923332,0.03276147320866585,0.953451931476593,2.63354229927063,10.090584754943848,1.0910909175872803,-0.7334632873535156,1.4474276304244995,0.36448177695274353,1.0359814167022705,0.20178256928920746,2.2412843704223633
71,170820,170821,-0.008305041119456291,0.0028553642332553864,1.0108808279037476,3.3676435947418213,7.512485980987549,1.9509669542312622,-0.736463189125061,1.4414279460906982,0.3524823784828186,1.1597565412521362,0.23323234915733337,2.267859697341919
72,170830,170831,-0.016930850222706795,0.004641263745725155,1.0257474184036255,1.8852239847183228,5.981349468231201,1.948685884475708,-0.7349632382392883,1.445927619934082,0.34498274326324463,1.370272159576416,0.2637251913547516,2.3026936054229736
73,170840,170841,0.015381978824734688,-0.03816822171211243,1.0458985567092896,-3.4457790851593018,6.568282127380371,1.6658762693405151,-0.7484625577926636,1.4474276304244995,0.3494825065135956,1.215590238571167,0.16382189095020294,2.346843719482422
74,170850,170851,0.03991970047354698,0.02584359422326088,1.0246092081069946,-7.553194999694824,9.281113624572754,1.9029815196990967,-0.736463189125061,1.420428991317749,0.3494825065135956,1.3233970403671265,0.07883329689502716,2.388199806213379
75,170860,170861,0.0481940321624279,-0.014934150502085686,0.9855124354362488,-9.523462295532227,12.643521308898926,1.6852846145629883,-0.736463189125061,1.4414279460906982,0.35548222064971924,1.1735100746154785,-0.06981965899467468,2.425900459289551
76,170870,170871,0.054865505546331406,0.018438464030623436,1.0806139707565308,-9.423238754272461,17.24516487121582,1.558288335800171,-0.7259637117385864,1.4429278373718262,0.3599819839000702,0.8759794235229492,-0.027384329587221146,2.394160270690918
77,170880,170881,0.06986532360315323,-0.13462355732917786,1.1127063035964966,-9.059357643127441,19.189189910888672,1.7970446348190308,-0.7349632382392883,1.436928153038025,0.3599819839000702,0.5747813582420349,-0.21428361535072327,2.4249351024627686
78,170890,170891,-0.015434423461556435,0.03996720165014267,1.0817068815231323,-5.141693592071533,19.43844985961914,1.6735178232192993,-0.7289635539054871,1.445927619934082,0.34498274326324463,0.5651514530181885,-0.2122613489627838,2.4260993003845215
79,170900,170901,0.03791055828332901,0.07103732973337173,1.0110241174697876,-0.2963334619998932,16.535140991210938,1.4692729711532593,-0.7469626665115356,1.4249287843704224,0.35698214173316956,0.22960121929645538,-0.2011856585741043,2.4292521476745605
80,170910,170911,0.013215540908277035,0.06542084366083145,1.0648422241210938,1.7939995527267456,12.768433570861816,1.6381192207336426,-0.7424628734588623,1.4174290895462036,0.32848358154296875,0.27923789620399475,-0.14630892872810364,2.435455560684204
81,170920,170921,-0.0051472545601427555,0.0015036922413855791,1.0941258668899536,2.16087007522583,9.424637794494629,1.4970386028289795,-0.7394630312919617,1.4324283599853516,0.3404829800128937,0.15715108811855316,-0.1545235961675644,2.4528698921203613
82,170930,170931,0.021479930728673935,0.0859985277056694,1.030030369758606,0.9759839177131653,7.164312839508057,1.5450888872146606,-0.7394630312919617,1.4324283599853516,0.3404829800128937,0.03454499691724777,-0.21071523427963257,2.4853217601776123
83,170940,170941,0.004773357883095741,0.09094938635826111,0.9684305191040039,0.4193631708621979,5.9844560623168945,1.7452259063720703,-0.7454627156257629,1.4234287738800049,0.34648266434669495,-0.11399758607149124,-0.20166170597076416,2.5062432289123535
84,170950,170951,0.04742032662034035,0.058588944375514984,0.9741721749305725,-2.7395212650299072,7.975606441497803,1.51363205909729,-0.7454627156257629,1.4234287738800049,0.34648266434669495,-0.19730256497859955,-0.1357683539390564,2.516010284423828
85,170960,170961,0.019206002354621887,-0.022155381739139557,1.0894732475280762,-3.673856019973755,9.312288284301758,1.4715776443481445,-0.737963080406189,1.421928882598877,0.34498274326324463,-0.108030766248703,-0.20098215341567993,2.5313796997070312
86,170970,170971,-0.001735619269311428,0.0034206663258373737,1.004701852798462,-5.086035251617432,9.280056953430176,1.3877133131027222,-0.7589620351791382,1.4099295139312744,0.34798258543014526,-0.45286157727241516,-0.28397130966186523,2.550086498260498
87,170980,170981,-0.08889967203140259,0.010047856718301773,0.9341278672218323,-5.823026180267334,9.840457916259766,0.8948036432266235,-0.7259637117385864,1.4099295139312744,0.3509824573993683,-0.4079594314098358,-0.24645359814167023,2.55446457862854
88,170990,170991,-0.03842025622725487,0.1460944563150406,0.8975573182106018,-4.863666534423828,9.692343711853027,0.9830466508865356,-0.7439627647399902,1.421928882598877,0.3509824573993683,-0.5268133878707886,-0.3432098627090454,2.570978879928589
89,171000,171001,-0.014769675210118294,0.1457630693912506,0.9835381507873535,-4.164552211761475,8.994590759277344,0.6735129952430725,-0.7529623508453369,1.421928882598877,0.3509824573993683,-0.46753421425819397,-0.3470035791397095,2.576464891433716
90,171010,171011,0.08210191130638123,-0.03283682465553284,1.0451998710632324,-1.4730826616287231,8.145099639892578,0.5247862935066223,-0.7439627647399902,1.4189289808273315,0.34498274326324463,-0.7110769152641296,-0.4330330491065979,2.5818371772766113
91,171020,171021,0.030525172129273415,-0.11810709536075592,1.0709518194198608,0.08436720073223114,7.867120742797852,0.574907124042511,-0.7439627647399902,1.4279285669326782,0.34798258543014526,-0.6923717260360718,-0.479428231716156,2.578526496887207
92,171030,171031,-0.03467493876814842,-0.03952683135867119,0.9833748936653137,1.8315964937210083,6.016854286193848,0.4027235209941864,-0.7589620351791382,1.4339282512664795,0.34798258543014526,-0.7831412553787231,-0.4887170195579529,2.5829784870147705
93,171040,171041,-0.011119604110717773,0.04050758108496666,0.87484210729599,3.538681983947754,5.948371887207031,0.4090596139431,-0.7484625577926636,1.444427728652954,0.3434828221797943,-0.9116126894950867,-0.38370177149772644,2.5963387489318848
94,171050,171051,0.07726076990365982,0.13780252635478973,0.9779974222183228,4.215372085571289,6.381783485412598,0.053346745669841766,-0.7544622421264648,1.444427728652954,0.33448326587677,-1.0606545209884644,-0.3231799602508545,2.6078906059265137
95,171060,171061,0.05644112825393677,0.0017846568953245878,1.0227233171463013,2.0615227222442627,6.257079601287842,-0.27708014845848083,-0.7514623999595642,1.4384280443191528,0.3314834237098694,-1.2222864627838135,-0.3579076826572418,2.605558156967163
96,171070,171071,0.06902297586202621,-0.10690391063690186,1.0359910726547241,0.28089645504951477,3.8512628078460693,-0.5504549145698547,-0.7574620842933655,1.4474276304244995,0.3404829800128937,-1.2870368957519531,-0.2881251871585846,2.6041829586029053
97,171080,171081,0.011665301397442818,-0.05179740488529205,1.0119364261627197,-2.361029863357544,0.3379575312137604,-0.32367584109306335,-0.7664616703987122,1.4474276304244995,0.3434828221797943,-1.336406946182251,-0.32225486636161804,2.5972015857696533
98,171090,171091,-0.05531181022524834,0.04769100621342659,0.9609892964363098,-4.395644664764404,-2.4180216789245605,-0.8304509520530701,-0.7529623508453369,1.4189289808273315,0.34798258543014526,-1.2371692657470703,-0.3690272867679596,2.589597702026367
99,171100,171101,-0.09733365476131439,0.10078627616167068,0.9424268007278442,-4.7382426261901855,-4.113677024841309,-0.5761401653289795,-0.7559621930122375,1.4279285669326782,0.341982901096344,-1.1984641551971436,-0.4344886541366577,2.582179307937622
100,171110,171111,-0.046435315161943436,0.07759547978639603,0.9981728792190552,-4.507228851318359,-4.341108322143555,-0.2583767771720886,-0.7484625577926636,1.4324283599853516,0.3494825065135956,-1.0191292762756348,-0.5080443620681763,2.5668857097625732
101,171120,171121,-0.003604920580983162,-0.03600316867232323,1.0210912227630615,-2.5371015071868896,-4.272760391235352,-0.12463828921318054,-0.7574620842933655,1.4534273147583008,0.34648266434669495,-1.0708614587783813,-0.45002710819244385,2.5862088203430176
102,171130,171131,0.00911011639982462,-0.02799808792769909,1.0328242778778076,-0.17602324485778809,-2.086961507797241,-0.07402272522449493,-0.7484625577926636,1.4384280443191528,0.3494825065135956,-1.104328989982605,-0.49791014194488525,2.5858113765716553
103,171140,171141,0.006453857757151127,-0.01755867712199688,0.9936882853507996,3.2760415077209473,-0.5449615716934204,0.41082772612571716,-0.7544622421264648,1.4564270973205566,0.34648266434669495,-1.0818469524383545,-0.48952361941337585,2.5873701572418213
104,171150,171151,-0.025958087295293808,-0.11615060269832611,1.10829758644104,1.6515519618988037,2.173070192337036,0.16873320937156677,-0.7589620351791382,1.4549272060394287,0.35698214173316956,-1.10391104221344,-0.5100733041763306,2.5793612003326416
105,171160,171161,-0.05778368189930916,-0.12986595928668976,1.0816017389297485,4.229475498199463,0.7270326614379883,0.6389719843864441,-0.7589620351791382,1.4549272060394287,0.3539822995662689,-1.1520591974258423,-0.4898035526275635,2.580833673477173
106,171170,171171,-0.05084153264760971,-0.009046263061463833,1.0331121683120728,2.6963865756988525,-0.9007580876350403,0.662037193775177,-0.7679615616798401,1.4489275217056274,0.33898305892944336,-1.1551594734191895,-0.4992596507072449,2.576531410217285
107,171180,171181,-0.04806821793317795,0.1070074737071991,0.941525936126709,2.6646299362182617,-2.428870439529419,0.2752438187599182,-0.7574620842933655,1.4414279460906982,0.34648266434669495,-1.1085247993469238,-0.43306928873062134,2.590826988220215
108,171190,171191,-0.05424414575099945,0.1110076829791069,1.0058311223983765,1.2822811603546143,-3.5628459453582764,0.1369498074054718,-0.7544622421264648,1.4384280443191528,0.34648266434669495,-1.0752489566802979,-0.38779619336128235,2.596792697906494
109,171200,171201,-0.017126331105828285,0.04475652053952217,1.0430654287338257,-0.7394020557403564,-5.947246074676514,0.44914573431015015,-0.7559621930122375,1.445927619934082,0.34798258543014526,-1.0893124341964722,-0.37585780024528503,2.603483200073242
110,171210,171211,0.003940072376281023,-0.0005325191887095571,1.022311806678772,-1.4401949644088745,-7.346031188964844,0.5825294852256775,-0.7649617195129395,1.4429278373718262,0.33598318696022034,-0.9994397759437561,-0.4098856747150421,2.602794647216797
111,171220,171221,0.032687898725271225,0.021898750215768814,0.9324624538421631,-0.6189238429069519,-8.157631874084473,0.9538739323616028,-0.7469626665115356,1.445927619934082,0.3329833447933197,-0.8818909525871277,-0.4096023440361023,2.611269474029541
112,171230,171231,0.0476544089615345,0.03278143331408501,1.0294313430786133,1.3560343980789185,-8.132322311401367,0.8369883894920349,-0.7439627647399902,1.4309284687042236,0.3539822995662689,-0.773652195930481,-0.39275625348091125,2.6208856105804443
113,171240,171241,-0.030225303024053574,-0.038419242948293686,1.1311241388320923,2.1954097747802734,-7.008604526519775,0.5381060242652893,-0.7514623999595642,1.4294284582138062,0.3404829800128937,-0.6731383800506592,-0.44423964619636536,2.606123924255371
114,171250,171251,0.020269319415092468,-0.04044296219944954,1.010494351387024,4.188160419464111,-5.876575469970703,0.7102860808372498,-0.7469626665115356,1.4339282512664795,0.33898305892944336,-0.5685587525367737,-0.4010830521583557,2.614285469055176
115,171260,171261,-0.04479732736945152,0.09989702701568604,0.9765125513076782,5.61583948135376,-4.720395565032959,0.8592503070831299,-0.7439627647399902,1.4279285669326782,0.35698214173316956,-0.4725883901119232,-0.31953972578048706,2.62920880317688
116,171270,171271,-0.08216148614883423,0.10269969701766968,0.9604097604751587,5.999685764312744,-0.6597301959991455,0.506245493888855,-0.7469626665115356,1.4099295139312744,0.33898305892944336,-0.6300481557846069,-0.2170848846435547,2.6627120971679688
117,171280,171281,-0.0044129882007837296,0.014762927778065205,0.98779296875,5.741865158081055,1.5613820552825928,-0.08028992265462875,-0.7424628734588623,1.405429720878601,0.33448326587677,-0.6249309778213501,-0.1120026484131813,2.6756367683410645
118,171290,171291,0.03106573037803173,-0.058610476553440094,0.9820567965507507,4.818451881408691,1.7567565441131592,-0.7692118287086487,-0.7559621930122375,1.421928882598877,0.34498274326324463,-0.7284750938415527,-0.10081708431243896,2.6697001457214355
119,171300,171301,0.08230028301477432,-0.08212888985872269,0.9288166165351868,1.1923424005508423,-0.1139986589550972,-1.2145658731460571,-0.7424628734588623,1.4234287738800049,0.33748310804367065,-0.8063275814056396,-0.2369731366634369,2.628373146057129
120,171310,171311,0.025767086073756218,-0.02733757719397545,0.9438961744308472,0.06047217547893524,-3.7666800022125244,-1.7964955568313599,-0.7424628734588623,1.4234287738800049,0.3434828221797943,-0.8244348168373108,-0.20300598442554474,2.6226398944854736
121,171320,171321,0.013672367669641972,0.059938378632068634,1.0236657857894897,-0.44391143321990967,-7.981382369995117,-2.3177571296691895,-0.7514623999595642,1.435428261756897,0.3404829800128937,-0.7168111801147461,-0.19446654617786407,2.6030519008636475
122,171330,171331,-0.019987894222140312,0.026577690616250038,1.0121347904205322,0.5916081070899963,-12.832249641418457,-2.2741780281066895,-0.730463445186615,1.4414279460906982,0.34648266434669495,-0.5470443964004517,-0.18147912621498108,2.579639196395874
123,171340,171341,-0.03797018900513649,0.028501268476247787,0.9910772442817688,3.4069385528564453,-15.79744815826416,-2.1643311977386475,-0.7409629225730896,1.4309284687042236,0.33598318696022034,-0.3832210898399353,-0.29244711995124817,2.532982110977173
124,171350,171351,-0.034262385219335556,0.05113447457551956,1.0052905082702637,6.503224849700928,-14.701395034790039,-1.5700353384017944,-0.7439627647399902,1.4249287843704224,0.33898305892944336,-0.26444363594055176,-0.19931723177433014,2.5254299640655518
125,171360,171361,0.0300245750695467,0.0408392958343029,0.9403994679450989,9.21707820892334,-11.307676315307617,-1.395688772201538,-0.7319633960723877,1.4309284687042236,0.32998350262641907,-0.0897301509976387,-0.05782526731491089,2.521721363067627
126,171370,171371,-0.012693077325820923,0.02403002418577671,1.0134501457214355,8.068387031555176,-6.43572998046875,-1.9005627632141113,-0.7529623508453369,1.4309284687042236,0.3509824573993683,0.012184075079858303,0.03448640927672386,2.5053913593292236
127,171380,171381,-0.04184766486287117,0.03317941725254059,1.0239307880401611,7.0095672607421875,-1.8044731616973877,-2.113884449005127,-0.737963080406189,1.4309284687042236,0.33898305892944336,-0.03366999700665474,0.18106400966644287,2.501399517059326
128,171390,171391,0.0016209707828238606,-0.015390035696327686,0.9686999320983887,4.253291606903076,0.22170501947402954,-2.2087740898132324,-0.737963080406189,1.4339282512664795,0.34498274326324463,0.0020170079078525305,0.2951752245426178,2.4863266944885254
129,171400,171401,-0.02396816946566105,-0.004620051011443138,0.9958815574645996,-0.28804510831832886,1.8256990909576416,-2.401312828063965,-0.7544622421264648,1.4504274129867554,0.35548222064971924,0.07501505315303802,0.27358341217041016,2.4541749954223633
130,171410,171411,-0.03714433312416077,-0.013614929281175137,0.9834213256835938,-3.422802209854126,1.5868985652923584,-2.494743585586548,-0.736463189125061,1.4414279460906982,0.33748310804367065,0.05092145875096321,0.05660460144281387,2.404061794281006
131,171420,171421,0.0022463826462626457,-0.022112542763352394,0.9730995893478394,-4.677316665649414,0.05020216479897499,-2.0737266540527344,-0.7499625086784363,1.436928153038025,0.341982901096344,0.04923625662922859,0.008948750793933868,2.379828691482544
132,171430,171431,0.01466901134699583,-0.034097861498594284,1.0205488204956055,-2.02232027053833,-1.815818190574646,-2.1795201301574707,-0.7589620351791382,1.4399279356002808,0.34498274326324463,0.054374173283576965,-0.039851315319538116,2.3582983016967773
133,171440,171441,0.017182646319270134,0.0009478218853473663,0.9965561628341675,1.8607196807861328,-3.5518569946289062,-2.098971128463745,-0.736463189125061,1.4264286756515503,0.3524823784828186,-0.44450271129608154,0.11319632083177567,2.3587453365325928
134,171450,171451,0.08333534002304077,-0.011909588240087032,1.0196630954742432,5.769226551055908,-5.37493896484375,-2.622062921524048,-0.7349632382392883,1.4339282512664795,0.3539822995662689,-0.3248254954814911,0.16756927967071533,2.33893084526062
135,171460,171461,0.00626911036670208,-0.02245502546429634,1.0074232816696167,8.53744888305664,-9.71448040008545,-2.896148204803467,-0.7454627156257629,1.444427728652954,0.34648266434669495,-0.23567982017993927,0.2868002951145172,2.3172783851623535
136,171470,171471,0.00677563576027751,-0.025098701938986778,1.0073620080947876,6.51646614074707,-13.187910079956055,-3.182913064956665,-0.7424628734588623,1.420428991317749,0.3434828221797943,-0.29222050309181213,0.42113950848579407,2.2923901081085205
137,171480,171481,-0.030327845364809036,-0.016701621934771538,1.05655038356781,4.331853866577148,-16.105445861816406,-3.113607168197632,-0.7349632382392883,1.4279285669326782,0.3539822995662689,-0.01365006621927023,0.4543120861053467,2.2564375400543213
138,171490,171491,-0.025524020195007324,-0.023728063330054283,1.0221492052078247,1.3024102449417114,-19.657176971435547,-2.635441541671753,-0.7244637608528137,1.4294284582138062,0.34648266434669495,0.24047976732254028,0.5065902471542358,2.227653741836548
139,171500,171501,0.022991284728050232,0.03087042085826397,0.9283933639526367,-3.384158134460449,-19.314380645751953,-2.9041759967803955,-0.7289635539054871,1.436928153038025,0.3509824573993683,0.6062795519828796,0.512593686580658,2.2043819427490234
140,171510,171511,0.03200911730527878,0.0866302028298378,0.9349451065063477,-6.479028701782227,-15.032195091247559,-3.0765068531036377,-0.7349632382392883,1.4249287843704224,0.34498274326324463,0.6606235504150391,0.3836616575717926,2.1675331592559814
141,171520,171521,-0.01010926254093647,0.07314996421337128,0.9827433824539185,-9.08240032196045,-7.856323719024658,-3.6133153438568115,-0.722963809967041,1.4189289808273315,0.341982901096344,0.7710091471672058,0.2806912958621979,2.133493661880493
142,171530,171531,0.002731803571805358,-0.044414713978767395,1.0092655420303345,-9.82170581817627,-2.715446710586548,-3.922253370285034,-0.730463445186615,1.4264286756515503,0.34648266434669495,0.7024118304252625,0.20728012919425964,2.090585708618164
143,171540,171541,0.06864611804485321,-0.10851087421178818,0.9752208590507507,-5.061258792877197,0.15307500958442688,-3.6649115085601807,-0.7259637117385864,1.4189289808273315,0.33598318696022034,0.7081037163734436,0.13372014462947845,2.048919916152954
144,171550,171551,0.043133221566677094,-0.0008775536553002894,0.9733026027679443,-0.17256027460098267,1.4013488292694092,-3.7975010871887207,-0.7274636030197144,1.4294284582138062,0.3494825065135956,0.7548924684524536,0.07772881537675858,2.0138838291168213
145,171560,171561,-0.025234930217266083,0.055087462067604065,0.9703953862190247,2.927182912826538,0.12078298628330231,-4.329530239105225,-0.7184640765190125,1.4324283599853516,0.3524823784828186,0.7889463901519775,0.029462086036801338,1.977183222770691
146,171570,171571,-0.06730204820632935,0.06620407849550247,0.9783489108085632,4.375932216644287,-1.9239362478256226,-4.4342217445373535,-0.730463445186615,1.4264286756515503,0.3404829800128937,0.8429683446884155,0.10014868527650833,1.9349148273468018
147,171580,171581,-0.08463919162750244,-0.010868263430893421,0.9578680992126465,6.772543430328369,-3.1041831970214844,-4.508960247039795,-0.7244637608528137,1.4324283599853516,0.34648266434669495,0.7649276852607727,0.18712285161018372,1.8842190504074097
148,171590,171591,-0.039816346019506454,0.009927303530275822,0.9682593941688538,6.227579116821289,-5.126251220703125,-4.339104652404785,-0.7514623999595642,1.444427728652954,0.3524823784828186,0.8599550127983093,0.30051112174987793,1.8387653827667236
149,171600,171601,-0.0020613400265574455,0.09820600599050522,1.0054495334625244,3.261305093765259,-6.561835289001465,-3.7907514572143555,-0.7469626665115356,1.4399279356002808,0.3329833447933197,0.9114078879356384,0.3899075388908386,1.7945979833602905
150,171610,171611,0.01685471646487713,0.07602965831756592,0.9517064690589905,0.5205962061882019,-6.211999893188477,-3.59295916557312,-0.736463189125061,1.435428261756897,0.3524823784828186,1.0518908500671387,0.4378889501094818,1.7597943544387817
151,171620,171621,0.0018414859659969807,0.08470004051923752,0.9905537962913513,-3.88045072555542,-5.494619369506836,-3.4196527004241943,-0.7424628734588623,1.444427728652954,0.34648266434669495,1.103758454322815,0.2940770983695984,1.7359118461608887
152,171630,171631,-0.005144380033016205,-0.004585878923535347,1.0244460105895996,-7.85103702545166,-3.145655870437622,-3.6531941890716553,-0.7319633960723877,1.4429278373718262,0.34498274326324463,1.1271336078643799,0.2868880033493042,1.6948412656784058
153,171640,171641,0.03360363468527794,-0.14214372634887695,1.0022573471069336,-8.512622833251953,-1.6950680017471313,-3.1848161220550537,-0.7454627156257629,1.459426999092102,0.3524823784828186,1.1833258867263794,0.16148245334625244,1.6633985042572021
154,171650,171651,0.027325354516506195,-0.076347716152668,1.0278810262680054,-6.14739990234375,-0.0812305137515068,-2.729022264480591,-0.7424628734588623,1.459426999092102,0.3494825065135956,1.224992275238037,0.1011500135064125,1.6305840015411377
155,171660,171661,0.02349633350968361,0.015694765374064445,0.9593076705932617,-2.149411678314209,1.941494107246399,-2.655087947845459,-0.7394630312919617,1.4624269008636475,0.3614819049835205,1.241588830947876,0.026334289461374283,1.6087082624435425
156,171670,171671,0.023798396810889244,0.019008565694093704,1.0673878192901611,0.7436320781707764,4.094407558441162,-2.757098913192749,-0.722963809967041,1.4639267921447754,0.341982901096344,1.213637113571167,0.08652335405349731,1.570871114730835
157,171680,171681,-0.033373478800058365,0.07555834203958511,1.1043121814727783,2.430445432662964,4.94401216506958,-2.740281820297241,-0.7259637117385864,1.4549272060394287,0.35698214173316956,1.1650980710983276,0.045668259263038635,1.5510698556900024
158,171690,171691,-0.045187365263700485,-0.01918788067996502,1.0261659622192383,3.9747378826141357,4.958045959472656,-2.1938562393188477,-0.7424628734588623,1.4624269008636475,0.3584820628166199,1.093796968460083,0.0948454737663269,1.5203125476837158
159,171700,171701,-0.015894554555416107,-0.015884606167674065,1.0371254682540894,4.275583744049072,5.490040302276611,-2.3719444274902344,-0.7334632873535156,1.4504274129867554,0.3494825065135956,1.095564842224121,0.16984421014785767,1.4941902160644531
160,171710,171711,0.022667914628982544,-0.014138719066977501,1.0872005224227905,2.7522337436676025,5.432073593139648,-2.62312388420105,-0.7349632382392883,1.4489275217056274,0.3539822995662689,0.9522597789764404,0.23732270300388336,1.4613159894943237
161,171720,171721,-0.02137322910130024,-0.07831453531980515,1.1283690929412842,0.6379375457763672,4.057760715484619,-2.5141921043395996,-0.730463445186615,1.4504274129867554,0.3524823784828186,0.8829986453056335,0.20876412093639374,1.442055583000183
162,171730,171731,0.0034437517169862986,-0.1270238310098648,1.069421648979187,-2.0234756469726562,2.3656561374664307,-2.13451886177063,-0.7439627647399902,1.4549272060394287,0.341982901096344,0.8462348580360413,0.20734240114688873,1.4170788526535034
163,171740,171741,-0.005326326470822096,-0.024317385628819466,1.0470402240753174,-1.9652410745620728,1.0401134490966797,-2.781137228012085,-0.7349632382392883,1.4339282512664795,0.34498274326324463,0.8958072066307068,0.1762000173330307,1.3979018926620483
164,171750,171751,-0.017705745995044708,0.016182366758584976,1.0454744100570679,-3.191420078277588,-0.4357573688030243,-2.832166910171509,-0.7334632873535156,1.444427728652954,0.3434828221797943,1.0364129543304443,0.06679266691207886,1.390750527381897
165,171760,171761,0.023855891078710556,0.03924667835235596,1.0676285028457642,-3.5036776065826416,-0.26253530383110046,-2.9791603088378906,-0.7349632382392883,1.445927619934082,0.35698214173316956,0.9756158590316772,0.020569683983922005,1.3623679876327515
166,171770,171771,0.007693377323448658,-0.07053627073764801,1.0968014001846313,-0.29929354786872864,1.2905572652816772,-2.954893112182617,-0.7214639186859131,1.4324283599853516,0.33448326587677,0.9023343324661255,0.05038189888000488,1.317614197731018
167,171780,171781,-0.014598438516259193,-0.022912727668881416,0.9939637184143066,3.959441900253296,2.8028531074523926,-2.2593815326690674,-0.7349632382392883,1.4249287843704224,0.341982901096344,1.0224571228027344,0.06401114165782928,1.2941690683364868
168,171790,171791,-0.017357096076011658,0.025446299463510513,1.0380903482437134,5.753962516784668,7.535145282745361,-2.9248504638671875,-0.7289635539054871,1.4279285669326782,0.34498274326324463,0.9494869709014893,0.14790722727775574,1.2619270086288452
169,171800,171801,-0.04110962897539139,0.01397436298429966,1.1180698871612549,4.6304802894592285,9.963741302490234,-2.8347067832946777,-0.7289635539054871,1.4279285669326782,0.34498274326324463,0.8081414103507996,0.24122340977191925,1.2242194414138794
170,171810,171811,-0.016793018206954002,0.016600215807557106,1.0405160188674927,5.113192081451416,10.259811401367188,-2.3949718475341797,-0.7289635539054871,1.4279285669326782,0.34498274326324463,0.64658522605896,0.25278031826019287,1.2026501893997192
171,171820,171821,-0.03955324366688728,-0.040449466556310654,0.9809582233428955,2.5523245334625244,9.712567329406738,-2.690119743347168,-0.7289635539054871,1.4279285669326782,0.34498274326324463,0.547595739364624,0.32008397579193115,1.1737534999847412
172,171830,171831,-0.09139678627252579,0.0325850173830986,0.9531509876251221,-0.32996997237205505,7.872624397277832,-2.8542490005493164,-0.737963080406189,1.4279285669326782,0.33598318696022034,0.46262046694755554,0.3495151698589325,1.1465195417404175
173,171840,171841,-0.029612218961119652,-0.0051093874499201775,0.9636343121528625,-1.847692608833313,6.700610160827637,-3.235978603363037,-0.7394630312919617,1.4324283599853516,0.3494825065135956,0.5478038191795349,0.2640244662761688,1.1368722915649414
174,171850,171851,-0.0005161966546438634,-0.014674675650894642,0.9775328636169434,-3.305203676223755,4.013935089111328,-3.2113091945648193,-0.7274636030197144,1.4324283599853516,0.3404829800128937,0.5103421807289124,0.2266642451286316,1.1085124015808105
175,171860,171861,0.026373153552412987,-0.02443779818713665,0.960091769695282,-3.261519193649292,3.838963270187378,-3.419741630554199,-0.7319633960723877,1.436928153038025,0.3539822995662689,0.4232814610004425,0.1769113838672638,1.0773059129714966
176,171870,171871,-0.010201013647019863,0.006083359941840172,0.9981278777122498,-1.5764206647872925,4.316592216491699,-3.2843575477600098,-0.7424628734588623,1.4174290895462036,0.3314834237098694,0.34834024310112,0.14087018370628357,1.042861819267273
177,171880,171881,0.05672583356499672,-0.11960677802562714,0.9722248315811157,-1.1966359615325928,5.3559136390686035,-3.520569324493408,-0.7409629225730896,1.4309284687042236,0.33898305892944336,0.2587377429008484,0.11777674406766891,1.0075206756591797
178,171890,171891,0.08565618842840195,-0.07668691873550415,0.9953916072845459,2.035646677017212,5.383809566497803,-3.344241142272949,-0.737963080406189,1.4189289808273315,0.3599819839000702,0.30692994594573975,0.12535801529884338,0.9764474034309387
179,171900,171901,0.04537832736968994,-0.040934521704912186,0.9946614503860474,3.1028473377227783,4.25468635559082,-3.4472503662109375,-0.7244637608528137,1.4264286756515503,0.33748310804367065,0.20766599476337433,0.17816466093063354,0.9388958811759949
180,171910,171911,-0.006557890214025974,-0.0470593199133873,0.9708839058876038,5.102128982543945,5.567750930786133,-3.718754529953003,-0.7349632382392883,1.4189289808273315,0.34498274326324463,0.12219522893428802,0.17009520530700684,0.9069442749023438
181,171920,171921,0.021633677184581757,0.04664713516831398,1.003205418586731,4.463455677032471,5.594331741333008,-3.772278070449829,-0.7499625086784363,1.421928882598877,0.3329833447933197,0.1596350222826004,0.2517012655735016,0.8696792125701904
182,171930,171931,0.03231595456600189,0.05867181718349457,1.0174756050109863,4.562254428863525,6.252382278442383,-4.057581901550293,-0.736463189125061,1.4174290895462036,0.33748310804367065,0.04523693025112152,0.3319704532623291,0.8255438804626465
183,171940,171941,0.016922306269407272,-0.0005998071865178645,0.9750363826751709,2.3644392490386963,5.727950572967529,-4.177822589874268,-0.7319633960723877,1.4189289808273315,0.33898305892944336,0.07429604977369308,0.4045087993144989,0.785246729850769
184,171950,171951,0.006745954509824514,-0.038286902010440826,0.9121592044830322,2.8068432807922363,6.600686073303223,-4.35368537902832,-0.7409629225730896,1.4159291982650757,0.34798258543014526,-0.17995281517505646,0.4495905041694641,0.7356640100479126
185,171960,171961,-0.0033161253668367863,-0.05710093677043915,0.8969814777374268,-0.41500532627105713,4.690253734588623,-4.283881664276123,-0.7394630312919617,1.405429720878601,0.3494825065135956,-0.07826446741819382,0.47120848298072815,0.6989983916282654
186,171970,171971,-0.02856261096894741,-0.024861173704266548,0.9246699213981628,-2.13716983795166,4.086476802825928,-4.874879360198975,-0.7484625577926636,1.4114294052124023,0.3434828221797943,-0.09802724421024323,0.44506120681762695,0.6570448875427246
187,171980,171981,-0.015277744270861149,0.012590428814291954,0.9496831297874451,-3.1564531326293945,2.218029737472534,-5.279020309448242,-0.737963080406189,1.421928882598877,0.3509824573993683,-0.10507094860076904,0.33165937662124634,0.6131344437599182
188,171990,171991,-0.03134677931666374,0.010799174197018147,0.9873504042625427,-2.5622031688690186,1.1821004152297974,-4.922666072845459,-0.7409629225730896,1.421928882598877,0.33598318696022034,-0.08990107476711273,0.2909172475337982,0.5633313655853271
189,172000,172001,-0.030224258080124855,0.01769452914595604,0.978439211845398,-2.5056848526000977,3.4252676963806152,-4.754639148712158,-0.730463445186615,1.420428991317749,0.33448326587677,-0.14588122069835663,0.2402658760547638,0.5136731863021851
190,172010,172011,0.05705009028315544,-0.007926401682198048,1.0041574239730835,-2.1644182205200195,6.304741382598877,-4.441280364990234,-0.7259637117385864,1.4309284687042236,0.33898305892944336,-0.23985742032527924,0.3364238440990448,0.46199551224708557
191,172020,172021,0.01738222874701023,0.00011753627040889114,0.9667748212814331,-0.9176275134086609,5.672933578491211,-4.079592704772949,-0.7334632873535156,1.4234287738800049,0.3434828221797943,-0.21575835347175598,0.31189295649528503,0.42331215739250183
192,172030,172031,-0.01844259910285473,0.012355673126876354,0.9606703519821167,1.405881643295288,6.152303218841553,-3.8580970764160156,-0.736463189125061,1.4144293069839478,0.33748310804367065,-0.34008267521858215,0.30952396988868713,0.3794933259487152
193,172040,172041,-0.046099647879600525,0.1324063241481781,1.0135070085525513,-0.11485552787780762,5.915693759918213,-3.9483697414398193,-0.7394630312919617,1.4234287738800049,0.3314834237098694,-0.45697662234306335,0.3266255855560303,0.33810359239578247
194,172050,172051,-0.0320747084915638,0.14417745172977448,1.0311626195907593,-0.8704676032066345,5.969212055206299,-4.003340244293213,-0.7439627647399902,1.4279285669326782,0.33598318696022034,-0.36425870656967163,0.31425172090530396,0.3053147494792938
195,172060,172061,-0.016441835090517998,0.05703151971101761,0.9985696077346802,-0.454323410987854,4.459553241729736,-4.135006427764893,-0.7454627156257629,1.435428261756897,0.34648266434669495,-0.4815363585948944,0.2952708303928375,0.2609793245792389
196,172070,172071,0.0026348610408604145,-0.054268285632133484,0.957817792892456,-1.1639505624771118,3.9873318672180176,-4.345210075378418,-0.736463189125061,1.4414279460906982,0.3404829800128937,-0.5659164190292358,0.2778196632862091,0.21625354886054993
197,172080,172081,0.0319424606859684,-0.12535859644412994,0.9366849660873413,-2.361243963241577,1.7801215648651123,-3.6303489208221436,-0.7469626665115356,1.4399279356002808,0.33898305892944336,-0.5605303049087524,0.2463657110929489,0.1758544147014618
198,172090,172091,0.06439227610826492,-0.1329164057970047,0.9471340775489807,-4.046932220458984,-0.7302626371383667,-3.0914297103881836,-0.7454627156257629,1.4294284582138062,0.33448326587677,-0.5931676030158997,0.2727126181125641,0.1427425742149353
199,172100,172101,0.06021207198500633,-0.11059600859880447,0.946556031703949,-2.573591470718384,-1.5010290145874023,-2.7124927043914795,-0.7544622421264648,1.4264286756515503,0.33448326587677,-0.5897189378738403,0.2032427340745926,0.11003778129816055
200,172110,172111,0.0334353893995285,-0.07448171079158783,0.9494205117225647,-0.0024964269250631332,-2.903355836868286,-2.074878692626953,-0.736463189125061,1.4414279460906982,0.3404829800128937,-0.570438027381897,0.2336505949497223,0.0889996886253357
201,172120,172121,-0.002247776137664914,0.00419515511021018,0.9850719571113586,-1.1615862846374512,-1.8107290267944336,-1.549120306968689,-0.730463445186615,1.4324283599853516,0.3494825065135956,-0.5511031746864319,0.2164732664823532,0.06900234520435333
202,172130,172131,-0.017010295763611794,0.02288752608001232,1.001450538635254,0.9610241651535034,-0.5622631311416626,-1.7005709409713745,-0.7484625577926636,1.420428991317749,0.3434828221797943,-0.5405631065368652,0.19561195373535156,0.05180300772190094
203,172140,172141,-0.025264112278819084,0.04504358023405075,1.0302925109863281,0.030920609831809998,1.2831743955612183,-1.5631155967712402,-0.7394630312919617,1.405429720878601,0.3314834237098694,-0.5536218881607056,0.19234700500965118,0.03291970118880272
204,172150,172151,-0.020626476034522057,0.07400919497013092,1.05379056930542,-0.4800284504890442,2.911095142364502,-1.5312244892120361,-0.7424628734588623,1.420428991317749,0.33448326587677,-0.5973747968673706,0.17438700795173645,0.014586938545107841
205,172160,172161,-0.0052739353850483894,0.08269547671079636,1.0367087125778198,-0.2616522014141083,3.1574349403381348,-1.42589271068573,-0.7514623999595642,1.4294284582138062,0.33748310804367065,-0.6505686640739441,0.21921643614768982,0.004372323397547007
206,172170,172171,0.014130151830613613,0.051480233669281006,0.9954838752746582,-1.1113979816436768,1.1831214427947998,-1.680152177810669,-0.7484625577926636,1.4234287738800049,0.33748310804367065,-0.6980271935462952,0.2025427520275116,-0.013101106509566307
207,172180,172181,0.04077396169304848,0.01429052371531725,0.963555634021759,-2.2130489349365234,-1.060427188873291,-1.525156855583191,-0.7349632382392883,1.436928153038025,0.33598318696022034,-0.7091803550720215,0.16876433789730072,-0.03230113163590431
208,172190,172191,0.06358742713928223,-0.006677274126559496,0.9569826126098633,-3.1079444885253906,-2.467958450317383,-1.5021225214004517,-0.7439627647399902,1.4309284687042236,0.34498274326324463,-0.6849054098129272,0.19119907915592194,-0.04157236963510513
209,172200,172201,0.013523370027542114,0.019406968727707863,0.992804229259491,-2.76816725730896,-4.565569877624512,-1.3545010089874268,-0.7589620351791382,1.4189289808273315,0.34798258543014526,-0.6330469250679016,0.20419509708881378,-0.05064798519015312
210,172210,172211,0.04119088128209114,-0.04519971087574959,0.9814248085021973,-2.872924566268921,-4.944700717926025,-1.1591763496398926,-0.7469626665115356,1.421928882598877,0.341982901096344,-0.5616105794906616,0.1451755166053772,-0.0681598111987114
211,172220,172221,0.03779464587569237,-0.08994469046592712,0.9698202610015869,-3.012106418609619,-4.772963047027588,-0.8987076878547668,-0.7319633960723877,1.4279285669326782,0.341982901096344,-0.4829142391681671,0.1559372991323471,-0.07245376706123352
212,172230,172231,0.013377700001001358,-0.07674948126077652,0.966088056564331,-3.965980291366577,-3.412372350692749,-0.7075152397155762,-0.7454627156257629,1.4174290895462036,0.3494825065135956,-0.41649773716926575,0.09110261499881744,-0.08502081781625748
213,172240,172241,-0.018017424270510674,-0.022394703701138496,0.9887564778327942,-2.7840592861175537,-1.4763363599777222,-0.6670770049095154,-0.7274636030197144,1.4324283599853516,0.3584820628166199,-0.37897342443466187,0.01231824979186058,-0.0973246693611145
214,172250,172251,-0.03120642900466919,0.03000277280807495,1.0266557931900024,-2.449723958969116,0.39739659428596497,-0.8083348870277405,-0.730463445186615,1.4414279460906982,0.34648266434669495,-0.37087368965148926,0.0261833518743515,-0.09842117130756378
215,172260,172261,-0.015585536137223244,0.00903143361210823,0.9927309155464172,-3.543071985244751,2.705887794494629,-1.420499324798584,-0.7514623999595642,1.4324283599853516,0.34648266434669495,-0.40595516562461853,0.026539284735918045,-0.10456068813800812
216,172270,172271,-0.019150443375110626,0.011427110992372036,1.0217881202697754,-3.074445962905884,3.560537576675415,-1.223258137702942,-0.7514623999595642,1.4534273147583008,0.34648266434669495,-0.4590306282043457,-0.047082073986530304,-0.12357376515865326
217,172280,172281,-0.011622547172009945,-0.005238325800746679,1.0484044551849365,-4.19685697555542,2.9733047485351562,-1.4876527786254883,-0.7559621930122375,1.436928153038025,0.33598318696022034,-0.5174620151519775,-0.11808805167675018,-0.1416543424129486
218,172290,172291,-0.011751287616789341,-0.04339924082159996,1.0367377996444702,-4.10161828994751,1.3400977849960327,-1.6387124061584473,-0.7544622421264648,1.4504274129867554,0.34648266434669495,-0.5624120831489563,-0.0615454763174057,-0.14498507976531982
219,172300,172301,-0.025034287944436073,-0.07397988438606262,1.0312867164611816,-1.3954921960830688,-1.9082424640655518,-1.5332242250442505,-0.7604619860649109,1.4474276304244995,0.34648266434669495,-0.5685668587684631,-0.1341053545475006,-0.16688501834869385
220,172310,172311,-0.04792860522866249,-0.07577618956565857,1.0445888042449951,-0.9672971963882446,-5.136380672454834,-1.3585550785064697,-0.737963080406189,1.4279285669326782,0.3509824573993683,-0.5229740738868713,-0.17206931114196777,-0.18518725037574768
221,172320,172321,-0.05416593328118324,-0.07129517197608948,1.0387320518493652,-0.6223912239074707,-7.819886207580566,-1.023008942604065,-0.7514623999595642,1.444427728652954,0.3314834237098694,-0.49858585000038147,-0.19866631925106049,-0.2000112533569336
222,172330,172331,-0.04702959954738617,-0.050980500876903534,1.0151652097702026,0.22494396567344666,-8.511333465576172,-0.6452170014381409,-0.7499625086784363,1.4489275217056274,0.33898305892944336,-0.36594074964523315,-0.2222239375114441,-0.21150043606758118
223,172340,172341,-0.04813462123274803,0.004544191062450409,1.0143933296203613,0.5608901381492615,-7.256936073303223,-0.29789218306541443,-0.7454627156257629,1.4534273147583008,0.3524823784828186,-0.23404370248317719,-0.16821758449077606,-0.21035180985927582
224,172350,172351,-0.0463099405169487,0.031031526625156403,1.0318251848220825,-0.34337058663368225,-3.682337999343872,-0.005652373656630516,-0.7589620351791382,1.445927619934082,0.34498274326324463,-0.13635976612567902,-0.1857469230890274,-0.21588487923145294
225,172360,172361,-0.051497820764780045,0.030208805575966835,1.087568998336792,-1.3391088247299194,-0.0301763154566288,-0.026432715356349945,-0.7469626665115356,1.4699264764785767,0.34798258543014526,-0.0990532785654068,-0.13800305128097534,-0.21123002469539642
226,172370,172371,-0.036973100155591965,0.008698769845068455,1.0516891479492188,-3.2449116706848145,2.608822822570801,0.07819004356861115,-0.7469626665115356,1.4639267921447754,0.35698214173316956,-0.11505138128995895,-0.19144026935100555,-0.21539203822612762
227,172380,172381,-0.5202070474624634,0.029123302549123764,1.0639220476150513,-3.0861613750457764,5.065598964691162,-0.2053123414516449,-0.7469626665115356,1.46092689037323,0.341982901096344,-0.10042145848274231,-0.11663050204515457,-0.20490461587905884
228,172390,172391,-0.39250698685646057,-0.0987091138958931,1.0675034523010254,-3.704162836074829,4.715343475341797,-0.2476205825805664,-0.7499625086784363,1.4639267921447754,0.34798258543014526,-0.11710069328546524,-0.20392517745494843,-0.21334190666675568
229,172400,172401,-0.06402124464511871,-0.041878148913383484,1.0749691724777222,-3.590114116668701,2.952641248703003,0.2805994153022766,-0.7469626665115356,1.46092689037323,0.3509824573993683,-0.2643381655216217,-0.28282710909843445,-0.2151002436876297
230,172410,172411,0.03408621996641159,-0.027309156954288483,1.0157313346862793,-2.770174980163574,0.5766645669937134,0.5458354949951172,-0.7589620351791382,1.4669265747070312,0.34798258543014526,-0.3061065971851349,-0.2793348431587219,-0.20735330879688263
231,172420,172421,0.002653407398611307,0.022469239309430122,1.0824750661849976,-2.8084022998809814,0.23717936873435974,0.6244286894798279,-0.7529623508453369,1.4579271078109741,0.34498274326324463,-0.3153153359889984,-0.34377098083496094,-0.20493845641613007
232,172430,172431,0.016583260148763657,-0.005747426301240921,1.1145355701446533,-2.331191301345825,-0.9674671292304993,0.49605339765548706,-0.7544622421264648,1.4564270973205566,0.3434828221797943,-0.31081709265708923,-0.33695513010025024,-0.19671012461185455
233,172440,172441,0.0455886572599411,-0.1060609519481659,1.0656979084014893,-0.8485258221626282,-2.688076972961426,0.5881128311157227,-0.7424628734588623,1.4564270973205566,0.3494825065135956,-0.35399290919303894,-0.3816097378730774,-0.1904374361038208
234,172450,172451,-0.06284715980291367,-0.00918079074472189,1.0667403936386108,1.468920350074768,-4.866661548614502,0.7727072834968567,-0.7409629225730896,1.4579271078109741,0.32998350262641907,-0.2927936315536499,-0.39644700288772583,-0.18479745090007782
235,172460,172461,-0.17100894451141357,0.016142137348651886,1.017993450164795,4.429072856903076,-6.451374053955078,1.4800326824188232,-0.7454627156257629,1.4534273147583008,0.3584820628166199,-0.34576520323753357,-0.37007272243499756,-0.167592391371727
236,172470,172471,0.007474761456251144,0.05391857773065567,1.0132360458374023,5.080321311950684,-4.328995227813721,1.4289987087249756,-0.7454627156257629,1.4564270973205566,0.34648266434669495,-0.16837520897388458,-0.30472204089164734,-0.15683452785015106
237,172480,172481,-0.0059514534659683704,0.012052328325808048,1.0335674285888672,2.3191754817962646,-3.1223056316375732,0.7267908453941345,-0.7544622421264648,1.4564270973205566,0.3524823784828186,-0.17387746274471283,-0.19345906376838684,-0.13712699711322784
238,172490,172491,0.004488245118409395,0.023931417614221573,1.0628447532653809,-0.8386831283569336,-1.5728286504745483,0.49153831601142883,-0.7439627647399902,1.4489275217056274,0.3509824573993683,-0.1259782612323761,-0.18698929250240326,-0.1328146606683731
239,172500,172501,0.039424240589141846,-0.038153454661369324,1.0269639492034912,-3.5058753490448,-0.41512295603752136,0.7282347679138184,-0.7604619860649109,1.4564270973205566,0.3614819049835205,-0.10136031359434128,-0.2268240600824356,-0.12935779988765717
240,172510,172511,-0.012298950925469398,-0.04047570005059242,0.9951448440551758,-5.254798412322998,-0.7701325416564941,0.27373960614204407,-0.7469626665115356,1.4549272060394287,0.34798258543014526,-0.020859183743596077,-0.2465410828590393,-0.12584149837493896
241,172520,172521,0.0061058467254042625,-0.04130016639828682,0.9907283186912537,-4.35664176940918,-0.4451843202114105,0.18972736597061157,-0.7319633960723877,1.445927619934082,0.3509824573993683,-0.006956367753446102,-0.340785950422287,-0.12525810301303864
242,172530,172531,-0.0024130709934979677,0.057580795139074326,1.0804904699325562,-4.105451583862305,-0.3508593738079071,0.6316719651222229,-0.7454627156257629,1.459426999092102,0.3494825065135956,0.062070369720458984,-0.43457069993019104,-0.1280509978532791
243,172540,172541,-0.004112833179533482,0.05077144131064415,1.0638279914855957,-2.31307053565979,1.067062497138977,0.23548142611980438,-0.736463189125061,1.4414279460906982,0.3404829800128937,-0.08960016071796417,-0.5117313265800476,-0.1148986741900444
244,172550,172551,0.006012344732880592,-0.011667068116366863,1.0230519771575928,1.6916157007217407,3.424264430999756,-0.38172483444213867,-0.7559621930122375,1.46092689037323,0.34798258543014526,-0.11455779522657394,-0.469424307346344,-0.11159655451774597
245,172560,172561,-0.004497174639254808,-0.001339739072136581,1.0451146364212036,2.9411983489990234,3.4836082458496094,-0.3637608587741852,-0.7514623999595642,1.4624269008636475,0.3494825065135956,-0.15748220682144165,-0.4579051434993744,-0.11446265131235123
246,172570,172571,-0.015651006251573563,0.07613365352153778,0.9546719193458557,6.499935150146484,-0.2076018750667572,0.44578203558921814,-0.7454627156257629,1.4534273147583008,0.3494825065135956,-0.197306826710701,-0.39135879278182983,-0.11353214830160141
247,172580,172581,-0.009733832441270351,0.021655522286891937,0.9990395307540894,3.7685346603393555,-0.701686441898346,-0.2637149691581726,-0.7499625086784363,1.4489275217056274,0.35698214173316956,-0.11695174872875214,-0.24359720945358276,-0.112791046500206
248,172590,172591,-0.005781595129519701,0.008587169460952282,1.0347700119018555,3.8432703018188477,-2.729788303375244,-0.3634871244430542,-0.737963080406189,1.4519274234771729,0.3509824573993683,-0.22642120718955994,-0.2561017572879791,-0.10729042440652847
249,172600,172601,-0.005228003952652216,0.004026343580335379,1.0314098596572876,3.0739834308624268,-3.4386274814605713,-0.6152185797691345,-0.7484625577926636,1.4534273147583008,0.35548222064971924,-0.16837114095687866,-0.2229519933462143,-0.1136973649263382
250,172610,172611,0.0020059258677065372,-0.012319850735366344,1.0196419954299927,-0.7371631264686584,-3.8839778900146484,-0.3475503623485565,-0.7484625577926636,1.4564270973205566,0.34648266434669495,-0.09071419388055801,-0.20784106850624084,-0.12196529656648636
251,172620,172621,-0.010229398496448994,0.0073506333865225315,1.0369949340820312,-3.138465642929077,-4.084478855133057,-0.4360463321208954,-0.7409629225730896,1.4519274234771729,0.34498274326324463,-0.08014574646949768,-0.2552909255027771,-0.12400438636541367
252,172630,172631,0.002032197080552578,0.006025793496519327,1.095737338066101,-5.405352592468262,-1.341535210609436,-0.6092249751091003,-0.7619618773460388,1.445927619934082,0.35698214173316956,0.0014047250151634216,-0.19454404711723328,-0.12653020024299622
253,172640,172641,0.02964259870350361,0.01335497573018074,1.0621488094329834,-3.6218137741088867,-3.219862461090088,-0.23094406723976135,-0.7439627647399902,1.4519274234771729,0.3539822995662689,-0.007916535250842571,-0.28671395778656006,-0.12809060513973236
254,172650,172651,-0.006500960793346167,0.011171843856573105,1.0202451944351196,-3.0836422443389893,-3.1645073890686035,0.027539359405636787,-0.736463189125061,1.4654266834259033,0.3584820628166199,0.06099073961377144,-0.35387977957725525,-0.13192524015903473
255,172660,172661,-0.08419066667556763,0.011633288115262985,1.0309579372406006,-1.9200448989868164,-3.0510544776916504,0.16013464331626892,-0.7469626665115356,1.4549272060394287,0.3509824573993683,0.04609840735793114,-0.39981648325920105,-0.12968261539936066
256,172670,172671,-0.026746457442641258,-0.0616840235888958,1.056105136871338,0.33890122175216675,-1.2458598613739014,-0.11420008540153503,-0.737963080406189,1.4489275217056274,0.34498274326324463,0.03301674500107765,-0.4345332980155945,-0.12637007236480713
257,172680,172681,-0.016814541071653366,-0.017582383006811142,1.0426199436187744,2.4019858837127686,-0.6468018889427185,-0.3793904781341553,-0.7454627156257629,1.4414279460906982,0.35548222064971924,0.06413234770298004,-0.35192129015922546,-0.12833833694458008
258,172690,172691,-0.0346807986497879,-0.0019148136489093304,1.0158621072769165,5.091790199279785,-0.473484605550766,-0.34837809205055237,-0.737963080406189,1.46092689037323,0.341982901096344,0.021214360371232033,-0.30916786193847656,-0.12898673117160797
259,172700,172701,-0.009009528905153275,-0.02409115992486477,0.9976667761802673,5.614212512969971,-1.3342238664627075,-0.181441068649292,-0.7469626665115356,1.4339282512664795,0.34498274326324463,0.04807720705866814,-0.2319457083940506,-0.13404938578605652
260,172710,172711,-0.004074902273714542,0.006982261314988136,1.0312211513519287,2.5058135986328125,-2.2700600624084473,-0.1475560963153839,-0.7484625577926636,1.4474276304244995,0.3494825065135956,0.0935022160410881,-0.1746189445257187,-0.13809511065483093
261,172720,172721,-0.027705306187272072,-0.00699571380391717,1.1057533025741577,1.566001296043396,-2.1650407314300537,-0.9486272931098938,-0.7499625086784363,1.445927619934082,0.3509824573993683,0.13666348159313202,-0.22769592702388763,-0.14440244436264038
262,172730,172731,0.010284602642059326,0.0004416302253957838,1.0378711223602295,-0.920838475227356,-4.1081342697143555,-0.48724862933158875,-0.7499625086784363,1.445927619934082,0.341982901096344,-0.010245079174637794,-0.15679123997688293,-0.14110730588436127
263,172740,172741,-0.0008985914173536003,-0.07078490406274796,1.0263150930404663,-3.154109477996826,-4.5413031578063965,-0.9133310914039612,-0.730463445186615,1.435428261756897,0.35548222064971924,0.22085517644882202,-0.19892700016498566,-0.15936864912509918
264,172750,172751,-0.022450940683484077,0.012472640722990036,1.054489254951477,-1.6480053663253784,-4.2071404457092285,-0.6670100688934326,-0.7334632873535156,1.4474276304244995,0.34648266434669495,0.028490934520959854,-0.26150891184806824,-0.15292266011238098
265,172760,172761,0.0007742847665213048,0.005696019157767296,1.0124365091323853,-2.1958487033843994,-5.317819595336914,-0.987508237361908,-0.7484625577926636,1.4534273147583008,0.3404829800128937,0.06302616000175476,-0.3714047372341156,-0.15889500081539154
266,172770,172771,-0.011075924150645733,0.030430277809500694,1.045196533203125,-1.1467869281768799,-4.426669597625732,-1.1799726486206055,-0.7514623999595642,1.435428261756897,0.3434828221797943,0.17320036888122559,-0.4038083255290985,-0.17260751128196716
267,172780,172781,0.022483646869659424,-0.053080372512340546,1.0279549360275269,0.3564828336238861,-3.978163719177246,-0.9998356699943542,-0.737963080406189,1.4519274234771729,0.3539822995662689,0.12911373376846313,-0.41410964727401733,-0.18010807037353516
268,172790,172791,-0.02597789280116558,-0.05878625065088272,1.071187138557434,2.7081515789031982,-3.9813172817230225,-1.7632842063903809,-0.7349632382392883,1.4519274234771729,0.3509824573993683,0.22803190350532532,-0.39721837639808655,-0.19724200665950775
269,172800,172801,0.0268093328922987,-0.021525267511606216,0.9862287044525146,6.856839179992676,-6.6919941902160645,-0.13193285465240479,-0.7289635539054871,1.4549272060394287,0.33898305892944336,0.25663453340530396,-0.26922309398651123,-0.21464058756828308
270,172810,172811,-0.0029519919771701097,-0.06255676597356796,0.978922426700592,6.033378601074219,-5.722884178161621,-1.5623575448989868,-0.7214639186859131,1.444427728652954,0.3494825065135956,0.30637630820274353,-0.16328728199005127,-0.2227177917957306
271,172820,172821,-0.039453472942113876,-0.03197649121284485,0.9912285208702087,5.665335655212402,-5.38559103012085,-1.2736128568649292,-0.7349632382392883,1.4519274234771729,0.341982901096344,0.42525163292884827,-0.14679694175720215,-0.2395768016576767
272,172830,172831,-0.019232753664255142,-0.013093361631035805,0.9948049187660217,2.1751294136047363,-3.025289297103882,-1.3402103185653687,-0.722963809967041,1.436928153038025,0.3509824573993683,0.5123984813690186,-0.06632666289806366,-0.2561285197734833
273,172840,172841,-0.006487383507192135,0.0036676807794719934,1.0130665302276611,0.33132362365722656,-1.1214035749435425,-1.2787121534347534,-0.7244637608528137,1.4324283599853516,0.3524823784828186,0.5056939721107483,0.022722585126757622,-0.27003014087677
274,172850,172851,-0.0028463187627494335,0.002553035505115986,1.0488842725753784,-4.463774681091309,0.0937780886888504,-1.6457723379135132,-0.7349632382392883,1.4489275217056274,0.34498274326324463,0.5407761931419373,-0.005434263963252306,-0.28433817625045776
275,172860,172861,0.012627032585442066,-0.0434359535574913,1.0608036518096924,-5.25361967086792,1.9956364631652832,-1.719802737236023,-0.7499625086784363,1.4429278373718262,0.3509824573993683,0.5492547154426575,-0.09808917343616486,-0.2998066842556
276,172870,172871,0.015156866982579231,-0.07433249801397324,1.0624490976333618,-6.522562503814697,0.6099409461021423,-1.9966721534729004,-0.7349632382392883,1.4339282512664795,0.3629818558692932,0.5441856384277344,-0.1978001892566681,-0.31585198640823364
277,172880,172881,0.004730545450001955,-0.09632894396781921,1.0446529388427734,-5.250586032867432,0.015164530836045742,-1.983339548110962,-0.722963809967041,1.436928153038025,0.35698214173316956,0.5540305972099304,-0.297513872385025,-0.33411017060279846
278,172890,172891,-0.013923462480306625,-0.008737526834011078,1.0132325887680054,-1.0408506393432617,-1.2737188339233398,-1.3586993217468262,-0.7214639186859131,1.444427728652954,0.3584820628166199,0.5709115862846375,-0.3658704161643982,-0.3507643938064575
279,172900,172901,-0.046816080808639526,0.0018233312293887138,1.012062907218933,1.686610221862793,-1.781215786933899,-1.656046748161316,-0.7334632873535156,1.4384280443191528,0.3524823784828186,0.6046385169029236,-0.37206506729125977,-0.36632588505744934
280,172910,172911,-0.06224270164966583,0.02386181801557541,1.0062479972839355,4.1230316162109375,-0.7597748041152954,-1.4844856262207031,-0.730463445186615,1.420428991317749,0.3404829800128937,0.6328185796737671,-0.2587504982948303,-0.3907877206802368
281,172920,172921,-0.023361142724752426,0.0004833499260712415,0.9801343083381653,5.517547130584717,2.7170653343200684,-1.7148281335830688,-0.7334632873535156,1.4384280443191528,0.3524823784828186,0.6344427466392517,-0.18797872960567474,-0.4082731306552887
282,172930,172931,0.03376002609729767,-0.061398886144161224,1.0074901580810547,4.512289524078369,6.4746270179748535,-1.8359785079956055,-0.7319633960723877,1.4249287843704224,0.34498274326324463,0.5914034843444824,-0.10383684933185577,-0.4277011454105377
283,172940,172941,-0.03720676898956299,0.0029269454535096884,1.0266947746276855,3.433380365371704,4.791228294372559,-1.9680427312850952,-0.7319633960723877,1.436928153038025,0.34498274326324463,0.507602870464325,-0.04152005910873413,-0.4471721947193146
284,172950,172951,-0.07369266450405121,0.027505306527018547,1.020217776298523,-0.5566253662109375,4.632683277130127,-1.8071781396865845,-0.736463189125061,1.4264286756515503,0.3494825065135956,0.4387161433696747,-0.010066825896501541,-0.46615126729011536
285,172960,172961,-0.0709148570895195,0.001466664602048695,1.0073566436767578,-2.369368553161621,2.7342617511749268,-1.7673192024230957,-0.7469626665115356,1.4399279356002808,0.341982901096344,0.37877804040908813,-0.03179791569709778,-0.4821583926677704
286,172970,172971,-0.0687432810664177,-0.0279698446393013,0.9952492713928223,-4.859757900238037,1.0960758924484253,-1.7964228391647339,-0.7349632382392883,1.4429278373718262,0.3539822995662689,0.34803348779678345,-0.01902368851006031,-0.5047247409820557
287,172980,172981,-0.08088736981153488,-0.0505046583712101,0.9829772114753723,-4.688403606414795,-1.2712408304214478,-1.6832919120788574,-0.7274636030197144,1.435428261756897,0.3524823784828186,0.3511675000190735,-0.10756074637174606,-0.5188644528388977
288,172990,172991,-0.09382304549217224,-0.069069042801857,0.9713476300239563,-5.433999061584473,-3.154975175857544,-1.5703781843185425,-0.7274636030197144,1.4384280443191528,0.3494825065135956,0.3884482681751251,-0.19288954138755798,-0.5325475335121155
289,173000,173001,-0.03511432185769081,-0.004612419288605452,0.9912378787994385,-4.01505184173584,-1.633286952972412,-1.3820184469223022,-0.7529623508453369,1.445927619934082,0.33898305892944336,0.4415702819824219,-0.21114708483219147,-0.5512028932571411
290,173010,173011,-0.08383511751890182,0.024842940270900726,0.9715020656585693,-2.146282196044922,-2.477155923843384,-1.4184092283248901,-0.7349632382392883,1.4279285669326782,0.3539822995662689,0.47312232851982117,-0.27432525157928467,-0.5628164410591125
291,173020,173021,-0.10207051038742065,0.07407764345407486,0.9538041949272156,-0.0762828066945076,-1.2316135168075562,-1.3559274673461914,-0.736463189125061,1.444427728652954,0.3404829800128937,0.4298925995826721,-0.2322148084640503,-0.5816221237182617
292,173030,173031,-0.08358117192983627,0.12299755960702896,0.9443105459213257,0.8930115699768066,0.7100234627723694,-1.2517876625061035,-0.7409629225730896,1.4429278373718262,0.33898305892944336,0.4400378465652466,-0.24301660060882568,-0.5934502482414246
293,173040,173041,-0.07686073333024979,0.14957018196582794,0.9649670720100403,1.6287943124771118,3.3560950756073,-1.2466458082199097,-0.737963080406189,1.445927619934082,0.3599819839000702,0.4826098382472992,-0.23646467924118042,-0.6062825918197632
294,173050,173051,-0.06696147471666336,0.13723845779895782,1.000505805015564,0.8179411888122559,4.18079137802124,-1.14901602268219,-0.7424628734588623,1.459426999092102,0.35548222064971924,0.4222322404384613,-0.22166845202445984,-0.6183964610099792
295,173060,173061,-0.05580282211303711,0.08748859912157059,1.011838436126709,1.2782559394836426,5.120925426483154,-0.9880886077880859,-0.7469626665115356,1.46092689037323,0.3509824573993683,0.3523373007774353,-0.2145182341337204,-0.6290493607521057
296,173070,173071,-0.06258714944124222,0.04086490720510483,1.0223759412765503,-0.36990994215011597,3.379087448120117,-1.0192409753799438,-0.7529623508453369,1.4639267921447754,0.34498274326324463,0.2798807919025421,-0.2093907743692398,-0.6384890675544739
297,173080,173081,-0.0786854475736618,0.006808395031839609,1.012178659439087,-0.9768533110618591,1.2512264251708984,-0.7220118641853333,-0.7454627156257629,1.4534273147583008,0.3434828221797943,0.3075755834579468,-0.22576682269573212,-0.6483407020568848
298,173090,173091,-0.08216062188148499,-0.02994263917207718,0.9801120162010193,-0.4652819335460663,-0.23398421704769135,-0.7709888815879822,-0.7289635539054871,1.445927619934082,0.34498274326324463,0.2931367754936218,-0.2425628900527954,-0.65486741065979
299,173100,173101,-0.08534819632768631,-0.01667833887040615,0.9839922189712524,-1.6009740829467773,-1.45078706741333,-0.6540870070457458,-0.730463445186615,1.4534273147583008,0.3494825065135956,0.29226842522621155,-0.1851254254579544,-0.6678475141525269
300,173110,173111,-0.1018606573343277,0.04543977975845337,1.0079810619354248,-0.6946906447410583,-1.52529776096344,-0.3977808654308319,-0.7439627647399902,1.445927619934082,0.3539822995662689,0.30147767066955566,-0.14198093116283417,-0.6784425973892212
301,173120,173121,-0.099498450756073,0.08157528191804886,1.0411229133605957,-0.6920561194419861,0.8934457302093506,-0.4253762364387512,-0.737963080406189,1.4669265747070312,0.341982901096344,0.29545438289642334,-0.1656293421983719,-0.6803704500198364
302,173130,173131,-0.06600859016180038,0.07181836664676666,1.0774035453796387,-2.317495822906494,3.0959057807922363,-0.3552209436893463,-0.7424628734588623,1.4534273147583008,0.36448177695274353,0.2712424099445343,-0.1991770714521408,-0.6816374659538269
303,173140,173141,-0.024901624768972397,0.013139472343027592,1.1174163818359375,-3.5245401859283447,4.426529884338379,-0.6338698267936707,-0.7559621930122375,1.4549272060394287,0.35698214173316956,0.2260884791612625,-0.17509864270687103,-0.6866552233695984
304,173150,173151,-0.010791664943099022,-0.046817321330308914,1.1510785818099976,-3.8830740451812744,4.525136470794678,-0.5521404147148132,-0.7454627156257629,1.4504274129867554,0.3404829800128937,0.17688944935798645,-0.2295048087835312,-0.6863031387329102
305,173160,173161,-0.0353025421500206,-0.1296665072441101,1.0939573049545288,-2.973316192626953,1.9932596683502197,-0.013856056146323681,-0.7424628734588623,1.4534273147583008,0.3434828221797943,0.1376054733991623,-0.28453508019447327,-0.6861147284507751
306,173170,173171,-0.02184911258518696,-0.04499400407075882,1.0318135023117065,1.0984050035476685,-1.2409300804138184,1.0512324571609497,-0.7394630312919617,1.4534273147583008,0.3404829800128937,0.13312672078609467,-0.30870485305786133,-0.6815713047981262
307,173180,173181,-0.004482025280594826,-0.018776625394821167,1.0297601222991943,2.361337423324585,-2.8792624473571777,1.110703945159912,-0.7394630312919617,1.4534273147583008,0.3404829800128937,0.16737239062786102,-0.228318989276886,-0.6758196353912354
308,173190,173191,0.01752959005534649,-0.028784655034542084,0.9934000968933105,2.597263813018799,-2.8753466606140137,1.2101391553878784,-0.7394630312919617,1.4534273147583008,0.3404829800128937,0.21704208850860596,-0.12839217483997345,-0.6682584285736084
309,173200,173201,0.011564462445676327,0.02309286966919899,1.0695223808288574,1.541240930557251,-0.8603994846343994,1.1525347232818604,-0.7394630312919617,1.4534273147583008,0.3404829800128937,0.27580761909484863,-0.18328511714935303,-0.6515344977378845
310,173210,173211,0.02547582983970642,0.006370320450514555,1.0979334115982056,-0.6203312873840332,1.6187598705291748,1.1166057586669922,-0.7394630312919617,1.4534273147583008,0.3404829800128937,0.30381909012794495,-0.18619278073310852,-0.638554573059082
311,173220,173221,-0.01319948397576809,-0.03143754228949547,1.0104831457138062,-1.8357856273651123,0.5903029441833496,1.9680607318878174,-0.7394630312919617,1.4324283599853516,0.3524823784828186,0.3060063123703003,-0.21738730370998383,-0.6225783228874207
312,173230,173231,-0.005864754319190979,-0.04539303109049797,0.9679731726646423,-4.0160675048828125,1.481077790260315,2.1566216945648193,-0.7409629225730896,1.445927619934082,0.34798258543014526,0.2842753529548645,-0.18872644007205963,-0.606162965297699
313,173240,173241,-0.011519043706357479,-0.0008221816970035434,1.0108189582824707,-2.107590436935425,3.901001453399658,2.171841621398926,-0.7454627156257629,1.4474276304244995,0.3584820628166199,0.24708805978298187,-0.2653419077396393,-0.5833413600921631
314,173250,173251,-0.020047996193170547,0.04585513845086098,1.0541828870773315,-0.9892002940177917,4.66015100479126,2.2752630710601807,-0.7289635539054871,1.4429278373718262,0.3509824573993683,0.17282801866531372,-0.3048967719078064,-0.5613816380500793
315,173260,173261,0.015123281627893448,0.008415499702095985,0.9745275974273682,0.8777037858963013,4.236279010772705,2.3896028995513916,-0.7334632873535156,1.444427728652954,0.3404829800128937,0.30299532413482666,-0.33512967824935913,-0.5420868992805481
316,173270,173271,0.0019937115721404552,0.0077449562959373,0.9936267137527466,0.34352806210517883,3.850738048553467,1.8114902973175049,-0.737963080406189,1.4429278373718262,0.341982901096344,0.22264043986797333,-0.3351619243621826,-0.5205939412117004
317,173280,173281,-0.009792305529117584,0.008683251217007637,1.0101908445358276,1.412756323814392,3.489321708679199,1.884084701538086,-0.7349632382392883,1.4399279356002808,0.341982901096344,0.1535111963748932,-0.32725435495376587,-0.5019364356994629
318,173290,173291,-0.038704194128513336,0.06844620406627655,1.006564736366272,2.581468343734741,1.337001085281372,2.7751288414001465,-0.7349632382392883,1.4279285669326782,0.3509824573993683,0.09302882105112076,-0.30466023087501526,-0.4823361933231354
319,173300,173301,-0.021475762128829956,-0.014065391384065151,1.029882788658142,1.5377150774002075,4.325669765472412,1.5633422136306763,-0.7469626665115356,1.445927619934082,0.34798258543014526,0.051354654133319855,-0.26760241389274597,-0.45712918043136597
320,173310,173311,-0.0074565112590789795,-0.022655237466096878,0.9968416690826416,2.2928555011749268,1.7314424514770508,2.5417637825012207,-0.7319633960723877,1.4399279356002808,0.341982901096344,0.056275784969329834,-0.23467928171157837,-0.4393582344055176
321,173320,173321,-0.007986334152519703,-0.0030732296872884035,0.9770340919494629,0.9278640747070312,1.353033423423767,2.675506591796875,-0.736463189125061,1.4234287738800049,0.3494825065135956,0.014941600151360035,-0.08337130397558212,-0.4188609719276428
322,173330,173331,-0.008282418362796307,-0.0030624137725681067,0.9790406227111816,-1.574005126953125,1.87028169631958,2.678554058074951,-0.7439627647399902,1.4309284687042236,0.33898305892944336,0.045724112540483475,-0.09419003129005432,-0.39300042390823364
323,173340,173341,-0.03352919965982437,0.02839602716267109,0.9941682815551758,-1.4777798652648926,-0.048531871289014816,2.795470714569092,-0.7439627647399902,1.4339282512664795,0.3509824573993683,-0.060158856213092804,-0.20685923099517822,-0.3620973229408264
324,173350,173351,-0.004863516427576542,-0.009637017734348774,1.025994896888733,-3.9455089569091797,4.4396185874938965,2.0584194660186768,-0.730463445186615,1.4384280443191528,0.33448326587677,-0.0826060101389885,-0.2533975839614868,-0.33363795280456543
325,173360,173361,-0.0028320075944066048,0.0009083424229174852,1.0220916271209717,-4.81036901473999,1.966424822807312,2.4283394813537598,-0.7454627156257629,1.4294284582138062,0.34648266434669495,-0.06680845469236374,-0.2578650414943695,-0.3112103343009949
326,173370,173371,-0.009021801874041557,0.03490511327981949,1.0119783878326416,-5.73128080368042,1.208730697631836,2.2843334674835205,-0.7334632873535156,1.4234287738800049,0.3494825065135956,0.04255344718694687,-0.34805765748023987,-0.28736743330955505
327,173380,173381,-0.00846777856349945,0.02509430982172489,0.9951953887939453,-3.879210948944092,0.7494595050811768,2.2880382537841797,-0.7319633960723877,1.436928153038025,0.33898305892944336,-0.05864642187952995,-0.36173582077026367,-0.26229047775268555
328,173390,173391,-0.01988227665424347,0.019267849624156952,0.9961358904838562,-2.5913217067718506,1.0293149948120117,2.272836446762085,-0.7544622421264648,1.444427728652954,0.33748310804367065,-0.0796184092760086,-0.352689653635025,-0.2381967008113861
329,173400,173401,-0.00919070653617382,0.020016683265566826,0.9860699772834778,-0.055195149034261703,1.9890837669372559,2.0973758697509766,-0.7484625577926636,1.444427728652954,0.3434828221797943,-0.11183936148881912,-0.32111042737960815,-0.21585048735141754
330,173410,173411,0.042042236775159836,-0.08171964436769485,0.9622170925140381,-0.3159707486629486,3.01971435546875,2.3915481567382812,-0.730463445186615,1.4234287738800049,0.3434828221797943,-0.15501245856285095,-0.3371155560016632,-0.19543224573135376
331,173420,173421,0.028034532442688942,-0.03708774596452713,0.9640803933143616,-0.38239091634750366,3.070390224456787,2.086064100265503,-0.7409629225730896,1.4309284687042236,0.33898305892944336,-0.21354243159294128,-0.34923994541168213,-0.17284995317459106
332,173430,173431,0.014918268658220768,-0.0003978995082434267,0.9742926955223083,-0.3152557611465454,2.893557071685791,1.9009989500045776,-0.7469626665115356,1.421928882598877,0.341982901096344,-0.2682417333126068,-0.3586740791797638,-0.15313507616519928
333,173440,173441,0.008762055076658726,-0.008393741212785244,0.9657566547393799,-1.0007349252700806,2.4195070266723633,1.8854440450668335,-0.7469626665115356,1.421928882598877,0.33898305892944336,-0.2493385225534439,-0.3758518397808075,-0.13579033315181732
334,173450,173451,0.00038935558404773474,-0.018144195899367332,0.9616150259971619,-1.055835247039795,1.4567335844039917,1.481716275215149,-0.737963080406189,1.4399279356002808,0.33598318696022034,-0.28357574343681335,-0.41326704621315,-0.11904333531856537
335,173460,173461,0.002733169589191675,0.007657644338905811,0.9878023266792297,-0.9790382981300354,0.33265504240989685,1.468361735343933,-0.7469626665115356,1.4399279356002808,0.33598318696022034,-0.30283844470977783,-0.367464542388916,-0.10203361511230469
336,173470,173471,0.007802178151905537,0.03082672506570816,1.006673812866211,-2.9291343688964844,-2.1757943630218506,1.5029520988464355,-0.7619618773460388,1.4429278373718262,0.34498274326324463,-0.3004406988620758,-0.4085717499256134,-0.08763278275728226
337,173480,173481,-0.0018812869675457478,0.00498166074976325,0.9796268343925476,-2.416572332382202,-2.9760797023773193,1.6600441932678223,-0.7454627156257629,1.4504274129867554,0.3434828221797943,-0.3359811305999756,-0.4542299211025238,-0.07056695967912674
338,173490,173491,-0.0022719036787748337,-0.010086708702147007,0.9759440422058105,-2.555586814880371,-4.105328559875488,1.9471478462219238,-0.7514623999595642,1.4474276304244995,0.3434828221797943,-0.2823987305164337,-0.4176379442214966,-0.050862401723861694
339,173500,173501,0.013485454954206944,0.010867123492062092,0.9954578280448914,-0.201312854886055,-3.3979318141937256,2.153355836868286,-0.7514623999595642,1.4474276304244995,0.3434828221797943,-0.15661326050758362,-0.4584735333919525,-0.03518066555261612
340,173510,173511,0.01432676799595356,-0.044304460287094116,0.9638388752937317,0.8193656802177429,-2.701676845550537,2.2709083557128906,-0.7409629225730896,1.46092689037323,0.34498274326324463,-0.11559188365936279,-0.462112158536911,-0.015104420483112335
341,173520,173521,-0.005647432059049606,-0.06873439252376556,0.9384952783584595,1.2023781538009644,-1.0833896398544312,2.6633036136627197,-0.7604619860649109,1.4504274129867554,0.3434828221797943,-0.09875811636447906,-0.45520785450935364,0.006518491543829441
342,173530,173531,0.006733651272952557,-0.02834412269294262,0.9187838435173035,1.9799962043762207,0.45635324716567993,3.0159690380096436,-0.7394630312919617,1.4564270973205566,0.34648266434669495,-0.10286293923854828,-0.45228511095046997,0.031293872743844986
343,173540,173541,0.008351106196641922,0.02216888777911663,0.9597496390342712,1.6037360429763794,3.9242169857025146,2.8055434226989746,-0.7394630312919617,1.4474276304244995,0.3494825065135956,-0.20981742441654205,-0.44161257147789,0.06191485375165939
344,173550,173551,0.02530389279127121,0.020624198019504547,1.0481706857681274,-0.4989180266857147,6.672156810760498,2.2987329959869385,-0.7619618773460388,1.4549272060394287,0.341982901096344,-0.276480495929718,-0.4309811294078827,0.08937395364046097
345,173560,173561,0.02097919210791588,-0.012560895644128323,1.013824701309204,-0.49350622296333313,4.575943470001221,2.3329520225524902,-0.7574620842933655,1.459426999092102,0.3494825065135956,-0.2920686900615692,-0.44506457448005676,0.11058531701564789
346,173570,173571,-0.032536864280700684,-0.05448907986283302,1.0530530214309692,-1.0179321765899658,3.943554401397705,1.4703071117401123,-0.7454627156257629,1.4504274129867554,0.3524823784828186,-0.35178524255752563,-0.45496249198913574,0.134987935423851
347,173580,173581,-0.04563398286700249,-0.10398001968860626,1.0260393619537354,-0.008711805567145348,-1.2510310411453247,1.9184339046478271,-0.7454627156257629,1.4504274129867554,0.3404829800128937,-0.24085994064807892,-0.4514809250831604,0.14850535988807678
348,173590,173591,-0.04323631897568703,-0.04715754836797714,1.0041742324829102,2.6810710430145264,-4.359540939331055,2.3849940299987793,-0.7454627156257629,1.4504274129867554,0.3584820628166199,-0.28915220499038696,-0.43002620339393616,0.17316488921642303
349,173600,173601,-0.06457431614398956,0.05498410388827324,0.981217086315155,3.6015124320983887,-6.073450565338135,2.7198493480682373,-0.7484625577926636,1.4474276304244995,0.3494825065135956,-0.2924506366252899,-0.3868706524372101,0.20156484842300415
350,173610,173611,-0.07438362389802933,0.14275525510311127,1.0182819366455078,2.0671281814575195,-3.0783815383911133,2.439530849456787,-0.736463189125061,1.435428261756897,0.3434828221797943,-0.22238120436668396,-0.4124899208545685,0.22309355437755585
351,173620,173621,-0.043196264654397964,0.10166410356760025,1.0304609537124634,0.7609713673591614,-0.5162847638130188,2.4240689277648926,-0.7619618773460388,1.4519274234771729,0.3509824573993683,-0.17979513108730316,-0.46857625246047974,0.2446739375591278
352,173630,173631,-0.030696045607328415,0.04443184286355972,1.073499083518982,-1.2200828790664673,0.5947133302688599,2.3968379497528076,-0.736463189125061,1.4474276304244995,0.33748310804367065,-0.24295243620872498,-0.45616674423217773,0.27570784091949463
353,173640,173641,-0.0330125130712986,-0.012281070463359356,1.048590064048767,-0.6213003396987915,-0.08692940324544907,2.86372971534729,-0.7559621930122375,1.46092689037323,0.34498274326324463,-0.1709306836128235,-0.38293516635894775,0.30489620566368103
354,173650,173651,-0.006209671963006258,0.011257162317633629,0.9818577766418457,1.5314388275146484,-1.4854577779769897,3.736909866333008,-0.7499625086784363,1.4549272060394287,0.34798258543014526,-0.24745245277881622,-0.4392926096916199,0.33450114727020264
355,173660,173661,0.006093458738178015,0.09100757539272308,0.9552038908004761,2.2744452953338623,-1.4842979907989502,4.186398029327393,-0.7529623508453369,1.4639267921447754,0.3599819839000702,-0.24361981451511383,-0.4135245382785797,0.3712868094444275
356,173670,173671,-0.010526076890528202,0.1547355055809021,1.0014688968658447,4.702202320098877,-0.6920841336250305,4.212456226348877,-0.7574620842933655,1.4654266834259033,0.34648266434669495,-0.22673185169696808,-0.370869517326355,0.4131171703338623
357,173680,173681,0.022994590923190117,0.050403788685798645,1.0139858722686768,3.1190552711486816,0.21794557571411133,3.7160391807556152,-0.7544622421264648,1.4624269008636475,0.34648266434669495,-0.2856983542442322,-0.29871222376823425,0.4590228497982025
358,173690,173691,-0.006807742640376091,0.05280705541372299,1.0848382711410522,3.4525434970855713,-2.095813274383545,4.309426307678223,-0.7529623508453369,1.4519274234771729,0.34798258543014526,-0.19633445143699646,-0.30785924196243286,0.49105995893478394
359,173700,173701,0.016865642741322517,-0.061529841274023056,0.9944108724594116,2.9719011783599854,-2.2116568088531494,4.602177619934082,-0.7394630312919617,1.4624269008636475,0.34648266434669495,-0.16947555541992188,-0.2544354796409607,0.5341023802757263
360,173710,173711,0.023781098425388336,-0.02607165277004242,0.9254070520401001,4.822764873504639,-3.865614652633667,4.859394073486328,-0.7559621930122375,1.4579271078109741,0.34798258543014526,-0.13528531789779663,-0.2673889994621277,0.5744869112968445
361,173720,173721,0.007550323847681284,0.07528497278690338,0.9975483417510986,2.5795884132385254,-2.5745351314544678,4.299483776092529,-0.7529623508453369,1.4549272060394287,0.35698214173316956,-0.07782731205224991,-0.20690448582172394,0.6207199692726135
362,173730,173731,0.024868808686733246,-0.01556050218641758,1.067757248878479,-1.7359122037887573,0.7106713056564331,3.274284601211548,-0.7424628734588623,1.4534273147583008,0.3524823784828186,-0.31115058064460754,-0.17705173790454865,0.6717036366462708
363,173740,173741,0.037210412323474884,-0.1233295202255249,1.0613090991973877,-2.8509533405303955,0.3772628903388977,3.166534662246704,-0.7529623508453369,1.4399279356002808,0.3509824573993683,-0.2769150137901306,-0.19677050411701202,0.706823468208313
364,173750,173751,0.027862248942255974,-0.10268033295869827,1.012844443321228,-0.9980894327163696,-3.8665473461151123,3.913517713546753,-0.7409629225730896,1.46092689037323,0.3539822995662689,-0.23830129206180573,-0.21715855598449707,0.7421085834503174
365,173760,173761,-0.0115048224106431,0.019417429342865944,0.9815879464149475,2.489241600036621,-6.122267246246338,4.421882629394531,-0.7529623508453369,1.445927619934082,0.34498274326324463,-0.16464221477508545,-0.2127491533756256,0.7814845442771912
366,173770,173771,-0.023619377985596657,0.026684142649173737,1.0191943645477295,1.5125466585159302,-6.011117458343506,2.9738452434539795,-0.7499625086784363,1.436928153038025,0.3509824573993683,-0.1302071362733841,-0.1863805055618286,0.824247419834137
367,173780,173781,-0.08469316363334656,0.022370465099811554,1.0796328783035278,0.9910025596618652,-4.650992393493652,2.3453805446624756,-0.736463189125061,1.4384280443191528,0.3434828221797943,0.1151723638176918,-0.2928119897842407,0.846951425075531
368,173790,173791,-0.0716945081949234,-0.06702637672424316,1.0216079950332642,1.2493702173233032,-5.200266361236572,2.815981388092041,-0.736463189125061,1.4504274129867554,0.3404829800128937,0.06406597048044205,-0.23725122213363647,0.8822756409645081
369,173800,173801,-0.0628037229180336,0.004256909247487783,0.9657127857208252,3.160378932952881,-5.636569976806641,4.198731899261475,-0.7409629225730896,1.4309284687042236,0.34798258543014526,0.1429610699415207,-0.18904227018356323,0.9166668057441711
370,173810,173811,-0.07318053394556046,0.14122039079666138,0.9622066020965576,4.77418327331543,-1.8131707906723022,4.173129081726074,-0.737963080406189,1.4489275217056274,0.3509824573993683,0.20161443948745728,-0.13131177425384521,0.9566571712493896
371,173820,173821,-0.004242707509547472,0.08390001952648163,0.9750085473060608,4.468296051025391,3.509295701980591,3.132904052734375,-0.7394630312919617,1.4384280443191528,0.34648266434669495,0.21193531155586243,-0.0609092079102993,0.9952946901321411
372,173830,173831,-0.013313183560967445,0.04637237265706062,1.043318271636963,1.6124835014343262,2.9585180282592773,3.013735294342041,-0.7394630312919617,1.4384280443191528,0.34648266434669495,0.18018515408039093,0.009597145952284336,1.0284488201141357
373,173840,173841,0.02892586775124073,-0.08032707870006561,1.0143711566925049,-1.1364080905914307,5.106805801391602,2.6064038276672363,-0.7484625577926636,1.4414279460906982,0.3434828221797943,0.14449289441108704,-0.029224731028079987,1.056816577911377
374,173850,173851,0.014594742096960545,-0.05508105829358101,0.9942195415496826,-1.875433325767517,2.2938711643218994,2.4009225368499756,-0.7334632873535156,1.4414279460906982,0.33748310804367065,0.08910725265741348,-0.029758505523204803,1.0838907957077026
375,173860,173861,0.030535222962498665,0.029448965564370155,1.042763352394104,-1.9460248947143555,1.5561383962631226,2.470414161682129,-0.7334632873535156,1.4534273147583008,0.3494825065135956,0.06475632637739182,-0.06543098390102386,1.1065514087677002
376,173870,173871,0.07052278518676758,-0.08380065113306046,1.0166345834732056,-1.9302334785461426,2.276223659515381,1.2628434896469116,-0.7499625086784363,1.4339282512664795,0.32998350262641907,0.055532991886138916,-0.23621009290218353,1.1261413097381592
377,173880,173881,0.010815361514687538,-0.03567430377006531,1.0357941389083862,-0.6731665134429932,-1.989104986190796,1.8089677095413208,-0.7349632382392883,1.4399279356002808,0.34798258543014526,0.05306938290596008,-0.23308248817920685,1.1427315473556519
378,173890,173891,-0.02746092714369297,-0.031315188854932785,1.0079894065856934,1.0251665115356445,-4.4028120040893555,1.3595212697982788,-0.7319633960723877,1.4249287843704224,0.34498274326324463,0.10092216730117798,-0.21328763663768768,1.1622774600982666
379,173900,173901,-0.040268026292324066,0.024903545156121254,0.9390736222267151,7.484915256500244,-7.621396064758301,2.7152369022369385,-0.7394630312919617,1.420428991317749,0.34648266434669495,0.185238778591156,-0.19875024259090424,1.1784459352493286
380,173910,173911,-0.022854410111904144,0.14020316302776337,0.9715614318847656,11.049826622009277,-4.797656536102295,2.8936750888824463,-0.730463445186615,1.4144293069839478,0.33448326587677,0.20738372206687927,-0.1869536191225052,1.199675440788269
381,173920,173921,0.02502027153968811,0.08305134624242783,0.9791742563247681,11.259387969970703,-0.03646610304713249,1.8481718301773071,-0.7349632382392883,1.4309284687042236,0.3509824573993683,0.26555976271629333,0.011281399987637997,1.2221934795379639
382,173930,173931,0.04134194552898407,-0.0648629441857338,1.0061298608779907,7.411173343658447,2.757427215576172,0.7168434262275696,-0.730463445186615,1.4324283599853516,0.3404829800128937,0.2758443355560303,0.052790120244026184,1.2387937307357788
383,173940,173941,0.03555898740887642,-0.10512331873178482,1.0471727848052979,7.0071001052856445,3.1391942501068115,0.5238603353500366,-0.7409629225730896,1.4399279356002808,0.34498274326324463,0.24529750645160675,0.2072141170501709,1.2471638917922974
384,173950,173951,0.01749386638402939,0.012355209328234196,1.0238285064697266,6.538726806640625,2.115253448486328,1.7041239738464355,-0.730463445186615,1.435428261756897,0.34648266434669495,0.20667293667793274,0.24988000094890594,1.2552067041397095
385,173960,173961,-0.005649411119520664,0.02409651316702366,0.9324771761894226,3.563704013824463,-0.567009449005127,0.9818227887153625,-0.7394630312919617,1.4294284582138062,0.3434828221797943,0.17136667668819427,0.33450794219970703,1.2680743932724
386,173970,173971,-0.051039956510066986,0.1262752115726471,0.9866493344306946,-0.5285506844520569,0.6337475776672363,0.23142994940280914,-0.7319633960723877,1.4279285669326782,0.341982901096344,0.15030744671821594,0.37522023916244507,1.2743583917617798
387,173980,173981,-0.041044682264328,0.134348064661026,1.0282882452011108,-3.043118476867676,3.514481782913208,-0.2942619025707245,-0.7424628734588623,1.4384280443191528,0.33748310804367065,0.059602029621601105,0.22523878514766693,1.276157259941101
388,173990,173991,0.00703695323318243,0.024107780307531357,1.0197789669036865,-4.618344306945801,2.086360216140747,-0.33084821701049805,-0.7454627156257629,1.4384280443191528,0.3404829800128937,0.039608024060726166,0.1927126944065094,1.276252031326294
389,174000,174001,0.042285237461328506,-0.06935606151819229,0.991327166557312,-2.7127151489257812,0.21417056024074554,-0.062319107353687286,-0.7424628734588623,1.4174290895462036,0.3434828221797943,0.05031297728419304,0.15831135213375092,1.275718331336975
390,174010,174011,0.058656882494688034,-0.07792579382658005,0.9787993431091309,0.40089914202690125,-3.0986557006835938,-0.05166107043623924,-0.7289635539054871,1.4399279356002808,0.33598318696022034,0.08610830456018448,0.16215190291404724,1.276250958442688
391,174020,174021,0.1024889200925827,-0.04396124556660652,0.9571953415870667,5.429905891418457,-5.144749641418457,-0.48347988724708557,-0.7394630312919617,1.4114294052124023,0.34648266434669495,0.15432208776474,0.21380211412906647,1.2736496925354004
392,174030,174031,0.026296338066458702,-0.01673096790909767,0.9951560497283936,7.243651866912842,-4.036004066467285,-1.2277655601501465,-0.736463189125061,1.4414279460906982,0.3434828221797943,0.22810658812522888,0.3237486183643341,1.2664433717727661
393,174040,174041,-0.02975090593099594,0.043304577469825745,1.0456962585449219,5.450742721557617,-1.2893478870391846,-1.3797945976257324,-0.7469626665115356,1.4309284687042236,0.3539822995662689,0.06277910619974136,0.4549248218536377,1.2422571182250977
394,174050,174051,-0.04162406176328659,0.014270979911088943,1.0407794713974,2.635972023010254,-0.2589386999607086,-1.0939342975616455,-0.737963080406189,1.4519274234771729,0.341982901096344,0.1688314974308014,0.48422330617904663,1.239313006401062
395,174060,174061,-0.05505986139178276,-0.02024921216070652,0.963668704032898,0.2574171721935272,-3.1844093799591064,-0.062455035746097565,-0.736463189125061,1.435428261756897,0.3584820628166199,0.18763895332813263,0.40360841155052185,1.2349624633789062
396,174070,174071,-0.09269412606954575,0.06979914009571075,0.9175404906272888,-2.4267873764038086,-2.0572614669799805,0.3434341251850128,-0.736463189125061,1.4414279460906982,0.34648266434669495,0.20901624858379364,0.40512827038764954,1.231759786605835
397,174080,174081,-0.057390958070755005,0.14318090677261353,0.9301126599311829,-0.7559183835983276,-0.9794486165046692,-0.1753266155719757,-0.736463189125061,1.4414279460906982,0.3584820628166199,0.3587099313735962,0.37746956944465637,1.2405165433883667
398,174090,174091,0.021650945767760277,0.07737918943166733,0.9518672823905945,-3.5292587280273438,1.348327398300171,-1.334924578666687,-0.7439627647399902,1.4519274234771729,0.3509824573993683,0.3535754978656769,0.3453514575958252,1.232012391090393
399,174100,174101,-0.0005671300459653139,0.0004984276602044702,1.0533357858657837,-4.675716876983643,2.6855714321136475,-2.062001943588257,-0.7424628734588623,1.444427728652954,0.35548222064971924,0.1290646642446518,0.37403175234794617,1.1956796646118164
400,174110,174111,0.021657243371009827,-0.12114645540714264,1.0118672847747803,-2.517444372177124,1.607399582862854,-1.8415513038635254,-0.7514623999595642,1.4504274129867554,0.3584820628166199,0.2572345733642578,0.32942500710487366,1.1900055408477783
401,174120,174121,0.04563678056001663,-0.06598959863185883,0.9615250825881958,0.347512811422348,-1.5445547103881836,-1.0326067209243774,-0.7424628734588623,1.4474276304244995,0.3524823784828186,0.24241922795772552,0.3195819854736328,1.1715728044509888
402,174130,174131,-0.006886712275445461,0.060948632657527924,1.0473326444625854,0.2734414041042328,1.6004159450531006,-1.9120168685913086,-0.7529623508453369,1.4309284687042236,0.341982901096344,0.2431909739971161,0.25387853384017944,1.1589261293411255
403,174140,174141,-0.011226870119571686,-0.02412094734609127,1.0418471097946167,1.524393916130066,1.1131985187530518,-2.9836225509643555,-0.736463189125061,1.4384280443191528,0.3524823784828186,0.22118337452411652,0.2840197682380676,1.1378661394119263
404,174150,174151,-0.06485156714916229,-0.08162141591310501,1.0574705600738525,-1.4749385118484497,1.960534691810608,-3.1666576862335205,-0.736463189125061,1.4324283599853516,0.3434828221797943,0.20598793029785156,0.3180696964263916,1.1110273599624634
405,174160,174161,-0.09086936712265015,-0.05197799205780029,1.0322611331939697,0.1656249612569809,-1.294795274734497,-2.0694448947906494,-0.7514623999595642,1.4234287738800049,0.34648266434669495,0.17903096973896027,0.33001646399497986,1.083980679512024
406,174170,174171,-0.06817799806594849,0.017399314790964127,0.9473609328269958,1.0095754861831665,-1.774213194847107,-1.4149699211120605,-0.736463189125061,1.4384280443191528,0.3434828221797943,0.17672251164913177,0.3372279107570648,1.0632447004318237
407,174180,174181,-0.09242069721221924,0.15367946028709412,0.9991506338119507,-0.8943325281143188,-0.14992015063762665,-1.6724679470062256,-0.7334632873535156,1.435428261756897,0.3524823784828186,0.17684388160705566,0.3341253995895386,1.046659231185913
408,174190,174191,-0.0869441106915474,0.10891857743263245,1.0327712297439575,-3.4125022888183594,2.7218565940856934,-2.426056385040283,-0.730463445186615,1.4414279460906982,0.34648266434669495,0.16083690524101257,0.30571797490119934,1.029421091079712
409,174200,174201,-0.043420787900686264,-0.0018691853620111942,1.0056027173995972,-3.952510356903076,2.224234104156494,-2.7079875469207764,-0.737963080406189,1.4279285669326782,0.3509824573993683,0.12565480172634125,0.26909583806991577,1.0068919658660889
410,174210,174211,-0.03879489749670029,0.03729075938463211,0.9762251377105713,-1.9113006591796875,-0.2909451127052307,-1.9711897373199463,-0.730463445186615,1.4234287738800049,0.33748310804367065,0.10099173337221146,0.2269972413778305,0.9815824627876282
411,174220,174221,-0.0038186756428331137,0.10614792257547379,0.9222115278244019,0.5043960809707642,-1.0203207731246948,-1.4384642839431763,-0.730463445186615,1.4294284582138062,0.3614819049835205,0.1689988374710083,0.20775729417800903,0.9660879373550415
412,174230,174231,-0.011864718049764633,0.06519066542387009,0.9855883717536926,-1.212782859802246,0.07154837250709534,-2.389702320098877,-0.7529623508453369,1.4339282512664795,0.33598318696022034,-0.037834566086530685,0.2775522768497467,0.9237752556800842
413,174240,174241,0.02065267041325569,-0.008392984047532082,1.0327703952789307,-0.2557159662246704,2.415985584259033,-2.633842945098877,-0.7439627647399902,1.4429278373718262,0.34498274326324463,0.11922230571508408,0.25822749733924866,0.9148683547973633
414,174250,174251,0.036649227142333984,-0.08893832564353943,1.0531116724014282,-0.6842337846755981,1.2200919389724731,-3.1600258350372314,-0.7409629225730896,1.4489275217056274,0.33898305892944336,0.11860378831624985,0.19454780220985413,0.8928897380828857
415,174260,174261,0.05598713457584381,-0.1309429258108139,1.0173684358596802,-0.4781537353992462,-2.1392033100128174,-2.667649269104004,-0.7529623508453369,1.436928153038025,0.3239837884902954,0.1353215128183365,0.2022743970155716,0.8669186234474182
416,174270,174271,0.024278415367007256,-0.05398082360625267,0.9709237217903137,0.8643800616264343,-3.4355573654174805,-1.601270079612732,-0.7439627647399902,1.436928153038025,0.33898305892944336,0.17159418761730194,0.21033652126789093,0.8441417813301086
417,174280,174281,-0.024227341637015343,0.054187193512916565,1.01969575881958,0.6136876940727234,-1.5880587100982666,-1.8659902811050415,-0.7409629225730896,1.445927619934082,0.3509824573993683,0.20537172257900238,0.21949231624603271,0.827595055103302
418,174290,174291,-0.01843692921102047,0.02726648561656475,1.0591158866882324,-1.9007458686828613,2.5550827980041504,-2.9500043392181396,-0.730463445186615,1.4414279460906982,0.3494825065135956,0.21434052288532257,0.21576212346553802,0.8092913031578064
419,174300,174301,-0.02983192354440689,-0.027966976165771484,1.1053791046142578,-4.229339599609375,3.325181007385254,-3.4063687324523926,-0.737963080406189,1.4429278373718262,0.3509824573993683,0.17603108286857605,0.1895093023777008,0.7831210494041443
420,174310,174311,-0.05081521347165108,-0.04361709952354431,1.0846315622329712,-4.51938009262085,0.8991894125938416,-2.560715675354004,-0.730463445186615,1.4324283599853516,0.35548222064971924,0.20828840136528015,0.14551034569740295,0.7620036005973816
421,174320,174321,-0.0657598078250885,-0.00499463826417923,0.98341965675354,-2.147428512573242,-1.5583453178405762,-1.6779471635818481,-0.7514623999595642,1.4294284582138062,0.3404829800128937,0.18526096642017365,0.09545005112886429,0.7395967245101929
422,174330,174331,-0.06880488246679306,0.11636892706155777,0.9595627784729004,-0.41842493414878845,-0.24085569381713867,-1.7361208200454712,-0.7349632382392883,1.436928153038025,0.33898305892944336,-0.03507361561059952,0.20780757069587708,0.6995552778244019
423,174340,174341,-0.06848253309726715,0.1371309459209442,0.9995939135551453,-0.6642701029777527,2.352264165878296,-2.1191298961639404,-0.7424628734588623,1.4324283599853516,0.3494825065135956,-0.03940374776721001,0.19531938433647156,0.6818631887435913
424,174350,174351,-0.0408937893807888,0.07199863344430923,1.0315650701522827,-1.6590893268585205,2.764639139175415,-2.487062931060791,-0.7409629225730896,1.4429278373718262,0.34498274326324463,0.14893709123134613,0.09978935867547989,0.6788188219070435
425,174360,174361,0.022901486605405807,-0.043664440512657166,0.9731135964393616,-3.58070969581604,0.15668511390686035,-2.38840651512146,-0.737963080406189,1.436928153038025,0.34798258543014526,-0.08473137021064758,0.06470406800508499,0.6383307576179504
426,174370,174371,0.018246965482831,-0.021938959136605263,0.9499621987342834,-2.344463586807251,-1.0599639415740967,-1.9749702215194702,-0.7454627156257629,1.4234287738800049,0.3434828221797943,0.07971162348985672,-0.047343261539936066,0.6278455853462219
427,174380,174381,0.004211563151329756,0.021798698231577873,0.9327510595321655,-0.9491826295852661,-2.1539859771728516,-1.9051268100738525,-0.736463189125061,1.435428261756897,0.3434828221797943,0.1056191697716713,-0.06845454126596451,0.6073218584060669
428,174390,174391,0.02209274284541607,0.022101419046521187,0.9576928019523621,0.36799123883247375,-0.32443156838417053,-2.597461700439453,-0.7409629225730896,1.4249287843704224,0.32698363065719604,0.009959951043128967,-0.0021473707165569067,0.5771082639694214
429,174400,174401,0.0854581892490387,-0.047878339886665344,1.025857925415039,1.0589431524276733,0.7862469553947449,-2.8034610748291016,-0.7274636030197144,1.4474276304244995,0.33748310804367065,0.038989145308732986,0.07970720529556274,0.5518448352813721
430,174410,174411,0.08638325333595276,-0.08035705983638763,1.1128746271133423,-0.915427029132843,-0.1250099390745163,-2.757145643234253,-0.7319633960723877,1.4339282512664795,0.341982901096344,0.26059404015541077,-0.051978256553411484,0.5408123731613159
431,174420,174421,0.012200132012367249,-0.06415998190641403,1.1218546628952026,-0.20776832103729248,-1.3290618658065796,-2.0554544925689697,-0.7409629225730896,1.4339282512664795,0.341982901096344,0.06064353883266449,-0.0369190089404583,0.5080491900444031
432,174430,174431,-0.008656364865601063,-0.04155067354440689,1.0150116682052612,1.5927799940109253,-2.6664583683013916,-1.4663654565811157,-0.7394630312919617,1.4414279460906982,0.34648266434669495,0.09929189085960388,-0.013817016035318375,0.49190688133239746
433,174440,174441,-0.019711436703801155,0.028699813410639763,0.9804956912994385,1.694604516029358,-2.1894631385803223,-1.059881567955017,-0.7274636030197144,1.444427728652954,0.33448326587677,0.1374453604221344,-0.055371809750795364,0.4796190559864044
434,174450,174451,-0.04101173207163811,0.07435580343008041,1.0146769285202026,0.8982832431793213,1.762230634689331,-1.328465223312378,-0.7409629225730896,1.436928153038025,0.3329833447933197,0.1519763469696045,-0.026506291702389717,0.46773478388786316
435,174460,174461,-0.041795164346694946,0.05864114686846733,1.0431325435638428,2.2071595191955566,1.7618070840835571,-1.0811055898666382,-0.7439627647399902,1.4279285669326782,0.33898305892944336,0.12023318558931351,0.06565172970294952,0.45167276263237
436,174470,174471,-0.020166851580142975,0.01225285604596138,1.0031758546829224,2.2640023231506348,1.0233805179595947,-1.0635709762573242,-0.737963080406189,1.4249287843704224,0.3509824573993683,0.1706216037273407,0.02805669791996479,0.4431522786617279
437,174480,174481,-0.018655678257346153,0.012523513287305832,1.00233793258667,0.6045171022415161,1.2768443822860718,-1.2131526470184326,-0.7499625086784363,1.4279285669326782,0.34498274326324463,0.15476281940937042,0.06732353568077087,0.43148866295814514
438,174490,174491,0.0006532407714985311,-0.018309615552425385,0.9591835141181946,0.036702100187540054,1.1179749965667725,-1.2526154518127441,-0.7349632382392883,1.4279285669326782,0.34798258543014526,0.13016143441200256,0.07853493094444275,0.41917288303375244
439,174500,174501,0.049899403005838394,0.03494436666369438,0.983343780040741,-1.1182833909988403,1.2025947570800781,-0.511591374874115,-0.736463189125061,1.435428261756897,0.34648266434669495,0.10908424109220505,0.07349550724029541,0.406655877828598
440,174510,174511,0.03822806105017662,0.025069670751690865,0.9828994274139404,-2.020766258239746,1.2972205877304077,-0.8994971513748169,-0.737963080406189,1.4189289808273315,0.33898305892944336,0.08594019711017609,0.04419604316353798,0.39895519614219666
441,174520,174521,0.01844867132604122,-0.03622687980532646,1.0512839555740356,-2.6151206493377686,4.055801868438721,-1.481299638748169,-0.7499625086784363,1.4339282512664795,0.32998350262641907,0.056334350258111954,0.014957383275032043,0.38938379287719727
442,174530,174531,0.018545001745224,-0.12796564400196075,1.063611626625061,-3.006472110748291,2.3877556324005127,-1.4093530178070068,-0.7334632873535156,1.4324283599853516,0.33748310804367065,0.00930576492100954,-0.015197995118796825,0.37703365087509155
443,174540,174541,-0.015589059330523014,-0.1661788821220398,0.9996020793914795,-3.3711891174316406,-1.6229634284973145,-0.9026879668235779,-0.7244637608528137,1.4384280443191528,0.3404829800128937,0.06545121967792511,-0.05625355616211891,0.3672366142272949
444,174550,174551,-0.036473870277404785,-0.0464339442551136,0.9408664703369141,-0.4706994891166687,-4.484841346740723,-0.11427164077758789,-0.7349632382392883,1.436928153038025,0.341982901096344,0.025318875908851624,-0.07362378388643265,0.3598480224609375
445,174560,174561,-0.03926625847816467,0.08437702804803848,0.9200459718704224,3.3251352310180664,-2.997588872909546,-0.017836805433034897,-0.7454627156257629,1.4384280443191528,0.3524823784828186,0.07764638960361481,-0.0573941171169281,0.35616159439086914
446,174570,174571,-0.01933223381638527,0.1383533775806427,0.9445728063583374,5.388626575469971,-0.6133999824523926,-0.32154813408851624,-0.7394630312919617,1.435428261756897,0.35548222064971924,0.09904172271490097,0.017695428803563118,0.3502492606639862
447,174580,174581,0.01501573994755745,0.05762691795825958,0.9758772850036621,3.9186859130859375,-0.30304160714149475,-0.7779889702796936,-0.7394630312919617,1.435428261756897,0.35548222064971924,0.1007610559463501,0.10771135240793228,0.3436117172241211
448,174590,174591,0.02287975698709488,-0.025297876447439194,1.0172744989395142,0.7927716970443726,2.932800531387329,-0.753767728805542,-0.7394630312919617,1.435428261756897,0.35548222064971924,0.10133908689022064,0.15400856733322144,0.33658525347709656
449,174600,174601,0.03646278381347656,-0.12523621320724487,0.9968967437744141,-0.6453785300254822,2.9448983669281006,-0.8864638209342957,-0.7394630312919617,1.435428261756897,0.35548222064971924,-0.007301436737179756,0.15510042011737823,0.3292234241962433
450,174610,174611,0.05856223776936531,-0.11185242235660553,0.9631852507591248,-1.200406789779663,1.5392807722091675,-0.4275986850261688,-0.7499625086784363,1.445927619934082,0.3539822995662689,0.021506046876311302,0.0615868903696537,0.3227815628051758
451,174620,174621,0.05496181175112724,-0.04949697107076645,0.9440191984176636,-3.233433485031128,0.7484476566314697,-0.7787433862686157,-0.7454627156257629,1.444427728652954,0.33748310804367065,0.0073294080793857574,0.048437342047691345,0.318789541721344
452,174630,174631,-0.024438774213194847,0.04790554568171501,0.9888554811477661,-2.468336820602417,-1.7480725049972534,-0.528311550617218,-0.7349632382392883,1.4519274234771729,0.341982901096344,0.0012185435043647885,0.002522891853004694,0.3118826448917389
453,174640,174641,-0.054472219198942184,0.09740308672189713,1.0195986032485962,-1.951040267944336,0.3751831352710724,-1.1070655584335327,-0.7394630312919617,1.4414279460906982,0.33748310804367065,0.00399712985381484,-0.035112399607896805,0.3031814694404602
454,174650,174651,-0.0745823085308075,0.08261676877737045,1.0463930368423462,-3.7821431159973145,-0.08248551934957504,-1.4065768718719482,-0.7469626665115356,1.4399279356002808,0.32698363065719604,-0.00019755406538024545,-0.06731574982404709,0.2916683852672577
455,174660,174661,-0.054050054401159286,-0.01755461096763611,0.960825502872467,-1.7966642379760742,-1.6046603918075562,-0.7794312834739685,-0.7319633960723877,1.4399279356002808,0.33598318696022034,0.002657895674929023,-0.09591630846261978,0.2791968882083893
456,174670,174671,-0.010080727748572826,-0.027175331488251686,0.9520861506462097,2.43929386138916,0.2842932343482971,-1.1505985260009766,-0.7544622421264648,1.4414279460906982,0.33748310804367065,0.029037870466709137,-0.09130682796239853,0.27125775814056396
457,174680,174681,0.03075815737247467,0.05577857419848442,0.972720205783844,6.576751232147217,-0.5966018438339233,-0.0015502399764955044,-0.7454627156257629,1.4294284582138062,0.34648266434669495,0.09644033759832382,-0.09291397035121918,0.26158106327056885
458,174690,174691,0.03498396277427673,0.10222605615854263,0.9793875217437744,7.261801719665527,1.1932960748672485,-0.4749184548854828,-0.7334632873535156,1.4324283599853516,0.3584820628166199,0.09560137987136841,0.02238643355667591,0.25767961144447327
459,174700,174701,0.03270534798502922,0.020053885877132416,1.0415024757385254,5.061551094055176,4.2641448974609375,-1.6977397203445435,-0.736463189125061,1.4534273147583008,0.3494825065135956,0.12904204428195953,0.06081102415919304,0.24973136186599731
460,174710,174711,0.044697355479002,-0.08410980552434921,1.0648497343063354,3.094139337539673,4.037257671356201,-1.7812291383743286,-0.7409629225730896,1.445927619934082,0.341982901096344,-0.00989941693842411,0.07822787761688232,0.2348729521036148
461,174720,174721,0.02248096838593483,-0.08394327014684677,1.0697712898254395,0.9433053731918335,2.633512496948242,-1.1644457578659058,-0.7424628734588623,1.4384280443191528,0.3584820628166199,-0.07730745524168015,0.1371132880449295,0.22036181390285492
462,174730,174731,-0.027415981516242027,-0.002958537545055151,1.0311936140060425,-0.4411064088344574,0.7975167036056519,-0.30225804448127747,-0.7409629225730896,1.4549272060394287,0.3329833447933197,-0.051966797560453415,0.09111624956130981,0.21145276725292206
463,174740,174741,-0.06874685734510422,0.09880426526069641,1.0234816074371338,-2.1185905933380127,-0.4217151403427124,-0.0876765102148056,-0.7469626665115356,1.4519274234771729,0.3539822995662689,-0.2886729836463928,0.14821863174438477,0.20865821838378906
464,174750,174751,-0.047169022262096405,0.030430661514401436,0.9899534583091736,-3.674570322036743,1.009200930595398,-0.5550978183746338,-0.7499625086784363,1.4399279356002808,0.34798258543014526,-0.0052438778802752495,0.10833553969860077,0.20634907484054565
465,174760,174761,-0.041829172521829605,0.034796129912137985,1.0555840730667114,-4.063806056976318,-1.1154135465621948,-0.6864332556724548,-0.7484625577926636,1.4474276304244995,0.35548222064971924,-0.021716350689530373,0.05823979154229164,0.200293630361557
466,174770,174771,-0.04294237121939659,-0.0031630403827875853,1.0321985483169556,-2.2679977416992188,-2.7188560962677,-0.3769984543323517,-0.730463445186615,1.4504274129867554,0.3434828221797943,0.05926046520471573,0.0174002256244421,0.19415979087352753
467,174780,174781,-0.05658121407032013,0.03484521433711052,0.953157365322113,0.6427521705627441,-4.450870037078857,0.41135379672050476,-0.7544622421264648,1.4504274129867554,0.3434828221797943,0.08456482738256454,-0.00023950582544784993,0.19063536822795868
468,174790,174791,-0.007851356640458107,0.09507821500301361,0.9034526348114014,4.226318359375,-1.2667924165725708,0.8779021501541138,-0.7454627156257629,1.4504274129867554,0.3434828221797943,0.044304292649030685,0.0402895025908947,0.19273066520690918
469,174800,174801,0.051136843860149384,0.07042985409498215,0.9395717978477478,3.361239194869995,3.6595101356506348,-0.06398209184408188,-0.7424628734588623,1.4474276304244995,0.33748310804367065,0.023930871859192848,-0.03569371998310089,0.19487467408180237
470,174810,174811,0.024597657844424248,0.023899614810943604,1.0642187595367432,1.115332007408142,6.925588130950928,-0.5947829484939575,-0.7319633960723877,1.4489275217056274,0.3599819839000702,-0.19277988374233246,0.03162199258804321,0.1927018016576767
471,174820,174821,0.02965305931866169,-0.1101825013756752,1.0284581184387207,1.310181975364685,5.983753204345703,-0.3105196952819824,-0.7424628734588623,1.4474276304244995,0.34648266434669495,-0.21285052597522736,0.06979817897081375,0.18926210701465607
