,timestamp_start,timestamp_end,acc.x,acc.y,acc.z,gyro.x,gyro.y,gyro.z,mag.x,mag.y,mag.z,stabilizer.pitch,stabilizer.roll,stabilizer.yaw
0,198746,198748,-0.06993091851472855,-0.012156173586845398,1.0475894212722778,21.439607620239258,8.316910743713379,-6.147556781768799,1.2389379739761353,2.519873857498169,4.802759647369385,1.0915483236312866,-1.8963122367858887,3.3564114570617676
1,198756,198758,-0.032589662820100784,-0.06525556743144989,0.976319432258606,27.318817138671875,22.856555938720703,-5.0568084716796875,1.2359381914138794,2.522873878479004,4.805759429931641,0.9423787593841553,-0.5483759641647339,2.9460012912750244
2,198766,198768,-0.06798513978719711,-0.026915205642580986,0.9877602458000183,24.23854637145996,29.68505096435547,-1.5112826824188232,1.232938289642334,2.5588719844818115,4.841757774353027,0.8023620843887329,-0.34226715564727783,2.899049758911133
3,198776,198778,-0.028727121651172638,0.014378638938069344,0.9720039963722229,6.111944198608398,36.10805130004883,-0.005305289290845394,1.2299385070800781,2.567871570587158,4.83275842666626,0.3400111794471741,-0.2231292426586151,2.950894832611084
4,198786,198788,0.006269055884331465,0.06567750126123428,0.9812536835670471,-13.60669994354248,42.12495040893555,0.11685242503881454,1.2374380826950073,2.5543723106384277,4.828258514404297,-0.08122457563877106,-0.39591583609580994,3.024740695953369
5,198796,198798,-0.007301734760403633,0.08182042837142944,0.9704537391662598,-32.41996765136719,37.6430549621582,-1.2848275899887085,1.2374380826950073,2.5543723106384277,4.822258949279785,-0.594199538230896,-0.8002950549125671,3.112544059753418
6,198806,198808,-0.02890276163816452,0.07142975181341171,0.9754265546798706,-42.904632568359375,24.292020797729492,-1.594800353050232,1.2239388227462769,2.5648717880249023,4.82675838470459,-0.8991996049880981,-1.301263689994812,3.1325464248657227
7,198816,198818,-0.10172116756439209,0.06244233623147011,0.9881941676139832,-41.145381927490234,8.638189315795898,-1.707154631614685,1.2359381914138794,2.5648717880249023,4.82675838470459,-1.1159216165542603,-1.8024821281433105,3.134094476699829
8,198826,198828,-0.10597441345453262,0.07871008664369583,1.020854115486145,-25.381078720092773,-3.7251136302948,-2.7345223426818848,1.2194390296936035,2.5603718757629395,4.825258731842041,-1.2418370246887207,-2.1634600162506104,3.117342233657837
9,198836,198838,-0.1153794452548027,0.07172256708145142,1.029779314994812,-2.0659821033477783,-13.850499153137207,-3.6132280826568604,1.2254387140274048,2.542372941970825,4.813259124755859,-1.1827658414840698,-2.342848300933838,3.0830700397491455
10,198846,198848,-0.12076029926538467,0.03635492920875549,1.045532464981079,18.22035789489746,-25.33426856994629,-3.3803517818450928,1.231438398361206,2.5633718967437744,4.807259559631348,-0.9321950674057007,-2.2264273166656494,3.0165750980377197
11,198856,198858,-0.15601278841495514,0.00394578417763114,1.0794122219085693,31.781858444213867,-30.28785514831543,-1.1324571371078491,1.231438398361206,2.569371461868286,4.8372578620910645,-0.8161250352859497,-2.1061575412750244,3.04934024810791
12,198866,198868,-0.1804007887840271,-0.027537746354937553,1.0441932678222656,33.42538070678711,-14.840264320373535,-0.2777891755104065,1.2284384965896606,2.5603718757629395,4.843257904052734,-0.47608837485313416,-1.8497717380523682,3.0458030700683594
13,198876,198878,-0.17962683737277985,-0.02773328684270382,1.0487598180770874,23.79736328125,7.462570667266846,-0.2643282115459442,1.247937560081482,2.543872833251953,4.82675838470459,-0.4346849322319031,-1.7002781629562378,3.0918664932250977
14,198886,198888,-0.11516571044921875,-0.06909573078155518,0.9868805408477783,7.089128017425537,25.642749786376953,-1.343540906906128,1.2254387140274048,2.5303733348846436,4.807259559631348,-0.7063295245170593,-1.400432825088501,3.1029164791107178
15,198896,198898,-0.01763276197016239,-0.04147855564951897,0.9579711556434631,-8.523054122924805,37.354095458984375,-4.946254730224609,1.2179391384124756,2.5318734645843506,4.814759254455566,-1.1377265453338623,-1.3849750757217407,3.1118924617767334
16,198906,198908,0.02732640691101551,-0.013336497358977795,0.9412990808486938,-16.477025985717773,38.085205078125,-8.702703475952148,1.2179391384124756,2.5318734645843506,4.808759689331055,-1.6007829904556274,-1.5622546672821045,3.0780577659606934
17,198916,198918,0.002052303869277239,-0.031662601977586746,0.9484238028526306,-12.181626319885254,30.310256958007812,-12.07567310333252,1.2359381914138794,2.5528724193573,4.814759254455566,-2.0004830360412598,-1.7825584411621094,2.9910809993743896
18,198926,198928,-0.026450570672750473,0.0048910994082689285,1.017639398574829,4.87244176864624,19.95152473449707,-14.55923843383789,1.2269386053085327,2.5258736610412598,4.805759429931641,-2.0527567863464355,-1.8314547538757324,2.805103302001953
19,198936,198938,-0.012156283482909203,0.0412876196205616,1.0388264656066895,27.725862503051758,6.2901740074157715,-16.467145919799805,1.2119393348693848,2.5288734436035156,4.796760082244873,-2.266543388366699,-1.5624213218688965,2.6464812755584717
20,198946,198948,0.026209941133856773,0.06091289222240448,1.0421282052993774,49.20811462402344,-4.459066390991211,-16.83360481262207,1.2194390296936035,2.5303733348846436,4.807259559631348,-2.2736830711364746,-1.2715197801589966,2.477562189102173
21,198956,198958,0.053763989359140396,0.014601343311369419,0.991593062877655,63.351383209228516,-18.70195960998535,-13.489679336547852,1.2179391384124756,2.5288734436035156,4.808759689331055,-2.090564489364624,-0.959259033203125,2.3053267002105713
22,198966,198968,-0.03844735026359558,-0.01723000779747963,0.9978444576263428,68.82962799072266,-45.03679656982422,-8.061724662780762,1.2209389209747314,2.519873857498169,4.8117594718933105,-1.7326327562332153,0.02532905340194702,2.1585516929626465
23,198976,198978,-0.04092204570770264,0.0025944183580577374,0.995053768157959,59.48381805419922,-61.820335388183594,-3.817685842514038,1.2254387140274048,2.5303733348846436,4.8102593421936035,-1.5098367929458618,0.30014654994010925,2.136228561401367
24,198986,198988,-0.06462331116199493,0.003813419956713915,1.005461573600769,41.005680084228516,-68.62513732910156,0.21804526448249817,1.2344383001327515,2.521373987197876,4.816258907318115,-0.6520426273345947,0.8545194268226624,2.069622755050659
25,198996,198998,-0.07259297370910645,-0.03447623923420906,0.9729128479957581,18.447887420654297,-56.01155090332031,1.476701259613037,1.231438398361206,2.5063745975494385,4.804259777069092,-0.09652936458587646,1.1499351263046265,2.0791876316070557
26,199006,199008,-0.1395025998353958,-0.04082892835140228,1.0385552644729614,-3.002894639968872,-31.61775016784668,0.14544819295406342,1.2629368305206299,2.5018749237060547,4.814759254455566,0.30877354741096497,1.2964451313018799,2.0883209705352783
27,199016,199018,-0.15164682269096375,-0.09904101490974426,1.0495975017547607,-19.777040481567383,2.3365283012390137,-0.9152206778526306,1.2434377670288086,2.488375425338745,4.783260822296143,0.5129679441452026,1.1799806356430054,2.0850627422332764
28,199026,199028,-0.1378939151763916,-0.07750337570905685,1.026450276374817,-24.391159057617188,27.36006736755371,-0.13801372051239014,1.2419378757476807,2.4988749027252197,4.7877607345581055,0.31998127698898315,0.8731117248535156,2.0861363410949707
29,199036,199038,-0.06273899972438812,-0.03988216072320938,0.9332174062728882,-20.0635929107666,41.85589599609375,2.6483869552612305,1.2374380826950073,2.5003750324249268,4.801259994506836,-0.1793215274810791,0.5648281574249268,2.0958406925201416
30,199046,199048,-0.04722043499350548,0.048564612865448,0.9926009774208069,-14.261260986328125,46.34476089477539,4.310885429382324,1.2374380826950073,2.497375011444092,4.783260822296143,-0.5528197884559631,0.36488795280456543,2.135399341583252
31,199056,199058,-0.022909214720129967,0.022541020065546036,0.9857611656188965,-5.253852367401123,41.527095794677734,4.124074459075928,1.232938289642334,2.495875120162964,4.790760517120361,-0.8271952271461487,0.4034115672111511,2.174041509628296
32,199066,199068,-0.05459335446357727,0.01100339274853468,1.0201774835586548,9.678311347961426,27.674362182617188,3.53656268119812,1.2254387140274048,2.497375011444092,4.783260822296143,-1.402517557144165,0.41768544912338257,2.204069137573242
33,199076,199078,-0.18804197013378143,-0.018035346642136574,1.0402230024337769,19.779333114624023,10.296557426452637,1.2149555683135986,1.2344383001327515,2.4793760776519775,4.774260997772217,-1.4044740200042725,0.4380411207675934,2.2678515911102295
34,199086,199088,-0.19622796773910522,-0.025776950642466545,1.0282697677612305,23.214448928833008,-9.978972434997559,-1.586333155632019,1.231438398361206,2.470376491546631,4.774260997772217,-1.45805823802948,0.8438749313354492,2.262939691543579
35,199096,199098,-0.10263200104236603,-0.020380571484565735,0.988450825214386,26.58944320678711,-26.657894134521484,-3.538701295852661,1.2404379844665527,2.461376905441284,4.771261215209961,-1.1772661209106445,1.0216562747955322,2.2579257488250732
36,199106,199108,-0.11202146112918854,-0.017673617228865623,0.9664056897163391,23.50395393371582,-42.74342727661133,-4.5053935050964355,1.232938289642334,2.4778759479522705,4.769761562347412,-0.9116272330284119,1.349913477897644,2.2063562870025635
37,199116,199118,-0.18010935187339783,-0.03758005052804947,0.9534598588943481,15.783173561096191,-46.02964782714844,-3.623399019241333,1.2374380826950073,2.467376470565796,4.780261039733887,-0.6689749360084534,1.5206726789474487,2.128610610961914
38,199126,199128,-0.13711850345134735,-0.05024346709251404,0.9519780278205872,-1.779107689857483,-33.19084930419922,-3.6112523078918457,1.2269386053085327,2.4778759479522705,4.766761779785156,-0.19373826682567596,1.4910258054733276,2.09782075881958
39,199136,199138,-0.033219847828149796,0.0016780787846073508,0.9093023538589478,-15.552996635437012,-21.44980812072754,-5.834168910980225,1.2404379844665527,2.470376491546631,4.768261432647705,0.027615508064627647,1.4253106117248535,2.036710500717163
40,199146,199148,0.033931612968444824,0.04688910394906998,0.9318621158599854,-22.2300968170166,-6.004742622375488,-8.249874114990234,1.2539372444152832,2.4808759689331055,4.784760475158691,0.31209596991539,1.1692943572998047,1.9945412874221802
41,199156,199158,0.00314648961648345,-0.03632063418626785,0.9415611028671265,-10.446839332580566,10.970118522644043,-7.136144638061523,1.2404379844665527,2.4823758602142334,4.777261257171631,0.32212141156196594,1.155051827430725,1.893335223197937
42,199166,199168,-0.022893572226166725,-0.12278106063604355,0.9290519952774048,5.778565406799316,30.03472137451172,-6.324565410614014,1.2359381914138794,2.489875555038452,4.7877607345581055,0.03807778283953667,1.069610834121704,1.8029519319534302
43,199176,199178,-0.024565815925598145,-0.17175830900669098,0.8767756819725037,16.54072380065918,40.901851654052734,-6.547481536865234,1.2374380826950073,2.49137544631958,4.786260604858398,-0.21094180643558502,1.2090739011764526,1.7538914680480957
44,199186,199188,-0.03402487188577652,-0.08726075291633606,0.8966035842895508,16.32608413696289,31.967803955078125,-8.39979362487793,1.2434377670288086,2.5003750324249268,4.79826021194458,-0.7781916260719299,1.5105674266815186,1.6390265226364136
45,199196,199198,-0.011999456211924553,-0.05699963495135307,0.905403733253479,11.67435073852539,17.446672439575195,-11.617148399353027,1.2239388227462769,2.5018749237060547,4.784760475158691,-0.9466594457626343,1.6322180032730103,1.5880112648010254
46,199206,199208,0.002784640761092305,-0.06718141585588455,0.8970686197280884,2.3617429733276367,-1.2419722080230713,-15.143874168395996,1.2149392366409302,2.4808759689331055,4.7817606925964355,-0.9978542923927307,1.7141730785369873,1.4906896352767944
47,199216,199218,-0.02536197006702423,-0.09154834598302841,0.9274898767471313,-10.498802185058594,-14.53609561920166,-18.220853805541992,1.2359381914138794,2.465876579284668,4.775761127471924,-0.8684667944908142,1.683396577835083,1.3590023517608643
48,199226,199228,-0.029116490855813026,-0.12085745483636856,0.9584008455276489,-18.381441116333008,-19.493675231933594,-19.8005313873291,1.2404379844665527,2.49137544631958,4.789260387420654,-0.8529685735702515,1.4712128639221191,1.1419202089309692
49,199236,199238,-0.03883356973528862,-0.16375158727169037,0.9327419996261597,-17.209123611450195,-23.410951614379883,-20.05299186706543,1.2404379844665527,2.497375011444092,4.789260387420654,-0.6098195910453796,1.4546682834625244,0.9304437637329102
50,199246,199248,0.007353570312261581,-0.12737317383289337,0.9183472394943237,-6.609393119812012,-28.089778900146484,-17.429903030395508,1.2434377670288086,2.4823758602142334,4.79226016998291,-0.3491257429122925,1.2427942752838135,0.7343234419822693
51,199256,199258,0.018221652135252953,-0.07319407910108566,0.9268006086349487,3.8861629962921143,-32.68160629272461,-14.356382369995117,1.2419378757476807,2.5018749237060547,4.793760299682617,0.13107258081436157,1.2111157178878784,0.6052237153053284
52,199266,199268,0.004898169543594122,-0.045014671981334686,0.961926281452179,16.940401077270508,-33.15605926513672,-9.653132438659668,1.2434377670288086,2.5063745975494385,4.807259559631348,0.42862793803215027,1.3844746351242065,0.44312918186187744
53,199276,199278,-0.0908144935965538,-0.07097401469945908,0.9550990462303162,22.74980926513672,-26.23677635192871,-4.813514709472656,1.2434377670288086,2.5033748149871826,4.79826021194458,0.46733635663986206,1.5742474794387817,0.27036479115486145
54,199286,199288,-0.0853830948472023,-0.047569770365953445,0.9514651298522949,12.302173614501953,-17.771446228027344,-0.12388554960489273,1.244937777519226,2.5018749237060547,4.796760082244873,0.7446040511131287,1.8063117265701294,0.22999802231788635
55,199296,199298,-0.05903952568769455,-0.02620563469827175,0.932930588722229,-6.2892537117004395,-4.242204189300537,2.165602684020996,1.232938289642334,2.489875555038452,4.793760299682617,0.8434721827507019,1.8697971105575562,0.21961736679077148
56,199306,199308,-0.08922555297613144,-0.07287507504224777,0.9129294157028198,-22.287456512451172,10.715206146240234,2.6203722953796387,1.2359381914138794,2.4808759689331055,4.793760299682617,0.8465800881385803,1.6469380855560303,0.2603321075439453
57,199316,199318,-0.14791999757289886,-0.07618850469589233,0.9032599925994873,-34.13349533081055,23.66437339782715,3.350224494934082,1.231438398361206,2.494375228881836,4.79226016998291,0.6704233288764954,1.324546456336975,0.295229971408844
58,199326,199328,-0.11624779552221298,-0.05714326351881027,0.8382607102394104,-38.31511306762695,24.47625732421875,4.630556583404541,1.2299385070800781,2.516874074935913,4.799759864807129,0.3254534900188446,0.8779747486114502,0.3217763602733612
59,199336,199338,-0.056255195289850235,-0.01382593996822834,0.8908104300498962,-36.71377944946289,14.542369842529297,6.281748294830322,1.231438398361206,2.5303733348846436,4.8102593421936035,0.04342576488852501,0.6996920108795166,0.32269108295440674
60,199346,199348,-0.06833862513303757,-0.039280325174331665,1.0033228397369385,-31.238826751708984,-0.8310977816581726,6.740705966949463,1.2239388227462769,2.522873878479004,4.8117594718933105,-0.04802284762263298,0.2818504869937897,0.4113255739212036
61,199356,199358,-0.13489803671836853,-0.061620261520147324,1.0207545757293701,-21.789831161499023,-8.25930118560791,5.671550750732422,1.2419378757476807,2.5258736610412598,4.8117594718933105,0.06118398532271385,0.10609105974435806,0.4777399003505707
62,199366,199368,-0.06553772836923599,-0.038135260343551636,0.9496327638626099,-13.72639274597168,-10.039339065551758,4.39423131942749,1.2374380826950073,2.5273735523223877,4.816258907318115,0.3296051621437073,0.0659179762005806,0.5456478595733643
63,199376,199378,0.04097135365009308,0.010162534192204475,0.9260737895965576,-9.248564720153809,-13.403412818908691,2.5879366397857666,1.2359381914138794,2.5258736610412598,4.802759647369385,0.4310496151447296,-0.14057356119155884,0.5996498465538025
64,199386,199388,-0.0019354376709088683,-0.06426053494215012,0.9621996283531189,-5.716917991638184,-19.259885787963867,-0.23525439202785492,1.246437668800354,2.5273735523223877,4.8102593421936035,0.4496474862098694,-0.2714634835720062,0.6055416464805603
65,199396,199398,-0.059807684272527695,-0.1511358767747879,0.9620862007141113,-5.380359649658203,-23.217548370361328,-4.3088274002075195,1.2254387140274048,2.524373769760132,4.816258907318115,0.7569563388824463,-0.2457762360572815,0.5988765954971313
66,199406,199408,-0.034946344792842865,-0.09273437410593033,0.9443792700767517,-2.999631643295288,-22.000507354736328,-7.619237422943115,1.244937777519226,2.5288734436035156,4.8117594718933105,0.8300308585166931,-0.34459829330444336,0.5284832715988159
67,199416,199418,0.019261524081230164,0.008323419839143753,0.9450311064720154,-4.2672600746154785,-14.147258758544922,-10.236602783203125,1.2344383001327515,2.518373966217041,4.8102593421936035,1.19342041015625,-0.3463848829269409,0.4648166596889496
68,199426,199428,-0.024264570325613022,-0.016465771943330765,0.987854540348053,-0.594630241394043,-1.5462006330490112,-12.049271583557129,1.246437668800354,2.5273735523223877,4.825258731842041,1.1708663702011108,-0.4073565900325775,0.3442532420158386
69,199436,199438,-0.10237166285514832,-0.02517365850508213,1.0079874992370605,7.206057071685791,18.70561981201172,-11.940016746520996,1.2359381914138794,2.5378730297088623,4.808759689331055,1.0861090421676636,-0.2889999449253082,0.19261722266674042
70,199446,199448,-0.1324053555727005,-0.004819600377231836,0.9648616313934326,2.9603099822998047,38.327842712402344,-12.697123527526855,1.2374380826950073,2.5393729209899902,4.813259124755859,0.6871157288551331,-0.15252266824245453,0.0315026119351387
71,199456,199458,-0.0418424978852272,0.08045154064893723,1.002357006072998,-8.869028091430664,49.874794006347656,-12.652036666870117,1.2419378757476807,2.546872615814209,4.83275842666626,0.30269354581832886,-0.2067546844482422,-0.07813279330730438
72,199466,199468,-0.001265197992324829,0.08040089905261993,1.0178160667419434,-14.620023727416992,43.9527473449707,-11.051406860351562,1.2284384965896606,2.5633718967437744,4.831258296966553,-0.16831354796886444,-0.41616693139076233,-0.17680789530277252
73,199476,199478,-0.04498790204524994,0.04484279453754425,1.079723834991455,-9.462138175964355,17.077604293823242,-6.713277816772461,1.2224388122558594,2.569371461868286,4.831258296966553,-0.5260353684425354,-0.49349427223205566,-0.28966596722602844
74,199486,199488,-0.04533984512090683,-0.014725626446306705,1.108638048171997,0.9042584300041199,-16.12938117980957,-0.8375605344772339,1.2284384965896606,2.5363731384277344,4.813259124755859,-0.38354435563087463,-0.45422837138175964,-0.34975627064704895
75,199496,199498,-0.053225189447402954,-0.06915377825498581,1.0719432830810547,11.857621192932129,-44.27094650268555,5.961647033691406,1.2269386053085327,2.543872833251953,4.83275842666626,-0.07759808003902435,-0.3854963779449463,-0.34229180216789246
76,199506,199508,-0.03898010775446892,-0.022448698058724403,1.078385591506958,17.129201889038086,-61.669830322265625,11.795269012451172,1.247937560081482,2.549872398376465,4.83275842666626,0.33503034710884094,-0.33059677481651306,-0.2552032470703125
77,199516,199518,-0.031800851225852966,-0.006156084127724171,0.9796093702316284,19.38407325744629,-67.5626220703125,17.969226837158203,1.244937777519226,2.5618717670440674,4.835758209228516,1.2501344680786133,-0.11999993026256561,-0.11709362268447876
78,199526,199528,-0.03055436909198761,0.051570191979408264,1.0041407346725464,5.670553207397461,-61.98309326171875,23.171396255493164,1.247937560081482,2.546872615814209,4.829758644104004,1.6539541482925415,-0.04923010990023613,0.09466791152954102
79,199536,199538,-0.06621527671813965,0.02124159410595894,1.1124539375305176,-9.114348411560059,-45.544673919677734,24.695247650146484,1.2569371461868286,2.5288734436035156,4.83275842666626,2.2992732524871826,-0.0887218788266182,0.3477626442909241
80,199546,199548,-0.11597152799367905,-0.04258785396814346,1.1173564195632935,-16.63225746154785,-12.519294738769531,25.18440818786621,1.261436939239502,2.524373769760132,4.822258949279785,2.4616928100585938,-0.3209119141101837,0.6208434700965881
81,199556,199558,-0.09056591242551804,-0.021389910951256752,0.9985968470573425,-27.171472549438477,19.718997955322266,24.732196807861328,1.2629368305206299,2.5288734436035156,4.8117594718933105,2.486809492111206,-0.6151978969573975,0.8975902199745178
82,199566,199568,-0.05248385667800903,0.06190698221325874,0.996880829334259,-34.26138687133789,38.94921875,20.964824676513672,1.2539372444152832,2.5258736610412598,4.823758602142334,2.1214699745178223,-0.848689615726471,1.1135263442993164
83,199576,199578,-0.05155651271343231,0.08783911913633347,1.070579171180725,-30.828542709350586,52.31044387817383,14.216093063354492,1.2599369287490845,2.543872833251953,4.82675838470459,1.5273003578186035,-1.1094979047775269,1.2741538286209106
84,199586,199588,-0.04944264143705368,0.00927458330988884,1.1130305528640747,-21.10436248779297,48.83200454711914,7.970948696136475,1.2509374618530273,2.549872398376465,4.817759037017822,1.1245911121368408,-1.551324725151062,1.43392813205719
85,199596,199598,-0.12690263986587524,-0.06365284323692322,1.0533310174942017,-6.691309452056885,38.56471633911133,4.547062397003174,1.2524373531341553,2.5363731384277344,4.816258907318115,0.6479590535163879,-1.6437679529190063,1.4618117809295654
86,199606,199608,-0.09361341595649719,0.026430051773786545,1.054574728012085,22.81694793701172,17.344743728637695,1.7008600234985352,1.2404379844665527,2.5123744010925293,4.795259952545166,0.43501928448677063,-1.5101096630096436,1.4457839727401733
87,199616,199618,-0.04013688862323761,0.023115545511245728,1.033131718635559,42.50700378417969,-9.568682670593262,1.2884339094161987,1.2434377670288086,2.5003750324249268,4.801259994506836,0.3935421407222748,-1.1904189586639404,1.4429514408111572
88,199626,199628,-0.05184458941221237,0.008762315846979618,1.0381394624710083,57.49470138549805,-31.496828079223633,4.239619731903076,1.247937560081482,2.5138742923736572,4.799759864807129,0.5967295169830322,-0.7981140613555908,1.4826490879058838
89,199636,199638,-0.05160894989967346,0.0384475402534008,0.9818938970565796,62.01112747192383,-45.820953369140625,8.336766242980957,1.2434377670288086,2.5093743801116943,4.819259166717529,1.0249990224838257,-0.023649638518691063,1.4797557592391968
90,199646,199648,-0.06419376283884048,0.11116580665111542,0.9507715106010437,46.24093246459961,-54.994415283203125,9.255301475524902,1.2494374513626099,2.515374183654785,4.819259166717529,1.5186744928359985,0.2566966414451599,1.6539326906204224
91,199656,199658,-0.050286225974559784,0.11008544266223907,0.9925872683525085,22.476072311401367,-64.46699523925781,4.878216743469238,1.2494374513626099,2.5003750324249268,4.807259559631348,2.125854969024658,0.7395845055580139,1.6929395198822021
92,199666,199668,-0.06364496797323227,0.028800902888178825,1.0061362981796265,8.967463493347168,-66.73872375488281,1.495095133781433,1.261436939239502,2.5003750324249268,4.795259952545166,2.727719783782959,0.7923558950424194,1.7630295753479004
93,199676,199678,-0.08612395823001862,-0.04683180898427963,1.0484652519226074,-6.5634846687316895,-53.79584503173828,-1.058428168296814,1.2719364166259766,2.5078744888305664,4.820758819580078,3.3673715591430664,0.819515585899353,1.7616292238235474
94,199686,199688,-0.10045204311609268,-0.04158059135079384,1.0297192335128784,-26.471702575683594,-29.81148338317871,-6.3643622398376465,1.2659367322921753,2.489875555038452,4.796760082244873,3.840182304382324,0.5645926594734192,1.7748847007751465
95,199696,199698,-0.051840879023075104,0.00419680355116725,0.9974856972694397,-34.911163330078125,-2.0144166946411133,-9.214130401611328,1.2719364166259766,2.495875120162964,4.793760299682617,4.063144207000732,0.16097120940685272,1.7492082118988037
96,199706,199708,-0.08942637592554092,-0.0027339388616383076,1.051843285560608,-36.79014587402344,23.638259887695312,-12.513587951660156,1.2629368305206299,2.495875120162964,4.790760517120361,3.936525583267212,-0.13033068180084229,1.6162046194076538
97,199716,199718,-0.13298912346363068,-0.008718045428395271,1.02252995967865,-30.452503204345703,53.37388610839844,-14.901999473571777,1.2569371461868286,2.492875337600708,4.793760299682617,3.3713295459747314,-0.4348312020301819,1.4713563919067383
98,199726,199728,-0.10197608917951584,-0.02307448349893093,0.9976169466972351,-13.37119197845459,72.62620544433594,-15.437895774841309,1.2494374513626099,2.4823758602142334,4.783260822296143,2.8955910205841064,-0.7718669176101685,1.350388765335083
99,199736,199738,-0.08796846121549606,-0.07819845527410507,1.029000997543335,6.563045978546143,77.51991271972656,-13.228351593017578,1.2524373531341553,2.521373987197876,4.807259559631348,1.9167438745498657,-0.775729238986969,1.177351713180542
100,199746,199748,-0.10232069343328476,-0.0980377346277237,1.0230927467346191,15.79017162322998,69.67058563232422,-12.770252227783203,1.2434377670288086,2.497375011444092,4.777261257171631,1.4053847789764404,-0.559838593006134,0.9756551384925842
101,199756,199758,-0.022328099235892296,-0.008403624407947063,1.022659182548523,23.081483840942383,49.59669876098633,-13.220182418823242,1.2554372549057007,2.5123744010925293,4.795259952545166,0.7986398339271545,-0.29644909501075745,0.8030828237533569
102,199766,199768,-0.02840719372034073,-0.010489057749509811,1.0140111446380615,34.93415069580078,26.557605743408203,-13.585631370544434,1.2269386053085327,2.471876382827759,4.784760475158691,0.43755537271499634,-0.07738594710826874,0.6915139555931091
103,199776,199778,-0.01140587031841278,-0.09878033399581909,1.044905185699463,33.8779182434082,5.859715461730957,-16.462284088134766,1.2434377670288086,2.467376470565796,4.768261432647705,0.2129397839307785,0.3647157549858093,0.5119990110397339
104,199786,199788,0.0011618452845141292,-0.12265992164611816,1.0339083671569824,26.970808029174805,-11.870222091674805,-19.30674934387207,1.244937777519226,2.471876382827759,4.769761562347412,0.2611086368560791,0.7174701690673828,0.31799110770225525
105,199796,199798,-0.02704654075205326,-0.06993071734905243,0.9500380754470825,17.7614803314209,-16.492210388183594,-20.8560791015625,1.2344383001327515,2.4823758602142334,4.786260604858398,0.5120333433151245,0.9490460753440857,0.1148962751030922
106,199806,199808,-0.06565435975790024,-0.06548819690942764,0.9376847147941589,4.094975471496582,-14.886853218078613,-22.613067626953125,1.2404379844665527,2.497375011444092,4.774260997772217,0.7328821420669556,0.9922630190849304,-0.07419721782207489
107,199816,199818,-0.05185510218143463,-0.05122921243309975,1.000959038734436,-5.695746898651123,-13.01685619354248,-21.556257247924805,1.244937777519226,2.4838757514953613,4.760761737823486,0.9110358953475952,0.9261385798454285,-0.2783312201499939
108,199826,199828,-0.07613624632358551,-0.05021947994828224,0.9761953353881836,-15.285531044006348,-4.037661552429199,-18.39944076538086,1.2359381914138794,2.492875337600708,4.7877607345581055,1.0150701999664307,0.7739410996437073,-0.46821972727775574
109,199836,199838,-0.07100298255681992,-0.05278634652495384,0.9345728754997253,-19.01034164428711,18.799047470092773,-16.08188819885254,1.247937560081482,2.4988749027252197,4.7877607345581055,0.8682971000671387,0.6525648832321167,-0.660860538482666
110,199846,199848,-0.05351056903600693,-0.047015298157930374,0.9154423475265503,-17.34517478942871,41.03305435180664,-14.762271881103516,1.232938289642334,2.495875120162964,4.784760475158691,0.6302286982536316,0.3684278130531311,-0.7917948365211487
111,199856,199858,-0.05739688128232956,-0.04881339520215988,0.9066705107688904,-13.037861824035645,49.50170135498047,-12.9900541305542,1.2344383001327515,2.5033748149871826,4.79826021194458,-0.014367498457431793,0.28512153029441833,-0.9603298902511597
112,199866,199868,-0.07320582121610641,-0.05552234128117561,0.9096065759658813,-6.537967681884766,46.15464401245117,-12.424631118774414,1.2134393453598022,2.5123744010925293,4.801259994506836,-0.4072425961494446,0.13849472999572754,-1.075999140739441
113,199876,199878,-0.07157405465841293,-0.03664930909872055,0.9056149125099182,-2.967935085296631,36.47563552856445,-13.175515174865723,1.2359381914138794,2.5138742923736572,4.790760517120361,-0.9863263368606567,0.0760345533490181,-1.20747709274292
114,199886,199888,-0.06672133505344391,-0.03391723334789276,0.9041262865066528,4.109984874725342,21.654754638671875,-12.873564720153809,1.2179391384124756,2.5108745098114014,4.793760299682617,-0.8661319613456726,0.22317560017108917,-1.3484266996383667
115,199896,199898,-0.07041516155004501,-0.0557791069149971,0.8863036632537842,13.060262680053711,10.065320014953613,-11.854777336120605,1.2194390296936035,2.5093743801116943,4.804259777069092,-1.1757123470306396,0.3576180934906006,-1.4892356395721436
116,199906,199908,-0.0758582055568695,-0.06313636898994446,0.8784554600715637,21.65516471862793,2.6268320083618164,-11.735016822814941,1.2029398679733276,2.5108745098114014,4.802759647369385,-1.3250972032546997,0.6362912654876709,-1.6205214262008667
117,199916,199918,-0.06872754544019699,-0.04843755066394806,0.9096715450286865,25.120603561401367,1.0397697687149048,-11.32002067565918,1.2209389209747314,2.519873857498169,4.808759689331055,-1.318031907081604,0.7944650650024414,-1.7327271699905396
118,199926,199928,-0.1100863441824913,-0.11487478017807007,0.891352117061615,22.566970825195312,0.10254579037427902,-11.268794059753418,1.2194390296936035,2.518373966217041,4.801259994506836,-1.3735666275024414,1.0318105220794678,-1.8469340801239014
119,199936,199938,-0.10886355489492416,-0.06686682254076004,0.8420495390892029,13.863883972167969,4.448686122894287,-13.312746047973633,1.2254387140274048,2.515374183654785,4.795259952545166,-1.5112487077713013,1.3167576789855957,-1.9725419282913208
120,199946,199948,-0.150953009724617,-0.06946660578250885,0.8840358853340149,2.8205175399780273,9.242111206054688,-16.688674926757812,1.216439127922058,2.515374183654785,4.804259777069092,-1.6021658182144165,1.3672356605529785,-2.116842269897461
121,199956,199958,-0.10643647611141205,-0.125305637717247,0.9150928854942322,-5.754146575927734,7.364833354949951,-20.2866153717041,1.2209389209747314,2.5378730297088623,4.808759689331055,-1.5537720918655396,1.3154821395874023,-2.2840898036956787
122,199966,199968,-0.07837358117103577,-0.10902244597673416,0.8779420256614685,-8.889274597167969,-1.0065213441848755,-25.120685577392578,1.2134393453598022,2.5273735523223877,4.822258949279785,-1.535630226135254,1.164101481437683,-2.5058794021606445
123,199976,199978,0.03800881654024124,-0.014052015729248524,0.8884010314941406,-9.526044845581055,-12.689675331115723,-29.47005844116211,1.2119393348693848,2.549872398376465,4.841757774353027,-1.4309971332550049,1.1452254056930542,-2.7629528045654297
124,199986,199988,0.03840237110853195,-0.017309335991740227,0.9103933572769165,-6.102593421936035,-20.41628646850586,-31.333147048950195,1.2029398679733276,2.5558722019195557,4.8387579917907715,-1.1774041652679443,1.1410621404647827,-3.0477726459503174
125,199996,199998,-0.026766039431095123,-0.054417483508586884,0.8978518843650818,-0.4639654755592346,-22.074504852294922,-32.52703857421875,1.2224388122558594,2.5573720932006836,4.834258079528809,-1.0744088888168335,1.1959384679794312,-3.367438316345215
126,200006,200008,-0.015278702601790428,0.010498052462935448,0.9306118488311768,1.2916991710662842,-18.39924430847168,-34.40284729003906,1.2179391384124756,2.5558722019195557,4.835758209228516,-0.9203073382377625,1.1738041639328003,-3.7125818729400635
127,200016,200018,-0.07167402654886246,-0.04812774807214737,0.9627039432525635,-3.6909241676330566,-0.13495494425296783,-34.81946563720703,1.2344383001327515,2.5603718757629395,4.834258079528809,-0.8838359117507935,1.0582369565963745,-4.092484951019287
128,200026,200028,-0.06982870399951935,-0.037490151822566986,0.9679828882217407,-13.13727855682373,16.536617279052734,-32.13982391357422,1.2284384965896606,2.569371461868286,4.849257469177246,-1.0012435913085938,0.95301753282547,-4.442326068878174
129,200036,200038,-0.09625324606895447,-0.04857141524553299,0.9726006984710693,-13.557981491088867,25.3626708984375,-26.347013473510742,1.2239388227462769,2.570871353149414,4.83275842666626,-1.253840684890747,0.9730985164642334,-4.719493389129639
130,200046,200048,-0.1222054660320282,-0.1378255933523178,0.9107239246368408,-7.372342109680176,25.783092498779297,-22.308401107788086,1.2224388122558594,2.5843708515167236,4.852257251739502,-1.4783070087432861,1.1009867191314697,-4.912851333618164
131,200056,200058,-0.05390254035592079,-0.11318008601665497,0.8892291188240051,-2.3662359714508057,16.810659408569336,-19.103803634643555,1.216439127922058,2.5873706340789795,4.852257251739502,-1.5439510345458984,1.1770912408828735,-5.074299335479736
132,200066,200068,-0.024813584983348846,-0.08368588984012604,0.9833928942680359,-6.186212539672852,12.353699684143066,-15.650282859802246,1.2134393453598022,2.5843708515167236,4.861257076263428,-1.789863109588623,1.03732430934906,-5.286834716796875
133,200076,200078,0.019212475046515465,-0.09089455008506775,1.0098825693130493,-16.774412155151367,6.82096004486084,-14.220625877380371,1.2134393453598022,2.5873706340789795,4.8672566413879395,-1.9376180171966553,0.9260798096656799,-5.447080612182617
134,200086,200088,0.017485059797763824,0.02711847983300686,1.0183703899383545,-28.89832305908203,-0.17638026177883148,-12.301596641540527,1.232938289642334,2.594870090484619,4.8387579917907715,-1.9253251552581787,0.691343367099762,-5.578006267547607
135,200096,200098,-0.04200992360711098,-0.0033256327733397484,1.0572715997695923,-37.434059143066406,-4.422439098358154,-10.320388793945312,1.2104394435882568,2.6113693714141846,4.870256423950195,-1.9143106937408447,0.3574991226196289,-5.696737289428711
136,200106,200108,-0.12997792661190033,-0.08322025090456009,1.0455164909362793,-37.197452545166016,-4.175796985626221,-8.204543113708496,1.2299385070800781,2.6098694801330566,4.874756336212158,-1.9248441457748413,-0.05385163798928261,-5.8069963455200195
137,200116,200118,-0.0922941118478775,-0.0645190179347992,1.0356130599975586,-31.334030151367188,-1.9067953824996948,-5.381810188293457,1.2149392366409302,2.6128692626953125,4.874756336212158,-1.866552472114563,-0.2565595507621765,-5.833804607391357
138,200126,200128,-0.09678725898265839,-0.0802893415093422,1.064927101135254,-22.839282989501953,-4.392395496368408,-2.7801904678344727,1.2224388122558594,2.6083695888519287,4.858256816864014,-1.8971292972564697,-0.6276279091835022,-5.9090399742126465
139,200136,200138,-0.1362946629524231,-0.05887250602245331,1.0889267921447754,-11.977636337280273,-5.322150230407715,1.793883204460144,1.2194390296936035,2.6053695678710938,4.84625768661499,-1.8671826124191284,-0.7705506682395935,-5.90894079208374
140,200146,200148,-0.09661383181810379,-0.04316863417625427,1.039414882659912,-4.917450904846191,-5.804940700531006,4.947027206420898,1.2224388122558594,2.593370199203491,4.843257904052734,-1.6239897012710571,-0.904330849647522,-5.878149509429932
141,200156,200158,-0.0550619401037693,-0.026623034849762917,1.069170355796814,5.042830944061279,-9.434596061706543,8.680384635925293,1.2209389209747314,2.5888705253601074,4.853757381439209,-1.56655752658844,-0.820099413394928,-5.7852463722229
142,200166,200168,-0.11068293452262878,-0.11467118561267853,1.1070146560668945,11.48456859588623,-13.023731231689453,11.242124557495117,1.2209389209747314,2.570871353149414,4.8387579917907715,-1.6614071130752563,-0.7585935592651367,-5.695523262023926
143,200176,200178,-0.14679604768753052,-0.10093250125646591,1.0184351205825806,14.234746932983398,-10.280138969421387,14.073004722595215,1.2224388122558594,2.596370220184326,4.852257251739502,-1.5012831687927246,-0.4824923872947693,-5.524977684020996
144,200186,200188,-0.13182544708251953,-0.0008602142916060984,1.0066381692886353,13.54665470123291,-4.050851345062256,16.4653263092041,1.2209389209747314,2.567871570587158,4.856757164001465,-1.4282641410827637,-0.3305383026599884,-5.371179103851318
145,200196,200198,-0.11994489282369614,0.034528251737356186,1.026419758796692,12.092961311340332,-2.1082961559295654,18.077713012695312,1.2134393453598022,2.578371047973633,4.852257251739502,-1.3802658319473267,-0.2554345726966858,-5.22136116027832
146,200206,200208,-0.16090434789657593,-0.020767098292708397,1.0640507936477661,2.720517158508301,-2.7320573329925537,19.357044219970703,1.2254387140274048,2.569371461868286,4.84625768661499,-1.5589581727981567,-0.19058571755886078,-5.044005870819092
147,200216,200218,-0.09599517285823822,-0.03684034198522568,1.0588010549545288,-13.26762866973877,-3.012051820755005,18.658348083496094,1.216439127922058,2.5663716793060303,4.84625768661499,-1.6833144426345825,-0.17370805144309998,-4.84115743637085
148,200226,200228,-0.14617018401622772,-0.08552315086126328,1.0612314939498901,-31.782424926757812,-8.316834449768066,15.337814331054688,1.2344383001327515,2.572371244430542,4.8402581214904785,-1.4807554483413696,-0.3746072053909302,-4.676540851593018
149,200236,200238,-0.1954922378063202,-0.08412906527519226,1.0499677658081055,-46.675594329833984,-12.6954927444458,11.43726634979248,1.2194390296936035,2.5873706340789795,4.84625768661499,-1.4892611503601074,-0.7270478010177612,-4.526880264282227
150,200246,200248,-0.20451493561267853,-0.06619992852210999,1.0567106008529663,-49.98630142211914,-8.507548332214355,8.180207252502441,1.2269386053085327,2.5798709392547607,4.8387579917907715,-1.4063609838485718,-1.3876874446868896,-4.4715070724487305
151,200256,200258,-0.15466810762882233,-0.047554198652505875,1.0731914043426514,-41.19801330566406,-6.382577419281006,6.3601274490356445,1.2209389209747314,2.5828707218170166,4.850757598876953,-1.443643569946289,-1.8534833192825317,-4.382143497467041
152,200266,200268,-0.06808355450630188,-0.027191778644919395,1.078034520149231,-15.624204635620117,-15.428236961364746,7.0336456298828125,1.244937777519226,2.597870111465454,4.83275842666626,-1.28721284866333,-2.2548298835754395,-4.332884311676025
153,200276,200278,0.035358332097530365,0.049182821065187454,1.042018175125122,9.600112915039062,-23.296045303344727,8.000615119934082,1.2239388227462769,2.576871156692505,4.82675838470459,-1.1306085586547852,-2.234708309173584,-4.2182841300964355
154,200286,200288,0.07902476191520691,-0.017073020339012146,0.9909366965293884,33.507347106933594,-29.390913009643555,10.652949333190918,1.2239388227462769,2.567871570587158,4.823758602142334,-0.7791460752487183,-1.938008427619934,-4.099263668060303
155,200296,200298,0.014235366135835648,-0.06343592703342438,0.9883182644844055,44.559913635253906,-28.651260375976562,14.918787956237793,1.232938289642334,2.5528724193573,4.829758644104004,-0.7470166087150574,-1.5602227449417114,-3.9302682876586914
156,200306,200308,-0.07812871783971786,-0.11702758818864822,1.0319838523864746,37.69662094116211,-21.094032287597656,18.440425872802734,1.2389379739761353,2.5828707218170166,4.847757339477539,-0.3465113043785095,-1.212894320487976,-3.813356637954712
157,200316,200318,-0.11062460392713547,-0.13840915262699127,0.9847602844238281,12.07824993133545,-10.797420501708984,21.472257614135742,1.2254387140274048,2.5633718967437744,4.834258079528809,-0.3072701394557953,-0.8342196345329285,-3.5777173042297363
158,200326,200328,-0.12320996820926666,-0.11452071368694305,0.980391800403595,-19.745445251464844,-1.3581784963607788,21.536924362182617,1.2359381914138794,2.5648717880249023,4.82675838470459,-0.27783897519111633,-1.0710726976394653,-3.4132394790649414
159,200336,200338,-0.10855923593044281,-0.09609627723693848,0.9932688474655151,-47.272701263427734,5.685322284698486,22.14451789855957,1.231438398361206,2.575371265411377,4.8402581214904785,-0.2394970804452896,-1.3563482761383057,-3.2104008197784424
160,200346,200348,-0.09587383270263672,-0.025951188057661057,0.9902161955833435,-64.9973373413086,7.075540065765381,23.110746383666992,1.231438398361206,2.5903704166412354,4.8372578620910645,-0.3330020308494568,-1.9481145143508911,-2.995696783065796
161,200356,200358,-0.06389954686164856,0.02841533161699772,0.9821556210517883,-66.73916625976562,6.382691383361816,22.366249084472656,1.2269386053085327,2.603869676589966,4.844757556915283,-0.5716613531112671,-2.5045766830444336,-2.716550350189209
162,200366,200368,-0.041962966322898865,0.04549019783735275,0.9512569904327393,-50.86371612548828,1.4780179262161255,20.780261993408203,1.2359381914138794,2.603869676589966,4.856757164001465,-0.5563145279884338,-3.2337465286254883,-2.530402898788452
163,200376,200378,-0.03390417620539665,0.09565183520317078,1.003624439239502,-23.480220794677734,-7.838136672973633,18.635677337646484,1.2344383001327515,2.5903704166412354,4.858256816864014,-0.5884472727775574,-3.5989012718200684,-2.308610439300537
164,200386,200388,0.033723872154951096,0.11859463900327682,1.0470263957977295,6.791607856750488,-15.534918785095215,16.6461238861084,1.2389379739761353,2.5798709392547607,4.83275842666626,-0.487515389919281,-3.7025766372680664,-2.118649482727051
165,200396,200398,0.021887468174099922,0.002685393439605832,1.037471890449524,33.60649108886719,-21.879966735839844,14.916831016540527,1.2284384965896606,2.5633718967437744,4.8372578620910645,-0.48712992668151855,-3.5459210872650146,-1.8987585306167603
166,200406,200408,-0.05362332984805107,-0.08931314945220947,1.0946918725967407,49.55158996582031,-25.753223419189453,13.519465446472168,1.2434377670288086,2.5873706340789795,4.834258079528809,-0.10318455845117569,-3.0267090797424316,-1.7822239398956299
167,200416,200418,-0.0251542367041111,-0.16275358200073242,1.0482925176620483,54.58600997924805,-26.877532958984375,13.620177268981934,1.231438398361206,2.572371244430542,4.861257076263428,0.26693278551101685,-2.623872756958008,-1.6904634237289429
168,200426,200428,0.015433094464242458,-0.13871315121650696,0.9892182946205139,46.563472747802734,-21.69070053100586,13.658662796020508,1.2434377670288086,2.5813708305358887,4.8402581214904785,0.3340056538581848,-1.9495611190795898,-1.4578605890274048
169,200436,200438,-0.05843010172247887,-0.147723987698555,0.9492089748382568,27.505468368530273,-12.795729637145996,11.25454044342041,1.2344383001327515,2.5603718757629395,4.852257251739502,0.726280689239502,-1.5619820356369019,-1.3956547975540161
170,200446,200448,-0.08033157885074615,-0.11085467040538788,0.9683578014373779,7.184270858764648,-6.930349826812744,8.733738899230957,1.2374380826950073,2.5543723106384277,4.828258514404297,0.542609691619873,-1.651139736175537,-1.1929490566253662
171,200456,200458,-0.11401443183422089,-0.07528949528932571,1.0512665510177612,-3.534214496612549,-3.7280161380767822,6.807273864746094,1.246437668800354,2.569371461868286,4.822258949279785,0.5169285535812378,-1.6138395071029663,-1.0763918161392212
172,200466,200468,-0.054078809916973114,-0.047120872884988785,1.0380042791366577,-4.837307929992676,-3.250293016433716,6.175466060638428,1.2494374513626099,2.5543723106384277,4.816258907318115,0.6800751686096191,-1.467076063156128,-1.050366997718811
173,200476,200478,-0.023434359580278397,-0.007067834958434105,1.0330625772476196,0.9753639101982117,-4.5684099197387695,6.557732582092285,1.2569371461868286,2.5648717880249023,4.829758644104004,0.5542632341384888,-1.6535601615905762,-0.9314491748809814
174,200486,200488,0.005400872323662043,-0.04484176263213158,0.9938801527023315,6.054480075836182,-2.5328900814056396,5.954467296600342,1.2599369287490845,2.549872398376465,4.820758819580078,0.45796406269073486,-1.6649978160858154,-0.8167214393615723
175,200496,200498,-0.03281690180301666,-0.0285482220351696,1.010784387588501,9.51573657989502,-7.77717399597168,4.479006767272949,1.2359381914138794,2.5528724193573,4.820758819580078,0.5219431519508362,-1.5226953029632568,-0.7679659128189087
176,200506,200508,-0.012211283668875694,-0.027075136080384254,0.9634260535240173,9.0429048538208,-6.5081048011779785,4.305064678192139,1.2434377670288086,2.5513722896575928,4.822258949279785,0.6167582869529724,-1.3578046560287476,-0.7298914790153503
177,200516,200518,0.01787828467786312,-0.004341789521276951,0.9621520042419434,4.301107883453369,-8.462812423706055,3.9033284187316895,1.2404379844665527,2.5573720932006836,4.834258079528809,0.7139214873313904,-1.514426350593567,-0.6820539236068726
178,200526,200528,0.0627395361661911,-0.013033943250775337,0.9605500102043152,0.5749509930610657,-11.13615608215332,2.935581684112549,1.2434377670288086,2.5573720932006836,4.834258079528809,0.6326348781585693,-1.449131727218628,-0.5918077826499939
179,200536,200538,0.004602132365107536,-0.008108948357403278,1.005196213722229,-1.9685025215148926,-13.179737091064453,1.7860697507858276,1.246437668800354,2.5663716793060303,4.828258514404297,0.8762806057929993,-1.4212110042572021,-0.60304856300354
180,200546,200548,0.07283008098602295,-0.008115431293845177,0.9827167391777039,-5.659591197967529,-12.359163284301758,1.933004379272461,1.246437668800354,2.5603718757629395,4.828258514404297,0.9231787919998169,-1.587722897529602,-0.5448290109634399
181,200556,200558,0.030106758698821068,0.0005685429205186665,0.9932405948638916,-7.232062816619873,-13.073351860046387,2.3669068813323975,1.2374380826950073,2.569371461868286,4.828258514404297,1.1033194065093994,-1.653955101966858,-0.536290168762207
182,200566,200568,0.0011586444452404976,-0.002405057894065976,1.0113134384155273,-4.4766154289245605,-13.422815322875977,2.289971351623535,1.246437668800354,2.5513722896575928,4.828258514404297,1.2140121459960938,-1.7134649753570557,-0.5055621862411499
183,200576,200578,-0.022796526551246643,-0.0049592978321015835,1.0187606811523438,4.959932804107666,-13.273539543151855,3.6623685359954834,1.2419378757476807,2.543872833251953,4.835758209228516,1.1817437410354614,-1.7447713613510132,-0.43009665608406067
184,200586,200588,-0.033822041004896164,0.015083002857863903,1.0127545595169067,16.682634353637695,-10.72936725616455,4.210489273071289,1.2389379739761353,2.5528724193573,4.817759037017822,1.1398890018463135,-1.6744996309280396,-0.34093716740608215
185,200596,200598,-0.030639169737696648,-0.03680294752120972,1.0109117031097412,24.11248207092285,-12.364380836486816,4.27332878112793,1.2419378757476807,2.540872812271118,4.83275842666626,1.453561782836914,-1.3758867979049683,-0.36967140436172485
186,200606,200608,-0.07045767456293106,-0.07133877277374268,0.9899820685386658,26.781362533569336,-15.398032188415527,4.3618483543396,1.2494374513626099,2.524373769760132,4.822258949279785,1.3802707195281982,-1.2785263061523438,-0.24315360188484192
187,200616,200618,-0.10579904913902283,-0.07633034884929657,0.9476701021194458,24.964637756347656,-18.743919372558594,3.741699695587158,1.244937777519226,2.5318734645843506,4.820758819580078,1.7917194366455078,-0.8052946329116821,-0.3013876974582672
188,200626,200628,-0.09227912873029709,-0.04703390225768089,0.9379332065582275,20.518341064453125,-18.954368591308594,3.145585775375366,1.2419378757476807,2.5348732471466064,4.805759429931641,1.5887320041656494,-0.6107909679412842,-0.15737773478031158
189,200636,200638,-0.013020690530538559,0.02084449492394924,0.9375964999198914,14.611827850341797,-15.187448501586914,2.0908284187316895,1.2404379844665527,2.5273735523223877,4.813259124755859,1.9293960332870483,-0.34939810633659363,-0.17891672253608704
190,200646,200648,0.049020975828170776,0.07520750910043716,0.9728820323944092,10.155547142028809,-11.770190238952637,0.6678616404533386,1.2509374618530273,2.519873857498169,4.814759254455566,1.9852217435836792,-0.45281359553337097,-0.08647836744785309
191,200656,200658,0.055528536438941956,0.07675869017839432,1.005144476890564,7.497522830963135,-8.35240364074707,-1.3479180335998535,1.2419378757476807,2.540872812271118,4.817759037017822,2.0583581924438477,-0.3168964982032776,-0.08719097822904587
192,200666,200668,0.061464276164770126,0.00791669636964798,0.9752092361450195,8.168985366821289,-7.841172218322754,-2.5771188735961914,1.2524373531341553,2.5333733558654785,4.822258949279785,2.165188789367676,-0.275003582239151,-0.09938661009073257
193,200676,200678,-0.004818332381546497,-0.03974268585443497,0.9854671359062195,12.533367156982422,-9.701595306396484,-3.652230978012085,1.2509374618530273,2.540872812271118,4.817759037017822,2.2773122787475586,-0.049542129039764404,-0.17056189477443695
194,200686,200688,-0.09972797334194183,-0.06067322939634323,1.0309770107269287,18.741273880004883,-11.381035804748535,-4.486733913421631,1.2494374513626099,2.5363731384277344,4.831258296966553,2.2750425338745117,-0.10216567665338516,-0.13769836723804474
195,200696,200698,-0.14587756991386414,-0.06112724915146828,1.0345253944396973,25.063777923583984,-14.047863006591797,-5.26408576965332,1.2509374618530273,2.5348732471466064,4.814759254455566,2.316427230834961,0.1657344251871109,-0.19695156812667847
196,200706,200708,-0.1917596459388733,-0.07070533186197281,1.0371674299240112,32.715579986572266,-17.451215744018555,-5.702091217041016,1.2524373531341553,2.542372941970825,4.834258079528809,2.6207435131073,0.19156481325626373,-0.18642649054527283
197,200716,200718,-0.1774689257144928,-0.088107630610466,1.0477012395858765,40.16912078857422,-21.882787704467773,-5.323408126831055,1.2539372444152832,2.5348732471466064,4.83275842666626,2.9166111946105957,0.6482480764389038,-0.29089677333831787
198,200726,200728,-0.048610005527734756,-0.0769919604063034,1.0232194662094116,43.33503723144531,-22.83246421813965,-2.214029312133789,1.2719364166259766,2.5558722019195557,4.829758644104004,3.121274948120117,0.9055529236793518,-0.28094780445098877
199,200736,200738,0.03501497954130173,-0.002424761885777116,0.9773140549659729,40.16368103027344,-18.600067138671875,2.031061887741089,1.2599369287490845,2.5318734645843506,4.835758209228516,3.2246978282928467,1.5995136499404907,-0.398114413022995
200,200746,200748,0.029312245547771454,0.06390106678009033,0.9830219149589539,32.271915435791016,-11.58497142791748,5.287666320800781,1.2554372549057007,2.5333733558654785,4.8402581214904785,3.4395694732666016,1.840470790863037,-0.31318679451942444
201,200756,200758,0.021643558517098427,0.08153232932090759,1.0128343105316162,16.509906768798828,-1.8232594728469849,6.862491607666016,1.2629368305206299,2.522873878479004,4.823758602142334,3.6388168334960938,2.029444932937622,-0.21261116862297058
202,200766,200768,0.09064200520515442,0.11514346301555634,1.0165284872055054,4.414613246917725,1.8209575414657593,7.691457271575928,1.2689365148544312,2.5288734436035156,4.808759689331055,3.293851375579834,1.990114450454712,-0.08892291784286499
203,200776,200778,-0.0048526874743402,0.008235839195549488,1.0089787244796753,-5.054903984069824,-9.412191390991211,8.02581787109375,1.2599369287490845,2.5378730297088623,4.82675838470459,3.4229702949523926,2.143075466156006,-0.061354346573352814
204,200786,200788,-0.007518782280385494,-0.017644932493567467,1.0256282091140747,-11.517793655395508,-28.262102127075195,6.443861484527588,1.27643620967865,2.521373987197876,4.816258907318115,3.498202323913574,2.0815188884735107,0.003321160329505801
205,200796,200798,-0.0064126900397241116,0.01943863183259964,0.9906308650970459,-9.592781066894531,-42.227500915527344,5.913017272949219,1.2629368305206299,2.522873878479004,4.829758644104004,3.8062989711761475,1.9594712257385254,0.05584504455327988
206,200806,200808,-0.08646465092897415,0.02279794216156006,1.0647010803222656,-0.34565269947052,-45.86870193481445,5.809839248657227,1.27643620967865,2.5303733348846436,4.822258949279785,4.045614242553711,1.8594815731048584,0.0736887976527214
207,200816,200818,-0.1608673632144928,-0.06154588982462883,1.1001471281051636,17.135116577148438,-39.11788558959961,9.965042114257812,1.285435676574707,2.542372941970825,4.834258079528809,4.6254963874816895,2.0720953941345215,0.07051092386245728
208,200826,200828,-0.10169446468353271,-0.07215527445077896,1.0758134126663208,28.132495880126953,-28.00429344177246,19.10130500793457,1.2659367322921753,2.5318734645843506,4.82675838470459,4.980159759521484,2.1413233280181885,0.2630125880241394
209,200836,200838,-0.06635913252830505,-0.049651749432086945,1.0424813032150269,16.24848175048828,-17.464445114135742,26.67235565185547,1.2914353609085083,2.5333733558654785,4.8372578620910645,5.141091823577881,2.361175298690796,0.47022953629493713
210,200846,200848,-0.02911856770515442,0.019674455747008324,1.0277490615844727,-7.347681522369385,-6.635113716125488,28.336307525634766,1.270436406135559,2.521373987197876,4.816258907318115,5.351884365081787,2.4554736614227295,0.7392116189002991
211,200856,200858,-0.018789105117321014,0.06026959419250488,1.0486268997192383,-29.162628173828125,7.836614608764648,27.823442459106445,1.283935785293579,2.5108745098114014,4.823758602142334,5.408968448638916,2.150568723678589,1.1123968362808228
212,200866,200868,-0.04456394165754318,0.04067821055650711,1.0568585395812988,-45.6046142578125,25.704519271850586,26.033620834350586,1.27643620967865,2.5333733558654785,4.822258949279785,5.177897930145264,1.755310297012329,1.3747268915176392
213,200876,200878,-0.12564903497695923,0.0060996501706540585,1.0703537464141846,-47.809635162353516,36.995967864990234,23.37723159790039,1.270436406135559,2.542372941970825,4.822258949279785,4.711394786834717,1.2828847169876099,1.5576772689819336
214,200886,200888,-0.14482174813747406,-0.02829369343817234,1.0325217247009277,-35.016075134277344,35.9921875,20.920087814331055,1.2749361991882324,2.522873878479004,4.823758602142334,4.666265487670898,0.775843620300293,1.9296150207519531
215,200896,200898,-0.13571478426456451,-0.0315069705247879,1.0139280557632446,-10.626436233520508,26.375690460205078,18.12895393371582,1.283935785293579,2.522873878479004,4.817759037017822,4.204499244689941,0.4539189338684082,2.1180412769317627
216,200906,200908,-0.08082336187362671,0.03664859011769295,0.9883549809455872,8.845207214355469,10.85725212097168,13.878649711608887,1.2794359922409058,2.5123744010925293,4.79826021194458,4.095962047576904,0.5208081603050232,2.2476487159729004
217,200916,200918,-0.03944992274045944,0.1003197431564331,0.9971477389335632,13.012744903564453,-8.211984634399414,10.430148124694824,1.2734363079071045,2.494375228881836,4.801259994506836,4.1168437004089355,0.7517391443252563,2.2982797622680664
218,200926,200928,-0.06434489786624908,0.10849682241678238,1.0447838306427002,9.272360801696777,-26.58351707458496,6.690709590911865,1.2749361991882324,2.5138742923736572,4.8117594718933105,4.432585716247559,0.9603436589241028,2.36464524269104
219,200936,200938,-0.0889645516872406,0.046925172209739685,1.0508610010147095,3.1456992626190186,-20.518844604492188,1.043746829032898,1.2689365148544312,2.5138742923736572,4.823758602142334,4.644028186798096,1.0902138948440552,2.349236488342285
220,200946,200948,-0.08613085001707077,-0.005138847045600414,1.0323388576507568,-7.101824760437012,-1.6914716958999634,-4.15831184387207,1.2779361009597778,2.5108745098114014,4.808759689331055,4.847620010375977,1.0124988555908203,2.4148309230804443
221,200956,200958,-0.09668375551700592,-0.025434939190745354,1.013406753540039,-14.348472595214844,17.261877059936523,-9.836714744567871,1.270436406135559,2.497375011444092,4.79826021194458,4.714086532592773,0.8632729649543762,2.3802261352539062
222,200966,200968,-0.0868295356631279,-0.021498264744877815,1.0087536573410034,-19.199542999267578,40.03437805175781,-14.007794380187988,1.270436406135559,2.49137544631958,4.804259777069092,4.37584924697876,0.6228060722351074,2.3107950687408447
223,200976,200978,-0.02529630996286869,0.012119741179049015,1.0118920803070068,-20.7956485748291,55.31942367553711,-14.683775901794434,1.261436939239502,2.518373966217041,4.807259559631348,3.932546854019165,0.33234646916389465,2.247213840484619
224,200986,200988,-0.004964838735759258,-0.01389835774898529,1.0632909536361694,-13.474400520324707,61.67203140258789,-13.896554946899414,1.2659367322921753,2.522873878479004,4.805759429931641,3.227388858795166,0.17066693305969238,2.0624046325683594
225,200996,200998,-0.043682340532541275,-0.09661219269037247,1.0373395681381226,-6.349953651428223,58.338287353515625,-13.089656829833984,1.2584370374679565,2.518373966217041,4.819259166717529,2.942094326019287,0.05950155109167099,2.007873296737671
226,201006,201008,-0.05353979766368866,-0.07135310024023056,0.9863994121551514,-3.797555923461914,50.78627014160156,-12.459939002990723,1.2554372549057007,2.5033748149871826,4.804259777069092,2.1725428104400635,0.02543557435274124,1.825836420059204
227,201016,201018,0.009540630504488945,0.0294074397534132,0.9912962317466736,-2.1960692405700684,42.365604400634766,-13.151604652404785,1.2434377670288086,2.5033748149871826,4.789260387420654,1.891808032989502,-0.11521401256322861,1.8146076202392578
228,201026,201028,0.03133193030953407,0.01849423348903656,1.0170776844024658,1.8057787418365479,35.50634765625,-14.38341236114502,1.2419378757476807,2.4988749027252197,4.796760082244873,1.500831961631775,-0.06637532263994217,1.649045705795288
229,201036,201038,-0.017520925030112267,0.0006143314531072974,1.0064367055892944,5.825955867767334,31.64179229736328,-16.295642852783203,1.2494374513626099,2.494375228881836,4.789260387420654,1.1889355182647705,-0.024634644389152527,1.4993896484375
230,201046,201048,-0.03092179261147976,0.0012423052685335279,0.9602687954902649,6.834123134613037,27.510446548461914,-17.401443481445312,1.2434377670288086,2.5063745975494385,4.79226016998291,1.0663716793060303,0.12339512258768082,1.3238446712493896
231,201056,201058,-0.03656281903386116,-0.007344826590269804,0.9513313174247742,5.7781853675842285,23.412187576293945,-17.800128936767578,1.2359381914138794,2.495875120162964,4.793760299682617,0.8754841685295105,0.19588258862495422,1.1586263179779053
232,201066,201068,-0.045446086674928665,-0.007946791127324104,0.9529226422309875,4.347882270812988,22.676759719848633,-16.589885711669922,1.2419378757476807,2.495875120162964,4.799759864807129,0.5831871032714844,0.24610811471939087,0.9758847951889038
233,201076,201078,-0.03850655257701874,-0.00434411596506834,0.9315019845962524,6.442170143127441,26.03336524963379,-14.31671142578125,1.232938289642334,2.5018749237060547,4.796760082244873,0.40470996499061584,0.2240656167268753,0.849454939365387
234,201086,201088,-0.05991481989622116,0.05267556011676788,0.9245085716247559,11.570874214172363,26.98653221130371,-12.684267044067383,1.2344383001327515,2.5003750324249268,4.79226016998291,0.2454342395067215,0.4054309129714966,0.692145049571991
235,201096,201098,-0.048655278980731964,0.03676539286971092,0.9212669730186462,18.406099319458008,34.350860595703125,-10.610538482666016,1.2344383001327515,2.494375228881836,4.789260387420654,-0.1813744157552719,0.4141795039176941,0.5922587513923645
236,201106,201108,-0.0434810034930706,-0.020751062780618668,0.9077824950218201,20.113290786743164,37.581241607666016,-9.31701946258545,1.2299385070800781,2.5078744888305664,4.805759429931641,-0.5595884919166565,0.7686601877212524,0.45268383622169495
237,201116,201118,-0.05706527829170227,0.03967856615781784,0.8937696814537048,14.684063911437988,35.0346794128418,-7.939284801483154,1.2209389209747314,2.492875337600708,4.7877607345581055,-0.9458262920379639,0.8676156401634216,0.38112905621528625
238,201126,201128,-0.05590968579053879,0.023936929181218147,0.9191409945487976,11.512777328491211,24.9220027923584,-2.5997114181518555,1.231438398361206,2.5003750324249268,4.79826021194458,-1.0823068618774414,0.8257344961166382,0.3655879497528076
239,201136,201138,-0.015444892458617687,-0.010805544443428516,0.9412349462509155,7.871094226837158,14.50322151184082,2.8478851318359375,1.2299385070800781,2.5078744888305664,4.793760299682617,-1.1968944072723389,1.0253148078918457,0.36403751373291016
240,201146,201148,-0.03245176374912262,-0.026532139629125595,0.9354208707809448,8.591444969177246,9.241374969482422,6.252665042877197,1.2359381914138794,2.5138742923736572,4.796760082244873,-1.3297840356826782,1.1911957263946533,0.4009406268596649
241,201156,201158,-0.03339771553874016,-0.02993590570986271,0.9401015043258667,15.826972961425781,7.461347579956055,9.747249603271484,1.2254387140274048,2.5003750324249268,4.8102593421936035,-1.4763399362564087,1.1376432180404663,0.4625431001186371
242,201166,201168,-0.03480996564030647,-0.032813478261232376,0.937085747718811,20.171056747436523,6.143975734710693,12.739250183105469,1.2179391384124756,2.5018749237060547,4.805759429931641,-1.651766300201416,1.3354793787002563,0.5560999512672424
243,201176,201178,-0.04020080342888832,-0.04839111864566803,0.9171724319458008,17.926212310791016,9.20556640625,14.918439865112305,1.232938289642334,2.5078744888305664,4.814759254455566,-1.751010775566101,1.55414879322052,0.6882412433624268
244,201186,201188,-0.02565164491534233,-0.030212165787816048,0.9195301532745361,12.31818962097168,16.978004455566406,15.908406257629395,1.2344383001327515,2.5063745975494385,4.804259777069092,-1.8662221431732178,1.7678025960922241,0.8492295742034912
245,201196,201198,-0.02554943412542343,-0.02087247371673584,0.9305379390716553,9.560860633850098,24.13888168334961,16.428142547607422,1.2269386053085327,2.5318734645843506,4.8117594718933105,-1.902331829071045,1.775012731552124,1.017845630645752
246,201206,201208,-0.00023667269852012396,-0.018434809520840645,0.9266554117202759,6.3162126541137695,27.029333114624023,15.70781135559082,1.232938289642334,2.5138742923736572,4.814759254455566,-2.3779296875,1.8098759651184082,1.1330585479736328
247,201216,201218,0.002909704577177763,-0.02245337888598442,0.9168501496315002,1.8604981899261475,27.163597106933594,15.428336143493652,1.2209389209747314,2.5258736610412598,4.814759254455566,-2.5178720951080322,1.9271854162216187,1.3401658535003662
248,201226,201228,0.0003894871915690601,-0.02733544073998928,0.9106209874153137,-4.046208381652832,21.272056579589844,14.538555145263672,1.2239388227462769,2.5348732471466064,4.820758819580078,-2.7561519145965576,1.9517806768417358,1.5090245008468628
249,201236,201238,-0.020128285512328148,-0.0071084932424128056,0.945675790309906,-6.972202777862549,10.94323444366455,13.057376861572266,1.2284384965896606,2.545372724533081,4.828258514404297,-3.01346755027771,1.7458218336105347,1.5833309888839722
250,201246,201248,-0.030660556629300117,0.012408407405018806,0.9541485905647278,-8.0076322555542,-5.1257524490356445,15.357227325439453,1.2344383001327515,2.5393729209899902,4.816258907318115,-3.0427372455596924,1.7364413738250732,1.7522109746932983
251,201256,201258,-0.019776390865445137,-0.006609650794416666,0.9447242617607117,-4.255450248718262,-18.85550308227539,17.924758911132812,1.2299385070800781,2.540872812271118,4.820758819580078,-2.8863301277160645,1.5991579294204712,1.892944574356079
252,201266,201268,-0.07457157224416733,0.017456453293561935,0.9936383962631226,4.969575881958008,-26.834213256835938,19.39433479309082,1.2224388122558594,2.548372507095337,4.8402581214904785,-2.8349595069885254,1.7196073532104492,2.096942663192749
253,201276,201278,-0.11713184416294098,0.055857568979263306,1.0223230123519897,13.87935733795166,-30.368127822875977,20.499961853027344,1.2284384965896606,2.5543723106384277,4.84625768661499,-2.4507226943969727,1.9259175062179565,2.3646159172058105
254,201286,201288,-0.12235694378614426,0.055843815207481384,1.0111708641052246,14.704855918884277,-28.58588981628418,21.887004852294922,1.2269386053085327,2.570871353149414,4.853757381439209,-2.339488983154297,2.1188457012176514,2.5367374420166016
255,201296,201298,-0.06695157289505005,0.02079259790480137,1.0140635967254639,3.596327066421509,-20.248680114746094,22.553951263427734,1.232938289642334,2.5648717880249023,4.853757381439209,-2.0859978199005127,2.223156213760376,2.7331807613372803
256,201306,201308,-0.027254825457930565,-0.04188178852200508,0.9984622597694397,-14.274044036865234,-15.919816970825195,20.011978149414062,1.2404379844665527,2.5603718757629395,4.855257034301758,-1.9251549243927002,2.0886473655700684,2.86324405670166
257,201316,201318,-0.017295626923441887,0.012525034137070179,1.0391488075256348,-27.313016891479492,-7.202307224273682,16.07657241821289,1.2434377670288086,2.5633718967437744,4.849257469177246,-1.7302329540252686,1.9035345315933228,3.0568416118621826
258,201326,201328,-0.014083734713494778,-0.0026560076512396336,1.0533313751220703,-31.336605072021484,3.7772843837738037,12.489526748657227,1.2359381914138794,2.5588719844818115,4.847757339477539,-1.7802485227584839,1.4920779466629028,3.116353988647461
259,201336,201338,-0.02364918775856495,-0.00040774981607683003,1.0888886451721191,-23.745807647705078,9.064245223999023,10.791025161743164,1.2299385070800781,2.5798709392547607,4.850757598876953,-1.879598617553711,1.3346638679504395,3.300811290740967
260,201346,201348,-0.04238371178507805,0.01608230732381344,1.1273550987243652,-7.328035831451416,7.343547821044922,10.979202270507812,1.247937560081482,2.567871570587158,4.847757339477539,-2.00788950920105,1.1512452363967896,3.4053218364715576
261,201356,201358,-0.031228458508849144,0.003689279081299901,1.0964930057525635,4.73099946975708,2.846216917037964,11.330350875854492,1.2359381914138794,2.570871353149414,4.859756946563721,-1.936501145362854,1.2887595891952515,3.6480114459991455
262,201366,201368,-0.07006414234638214,-0.011707880534231663,1.0796362161636353,9.060096740722656,-5.886255264282227,9.934505462646484,1.231438398361206,2.5513722896575928,4.861257076263428,-2.0455546379089355,1.403023362159729,3.7591190338134766
263,201376,201378,-0.08067786693572998,-0.02028013952076435,1.071784257888794,8.843501091003418,-18.610544204711914,7.757627964019775,1.2359381914138794,2.5648717880249023,4.853757381439209,-1.8988595008850098,1.1900019645690918,3.683845281600952
264,201386,201388,-0.05316906049847603,0.03167113661766052,1.064503788948059,5.537248134613037,-30.78562355041504,5.713389873504639,1.232938289642334,2.5618717670440674,4.841757774353027,-1.906433343887329,1.3213146924972534,3.72184681892395
265,201396,201398,-0.05369822680950165,0.022211140021681786,1.0502946376800537,-2.569152355194092,-41.794918060302734,2.8195483684539795,1.2374380826950073,2.5393729209899902,4.8372578620910645,-1.4919438362121582,1.509060263633728,3.862744092941284
266,201406,201408,-0.04110824689269066,-0.010914704762399197,1.0503085851669312,-9.87512493133545,-47.74468231201172,0.26884725689888,1.2419378757476807,2.546872615814209,4.835758209228516,-0.933897078037262,1.3906370401382446,3.8642940521240234
267,201416,201418,-0.037126462906599045,-0.007026772014796734,1.0518288612365723,-13.087146759033203,-47.43999481201172,-1.4344923496246338,1.2584370374679565,2.5513722896575928,4.822258949279785,-0.5442978739738464,1.2016891241073608,3.7849955558776855
268,201426,201428,-0.06956641376018524,-0.0769549235701561,1.0585635900497437,-15.666340827941895,-43.39134216308594,-4.11125373840332,1.2374380826950073,2.5273735523223877,4.825258731842041,-0.11676178127527237,1.2437955141067505,3.8392837047576904
269,201436,201438,-0.0625271424651146,-0.07434152811765671,1.0470402240753174,-19.505178451538086,-30.829132080078125,-9.003273010253906,1.231438398361206,2.518373966217041,4.828258514404297,0.4507969319820404,1.2147406339645386,3.881028413772583
270,201446,201448,-0.05986788123846054,-0.013476486317813396,1.0554105043411255,-11.52767562866211,-14.98850154876709,-13.290334701538086,1.244937777519226,2.5378730297088623,4.814759254455566,0.5060366988182068,0.9123203754425049,3.6710450649261475
271,201456,201458,-0.06085200235247612,-0.028092363849282265,1.0376373529434204,3.995502471923828,-0.8179165124893188,-14.44322681427002,1.246437668800354,2.545372724533081,4.819259166717529,0.4566120505332947,0.9526960849761963,3.544710636138916
272,201466,201468,-0.035021957010030746,-0.004615789745002985,1.0441157817840576,23.79277801513672,6.355186462402344,-14.374695777893066,1.246437668800354,2.5303733348846436,4.822258949279785,0.3840978145599365,1.131146788597107,3.420388698577881
273,201476,201478,-0.07270406186580658,-0.021363142877817154,1.0520349740982056,38.93191146850586,13.580765724182129,-12.622591972351074,1.247937560081482,2.5348732471466064,4.82675838470459,0.2748774290084839,1.5284892320632935,3.3174378871917725
274,201486,201488,-0.056304674595594406,-0.03216192126274109,1.0166867971420288,49.11842727661133,17.509315490722656,-9.5911865234375,1.244937777519226,2.543872833251953,4.835758209228516,0.20263755321502686,1.6420559883117676,3.1172280311584473
275,201496,201498,-0.05962216854095459,-0.03414877504110336,1.002254843711853,48.95772933959961,19.051727294921875,-5.105020523071289,1.2539372444152832,2.519873857498169,4.829758644104004,0.02126452885568142,2.355020761489868,3.1063766479492188
276,201506,201508,-0.039725370705127716,-0.032741088420152664,0.9904370307922363,34.29014587402344,15.29753589630127,-1.521016001701355,1.2404379844665527,2.5273735523223877,4.828258514404297,-0.15132257342338562,2.8889622688293457,3.100491523742676
277,201516,201518,-0.04016025364398956,-0.026970332488417625,1.0004018545150757,7.485281944274902,8.248388290405273,0.37297627329826355,1.2404379844665527,2.515374183654785,4.8372578620910645,-0.2378213256597519,2.9993631839752197,3.064110517501831
278,201526,201528,-0.03598199412226677,-0.03478226065635681,0.9940995573997498,-22.044597625732422,-0.42335012555122375,3.1655378341674805,1.2299385070800781,2.5138742923736572,4.8117594718933105,-0.26603785157203674,2.931048631668091,3.070131301879883
279,201536,201538,-0.04240995645523071,-0.036262210458517075,0.9767317175865173,-46.74108123779297,-9.468948364257812,4.090832710266113,1.2494374513626099,2.518373966217041,4.807259559631348,-0.2196359634399414,2.4689602851867676,3.066737174987793
280,201546,201548,-0.07180822640657425,-0.04392998665571213,0.982326090335846,-73.11076354980469,-20.667682647705078,4.010500907897949,1.2404379844665527,2.5333733558654785,4.819259166717529,-0.06936424970626831,1.9427943229675293,3.1133873462677
281,201556,201558,-0.03021741472184658,0.005775338504463434,1.0346903800964355,-86.94136047363281,-25.560720443725586,3.70837664604187,1.2629368305206299,2.543872833251953,4.817759037017822,0.20646896958351135,0.9612299799919128,3.1128625869750977
282,201566,201568,-0.020493995398283005,-0.014652041718363762,1.01933753490448,-91.6216812133789,-26.03826141357422,4.04327917098999,1.2584370374679565,2.5573720932006836,4.843257904052734,0.5276331901550293,0.30318892002105713,3.2143232822418213
283,201576,201578,-0.029502898454666138,-0.021521730348467827,1.0346170663833618,-81.85631561279297,-22.828655242919922,3.091426134109497,1.2389379739761353,2.5558722019195557,4.8387579917907715,0.6855677962303162,-0.6846716403961182,3.2130987644195557
284,201586,201588,-0.03012036718428135,0.010105505585670471,1.0683586597442627,-59.618568420410156,-14.1531400680542,2.3908026218414307,1.261436939239502,2.5603718757629395,4.8402581214904785,0.967970073223114,-1.1434731483459473,3.3099188804626465
285,201596,201598,-0.03933722898364067,0.004640136379748583,1.0390275716781616,-22.88102149963379,1.872696876525879,1.7414391040802002,1.2659367322921753,2.540872812271118,4.808759689331055,0.9827685356140137,-1.5670415163040161,3.331639289855957
286,201606,201608,-0.053855765610933304,-0.06504125148057938,1.0358707904815674,8.99700927734375,18.420448303222656,1.7518808841705322,1.2359381914138794,2.5318734645843506,4.814759254455566,0.8416666388511658,-1.7423394918441772,3.332963705062866
287,201616,201618,-0.04958833381533623,-0.11235592514276505,1.0068312883377075,33.892520904541016,29.18550682067871,3.1783535480499268,1.2419378757476807,2.5288734436035156,4.82675838470459,0.4814038872718811,-1.4322195053100586,3.3520219326019287
288,201626,201628,-0.05655962973833084,-0.025266459211707115,0.9994515776634216,44.3942756652832,24.505657196044922,5.209855079650879,1.2359381914138794,2.5528724193573,4.844757556915283,0.21114681661128998,-1.1942116022109985,3.3700406551361084
289,201636,201638,-0.0674833357334137,-0.08528470993041992,0.9194487929344177,43.065834045410156,11.07097053527832,6.988034725189209,1.2419378757476807,2.543872833251953,4.835758209228516,0.16183976829051971,-0.5245969891548157,3.4395692348480225
290,201646,201648,-0.11290570348501205,-0.07622551918029785,0.9393214583396912,27.936399459838867,-3.1178386211395264,9.442769050598145,1.2419378757476807,2.5258736610412598,4.82675838470459,-0.0025967347901314497,-0.27651798725128174,3.5111629962921143
291,201656,201658,-0.08410850167274475,0.015231606550514698,0.9215102791786194,1.8583439588546753,-12.550285339355469,9.982024192810059,1.2359381914138794,2.519873857498169,4.817759037017822,0.17251834273338318,-0.0975167527794838,3.60270357131958
292,201666,201668,0.011680550873279572,0.06829630583524704,0.9500599503517151,-19.115461349487305,-18.16407012939453,9.531343460083008,1.244937777519226,2.516874074935913,4.814759254455566,0.3859948515892029,-0.10737728327512741,3.7006313800811768
293,201676,201678,0.040812451392412186,0.0368826687335968,0.9609956741333008,-29.560609817504883,-17.007144927978516,8.483879089355469,1.2494374513626099,2.5303733348846436,4.804259777069092,0.35082879662513733,-0.36408981680870056,3.8080787658691406
294,201686,201688,0.011823463253676891,-0.013746915385127068,0.9767023921012878,-34.645729064941406,-9.849813461303711,6.937554836273193,1.2434377670288086,2.521373987197876,4.79826021194458,0.34694623947143555,-0.9441009163856506,3.888253927230835
295,201696,201698,0.014708511531352997,0.010622547939419746,0.9783388376235962,-34.407798767089844,-3.318588972091675,5.386035442352295,1.2419378757476807,2.5288734436035156,4.808759689331055,0.5743964910507202,-1.3359776735305786,3.9381322860717773
296,201706,201708,0.051407597959041595,0.004166114144027233,0.9447358846664429,-29.537809371948242,4.643451690673828,4.442328929901123,1.2539372444152832,2.522873878479004,4.817759037017822,0.527454137802124,-1.5370265245437622,3.998077392578125
297,201716,201718,0.03177450969815254,-0.013387576676905155,0.9255454540252686,-20.224693298339844,11.78734302520752,2.663593053817749,1.2434377670288086,2.5363731384277344,4.819259166717529,0.4329111576080322,-1.9000272750854492,4.035677433013916
298,201726,201728,0.008688331581652164,0.034062255173921585,0.9496034979820251,-12.298377990722656,13.090654373168945,-0.02421877346932888,1.2419378757476807,2.5348732471466064,4.814759254455566,0.3477385342121124,-1.9051592350006104,4.046834468841553
299,201736,201738,0.01890690252184868,-0.010166622698307037,0.9461003541946411,-6.417046070098877,10.002363204956055,-3.0427324771881104,1.2494374513626099,2.5273735523223877,4.819259166717529,0.20135928690433502,-2.022181272506714,4.035009384155273
300,201746,201748,-0.0030086426995694637,-0.05191243812441826,0.9584337472915649,0.1332404911518097,-1.072913408279419,-5.556797504425049,1.2524373531341553,2.542372941970825,4.8102593421936035,0.15551742911338806,-2.0430965423583984,3.9895806312561035
301,201756,201758,-0.0217623058706522,-0.030826948583126068,1.0242245197296143,5.8586225509643555,-12.006722450256348,-6.848968029022217,1.247937560081482,2.519873857498169,4.823758602142334,0.31313076615333557,-1.8291518688201904,3.906370162963867
302,201766,201768,-0.0159954521805048,-0.03645116463303566,1.0011543035507202,12.58441162109375,-21.048826217651367,-7.600438594818115,1.2419378757476807,2.5288734436035156,4.814759254455566,0.4220842719078064,-1.7175521850585938,3.8528339862823486
303,201776,201778,-0.0029561424162238836,-0.07611430436372757,0.9605710506439209,14.157538414001465,-24.777725219726562,-8.146623611450195,1.2554372549057007,2.524373769760132,4.828258514404297,0.5673629641532898,-1.748704433441162,3.806941032409668
304,201786,201788,-0.01917368732392788,-0.0890939012169838,0.96921706199646,10.41087532043457,-25.630292892456055,-9.643266677856445,1.2494374513626099,2.5333733558654785,4.825258731842041,0.8127598166465759,-1.6558454036712646,3.72916579246521
305,201796,201798,0.0010358981089666486,-0.05980495363473892,0.9999075531959534,5.914347171783447,-20.850479125976562,-10.562002182006836,1.2584370374679565,2.524373769760132,4.834258079528809,1.169979214668274,-1.5476047992706299,3.601670026779175
306,201806,201808,0.03532810136675835,-0.08905981481075287,0.9734067916870117,0.08908016234636307,-10.933277130126953,-11.422881126403809,1.247937560081482,2.522873878479004,4.82675838470459,1.1173131465911865,-1.4507131576538086,3.569662094116211
307,201816,201818,0.04370160773396492,-0.10882395505905151,0.9448878765106201,-1.0225566625595093,0.5927130579948425,-11.729631423950195,1.2539372444152832,2.5378730297088623,4.82675838470459,1.244574785232544,-1.4900699853897095,3.437124490737915
308,201826,201828,-0.026029059663414955,-0.08473819494247437,0.9466164112091064,1.0255755186080933,12.301682472229004,-11.72014045715332,1.2509374618530273,2.5318734645843506,4.8117594718933105,1.114676833152771,-1.4437273740768433,3.3429088592529297
309,201836,201838,0.0061926934868097305,0.0036159351002424955,0.993158757686615,4.465435981750488,21.330753326416016,-11.305525779724121,1.2584370374679565,2.548372507095337,4.828258514404297,0.8973398804664612,-1.4206222295761108,3.246860980987549
310,201846,201848,0.07009212672710419,-0.004240571521222591,0.9922242760658264,7.80578088760376,23.723146438598633,-11.667734146118164,1.2359381914138794,2.546872615814209,4.82675838470459,0.7092908024787903,-1.4820621013641357,3.122377395629883
311,201856,201858,0.08229479938745499,-0.01706414856016636,1.0017086267471313,14.227381706237793,14.263971328735352,-10.965472221374512,1.2494374513626099,2.5513722896575928,4.8402581214904785,0.44672897458076477,-1.3174843788146973,3.0143797397613525
312,201866,201868,0.05596324801445007,-0.034052927047014236,0.9742903709411621,17.811813354492188,0.5223032236099243,-9.659073829650879,1.2659367322921753,2.5558722019195557,4.829758644104004,0.3862217366695404,-1.1353340148925781,2.8931727409362793
313,201876,201878,0.0367860309779644,-0.06499971449375153,0.9392281174659729,14.878265380859375,-9.781331062316895,-8.583712577819824,1.244937777519226,2.5378730297088623,4.829758644104004,0.5169505476951599,-1.0171958208084106,2.7697482109069824
314,201886,201888,0.05331163480877876,-0.05374910309910774,0.9493145942687988,5.522032737731934,-15.121427536010742,-7.261329174041748,1.2584370374679565,2.5543723106384277,4.825258731842041,0.5529264807701111,-0.8652458786964417,2.714202880859375
315,201896,201898,0.053280144929885864,0.011437961831688881,1.0288437604904175,-4.7627339363098145,-23.999662399291992,-6.561891555786133,1.2524373531341553,2.5513722896575928,4.834258079528809,0.7691884636878967,-0.8783078789710999,2.6354246139526367
316,201906,201908,0.04548542946577072,-0.005945505108684301,1.0143438577651978,-13.214011192321777,-39.37804412841797,-8.101717948913574,1.2584370374679565,2.545372724533081,4.825258731842041,1.0539665222167969,-1.0294145345687866,2.580806255340576
317,201916,201918,0.01380017027258873,-0.007834026589989662,1.0021741390228271,-18.30419921875,-56.487548828125,-9.60565185546875,1.2599369287490845,2.5528724193573,4.835758209228516,1.6111735105514526,-1.1601494550704956,2.4660260677337646
318,201926,201928,-0.01260308362543583,0.02061045542359352,0.9854223132133484,-10.680441856384277,-68.49481201171875,-10.180760383605957,1.27643620967865,2.5603718757629395,4.852257251739502,2.110711097717285,-1.3997604846954346,2.4266531467437744
319,201936,201938,-0.027236836031079292,0.10456705838441849,1.087334156036377,1.5517661571502686,-68.41561126708984,-10.336567878723145,1.270436406135559,2.5813708305358887,4.84625768661499,2.987650156021118,-1.4563660621643066,2.2824838161468506
320,201946,201948,-0.04629119485616684,-0.013904414139688015,1.1208362579345703,5.679561138153076,-48.78193283081055,-8.959665298461914,1.283935785293579,2.5798709392547607,4.859756946563721,3.4154417514801025,-1.228789210319519,2.2259633541107178
321,201956,201958,-0.10093634575605392,-0.046058233827352524,1.158565640449524,1.8766528367996216,-10.328277587890625,-8.377896308898926,1.27643620967865,2.5513722896575928,4.8402581214904785,3.862252712249756,-1.1707332134246826,2.1202902793884277
322,201966,201968,-0.10302160680294037,-0.020895693451166153,1.1104398965835571,-3.4281809329986572,28.12299346923828,-10.983585357666016,1.2659367322921753,2.5618717670440674,4.8387579917907715,3.726433277130127,-1.1951533555984497,2.068020820617676
323,201976,201978,-0.0796143040060997,-0.03141641244292259,1.108203411102295,-4.73659610748291,53.33127212524414,-12.007013320922852,1.2659367322921753,2.567871570587158,4.835758209228516,3.337512731552124,-1.2593631744384766,1.958181619644165
324,201986,201988,-0.04983305558562279,-0.0015792514896020293,1.1601593494415283,5.634549617767334,58.01857376098633,-11.750261306762695,1.246437668800354,2.5603718757629395,4.8372578620910645,2.499940872192383,-1.39011549949646,1.9483017921447754
325,201996,201998,-0.0415547750890255,0.015481920912861824,1.1543055772781372,20.557403564453125,52.28218460083008,-10.826275825500488,1.261436939239502,2.542372941970825,4.8402581214904785,2.2003533840179443,-1.0839449167251587,1.6760269403457642
326,202006,202008,-0.06794063001871109,-0.04722975939512253,1.1392781734466553,31.83973503112793,39.26213073730469,-9.880505561828613,1.2434377670288086,2.521373987197876,4.816258907318115,1.6869572401046753,-0.9198269844055176,1.600062608718872
327,202016,202018,-0.08894827961921692,-0.04313116893172264,1.102291464805603,33.10994338989258,13.658354759216309,-7.919022560119629,1.2524373531341553,2.5093743801116943,4.804259777069092,1.5485137701034546,-0.5718963742256165,1.4479379653930664
328,202026,202028,-0.07555510848760605,-0.03229184076189995,1.0377016067504883,24.974946975708008,-8.914015769958496,-4.332711219787598,1.2509374618530273,2.5048747062683105,4.793760299682617,1.6591147184371948,-0.2304084748029709,1.31392240524292
329,202036,202038,-0.1306629329919815,-0.0712847113609314,1.0041948556900024,9.39421558380127,-26.54955291748047,-2.5732340812683105,1.2554372549057007,2.515374183654785,4.795259952545166,1.8196555376052856,-0.031300853937864304,1.2780767679214478
330,202046,202048,-0.17144444584846497,-0.08217273652553558,1.0281157493591309,2.874555826187134,-28.244550704956055,-1.8055856227874756,1.261436939239502,2.5033748149871826,4.777261257171631,2.26773738861084,0.06124438717961311,1.206575632095337
331,202056,202058,-0.11548120528459549,-0.0435430184006691,1.051973581314087,1.3156254291534424,-19.55592155456543,-1.1380103826522827,1.2629368305206299,2.4988749027252197,4.793760299682617,2.5014803409576416,0.10833586007356644,1.1922626495361328
332,202066,202068,-0.02309400402009487,0.03047993779182434,1.027600646018982,-3.7527365684509277,-7.714850902557373,-1.5918875932693481,1.2734363079071045,2.4823758602142334,4.789260387420654,2.688882827758789,0.09258595108985901,1.1802093982696533
333,202076,202078,-0.0003633562591858208,0.031983185559511185,0.9743536114692688,-8.993959426879883,9.933834075927734,-1.6129703521728516,1.2509374618530273,2.462876796722412,4.772761344909668,2.6177186965942383,-0.007652522996068001,1.1963399648666382
334,202086,202088,-0.052690133452415466,0.0005523163708858192,0.9711507558822632,-9.057882308959961,24.95648193359375,-2.2850005626678467,1.270436406135559,2.4793760776519775,4.771261215209961,2.438150644302368,-0.14987576007843018,1.2039790153503418
335,202096,202098,-0.0801488384604454,-0.03892406076192856,0.9252102375030518,-4.4986066818237305,42.09980010986328,-2.5144262313842773,1.2524373531341553,2.4853756427764893,4.765261650085449,2.1298768520355225,-0.2522459328174591,1.1895294189453125
336,202106,202108,-0.09099529683589935,-0.0012462743325158954,0.9123905897140503,1.6395405530929565,55.65351867675781,-2.7810869216918945,1.2599369287490845,2.489875555038452,4.784760475158691,1.423351526260376,-0.2524600923061371,1.1898047924041748
337,202116,202118,-0.06819808483123779,0.05054107680916786,0.9346780180931091,6.463109970092773,64.07475280761719,-4.915238857269287,1.2434377670288086,2.5003750324249268,4.789260387420654,1.0353412628173828,-0.30193614959716797,1.1561756134033203
338,202126,202128,-0.06695041805505753,0.024455824866890907,0.9575707912445068,8.232804298400879,60.273616790771484,-8.098844528198242,1.2539372444152832,2.489875555038452,4.7877607345581055,0.3480302393436432,-0.16910220682621002,1.0785961151123047
339,202136,202138,-0.09793808311223984,-0.022125249728560448,0.9576480984687805,11.570626258850098,50.80809783935547,-11.804841041564941,1.246437668800354,2.494375228881836,4.79226016998291,-0.08233175426721573,-0.2738701403141022,1.0266225337982178
340,202146,202148,-0.10431849956512451,-0.021564096212387085,0.9439696669578552,16.93067169189453,36.23109817504883,-15.890144348144531,1.2389379739761353,2.495875120162964,4.7817606925964355,-0.670248806476593,0.055816493928432465,0.8607249855995178
341,202156,202158,-0.05422142893075943,-0.0275372676551342,0.9469495415687561,27.450946807861328,14.261157989501953,-19.432750701904297,1.2299385070800781,2.471876382827759,4.766761779785156,-0.8348504304885864,0.082427479326725,0.7137460112571716
342,202166,202168,-0.011558652855455875,-0.018045799806714058,0.9309533834457397,38.06272888183594,-1.1391594409942627,-21.89371109008789,1.244937777519226,2.471876382827759,4.766761779785156,-0.8368726372718811,0.5719676613807678,0.47149011492729187
343,202176,202178,-0.015793103724718094,-0.004555120598524809,0.9257203936576843,43.35917282104492,-13.426854133605957,-23.835647583007812,1.2254387140274048,2.494375228881836,4.786260604858398,-0.6957861185073853,0.897896945476532,0.24547891318798065
344,202186,202188,-0.05069638043642044,-0.03711371123790741,0.940947413444519,40.901180267333984,-16.355148315429688,-24.262109756469727,1.2269386053085327,2.4988749027252197,4.7817606925964355,-0.5115162134170532,1.2495895624160767,0.007630969863384962
345,202196,202198,-0.06539466232061386,-0.06615656614303589,0.9066535234451294,28.193889617919922,-17.59941864013672,-24.1138973236084,1.2179391384124756,2.4808759689331055,4.784760475158691,-0.2819594740867615,1.4891928434371948,-0.23172807693481445
346,202206,202208,-0.05152090638875961,-0.07668221741914749,0.9114900827407837,14.740377426147461,-16.22637939453125,-24.610260009765625,1.2179391384124756,2.486875534057617,4.7817606925964355,-0.20212143659591675,1.8009562492370605,-0.481672078371048
347,202216,202218,0.0042936536483466625,-0.04076937213540077,0.9008867740631104,4.465167045593262,-12.846967697143555,-27.172739028930664,1.2224388122558594,2.4823758602142334,4.780261039733887,-0.02735600434243679,1.9005168676376343,-0.739993691444397
348,202226,202228,-0.038374803960323334,-0.06808328628540039,0.8893614411354065,-6.240870952606201,-0.28282803297042847,-28.965221405029297,1.232938289642334,2.489875555038452,4.7877607345581055,0.08245956152677536,1.8913755416870117,-1.0209935903549194
349,202236,202238,-0.054894644767045975,-0.08239571750164032,0.9090675711631775,-4.163969039916992,14.26095199584961,-28.29178810119629,1.2269386053085327,2.489875555038452,4.790760517120361,0.055784158408641815,1.795467734336853,-1.3086342811584473
350,202246,202248,0.013289621099829674,-0.0009102446492761374,0.9770110845565796,6.250281810760498,21.669727325439453,-24.78663444519043,1.2269386053085327,2.495875120162964,4.796760082244873,-0.16240952908992767,1.81501042842865,-1.5843870639801025
351,202256,202258,-0.015580377541482449,-0.061314843595027924,0.9131311774253845,21.73492431640625,22.313091278076172,-19.8975830078125,1.2239388227462769,2.5078744888305664,4.790760517120361,-0.44445720314979553,2.0500662326812744,-1.8162786960601807
352,202266,202268,-0.005720789078623056,-0.051982901990413666,0.922444760799408,31.665143966674805,23.070886611938477,-16.843273162841797,1.2209389209747314,2.5078744888305664,4.808759689331055,-0.790840744972229,2.420382499694824,-2.0112552642822266
353,202276,202278,-0.0232488252222538,-0.07441549003124237,0.9152598977088928,28.19266700744629,27.90598487854004,-15.267921447753906,1.2269386053085327,2.495875120162964,4.793760299682617,-0.9662842154502869,2.4262681007385254,-2.1729183197021484
354,202286,202288,-0.01955086924135685,-0.0777045488357544,0.9103909134864807,14.481605529785156,35.85395050048828,-12.684868812561035,1.2284384965896606,2.5033748149871826,4.79226016998291,-1.404003381729126,2.7870559692382812,-2.3219687938690186
355,202296,202298,0.02480088360607624,-0.022225774824619293,0.899803876876831,2.058245897293091,34.69101333618164,-8.72403335571289,1.2374380826950073,2.521373987197876,4.79226016998291,-1.7560091018676758,2.8467092514038086,-2.4208996295928955
356,202306,202308,-0.022986404597759247,-0.09539832919836044,0.95363450050354,-11.386626243591309,29.157527923583984,-7.501394271850586,1.232938289642334,2.4988749027252197,4.796760082244873,-2.173007011413574,2.7627527713775635,-2.5174264907836914
357,202316,202318,-0.04692309349775314,-0.12279577553272247,0.976079523563385,-26.991933822631836,19.408952713012695,-6.776948928833008,1.2209389209747314,2.5108745098114014,4.790760517120361,-2.1562681198120117,2.7884023189544678,-2.4652810096740723
358,202326,202328,-0.01720292866230011,-0.04807091876864433,0.9970205426216125,-36.720333099365234,13.133323669433594,-5.636286735534668,1.2359381914138794,2.519873857498169,4.802759647369385,-2.457012176513672,2.312349557876587,-2.5984270572662354
359,202336,202338,-0.02815883606672287,-0.07283278554677963,0.9674564003944397,-37.22370529174805,7.299043655395508,-5.252346515655518,1.2389379739761353,2.516874074935913,4.802759647369385,-2.654413938522339,1.9728419780731201,-2.6677334308624268
360,202346,202348,-0.03367679566144943,-0.07461576163768768,0.9699572324752808,-29.39488410949707,0.3678322434425354,-4.974587917327881,1.2359381914138794,2.5138742923736572,4.799759864807129,-2.7420618534088135,1.690165638923645,-2.7064168453216553
361,202356,202358,-0.022136254236102104,-0.08081191778182983,0.9936911463737488,-18.180490493774414,-5.5885796546936035,-4.944489002227783,1.2344383001327515,2.524373769760132,4.8102593421936035,-2.7084944248199463,1.6400330066680908,-2.6820950508117676
362,202366,202368,-0.02053433284163475,-0.05537557601928711,1.0040591955184937,-5.329378128051758,-9.292716026306152,-4.9896240234375,1.2209389209747314,2.519873857498169,4.808759689331055,-2.601457118988037,1.4853079319000244,-2.724660873413086
363,202376,202378,-0.025446543470025063,-0.060963522642850876,0.9589959383010864,2.2908451557159424,-13.369884490966797,-5.022116661071777,1.2359381914138794,2.522873878479004,4.8117594718933105,-2.5659008026123047,1.7048943042755127,-2.7063868045806885
364,202386,202388,-0.006258037872612476,-0.07119090110063553,0.9354945421218872,4.992925643920898,-17.893890380859375,-4.351998329162598,1.2284384965896606,2.524373769760132,4.8102593421936035,-2.177841901779175,1.7105557918548584,-2.691121816635132
365,202396,202398,0.01552996039390564,-0.05943126603960991,0.9013566970825195,-1.1861432790756226,-21.785503387451172,-4.536246299743652,1.2284384965896606,2.5273735523223877,4.822258949279785,-2.0911779403686523,1.8292940855026245,-2.738821029663086
366,202406,202408,-0.01008529495447874,-0.029103374108672142,0.9572834968566895,-14.065309524536133,-22.31856918334961,-2.339324474334717,1.2299385070800781,2.5288734436035156,4.823758602142334,-1.883931040763855,1.7159613370895386,-2.817546844482422
367,202416,202418,-0.04428154230117798,-0.06366734951734543,1.0006821155548096,-27.76641082763672,-16.056724548339844,-2.2149758338928223,1.2359381914138794,2.5348732471466064,4.823758602142334,-1.7840700149536133,1.5268580913543701,-2.8860745429992676
368,202426,202428,-0.044503070414066315,-0.05726006627082825,1.024070143699646,-38.36399459838867,-9.210331916809082,-1.921565294265747,1.2299385070800781,2.540872812271118,4.844757556915283,-1.6561944484710693,1.2797073125839233,-2.887660503387451
369,202436,202438,-0.042812712490558624,-0.06261276453733444,1.0031940937042236,-44.92880630493164,-1.8267531394958496,-2.375640630722046,1.2374380826950073,2.5603718757629395,4.831258296966553,-1.6253583431243896,0.9425373673439026,-2.8941092491149902
370,202446,202448,-0.05011654272675514,-0.05482262745499611,1.0182429552078247,-44.46549987792969,6.339907646179199,-1.3168013095855713,1.2389379739761353,2.5558722019195557,4.814759254455566,-1.6553449630737305,0.48466378450393677,-2.9240851402282715
371,202456,202458,-0.05316691845655441,-0.05563968047499657,1.00678288936615,-40.70576477050781,7.984774112701416,-1.7849136590957642,1.2374380826950073,2.5513722896575928,4.816258907318115,-1.7598934173583984,0.33982643485069275,-2.817166566848755
372,202466,202468,-0.06843220442533493,-0.06935124099254608,1.0198283195495605,-33.01253890991211,4.714587688446045,-2.416569948196411,1.2299385070800781,2.543872833251953,4.820758819580078,-1.8539068698883057,-0.28458088636398315,-2.9504647254943848
373,202476,202478,-0.07278861105442047,-0.05696363002061844,1.0304067134857178,-24.310976028442383,-3.6748180389404297,-2.7518301010131836,1.2359381914138794,2.549872398376465,4.820758819580078,-1.8405497074127197,-0.5605544447898865,-2.954756498336792
374,202486,202488,-0.027039699256420135,-0.018457306548953056,1.0295881032943726,-11.836407661437988,-7.834247589111328,-1.3706088066101074,1.2239388227462769,2.5588719844818115,4.8117594718933105,-1.716676115989685,-0.594437301158905,-2.8823161125183105
375,202496,202498,-0.04228607192635536,-0.05879314988851547,1.0038371086120605,0.936943531036377,-9.26531982421875,0.5504744052886963,1.231438398361206,2.5573720932006836,4.828258514404297,-1.552144169807434,-0.6489033102989197,-2.8602511882781982
376,202506,202508,0.032774705439805984,0.0037650642916560173,1.0057711601257324,10.792595863342285,-11.42635726928711,3.0622448921203613,1.2344383001327515,2.5543723106384277,4.828258514404297,-1.3642222881317139,-0.4267827868461609,-2.7519352436065674
377,202516,202518,0.07818794995546341,0.030632421374320984,0.9940335750579834,12.925008773803711,-13.354493141174316,4.7611799240112305,1.232938289642334,2.5618717670440674,4.83275842666626,-1.3171390295028687,-0.25687363743782043,-2.6999404430389404
378,202526,202528,0.0685228630900383,-0.01787620410323143,0.984990119934082,4.132291316986084,-12.590160369873047,7.021489143371582,1.2419378757476807,2.5648717880249023,4.82675838470459,-1.2528867721557617,-0.07519309967756271,-2.6176812648773193
379,202536,202538,-0.047705844044685364,-0.09299551695585251,0.968941867351532,-15.15943717956543,-15.038542747497559,7.073902130126953,1.2389379739761353,2.543872833251953,4.82675838470459,-1.0170493125915527,-0.26983514428138733,-2.6169745922088623
380,202546,202548,-0.024975432083010674,-0.04217485710978508,1.0080771446228027,-34.116477966308594,-18.7899112701416,6.778353691101074,1.2359381914138794,2.5528724193573,4.817759037017822,-1.0234273672103882,-0.5674671530723572,-2.5938682556152344
381,202556,202558,-0.008845820091664791,-0.07022049278020859,0.9892456531524658,-47.706634521484375,-21.838096618652344,5.629621505737305,1.232938289642334,2.549872398376465,4.829758644104004,-0.6874794960021973,-0.9767059087753296,-2.526761054992676
382,202566,202568,-0.01353187020868063,-0.02460058219730854,1.0129821300506592,-54.500755310058594,-21.045883178710938,5.364136219024658,1.2419378757476807,2.570871353149414,4.829758644104004,-0.7487072348594666,-1.2053378820419312,-2.371788501739502
383,202576,202578,-0.06164010241627693,-0.05709310621023178,1.0153495073318481,-49.226261138916016,-17.519315719604492,5.237663745880127,1.2434377670288086,2.5633718967437744,4.834258079528809,-0.4118150770664215,-1.8885244131088257,-2.3632876873016357
384,202586,202588,-0.01604583114385605,0.0016657502856105566,1.0352084636688232,-36.13078689575195,-15.972535133361816,5.598003387451172,1.2419378757476807,2.576871156692505,4.829758644104004,-0.26119714975357056,-2.279080867767334,-2.2788708209991455
385,202596,202598,-0.019425060600042343,-0.01711348257958889,1.0255882740020752,-21.572551727294922,-14.500265121459961,6.147060871124268,1.2434377670288086,2.5543723106384277,4.804259777069092,-0.13115805387496948,-2.4963455200195312,-2.180567979812622
386,202606,202608,-0.04241630807518959,-0.0383002907037735,1.0171011686325073,-12.479317665100098,-11.324390411376953,5.603623867034912,1.2494374513626099,2.5573720932006836,4.816258907318115,0.04335116595029831,-2.6687097549438477,-2.113342046737671
387,202616,202618,-0.08955337852239609,-0.04549673944711685,1.0498123168945312,-6.329402446746826,-7.872411251068115,5.3296003341674805,1.2344383001327515,2.548372507095337,4.831258296966553,0.23733967542648315,-2.648610830307007,-2.030696153640747
388,202626,202628,-0.05418366193771362,-0.0556160993874073,1.0098096132278442,0.35909387469291687,-5.815471649169922,5.651203632354736,1.232938289642334,2.5618717670440674,4.823758602142334,0.0879322737455368,-2.6630239486694336,-1.927100419998169
389,202636,202638,-0.05554211139678955,-0.04294520616531372,1.0193971395492554,5.142019748687744,-4.840339660644531,6.477501392364502,1.246437668800354,2.5633718967437744,4.828258514404297,0.19852951169013977,-2.7274069786071777,-1.8963645696640015
390,202646,202648,-0.04169562831521034,-0.03857390955090523,1.0146141052246094,9.572664260864258,-7.643813133239746,8.365724563598633,1.2509374618530273,2.5588719844818115,4.82675838470459,0.25081977248191833,-2.4241394996643066,-1.77671217918396
391,202656,202658,-0.03298325836658478,-0.04059819132089615,0.9495477080345154,10.412345886230469,-6.504404544830322,10.764688491821289,1.2404379844665527,2.5633718967437744,4.825258731842041,0.38922232389450073,-2.4376015663146973,-1.7228716611862183
392,202666,202668,-0.020693954080343246,-0.026697445660829544,0.9810290336608887,-0.10609103739261627,-3.744300365447998,12.544843673706055,1.2509374618530273,2.567871570587158,4.8117594718933105,0.48676440119743347,-2.3067429065704346,-1.6128065586090088
393,202676,202678,-0.08000948280096054,-0.0680103749036789,0.9890981316566467,-10.020207405090332,2.0985100269317627,13.495646476745605,1.247937560081482,2.5588719844818115,4.817759037017822,0.4470963776111603,-2.44118332862854,-1.4788435697555542
394,202686,202688,-0.09098870307207108,-0.07047825306653976,1.0029973983764648,-20.482913970947266,12.683077812194824,14.390424728393555,1.2404379844665527,2.5603718757629395,4.831258296966553,0.19884155690670013,-2.579817295074463,-1.2818081378936768
395,202696,202698,-0.08059736341238022,-0.018294017761945724,1.0098026990890503,-24.23110008239746,19.631948471069336,15.16865348815918,1.2374380826950073,2.5813708305358887,4.828258514404297,-0.02550826594233513,-2.760587215423584,-1.1117786169052124
396,202706,202708,-0.03322450816631317,-0.027523299679160118,1.0229613780975342,-21.80113983154297,14.819326400756836,15.172080039978027,1.2389379739761353,2.5858707427978516,4.835758209228516,-0.28778931498527527,-2.8901827335357666,-0.9343410134315491
397,202716,202718,-0.04158865660429001,-0.04254802316427231,1.0219848155975342,-15.971244812011719,-2.5046470165252686,14.092206954956055,1.246437668800354,2.599370002746582,4.8372578620910645,-0.3531140387058258,-3.1592979431152344,-0.8130143284797668
398,202726,202728,-0.03974335268139839,-0.043733950704336166,1.017770528793335,-7.473211765289307,-22.045019149780273,13.921619415283203,1.2404379844665527,2.5663716793060303,4.831258296966553,-0.0487278513610363,-3.1640264987945557,-0.7509244680404663
399,202736,202738,-0.02336394600570202,-0.010466772131621838,1.0302300453186035,0.6294840574264526,-36.1173095703125,16.2913818359375,1.2419378757476807,2.570871353149414,4.83275842666626,0.3126489520072937,-3.2432668209075928,-0.6379625201225281
400,202746,202748,-0.05356810614466667,-0.013507694005966187,1.0207082033157349,3.868609666824341,-38.121681213378906,20.123531341552734,1.2374380826950073,2.5843708515167236,4.849257469177246,0.6606572270393372,-3.2929635047912598,-0.43988311290740967
401,202756,202758,-0.0437292642891407,-0.028623193502426147,0.9901936054229736,0.086590476334095,-25.84917640686035,24.36638641357422,1.2359381914138794,2.576871156692505,4.844757556915283,1.0520827770233154,-3.125861406326294,-0.22711779177188873
402,202766,202768,-0.016355499625205994,-0.03548671677708626,0.9932659864425659,-6.6631059646606445,-11.850299835205078,25.860166549682617,1.2404379844665527,2.5663716793060303,4.8372578620910645,1.1392167806625366,-3.278197765350342,0.08569851517677307
403,202776,202778,-0.01000310480594635,-0.07279927283525467,0.984289824962616,-15.924257278442383,1.489669919013977,26.861642837524414,1.2569371461868286,2.576871156692505,4.83275842666626,1.2003065347671509,-3.470012903213501,0.34437650442123413
404,202786,202788,-0.03308204934000969,-0.08822435885667801,0.9502795338630676,-28.89227294921875,12.696626663208008,27.778532028198242,1.2524373531341553,2.5813708305358887,4.843257904052734,1.0709689855575562,-3.6317269802093506,0.641083836555481
405,202796,202798,-0.07010380923748016,-0.04933638498187065,0.9467281103134155,-38.78530502319336,23.104951858520508,29.45075225830078,1.244937777519226,2.5798709392547607,4.844757556915283,0.7612152099609375,-3.9085700511932373,0.9736366868019104
406,202806,202808,-0.03721948340535164,-0.020572317764163017,0.9538045525550842,-47.337608337402344,21.33232879638672,30.118776321411133,1.2389379739761353,2.5918703079223633,4.8387579917907715,0.6171934008598328,-4.323262691497803,1.1993865966796875
407,202816,202818,-0.03661206737160683,-0.025023069232702255,0.9766985177993774,-54.52997970581055,10.849349975585938,29.546205520629883,1.246437668800354,2.6053695678710938,4.843257904052734,0.2754243314266205,-4.945735931396484,1.5632827281951904
408,202826,202828,-0.024350835010409355,0.0031479254830628633,0.9947892427444458,-50.12873458862305,-8.063020706176758,27.682777404785156,1.247937560081482,2.5918703079223633,4.844757556915283,0.46248242259025574,-5.428315162658691,1.68899667263031
409,202836,202838,-0.015926014631986618,0.019244512543082237,0.994346022605896,-38.856781005859375,-24.989742279052734,24.145706176757812,1.2554372549057007,2.5903704166412354,4.84625768661499,0.6530689001083374,-5.988371849060059,1.9228463172912598
410,202846,202848,-0.0011618478456512094,-0.002474510809406638,0.9993040561676025,-20.661651611328125,-31.14388656616211,20.052507400512695,1.247937560081482,2.594870090484619,4.835758209228516,0.8193178176879883,-6.290777683258057,2.2352325916290283
411,202856,202858,0.017597531899809837,0.00013931345893070102,0.9947434067726135,10.643184661865234,-23.194015502929688,14.326340675354004,1.2509374618530273,2.5858707427978516,4.8387579917907715,1.1685487031936646,-6.393016338348389,2.383104085922241
412,202866,202868,0.007265251595526934,0.05601862445473671,1.0388344526290894,47.510826110839844,-6.425137519836426,8.343704223632812,1.2644367218017578,2.5813708305358887,4.834258079528809,1.2411810159683228,-6.135653018951416,2.586587429046631
413,202876,202878,0.01292076613754034,0.05417520925402641,1.0551568269729614,69.69554138183594,7.601202964782715,3.411452293395996,1.2419378757476807,2.5918703079223633,4.862756729125977,1.207571268081665,-5.381640434265137,2.669111490249634
414,202886,202888,0.036498621106147766,0.08217592537403107,1.0391483306884766,77.80443572998047,19.44507598876953,-2.063612461090088,1.2539372444152832,2.603869676589966,4.862756729125977,1.1121771335601807,-4.8784918785095215,2.6783809661865234
415,202896,202898,0.04121802747249603,0.08758401870727539,1.026591420173645,73.70561218261719,26.73459243774414,-7.946223735809326,1.2404379844665527,2.6083695888519287,4.861257076263428,0.7272694110870361,-3.995656967163086,2.7463321685791016
416,202906,202908,-0.029976239427924156,0.05943717062473297,1.036485195159912,63.978851318359375,31.475318908691406,-13.660721778869629,1.247937560081482,2.5828707218170166,4.862756729125977,0.5382876396179199,-3.5851502418518066,2.58831787109375
417,202916,202918,-0.03798506781458855,-0.033159807324409485,1.029816746711731,48.60371398925781,24.51022720336914,-17.681440353393555,1.2509374618530273,2.594870090484619,4.868756294250488,0.1648249626159668,-2.800014019012451,2.4641172885894775
418,202926,202928,-0.08468160033226013,-0.0696898102760315,1.0141240358352661,36.31098175048828,12.653240203857422,-20.953006744384766,1.2284384965896606,2.5633718967437744,4.834258079528809,-0.10435262322425842,-2.461181163787842,2.339348077774048
419,202936,202938,-0.12352119386196136,-0.09262784570455551,1.0149340629577637,28.766008377075195,-0.535724937915802,-22.438758850097656,1.2359381914138794,2.5648717880249023,4.8387579917907715,-0.018753904849290848,-2.200972318649292,2.0137879848480225
420,202946,202948,-0.08225949853658676,-0.046069931238889694,1.021452784538269,27.926969528198242,-16.394678115844727,-20.696237564086914,1.246437668800354,2.5543723106384277,4.8372578620910645,0.07746072113513947,-1.8536136150360107,1.770503044128418
421,202956,202958,-0.03802478685975075,-0.0073579587042331696,1.0292829275131226,27.439714431762695,-31.400766372680664,-18.04427719116211,1.2509374618530273,2.5588719844818115,4.829758644104004,0.4959818422794342,-1.6550341844558716,1.4560883045196533
422,202966,202968,-0.04168443754315376,-0.03573276847600937,0.9957067370414734,26.115718841552734,-35.040191650390625,-14.975163459777832,1.2494374513626099,2.5603718757629395,4.825258731842041,0.6906770467758179,-1.4544811248779297,1.3977283239364624
423,202976,202978,-0.02649892307817936,-0.026936255395412445,1.020837664604187,19.246383666992188,-33.52211380004883,-12.541059494018555,1.2539372444152832,2.567871570587158,4.83275842666626,1.1768180131912231,-1.1898387670516968,1.178457260131836
424,202986,202988,-0.023092370480298996,-0.01973448321223259,0.9955174326896667,13.599336624145508,-24.207447052001953,-10.335360527038574,1.2389379739761353,2.5558722019195557,4.83275842666626,1.5572197437286377,-0.9547756314277649,1.0169246196746826
425,202996,202998,-0.06120460480451584,-0.03129586577415466,1.0126200914382935,9.075533866882324,-2.603747844696045,-9.895668029785156,1.2509374618530273,2.543872833251953,4.8387579917907715,1.4478459358215332,-1.0153580904006958,1.0889939069747925
426,203006,203008,-0.09380224347114563,-0.04499392211437225,1.022193193435669,4.4135026931762695,19.92603874206543,-11.096095085144043,1.2509374618530273,2.5528724193573,4.82675838470459,1.357727289199829,-0.9290210604667664,1.0046823024749756
427,203016,203018,-0.1045057624578476,-0.0011740507325157523,1.0638803243637085,4.294137001037598,31.602237701416016,-10.303295135498047,1.2509374618530273,2.5558722019195557,4.841757774353027,0.9922441244125366,-1.08653724193573,0.9798329472541809
428,203026,203028,-0.04543662443757057,-0.008199832402169704,1.088154911994934,8.046408653259277,33.81147003173828,-7.982213497161865,1.2374380826950073,2.5603718757629395,4.843257904052734,0.5397716164588928,-0.9167083501815796,0.9110795259475708
429,203036,203038,-0.023436129093170166,-0.10662894695997238,1.0489273071289062,14.27203369140625,29.070505142211914,-5.961935520172119,1.2374380826950073,2.5663716793060303,4.825258731842041,0.3930550217628479,-0.8810358643531799,0.7764060497283936
430,203046,203048,-0.035874199122190475,-0.13453790545463562,1.0158381462097168,24.817447662353516,17.414520263671875,-2.1977500915527344,1.246437668800354,2.5333733558654785,4.819259166717529,0.1727776676416397,-0.6223361492156982,0.7042253613471985
431,203056,203058,-0.09339606016874313,-0.13480831682682037,1.0033831596374512,30.297822952270508,8.131845474243164,1.3253350257873535,1.2389379739761353,2.5318734645843506,4.82675838470459,-0.020074259489774704,-0.3725503385066986,0.7136495113372803
432,203066,203068,-0.12409147620201111,-0.10373376309871674,1.0472859144210815,26.338327407836914,-0.292853981256485,5.515368938446045,1.244937777519226,2.5348732471466064,4.820758819580078,-0.058207884430885315,-0.2603134512901306,0.7627226710319519
433,203076,203078,-0.15588723123073578,-0.10921408236026764,1.07541024684906,15.123434066772461,-6.006533622741699,9.501365661621094,1.2344383001327515,2.542372941970825,4.8102593421936035,0.019455602392554283,-0.12405793368816376,0.8325188159942627
434,203086,203088,-0.14166466891765594,-0.0812140479683876,1.0751005411148071,4.319859027862549,-9.844273567199707,11.2482328414917,1.2569371461868286,2.5318734645843506,4.802759647369385,0.16663497686386108,0.03579500690102577,0.9185873866081238
435,203096,203098,-0.11190631240606308,0.008900769054889679,1.0831328630447388,-0.70790034532547,-15.549772262573242,11.653059005737305,1.2434377670288086,2.5333733558654785,4.825258731842041,0.3125213086605072,0.06735105812549591,1.02851140499115
436,203106,203108,-0.08958937972784042,0.04064742103219032,1.0608140230178833,0.5587345957756042,-20.0074405670166,10.096508979797363,1.247937560081482,2.543872833251953,4.820758819580078,0.5443346500396729,0.14357276260852814,1.1261965036392212
437,203116,203118,-0.09739138931035995,-0.0003926716453861445,1.055633306503296,6.399717807769775,-13.793681144714355,8.847273826599121,1.2524373531341553,2.5273735523223877,4.807259559631348,0.6769818067550659,0.06103864312171936,1.2341248989105225
438,203126,203128,-0.08074503391981125,-0.021434662863612175,1.0654447078704834,14.861339569091797,0.5860366225242615,10.553974151611328,1.2539372444152832,2.522873878479004,4.817759037017822,0.6399816870689392,0.2579658329486847,1.3231760263442993
439,203136,203138,-0.04662755876779556,-0.06935625523328781,1.0481605529785156,25.157520294189453,13.579838752746582,11.91757869720459,1.244937777519226,2.5318734645843506,4.820758819580078,0.5819504857063293,0.18203140795230865,1.4601619243621826
440,203146,203148,-0.026702100411057472,-0.10565826296806335,1.0674465894699097,33.22422409057617,21.91851234436035,12.698867797851562,1.2524373531341553,2.5333733558654785,4.822258949279785,0.35860031843185425,0.5536664724349976,1.573994517326355
441,203156,203158,-0.020846843719482422,-0.09295453876256943,1.0348870754241943,32.96434783935547,25.480831146240234,13.038994789123535,1.2434377670288086,2.5393729209899902,4.8102593421936035,0.1836393177509308,0.8384313583374023,1.712122917175293
442,203166,203168,-0.056376174092292786,-0.0909021720290184,1.0200623273849487,27.869977951049805,23.635848999023438,11.992154121398926,1.2569371461868286,2.516874074935913,4.808759689331055,-0.2067442238330841,1.1429219245910645,1.8344268798828125
443,203176,203178,-0.11027000844478607,-0.06923216581344604,1.0269721746444702,15.736784934997559,17.799461364746094,10.63020133972168,1.246437668800354,2.524373769760132,4.819259166717529,-0.4470825791358948,1.1651427745819092,1.9654431343078613
444,203186,203188,-0.03210320323705673,-0.0668053850531578,0.9756247401237488,5.384899616241455,7.536091327667236,9.67665958404541,1.244937777519226,2.5138742923736572,4.805759429931641,-0.4914798438549042,1.4392324686050415,2.0792388916015625
445,203196,203198,-0.04164781793951988,-0.019934985786676407,0.9893700480461121,1.9972084760665894,-2.7446138858795166,9.112072944641113,1.2524373531341553,2.5093743801116943,4.79826021194458,-0.45923712849617004,1.4484254121780396,2.1923282146453857
446,203206,203208,-0.05115404352545738,-0.007254004944115877,1.0251072645187378,3.2424635887145996,-9.146360397338867,8.159747123718262,1.2389379739761353,2.5138742923736572,4.7877607345581055,-0.2920486629009247,1.5131744146347046,2.305934190750122
447,203216,203218,0.004832031670957804,-0.032267019152641296,0.9642196893692017,7.078675746917725,-12.462896347045898,6.042859077453613,1.247937560081482,2.5048747062683105,4.790760517120361,-0.19167140126228333,1.4074739217758179,2.3820366859436035
448,203226,203228,0.08041658997535706,-0.01943940855562687,0.958439290523529,11.67824935913086,-12.314680099487305,3.9429688453674316,1.2434377670288086,2.5063745975494385,4.813259124755859,-0.08429209887981415,1.5769256353378296,2.4347939491271973
449,203236,203238,0.06343508511781693,-0.07656404376029968,0.9275799989700317,14.65657901763916,-6.348862648010254,2.0900375843048096,1.2434377670288086,2.5063745975494385,4.807259559631348,-0.011893554590642452,1.7481944561004639,2.4587128162384033
450,203246,203248,0.01869036816060543,-0.09611663967370987,0.9208409786224365,14.112184524536133,3.282460927963257,-0.5321859121322632,1.2539372444152832,2.5018749237060547,4.790760517120361,0.014510830864310265,1.7942912578582764,2.4691622257232666
451,203256,203258,0.026286765933036804,-0.08043181896209717,0.9203030467033386,11.898985862731934,13.032188415527344,-3.344399929046631,1.2494374513626099,2.5093743801116943,4.795259952545166,-0.13060908019542694,1.9609400033950806,2.4340767860412598
452,203266,203268,0.021369697526097298,-0.0652601420879364,0.9419185519218445,8.533767700195312,18.421783447265625,-5.993130207061768,1.2524373531341553,2.515374183654785,4.8102593421936035,-0.3343401551246643,2.151280403137207,2.3856801986694336
453,203276,203278,0.03990419581532478,-0.08259974420070648,0.9545008540153503,6.127315998077393,13.678138732910156,-8.512511253356934,1.2509374618530273,2.5258736610412598,4.814759254455566,-0.6169239282608032,2.2164149284362793,2.2903716564178467
454,203286,203288,0.0486564040184021,-0.09210291504859924,0.9587292075157166,2.6347384452819824,1.1584407091140747,-10.637003898620605,1.2344383001327515,2.521373987197876,4.831258296966553,-0.6191821098327637,2.2964720726013184,2.25852108001709
455,203296,203298,0.00683142663910985,-0.08713991194963455,0.9744078516960144,0.2593863308429718,-11.624791145324707,-13.144835472106934,1.2404379844665527,2.5273735523223877,4.822258949279785,-0.49162226915359497,2.194735527038574,2.1970112323760986
456,203306,203308,-0.04886002093553543,-0.03869492933154106,0.9989141225814819,-3.9788758754730225,-21.487281799316406,-14.207763671875,1.2359381914138794,2.5258736610412598,4.8117594718933105,-0.4405117332935333,2.1047284603118896,2.0107240676879883
457,203316,203318,-0.04511930048465729,-0.04501738399267197,0.9959710240364075,-2.9999732971191406,-22.077247619628906,-12.705714225769043,1.244937777519226,2.5318734645843506,4.820758819580078,-0.2836909890174866,2.1309847831726074,1.8376471996307373
458,203326,203328,-0.0625578910112381,-0.09540458768606186,1.0014170408248901,0.5820634365081787,-17.375150680541992,-10.177582740783691,1.2374380826950073,2.5303733348846436,4.825258731842041,-0.02489577792584896,2.1846044063568115,1.7411667108535767
459,203336,203338,-0.028979049995541573,-0.045993201434612274,0.9781296253204346,6.807770252227783,-6.800194263458252,-7.256145477294922,1.2359381914138794,2.5318734645843506,4.8117594718933105,0.04168598726391792,2.170171022415161,1.5987223386764526
460,203346,203348,-0.016464371234178543,-0.018731607124209404,0.9781354069709778,10.554591178894043,6.60239839553833,-5.180800437927246,1.2509374618530273,2.519873857498169,4.808759689331055,0.056596752256155014,2.311630964279175,1.5258134603500366
461,203356,203358,0.01689988188445568,-0.02956491708755493,0.9468311667442322,11.776762962341309,17.303237915039062,-5.339346408843994,1.2419378757476807,2.5078744888305664,4.820758819580078,-0.06454543024301529,2.4222750663757324,1.4699229001998901
462,203366,203368,0.031373560428619385,-0.021852543577551842,0.9168691039085388,7.334227085113525,20.810102462768555,-6.349210262298584,1.2404379844665527,2.518373966217041,4.8102593421936035,-0.3867051601409912,2.5738611221313477,1.3592032194137573
463,203376,203378,0.04914386197924614,-0.010847740806639194,0.8859379291534424,0.09341642260551453,14.05921745300293,-7.127371311187744,1.2419378757476807,2.5258736610412598,4.814759254455566,-0.5435521006584167,2.6841177940368652,1.3391902446746826
464,203386,203388,0.02729213610291481,-0.03611050173640251,0.9018765687942505,-6.728733062744141,0.38748982548713684,-9.019465446472168,1.2434377670288086,2.524373769760132,4.816258907318115,-0.6797160506248474,2.4707448482513428,1.2492588758468628
465,203396,203398,0.010761146433651447,-0.013936675153672695,0.9763196706771851,-10.524203300476074,-15.02863597869873,-9.933871269226074,1.2434377670288086,2.5123744010925293,4.825258731842041,-0.6236413717269897,2.450861930847168,1.175513744354248
466,203406,203408,0.03866886720061302,0.03300123289227486,1.007800817489624,-8.26151180267334,-27.058259963989258,-9.713852882385254,1.2419378757476807,2.5288734436035156,4.814759254455566,-0.2727799415588379,2.4133057594299316,1.1821701526641846
467,203416,203418,-0.00828541163355112,-0.036702711135149,0.9877840876579285,-1.4175763130187988,-28.004064559936523,-9.288431167602539,1.2404379844665527,2.524373769760132,4.825258731842041,-0.09640608727931976,2.3711986541748047,1.0193099975585938
468,203426,203428,-0.022706639021635056,-0.04530860111117363,0.9903848171234131,5.3475236892700195,-20.751672744750977,-7.144087314605713,1.2389379739761353,2.5318734645843506,4.829758644104004,0.1794690191745758,2.4414846897125244,0.9355880618095398
469,203436,203438,-0.03604402765631676,-0.040813423693180084,0.9942537546157837,9.561502456665039,-13.094523429870605,-5.506504535675049,1.2434377670288086,2.521373987197876,4.828258514404297,0.118022620677948,2.4558963775634766,0.705197811126709
470,203446,203448,-0.1020871251821518,-0.06312888860702515,1.0027323961257935,7.936403751373291,-6.133999824523926,-4.168715000152588,1.2404379844665527,2.5393729209899902,4.819259166717529,0.31134945154190063,2.6327064037323,0.7020719051361084
471,203456,203458,-0.03125707432627678,-0.032728902995586395,1.0073986053466797,0.628394365310669,-2.4749770164489746,-3.2801995277404785,1.2434377670288086,2.518373966217041,4.816258907318115,0.3270213305950165,2.732130289077759,0.6449447274208069
472,203466,203468,-0.027493618428707123,-0.057801105082035065,0.9931208491325378,-9.347587585449219,-5.471203327178955,-3.763550043106079,1.2419378757476807,2.522873878479004,4.802759647369385,0.33383187651634216,2.688958168029785,0.5984194278717041
473,203476,203478,-0.026991289108991623,-0.01642978936433792,1.0256041288375854,-21.022193908691406,-12.801048278808594,-5.372066497802734,1.2494374513626099,2.521373987197876,4.834258079528809,0.3608579635620117,2.531791925430298,0.5244783759117126
474,203486,203488,-0.04287189990282059,-0.04345843568444252,0.9915527701377869,-31.092872619628906,-16.928007125854492,-6.352038860321045,1.2569371461868286,2.5288734436035156,4.817759037017822,0.5593328475952148,2.188556432723999,0.496938019990921
475,203496,203498,0.009200732223689556,0.0005924223223701119,0.9890409111976624,-31.74077606201172,-14.459297180175781,-7.205681324005127,1.2644367218017578,2.5333733558654785,4.822258949279785,0.8969725966453552,1.8342013359069824,0.5415465831756592
476,203506,203508,-0.02643650956451893,-0.017032921314239502,1.0227575302124023,-28.71222496032715,-7.385639667510986,-8.293623924255371,1.2629368305206299,2.540872812271118,4.817759037017822,0.9420925378799438,1.6400179862976074,0.4188939332962036
477,203516,203518,-0.04876956343650818,-0.03710993379354477,1.0146126747131348,-21.342487335205078,2.6764485836029053,-8.14346981048584,1.2494374513626099,2.5393729209899902,4.834258079528809,0.9925838708877563,1.375723958015442,0.3388689160346985
478,203526,203528,-0.029739897698163986,-0.04765169322490692,0.9929370880126953,-11.721563339233398,12.445987701416016,-7.9080305099487305,1.2524373531341553,2.5363731384277344,4.8402581214904785,0.8887932896614075,1.2455905675888062,0.2250651866197586
